absolute_timestamp,accel_x,accel_y,accel_z
1144437077.113,-0.028936,-0.789412,-0.905384
1144437077.134,0.665522,-0.315784,-1.127780
1144437077.142,0.900932,0.302671,-1.182403
1144437077.153,1.006866,1.140327,-1.139485
1144437077.163,1.152035,2.079753,-1.127780
1144437077.172,1.195194,2.608181,-1.038041
1144437077.182,0.716528,1.449555,-1.143387
1144437077.192,0.720451,1.833154,-1.057550
1144437077.202,0.732222,2.263724,-1.026336
1144437077.212,0.622364,2.659066,-1.092665
1144437077.222,0.555665,2.980037,-0.936598
1144437077.232,0.677293,3.171837,-0.842958
1144437077.242,0.598823,3.132694,-0.800039
1144437077.252,0.414419,2.709952,-0.768826
1144437077.262,0.167239,2.118896,-0.718104
1144437077.272,-0.001471,1.324298,-0.612759
1144437077.282,-0.170181,0.396614,-0.507413
1144437077.292,-0.433055,-0.601527,-0.456691
1144437077.302,-0.676312,-1.677953,-0.441085
1144437077.312,-0.899951,-2.664351,-0.464495
1144437077.322,-1.076508,-3.494177,-0.562037
1144437077.332,-1.127514,-4.069576,-0.706399
1144437077.342,-1.052967,-4.335747,-0.889778
1144437077.352,-0.821481,-4.210490,-1.080960
1144437077.362,-0.480137,-3.791662,-1.221420
1144437077.372,-0.087788,-3.075350,-1.365782
1144437077.382,0.304561,-2.202466,-1.424307
1144437077.392,0.689063,-1.176925,-1.400897
1144437077.402,0.995096,-0.033956,-1.357979
1144437077.411,1.206964,1.136412,-1.279945
1144437077.422,1.324669,2.208925,-1.209715
1144437077.431,1.320745,3.128780,-1.143387
1144437077.441,1.238352,3.786378,-1.080960
1144437077.451,1.077489,4.111263,-1.034140
1144437077.461,0.869544,4.111263,-0.975615
1144437077.471,0.638058,3.766807,-0.905384
1144437077.481,0.394801,3.120951,-0.823449
1144437077.491,0.167239,2.255896,-0.718104
1144437077.501,-0.068171,1.249926,-0.593250
1144437077.511,-0.334968,0.150015,-0.507413
1144437077.521,-0.574301,-1.000783,-0.441085
1144437077.531,-0.817558,-2.096780,-0.409871
1144437077.540,-1.009809,-3.024464,-0.464495
1144437077.551,-1.139284,-3.713377,-0.558135
1144437077.561,-1.166748,-4.151776,-0.718104
1144437077.570,-1.041197,-4.284861,-0.920991
1144437077.581,-0.778323,-4.104805,-1.084862
1144437077.591,-0.417361,-3.611606,-1.256535
1144437077.601,0.010299,-2.844407,-1.365782
1144437077.611,0.410495,-1.916724,-1.377487
1144437077.622,0.747916,-0.899012,-1.393094
1144437077.631,1.006866,0.236129,-1.315060
1144437077.641,1.195194,1.367355,-1.256535
1144437077.651,1.297205,2.381153,-1.205813
1144437077.660,1.281511,3.222722,-1.123878
1144437077.670,1.187347,3.841178,-1.080960
1144437077.680,1.018637,4.169977,-1.041943
1144437077.690,0.806768,4.138663,-0.987320
1144437077.700,0.579206,3.766807,-0.920991
1144437077.710,0.339873,3.109208,-0.835154
1144437077.720,0.116233,2.224581,-0.725907
1144437077.730,-0.127023,1.210784,-0.628365
1144437077.740,-0.362433,0.106958,-0.526922
1144437077.750,-0.601766,-0.989040,-0.472298
1144437077.760,-0.829328,-2.038066,-0.456691
1144437077.770,-1.025503,-2.950093,-0.507413
1144437077.780,-1.131437,-3.623348,-0.643972
1144437077.790,-1.131437,-4.003033,-0.792236
1144437077.800,-1.001962,-4.081319,-0.960008
1144437077.810,-0.743011,-3.842548,-1.123878
1144437077.820,-0.378127,-3.306292,-1.283847
1144437077.830,0.010299,-2.570408,-1.377487
1144437077.840,0.422266,-1.642724,-1.412602
1144437077.850,0.767533,-0.593698,-1.436013
1144437077.859,1.042178,0.533614,-1.416504
1144437077.870,1.234429,1.641354,-1.357979
1144437077.880,1.297205,2.674723,-1.272142
1144437077.890,1.261893,3.512379,-1.244830
1144437077.900,1.101030,4.083863,-1.233125
1144437077.910,0.873467,4.353948,-1.252634
1144437077.920,0.677293,4.299148,-1.237027
1144437077.929,0.477195,3.923378,-1.186305
1144437077.939,0.273173,3.265779,-1.080960
1144437077.949,0.092693,2.498581,-0.975615
1144437077.958,-0.072094,1.660926,-0.827351
1144437077.969,-0.256498,0.776299,-0.671284
1144437077.979,-0.436979,-0.127899,-0.562037
1144437077.989,-0.625306,-1.043840,-0.476200
1144437077.999,-0.794017,-1.846267,-0.464495
1144437078.009,-0.935262,-2.468637,-0.491807
1144437078.019,-1.021579,-2.934436,-0.585447
1144437078.029,-1.060814,-3.243664,-0.671284
1144437078.039,-1.001962,-3.392406,-0.772727
1144437078.049,-0.888181,-3.365006,-0.897581
1144437078.059,-0.676312,-3.114492,-1.049746
1144437078.069,-0.405591,-2.629122,-1.162895
1144437078.079,-0.083865,-2.065466,-1.201912
1144437078.091,0.190780,-1.431353,-1.256535
1144437078.098,0.461501,-0.695469,-1.252634
1144437078.108,0.700834,0.091301,-1.233125
1144437078.118,0.641981,0.494471,-1.018533
1144437078.128,0.347719,0.275272,-0.811744
1144437078.139,0.116233,0.287014,-0.807842
1144437078.149,0.124080,0.435757,-0.862466
1144437078.159,0.120157,0.470985,-0.975615
1144437078.169,0.096616,0.431843,-1.014631
1144437078.179,0.092693,0.377043,-1.010730
1144437078.189,0.057381,0.408357,-1.010730
1144437078.199,0.061305,0.435757,-0.936598
1144437078.208,0.041687,0.463157,-0.928794
1144437078.218,0.010299,0.502300,-0.932696
1144437078.228,-0.009318,0.486643,-0.983418
1144437078.238,-0.017165,0.459243,-1.034140
1144437078.248,-0.005395,0.439671,-1.186305
1144437078.258,-0.005395,0.467071,-1.346274
1144437078.268,0.018146,0.525785,-1.404799
1144437078.279,0.025993,0.580585,-1.447717
1144437078.288,0.022070,0.521871,-1.400897
1144437078.298,0.022070,0.463157,-1.334569
1144437078.308,0.018146,0.424014,-1.272142
1144437078.318,0.010299,0.400528,-1.299454
1144437078.328,0.022070,0.365300,-1.315060
1144437078.338,0.073075,0.416186,-1.303355
1144437078.348,0.104463,0.510128,-1.326766
1144437078.358,0.124080,0.600157,-1.326766
1144437078.368,0.139774,0.643214,-1.311159
1144437078.378,0.139774,0.709756,-1.330667
1144437078.388,0.084846,0.701928,-1.283847
1144437078.398,0.041687,0.568842,-1.256535
1144437078.408,-0.017165,0.478814,-1.221420
1144437078.418,-0.052477,0.490557,-1.182403
1144437078.428,-0.068171,0.533614,-1.104370
1144437078.437,-0.111329,0.588414,-1.096566
1144437078.447,-0.166258,0.576671,-1.073157
1144437078.457,-0.193722,0.576671,-1.038041
1144437078.467,-0.197646,0.588414,-0.940500
1144437078.477,-0.201569,0.545357,-0.800039
1144437078.487,-0.225110,0.502300,-0.714202
1144437078.497,-0.260422,0.478814,-0.753219
1144437078.507,-0.307504,0.416186,-0.749317
1144437078.517,-0.303580,0.384871,-0.757121
1144437078.527,-0.287886,0.361386,-0.772727
1144437078.537,-0.323198,0.341814,-0.729809
1144437078.547,-0.346739,0.322243,-0.663480
1144437078.560,-0.378127,0.357471,-0.620562
1144437078.567,-0.397744,0.392700,-0.538627
1144437078.577,-0.429132,0.326157,-0.507413
1144437078.587,-0.460520,0.243957,-0.499610
1144437078.597,-0.484061,0.165672,-0.554233
1144437078.607,-0.515449,0.095215,-0.558135
1144437078.617,-0.550760,0.087386,-0.589348
1144437078.627,-0.586072,0.134358,-0.542528
1144437078.637,-0.609613,0.165672,-0.487905
1144437078.647,-0.633154,0.181329,-0.452790
1144437078.657,-0.641000,0.126529,-0.425478
1144437078.667,-0.664542,0.040415,-0.495708
1144437078.677,-0.688082,-0.049613,-0.507413
1144437078.687,-0.699853,-0.045699,-0.519118
1144437078.697,-0.719470,-0.006556,-0.472298
1144437078.706,-0.723394,0.016929,-0.409871
1144437078.716,-0.739088,-0.006556,-0.417675
1144437078.726,-0.743011,-0.065271,-0.429380
1144437078.736,-0.746935,-0.057442,-0.460593
1144437078.748,-0.715547,-0.030042,-0.495708
1144437078.756,-0.715547,0.024758,-0.534725
1144437078.766,-0.699853,0.056072,-0.554233
1144437078.776,-0.668465,0.005186,-0.554233
1144437078.786,-0.633154,-0.061356,-0.534725
1144437078.797,-0.637077,-0.092670,-0.487905
1144437078.806,-0.664542,-0.108328,-0.452790
1144437078.817,-0.699853,-0.108328,-0.398166
1144437078.826,-0.719470,-0.100499,-0.335739
1144437078.836,-0.692006,-0.033956,-0.234296
1144437078.846,-0.688082,-0.018299,-0.160164
1144437078.856,-0.719470,-0.026128,-0.082130
1144437078.866,-0.746935,-0.018299,-0.097737
1144437078.875,-0.778323,-0.006556,-0.125049
1144437078.886,-0.805787,-0.030042,-0.132852
1144437078.896,-0.801864,-0.014385,-0.148459
1144437078.906,-0.770476,0.052158,-0.117245
1144437078.916,-0.746935,0.122615,-0.066524
1144437078.925,-0.750858,0.118700,-0.023605
1144437078.936,-0.782246,0.052158,-0.015802
1144437078.946,-0.817558,-0.041785,-0.074327
1144437078.956,-0.852869,-0.092670,-0.121147
1144437078.966,-0.868563,-0.084842,-0.152361
1144437078.976,-0.892104,-0.069185,-0.206984
1144437078.986,-0.911721,-0.139642,-0.246001
1144437078.996,-0.962727,-0.178785,-0.277214
1144437079.005,-1.009809,-0.182699,-0.335739
1144437079.015,-1.041197,-0.170956,-0.394265
1144437079.025,-1.064738,-0.143556,-0.425478
1144437079.035,-1.092202,-0.147470,-0.456691
1144437079.045,-1.123590,-0.186613,-0.460593
1144437079.055,-1.139284,-0.221842,-0.503512
1144437079.065,-1.158902,-0.245327,-0.542528
1144437079.075,-1.154978,-0.221842,-0.604955
1144437079.085,-1.139284,-0.194442,-0.643972
1144437079.095,-1.127514,-0.186613,-0.663480
1144437079.105,-1.123590,-0.170956,-0.655677
1144437079.115,-1.107896,-0.167042,-0.686890
1144437079.125,-1.088279,-0.151385,-0.686890
1144437079.135,-1.056891,-0.135728,-0.655677
1144437079.145,-1.017656,-0.139642,-0.628365
1144437079.155,-0.998038,-0.167042,-0.593250
1144437079.165,-0.994115,-0.155299,-0.577643
1144437079.175,-0.962727,-0.092670,-0.538627
1144437079.185,-0.935262,-0.041785,-0.523020
1144437079.195,-0.915645,0.009101,-0.515217
1144437079.205,-0.899951,0.028672,-0.515217
1144437079.216,-0.864640,0.036501,-0.484003
1144437079.225,-0.848946,0.036501,-0.464495
1144437079.235,-0.856793,0.001272,-0.417675
1144437079.245,-0.864640,-0.026128,-0.441085
1144437079.255,-0.856793,-0.041785,-0.413773
1144437079.265,-0.852869,-0.045699,-0.417675
1144437079.275,-0.852869,-0.049613,-0.390363
1144437079.285,-0.856793,-0.057442,-0.409871
1144437079.294,-0.860716,-0.077013,-0.409871
1144437079.304,-0.860716,-0.080928,-0.425478
1144437079.314,-0.880334,-0.104413,-0.437183
1144437079.324,-0.860716,-0.135728,-0.429380
1144437079.334,-0.852869,-0.155299,-0.448888
1144437079.344,-0.856793,-0.139642,-0.421576
1144437079.354,-0.872486,-0.123985,-0.444986
1144437079.364,-0.892104,-0.131813,-0.460593
1144437079.374,-0.899951,-0.151385,-0.460593
1144437079.384,-0.880334,-0.159213,-0.476200
1144437079.394,-0.888181,-0.143556,-0.503512
1144437079.404,-0.888181,-0.155299,-0.495708
1144437079.414,-0.896027,-0.159213,-0.530823
1144437079.424,-0.899951,-0.174870,-0.515217
1144437079.434,-0.915645,-0.147470,-0.519118
1144437079.444,-0.923492,-0.139642,-0.503512
1144437079.454,-0.923492,-0.123985,-0.511315
1144437079.464,-0.927415,-0.112242,-0.487905
1144437079.474,-0.939186,-0.116156,-0.472298
1144437079.484,-0.947033,-0.116156,-0.487905
1144437079.494,-0.943109,-0.104413,-0.480101
1144437079.504,-0.935262,-0.096585,-0.480101
1144437079.514,-0.927415,-0.092670,-0.495708
1144437079.524,-0.931339,-0.084842,-0.484003
1144437079.534,-0.927415,-0.073099,-0.495708
1144437079.544,-0.919568,-0.077013,-0.468396
1144437079.554,-0.915645,-0.084842,-0.460593
1144437079.564,-0.919568,-0.104413,-0.448888
1144437079.574,-0.919568,-0.104413,-0.448888
1144437079.584,-0.911721,-0.104413,-0.456691
1144437079.594,-0.915645,-0.084842,-0.480101
1144437079.603,-0.915645,-0.084842,-0.491807
1144437079.613,-0.903874,-0.088756,-0.460593
1144437079.623,-0.876410,-0.100499,-0.456691
1144437079.633,-0.880334,-0.120070,-0.437183
1144437079.643,-0.880334,-0.120070,-0.456691
1144437079.653,-0.884257,-0.135728,-0.441085
1144437079.663,-0.880334,-0.131813,-0.421576
1144437079.673,-0.888181,-0.120070,-0.441085
1144437079.685,-0.892104,-0.112242,-0.413773
1144437079.693,-0.876410,-0.112242,-0.441085
1144437079.703,-0.876410,-0.096585,-0.437183
1144437079.713,-0.868563,-0.100499,-0.441085
1144437079.723,-0.868563,-0.120070,-0.452790
1144437079.733,-0.872486,-0.123985,-0.468396
1144437079.743,-0.860716,-0.120070,-0.460593
1144437079.763,-0.841099,-0.104413,-0.499610
1144437079.773,-0.852869,-0.096585,-0.484003
1144437079.783,-0.852869,-0.116156,-0.487905
1144437079.793,-0.845022,-0.116156,-0.491807
1144437079.803,-0.825405,-0.088756,-0.484003
1144437079.813,-0.833252,-0.080928,-0.495708
1144437079.823,-0.829328,-0.108328,-0.487905
1144437079.833,-0.837175,-0.100499,-0.519118
1144437079.843,-0.825405,-0.088756,-0.519118
1144437079.852,-0.829328,-0.084842,-0.515217
1144437079.863,-0.817558,-0.088756,-0.526922
1144437079.873,-0.805787,-0.108328,-0.511315
1144437079.882,-0.805787,-0.120070,-0.523020
1144437079.892,-0.797940,-0.139642,-0.546430
1144437079.902,-0.790093,-0.147470,-0.534725
1144437079.912,-0.782246,-0.143556,-0.562037
1144437079.922,-0.782246,-0.151385,-0.546430
1144437079.932,-0.778323,-0.151385,-0.573742
1144437079.942,-0.770476,-0.159213,-0.554233
1144437079.952,-0.766552,-0.163127,-0.589348
1144437079.962,-0.766552,-0.163127,-0.581545
1144437079.972,-0.770476,-0.167042,-0.577643
1144437079.982,-0.770476,-0.167042,-0.601053
1144437079.992,-0.766552,-0.174870,-0.604955
1144437080.002,-0.746935,-0.178785,-0.601053
1144437080.012,-0.762629,-0.178785,-0.608857
1144437080.022,-0.758705,-0.163127,-0.601053
1144437080.032,-0.743011,-0.159213,-0.620562
1144437080.042,-0.743011,-0.163127,-0.608857
1144437080.052,-0.743011,-0.170956,-0.597152
1144437080.062,-0.746935,-0.167042,-0.593250
1144437080.072,-0.743011,-0.167042,-0.585447
1144437080.082,-0.743011,-0.174870,-0.585447
1144437080.091,-0.743011,-0.182699,-0.581545
1144437080.102,-0.739088,-0.182699,-0.577643
1144437080.112,-0.723394,-0.170956,-0.589348
1144437080.122,-0.731241,-0.174870,-0.608857
1144437080.131,-0.719470,-0.186613,-0.581545
1144437080.141,-0.707700,-0.198356,-0.554233
1144437080.153,-0.688082,-0.206185,-0.577643
1144437080.161,-0.684159,-0.198356,-0.550332
1144437080.171,-0.684159,-0.182699,-0.573742
1144437080.181,-0.688082,-0.182699,-0.573742
1144437080.191,-0.656694,-0.202270,-0.597152
1144437080.201,-0.637077,-0.206185,-0.585447
1144437080.211,-0.625306,-0.210099,-0.585447
1144437080.221,-0.621383,-0.198356,-0.604955
1144437080.231,-0.609613,-0.190527,-0.604955
1144437080.241,-0.605689,-0.186613,-0.643972
1144437080.251,-0.597842,-0.186613,-0.643972
1144437080.261,-0.582148,-0.178785,-0.647874
1144437080.271,-0.574301,-0.178785,-0.679087
1144437080.281,-0.586072,-0.186613,-0.698595
1144437080.291,-0.582148,-0.202270,-0.725907
1144437080.301,-0.586072,-0.214013,-0.718104
1144437080.311,-0.582148,-0.245327,-0.753219
1144437080.320,-0.593919,-0.241413,-0.772727
1144437080.331,-0.582148,-0.225756,-0.772727
1144437080.341,-0.562531,-0.241413,-0.780531
1144437080.351,-0.566454,-0.260984,-0.807842
1144437080.361,-0.562531,-0.268813,-0.823449
1144437080.371,-0.566454,-0.253156,-0.835154
1144437080.381,-0.578225,-0.241413,-0.827351
1144437080.391,-0.586072,-0.241413,-0.858564
1144437080.400,-0.582148,-0.249242,-0.874171
1144437080.410,-0.562531,-0.264899,-0.839056
1144437080.420,-0.546837,-0.257070,-0.839056
1144437080.430,-0.566454,-0.268813,-0.839056
1144437080.440,-0.574301,-0.304041,-0.854663
1144437080.450,-0.570378,-0.304041,-0.839056
1144437080.460,-0.542913,-0.315784,-0.827351
1144437080.470,-0.538990,-0.315784,-0.807842
1144437080.480,-0.546837,-0.319699,-0.788334
1144437080.490,-0.546837,-0.311870,-0.749317
1144437080.500,-0.578225,-0.300127,-0.745416
1144437080.510,-0.582148,-0.272727,-0.745416
1144437080.520,-0.601766,-0.257070,-0.737612
1144437080.530,-0.593919,-0.249242,-0.757121
1144437080.540,-0.582148,-0.264899,-0.776629
1144437080.551,-0.589995,-0.268813,-0.776629
1144437080.560,-0.586072,-0.280556,-0.768826
1144437080.570,-0.566454,-0.288384,-0.780531
1144437080.580,-0.566454,-0.296213,-0.807842
1144437080.590,-0.554684,-0.292299,-0.800039
1144437080.600,-0.542913,-0.300127,-0.835154
1144437080.610,-0.542913,-0.304041,-0.835154
1144437080.620,-0.523296,-0.288384,-0.850761
1144437080.630,-0.527219,-0.272727,-0.850761
1144437080.640,-0.523296,-0.253156,-0.854663
1144437080.650,-0.531143,-0.241413,-0.839056
1144437080.660,-0.511525,-0.241413,-0.835154
1144437080.670,-0.499755,-0.257070,-0.854663
1144437080.680,-0.472290,-0.276641,-0.839056
1144437080.690,-0.456596,-0.288384,-0.831253
1144437080.699,-0.448749,-0.288384,-0.854663
1144437080.709,-0.460520,-0.268813,-0.839056
1144437080.719,-0.472290,-0.241413,-0.846859
1144437080.729,-0.476214,-0.229670,-0.850761
1144437080.739,-0.468367,-0.225756,-0.854663
1144437080.749,-0.460520,-0.245327,-0.858564
1144437080.759,-0.460520,-0.260984,-0.850761
1144437080.769,-0.444826,-0.257070,-0.858564
1144437080.779,-0.464443,-0.264899,-0.846859
1144437080.789,-0.468367,-0.296213,-0.846859
1144437080.799,-0.476214,-0.304041,-0.866368
1144437080.810,-0.464443,-0.307956,-0.889778
1144437080.819,-0.460520,-0.304041,-0.905384
1144437080.829,-0.460520,-0.292299,-0.928794
1144437080.839,-0.468367,-0.296213,-0.936598
1144437080.849,-0.468367,-0.284470,-0.971713
1144437080.859,-0.487984,-0.260984,-0.944401
1144437080.869,-0.491908,-0.272727,-0.983418
1144437080.879,-0.476214,-0.288384,-0.995123
1144437080.889,-0.460520,-0.296213,-0.999025
1144437080.899,-0.440902,-0.292299,-0.979516
1144437080.909,-0.444826,-0.264899,-0.983418
1144437080.919,-0.448749,-0.245327,-0.952205
1144437080.929,-0.448749,-0.237499,-0.960008
1144437080.939,-0.433055,-0.257070,-0.956106
1144437080.949,-0.433055,-0.276641,-0.924893
1144437080.959,-0.425208,-0.268813,-0.920991
1144437080.969,-0.425208,-0.264899,-0.897581
1144437080.979,-0.413438,-0.276641,-0.881974
1144437080.989,-0.405591,-0.276641,-0.866368
1144437080.999,-0.413438,-0.272727,-0.842958
1144437081.008,-0.417361,-0.260984,-0.850761
1144437081.018,-0.405591,-0.257070,-0.870269
1144437081.028,-0.393821,-0.268813,-0.854663
1144437081.038,-0.389897,-0.272727,-0.870269
1144437081.048,-0.385974,-0.272727,-0.854663
1144437081.139,-0.393821,-0.272727,-0.850761
1144437081.140,-0.382050,-0.272727,-0.854663
1144437081.140,-0.370280,-0.280556,-0.881974
1144437081.141,-0.358509,-0.300127,-0.897581
1144437081.141,-0.350662,-0.296213,-0.885876
1144437081.142,-0.334968,-0.304041,-0.928794
1144437081.142,-0.346739,-0.304041,-0.936598
1144437081.142,-0.342815,-0.315784,-0.948303
1144437081.143,-0.331045,-0.327527,-0.940500
1144437081.148,-0.323198,-0.304041,-0.940500
1144437081.158,-0.331045,-0.300127,-0.940500
1144437081.168,-0.331045,-0.296213,-0.932696
1144437081.178,-0.323198,-0.284470,-0.928794
1144437081.188,-0.319274,-0.272727,-0.893679
1144437081.198,-0.315351,-0.268813,-0.874171
1144437081.208,-0.327121,-0.288384,-0.850761
1144437081.218,-0.366356,-0.296213,-0.874171
1144437081.228,-0.378127,-0.300127,-0.885876
1144437081.238,-0.366356,-0.280556,-0.893679
1144437081.247,-0.346739,-0.284470,-0.881974
1144437081.258,-0.331045,-0.300127,-0.905384
1144437081.268,-0.331045,-0.300127,-0.889778
1144437081.279,-0.342815,-0.264899,-0.928794
1144437081.288,-0.370280,-0.241413,-0.936598
1144437081.298,-0.346739,-0.245327,-0.944401
1144437081.308,-0.327121,-0.276641,-0.979516
1144437081.318,-0.334968,-0.315784,-0.975615
1144437081.328,-0.350662,-0.323613,-0.975615
1144437081.338,-0.350662,-0.319699,-0.956106
1144437081.347,-0.366356,-0.315784,-0.940500
1144437081.357,-0.354586,-0.280556,-0.940500
1144437081.367,-0.342815,-0.300127,-0.936598
1144437081.377,-0.331045,-0.319699,-0.960008
1144437081.387,-0.323198,-0.311870,-0.960008
1144437081.397,-0.311427,-0.288384,-0.963910
1144437081.407,-0.331045,-0.268813,-0.948303
1144437081.417,-0.323198,-0.245327,-0.936598
1144437081.427,-0.323198,-0.264899,-0.936598
1144437081.437,-0.331045,-0.300127,-0.944401
1144437081.447,-0.319274,-0.315784,-0.975615
1144437081.457,-0.342815,-0.319699,-0.956106
1144437081.467,-0.346739,-0.323613,-0.944401
1144437081.476,-0.366356,-0.311870,-0.960008
1144437081.487,-0.378127,-0.296213,-0.948303
1144437081.497,-0.358509,-0.280556,-0.932696
1144437081.507,-0.358509,-0.268813,-0.913188
1144437081.517,-0.370280,-0.257070,-0.924893
1144437081.526,-0.366356,-0.268813,-0.905384
1144437081.537,-0.370280,-0.268813,-0.878073
1144437081.547,-0.366356,-0.284470,-0.858564
1144437081.557,-0.382050,-0.300127,-0.885876
1144437081.567,-0.397744,-0.304041,-0.905384
1144437081.576,-0.382050,-0.288384,-0.893679
1144437081.587,-0.358509,-0.288384,-0.913188
1144437081.597,-0.315351,-0.292299,-0.905384
1144437081.607,-0.291810,-0.268813,-0.920991
1144437081.617,-0.287886,-0.272727,-0.913188
1144437081.626,-0.299657,-0.257070,-0.917089
1144437081.636,-0.291810,-0.272727,-0.936598
1144437081.646,-0.315351,-0.284470,-0.944401
1144437081.656,-0.327121,-0.300127,-0.956106
1144437081.666,-0.331045,-0.315784,-0.983418
1144437081.676,-0.331045,-0.339270,-0.995123
1144437081.686,-0.311427,-0.323613,-0.967811
1144437081.696,-0.307504,-0.296213,-1.006828
1144437081.706,-0.303580,-0.300127,-1.002926
1144437081.716,-0.315351,-0.311870,-1.038041
1144437081.726,-0.319274,-0.319699,-1.045845
1144437081.736,-0.323198,-0.304041,-1.057550
1144437081.748,-0.334968,-0.315784,-1.084862
1144437081.756,-0.331045,-0.358841,-1.100468
1144437081.766,-0.327121,-0.401898,-1.127780
1144437081.776,-0.331045,-0.429298,-1.155092
1144437081.786,-0.323198,-0.429298,-1.155092
1144437081.796,-0.303580,-0.409727,-1.158993
1144437081.806,-0.303580,-0.374498,-1.135583
1144437081.816,-0.319274,-0.354927,-1.147288
1144437081.826,-0.327121,-0.339270,-1.162895
1144437081.836,-0.319274,-0.323613,-1.143387
1144437081.845,-0.311427,-0.319699,-1.147288
1144437081.855,-0.315351,-0.331441,-1.131682
1144437081.866,-0.319274,-0.351013,-1.100468
1144437081.876,-0.323198,-0.362756,-1.116075
1144437081.886,-0.350662,-0.347098,-1.092665
1144437081.895,-0.378127,-0.327527,-1.088763
1144437081.905,-0.393821,-0.331441,-1.104370
1144437081.915,-0.409515,-0.335356,-1.123878
1144437081.925,-0.405591,-0.343184,-1.104370
1144437081.935,-0.397744,-0.331441,-1.100468
1144437081.945,-0.393821,-0.311870,-1.073157
1144437081.955,-0.393821,-0.304041,-1.077058
1144437081.965,-0.405591,-0.304041,-1.057550
1144437081.975,-0.401668,-0.315784,-1.069255
1144437081.985,-0.401668,-0.327527,-1.061451
1144437081.995,-0.425208,-0.339270,-1.041943
1144437082.005,-0.448749,-0.347098,-1.041943
1144437082.015,-0.448749,-0.347098,-1.030238
1144437082.025,-0.448749,-0.335356,-1.018533
1144437082.035,-0.425208,-0.327527,-1.006828
1144437082.045,-0.409515,-0.315784,-0.967811
1144437082.055,-0.413438,-0.327527,-0.963910
1144437082.065,-0.433055,-0.300127,-0.920991
1144437082.075,-0.440902,-0.280556,-0.901483
1144437082.085,-0.436979,-0.284470,-0.893679
1144437082.095,-0.417361,-0.292299,-0.897581
1144437082.105,-0.433055,-0.304041,-0.885876
1144437082.115,-0.436979,-0.315784,-0.881974
1144437082.125,-0.440902,-0.304041,-0.893679
1144437082.134,-0.425208,-0.304041,-0.866368
1144437082.145,-0.433055,-0.311870,-0.881974
1144437082.155,-0.444826,-0.315784,-0.854663
1144437082.165,-0.444826,-0.304041,-0.870269
1144437082.175,-0.448749,-0.315784,-0.920991
1144437082.185,-0.452673,-0.307956,-0.924893
1144437082.194,-0.456596,-0.304041,-0.936598
1144437082.204,-0.468367,-0.292299,-0.920991
1144437082.216,-0.464443,-0.304041,-0.940500
1144437082.224,-0.468367,-0.315784,-0.920991
1144437082.234,-0.464443,-0.315784,-0.920991
1144437082.244,-0.468367,-0.311870,-0.905384
1144437082.254,-0.480137,-0.315784,-0.897581
1144437082.264,-0.480137,-0.323613,-0.909286
1144437082.274,-0.503678,-0.331441,-0.948303
1144437082.284,-0.515449,-0.319699,-0.960008
1144437082.294,-0.507602,-0.296213,-0.897581
1144437082.304,-0.515449,-0.253156,-0.901483
1144437082.314,-0.535066,-0.260984,-0.897581
1144437082.324,-0.535066,-0.292299,-0.917089
1144437082.334,-0.542913,-0.319699,-0.917089
1144437082.344,-0.527219,-0.315784,-0.924893
1144437082.354,-0.535066,-0.323613,-0.924893
1144437082.364,-0.538990,-0.307956,-0.917089
1144437082.374,-0.542913,-0.311870,-0.901483
1144437082.384,-0.546837,-0.304041,-0.893679
1144437082.394,-0.542913,-0.296213,-0.870269
1144437082.404,-0.535066,-0.260984,-0.878073
1144437082.414,-0.519372,-0.245327,-0.850761
1144437082.424,-0.531143,-0.241413,-0.827351
1144437082.434,-0.527219,-0.249242,-0.839056
1144437082.444,-0.535066,-0.249242,-0.846859
1144437082.454,-0.527219,-0.264899,-0.842958
1144437082.464,-0.531143,-0.272727,-0.807842
1144437082.474,-0.531143,-0.260984,-0.811744
1144437082.484,-0.531143,-0.257070,-0.796137
1144437082.494,-0.535066,-0.249242,-0.811744
1144437082.503,-0.527219,-0.245327,-0.772727
1144437082.513,-0.515449,-0.221842,-0.698595
1144437082.523,-0.531143,-0.225756,-0.694694
1144437082.533,-0.523296,-0.229670,-0.682989
1144437082.544,-0.531143,-0.253156,-0.706399
1144437082.553,-0.527219,-0.253156,-0.722005
1144437082.563,-0.531143,-0.260984,-0.694694
1144437082.573,-0.542913,-0.257070,-0.710300
1144437082.583,-0.542913,-0.264899,-0.722005
1144437082.593,-0.550760,-0.264899,-0.729809
1144437082.603,-0.554684,-0.253156,-0.690792
1144437082.613,-0.550760,-0.245327,-0.694694
1144437082.623,-0.550760,-0.237499,-0.686890
1144437082.633,-0.562531,-0.237499,-0.682989
1144437082.643,-0.558607,-0.221842,-0.675185
1144437082.653,-0.558607,-0.214013,-0.679087
1144437082.663,-0.570378,-0.206185,-0.659579
1144437082.673,-0.570378,-0.229670,-0.671284
1144437082.684,-0.586072,-0.233584,-0.663480
1144437082.693,-0.593919,-0.237499,-0.690792
1144437082.703,-0.582148,-0.214013,-0.655677
1144437082.713,-0.578225,-0.214013,-0.655677
1144437082.723,-0.582148,-0.210099,-0.624464
1144437082.733,-0.597842,-0.214013,-0.612759
1144437082.743,-0.609613,-0.214013,-0.589348
1144437082.753,-0.617460,-0.217927,-0.604955
1144437082.763,-0.629230,-0.225756,-0.593250
1144437082.773,-0.633154,-0.225756,-0.597152
1144437082.783,-0.656694,-0.217927,-0.608857
1144437082.793,-0.668465,-0.233584,-0.620562
1144437082.803,-0.652771,-0.233584,-0.597152
1144437082.813,-0.652771,-0.237499,-0.604955
1144437082.832,-0.672388,-0.237499,-0.573742
1144437082.842,-0.676312,-0.229670,-0.554233
1144437082.852,-0.688082,-0.221842,-0.554233
1144437082.862,-0.707700,-0.214013,-0.565938
1144437082.873,-0.707700,-0.198356,-0.585447
1144437082.882,-0.695929,-0.202270,-0.577643
1144437082.892,-0.711623,-0.210099,-0.585447
1144437082.902,-0.699853,-0.198356,-0.577643
1144437082.912,-0.688082,-0.198356,-0.550332
1144437082.922,-0.688082,-0.210099,-0.526922
1144437082.932,-0.688082,-0.214013,-0.507413
1144437082.942,-0.688082,-0.206185,-0.511315
1144437082.952,-0.688082,-0.202270,-0.495708
1144437082.961,-0.711623,-0.198356,-0.515217
1144437082.972,-0.719470,-0.178785,-0.519118
1144437082.982,-0.719470,-0.155299,-0.550332
1144437082.992,-0.715547,-0.143556,-0.538627
1144437083.002,-0.719470,-0.147470,-0.526922
1144437083.012,-0.723394,-0.163127,-0.526922
1144437083.022,-0.731241,-0.182699,-0.511315
1144437083.032,-0.739088,-0.190527,-0.503512
1144437083.041,-0.743011,-0.178785,-0.491807
1144437083.052,-0.746935,-0.174870,-0.484003
1144437083.062,-0.743011,-0.167042,-0.480101
1144437083.072,-0.770476,-0.163127,-0.472298
1144437083.082,-0.782246,-0.151385,-0.484003
1144437083.092,-0.782246,-0.151385,-0.468396
1144437083.102,-0.774399,-0.147470,-0.468396
1144437083.112,-0.782246,-0.147470,-0.460593
1144437083.121,-0.805787,-0.147470,-0.444986
1144437083.132,-0.813634,-0.163127,-0.480101
1144437083.141,-0.833252,-0.159213,-0.460593
1144437083.153,-0.833252,-0.174870,-0.476200
1144437083.161,-0.837175,-0.174870,-0.472298
1144437083.171,-0.845022,-0.163127,-0.487905
1144437083.181,-0.845022,-0.147470,-0.484003
1144437083.191,-0.845022,-0.143556,-0.484003
1144437083.201,-0.852869,-0.151385,-0.480101
1144437083.211,-0.868563,-0.143556,-0.472298
1144437083.221,-0.880334,-0.127899,-0.472298
1144437083.231,-0.888181,-0.112242,-0.476200
1144437083.241,-0.892104,-0.104413,-0.484003
1144437083.251,-0.896027,-0.088756,-0.460593
1144437083.261,-0.888181,-0.100499,-0.456691
1144437083.271,-0.907798,-0.084842,-0.468396
1144437083.281,-0.915645,-0.092670,-0.476200
1144437083.291,-0.911721,-0.104413,-0.460593
1144437083.301,-0.915645,-0.108328,-0.468396
1144437083.311,-0.927415,-0.112242,-0.441085
1144437083.320,-0.935262,-0.127899,-0.456691
1144437083.331,-0.935262,-0.123985,-0.456691
1144437083.341,-0.935262,-0.127899,-0.460593
1144437083.351,-0.939186,-0.139642,-0.460593
1144437083.361,-0.943109,-0.139642,-0.441085
1144437083.371,-0.947033,-0.143556,-0.444986
1144437083.381,-0.958803,-0.139642,-0.433281
1144437083.391,-0.958803,-0.135728,-0.433281
1144437083.401,-0.954880,-0.131813,-0.433281
1144437083.411,-0.943109,-0.123985,-0.405970
1144437083.420,-0.950956,-0.127899,-0.405970
1144437083.430,-0.966650,-0.120070,-0.398166
1144437083.440,-0.970574,-0.120070,-0.405970
1144437083.450,-0.966650,-0.123985,-0.409871
1144437083.460,-0.966650,-0.120070,-0.421576
1144437083.470,-0.962727,-0.112242,-0.402068
1144437083.480,-0.954880,-0.092670,-0.413773
1144437083.490,-0.943109,-0.100499,-0.433281
1144437083.500,-0.935262,-0.104413,-0.433281
1144437083.510,-0.931339,-0.100499,-0.421576
1144437083.520,-0.919568,-0.096585,-0.433281
1144437083.530,-0.923492,-0.112242,-0.437183
1144437083.540,-0.927415,-0.123985,-0.452790
1144437083.550,-0.927415,-0.123985,-0.452790
1144437083.560,-0.911721,-0.120070,-0.429380
1144437083.570,-0.923492,-0.112242,-0.441085
1144437083.580,-0.923492,-0.116156,-0.425478
1144437083.590,-0.903874,-0.127899,-0.425478
1144437083.600,-0.923492,-0.139642,-0.425478
1144437083.610,-0.915645,-0.127899,-0.417675
1144437083.620,-0.919568,-0.135728,-0.421576
1144437083.630,-0.915645,-0.123985,-0.425478
1144437083.640,-0.911721,-0.116156,-0.433281
1144437083.650,-0.915645,-0.120070,-0.402068
1144437083.660,-0.919568,-0.116156,-0.444986
1144437083.670,-0.915645,-0.104413,-0.448888
1144437083.680,-0.915645,-0.108328,-0.448888
1144437083.690,-0.907798,-0.104413,-0.437183
1144437083.700,-0.907798,-0.100499,-0.441085
1144437083.710,-0.903874,-0.116156,-0.456691
1144437083.719,-0.911721,-0.135728,-0.452790
1144437083.729,-0.903874,-0.131813,-0.468396
1144437083.739,-0.903874,-0.123985,-0.472298
1144437083.749,-0.903874,-0.120070,-0.472298
1144437083.759,-0.899951,-0.131813,-0.484003
1144437083.769,-0.907798,-0.151385,-0.487905
1144437083.779,-0.903874,-0.151385,-0.476200
1144437083.789,-0.899951,-0.155299,-0.480101
1144437083.799,-0.888181,-0.143556,-0.484003
1144437083.810,-0.888181,-0.151385,-0.499610
1144437083.819,-0.888181,-0.143556,-0.503512
1144437083.829,-0.888181,-0.135728,-0.515217
1144437083.839,-0.872486,-0.131813,-0.495708
1144437083.849,-0.868563,-0.131813,-0.511315
1144437083.859,-0.868563,-0.135728,-0.491807
1144437083.869,-0.868563,-0.147470,-0.472298
1144437083.879,-0.864640,-0.155299,-0.468396
1144437083.889,-0.876410,-0.151385,-0.484003
1144437083.899,-0.868563,-0.159213,-0.491807
1144437083.909,-0.864640,-0.170956,-0.487905
1144437083.919,-0.864640,-0.174870,-0.487905
1144437083.929,-0.860716,-0.167042,-0.472298
1144437083.939,-0.856793,-0.167042,-0.464495
1144437083.949,-0.845022,-0.170956,-0.456691
1144437083.959,-0.841099,-0.163127,-0.452790
1144437083.969,-0.845022,-0.178785,-0.456691
1144437083.979,-0.833252,-0.178785,-0.468396
1144437083.989,-0.829328,-0.174870,-0.472298
1144437083.999,-0.829328,-0.182699,-0.484003
1144437084.009,-0.829328,-0.167042,-0.511315
1144437084.019,-0.817558,-0.170956,-0.487905
1144437084.029,-0.809711,-0.178785,-0.487905
1144437084.039,-0.805787,-0.163127,-0.495708
1144437084.049,-0.805787,-0.170956,-0.484003
1144437084.058,-0.797940,-0.178785,-0.468396
1144437084.068,-0.805787,-0.178785,-0.491807
1144437084.078,-0.817558,-0.182699,-0.491807
1144437084.088,-0.813634,-0.182699,-0.511315
1144437084.098,-0.801864,-0.190527,-0.495708
1144437084.108,-0.790093,-0.186613,-0.491807
1144437084.118,-0.786170,-0.194442,-0.503512
1144437084.128,-0.794017,-0.194442,-0.503512
1144437084.138,-0.790093,-0.217927,-0.495708
1144437084.148,-0.794017,-0.225756,-0.499610
1144437084.158,-0.794017,-0.229670,-0.480101
1144437084.168,-0.797940,-0.221842,-0.503512
1144437084.177,-0.797940,-0.214013,-0.519118
1144437084.188,-0.790093,-0.214013,-0.534725
1144437084.198,-0.782246,-0.210099,-0.534725
1144437084.208,-0.782246,-0.214013,-0.526922
1144437084.218,-0.774399,-0.225756,-0.554233
1144437084.228,-0.774399,-0.221842,-0.554233
1144437084.238,-0.762629,-0.217927,-0.542528
1144437084.248,-0.750858,-0.198356,-0.554233
1144437084.258,-0.735164,-0.202270,-0.589348
1144437084.268,-0.735164,-0.198356,-0.589348
1144437084.279,-0.715547,-0.217927,-0.601053
1144437084.288,-0.703776,-0.221842,-0.608857
1144437084.298,-0.699853,-0.221842,-0.604955
1144437084.308,-0.692006,-0.221842,-0.608857
1144437084.318,-0.692006,-0.229670,-0.632267
1144437084.328,-0.680235,-0.245327,-0.624464
1144437084.338,-0.676312,-0.245327,-0.636169
1144437084.348,-0.672388,-0.233584,-0.640070
1144437084.358,-0.680235,-0.245327,-0.640070
1144437084.367,-0.660618,-0.237499,-0.643972
1144437084.377,-0.656694,-0.241413,-0.632267
1144437084.387,-0.652771,-0.237499,-0.636169
1144437084.397,-0.664542,-0.241413,-0.651775
1144437084.407,-0.652771,-0.225756,-0.643972
1144437084.417,-0.656694,-0.233584,-0.651775
1144437084.427,-0.644924,-0.249242,-0.640070
1144437084.437,-0.648848,-0.257070,-0.663480
1144437084.447,-0.637077,-0.249242,-0.632267
1144437084.457,-0.629230,-0.241413,-0.640070
1144437084.467,-0.617460,-0.237499,-0.632267
1144437084.477,-0.617460,-0.233584,-0.640070
1144437084.487,-0.625306,-0.233584,-0.612759
1144437084.497,-0.633154,-0.241413,-0.612759
1144437084.507,-0.629230,-0.245327,-0.628365
1144437084.517,-0.629230,-0.257070,-0.643972
1144437084.527,-0.629230,-0.233584,-0.655677
1144437084.538,-0.621383,-0.241413,-0.651775
1144437084.547,-0.613536,-0.229670,-0.647874
1144437084.557,-0.617460,-0.245327,-0.647874
1144437084.567,-0.617460,-0.233584,-0.663480
1144437084.577,-0.609613,-0.245327,-0.671284
1144437084.587,-0.605689,-0.268813,-0.686890
1144437084.597,-0.593919,-0.268813,-0.655677
1144437084.607,-0.586072,-0.268813,-0.655677
1144437084.617,-0.601766,-0.280556,-0.651775
1144437084.627,-0.621383,-0.280556,-0.651775
1144437084.637,-0.637077,-0.284470,-0.679087
1144437084.647,-0.648848,-0.292299,-0.682989
1144437084.657,-0.660618,-0.304041,-0.710300
1144437084.666,-0.641000,-0.300127,-0.698595
1144437084.676,-0.633154,-0.288384,-0.694694
1144437084.686,-0.609613,-0.280556,-0.706399
1144437084.696,-0.609613,-0.284470,-0.659579
1144437084.706,-0.621383,-0.276641,-0.686890
1144437084.716,-0.629230,-0.276641,-0.698595
1144437084.726,-0.644924,-0.288384,-0.718104
1144437084.736,-0.684159,-0.288384,-0.725907
1144437084.748,-0.711623,-0.268813,-0.757121
1144437084.756,-0.715547,-0.272727,-0.768826
1144437084.766,-0.703776,-0.284470,-0.768826
1144437084.776,-0.664542,-0.276641,-0.800039
1144437084.786,-0.644924,-0.284470,-0.796137
1144437084.796,-0.625306,-0.280556,-0.803941
1144437084.806,-0.617460,-0.280556,-0.807842
1144437084.816,-0.617460,-0.272727,-0.803941
1144437084.826,-0.625306,-0.268813,-0.835154
1144437084.836,-0.621383,-0.268813,-0.842958
1144437084.845,-0.601766,-0.284470,-0.846859
1144437084.855,-0.589995,-0.288384,-0.850761
1144437084.866,-0.578225,-0.311870,-0.842958
1144437084.875,-0.558607,-0.304041,-0.839056
1144437084.885,-0.558607,-0.300127,-0.846859
1144437084.896,-0.554684,-0.284470,-0.842958
1144437084.969,-0.546837,-0.288384,-0.827351
1144437084.969,-0.546837,-0.284470,-0.831253
1144437084.969,-0.562531,-0.280556,-0.831253
1144437084.969,-0.574301,-0.304041,-0.846859
1144437084.969,-0.578225,-0.304041,-0.881974
1144437084.969,-0.562531,-0.304041,-0.901483
1144437084.969,-0.531143,-0.311870,-0.917089
1144437084.976,-0.507602,-0.331441,-0.909286
1144437084.985,-0.499755,-0.335356,-0.909286
1144437084.995,-0.491908,-0.327527,-0.878073
1144437085.005,-0.491908,-0.331441,-0.854663
1144437085.015,-0.511525,-0.339270,-0.862466
1144437085.025,-0.523296,-0.331441,-0.846859
1144437085.035,-0.531143,-0.331441,-0.846859
1144437085.045,-0.531143,-0.335356,-0.850761
1144437085.055,-0.523296,-0.304041,-0.850761
1144437085.065,-0.519372,-0.296213,-0.831253
1144437085.075,-0.519372,-0.280556,-0.815646
1144437085.085,-0.515449,-0.272727,-0.807842
1144437085.095,-0.511525,-0.280556,-0.780531
1144437085.105,-0.519372,-0.276641,-0.796137
1144437085.115,-0.515449,-0.280556,-0.807842
1144437085.125,-0.515449,-0.284470,-0.819547
1144437085.135,-0.515449,-0.280556,-0.823449
1144437085.145,-0.503678,-0.288384,-0.842958
1144437085.155,-0.495831,-0.292299,-0.811744
1144437085.165,-0.499755,-0.280556,-0.792236
1144437085.175,-0.491908,-0.272727,-0.807842
1144437085.185,-0.464443,-0.280556,-0.819547
1144437085.195,-0.452673,-0.288384,-0.839056
1144437085.205,-0.440902,-0.292299,-0.866368
1144437085.216,-0.429132,-0.288384,-0.901483
1144437085.225,-0.417361,-0.319699,-0.905384
1144437085.235,-0.397744,-0.362756,-0.940500
1144437085.245,-0.401668,-0.394070,-0.940500
1144437085.255,-0.405591,-0.394070,-0.940500
1144437085.265,-0.425208,-0.397984,-0.956106
1144437085.275,-0.413438,-0.394070,-0.936598
1144437085.285,-0.393821,-0.390156,-0.948303
1144437085.294,-0.401668,-0.394070,-0.917089
1144437085.305,-0.393821,-0.382327,-0.905384
1144437085.315,-0.401668,-0.362756,-0.905384
1144437085.324,-0.405591,-0.354927,-0.889778
1144437085.334,-0.409515,-0.354927,-0.893679
1144437085.344,-0.429132,-0.394070,-0.917089
1144437085.354,-0.433055,-0.417555,-0.948303
1144437085.364,-0.413438,-0.409727,-0.967811
1144437085.374,-0.413438,-0.397984,-0.952205
1144437085.384,-0.393821,-0.378413,-0.917089
1144437085.394,-0.409515,-0.370584,-0.917089
1144437085.404,-0.425208,-0.362756,-0.924893
1144437085.414,-0.440902,-0.351013,-0.924893
1144437085.424,-0.452673,-0.362756,-0.932696
1144437085.434,-0.456596,-0.370584,-0.948303
1144437085.444,-0.448749,-0.374498,-0.936598
1144437085.454,-0.429132,-0.378413,-0.928794
1144437085.464,-0.409515,-0.394070,-0.917089
1144437085.474,-0.429132,-0.382327,-0.897581
1144437085.484,-0.448749,-0.370584,-0.874171
1144437085.494,-0.452673,-0.362756,-0.878073
1144437085.504,-0.452673,-0.339270,-0.881974
1144437085.514,-0.444826,-0.323613,-0.889778
1144437085.524,-0.436979,-0.307956,-0.893679
1144437085.534,-0.433055,-0.307956,-0.870269
1144437085.544,-0.452673,-0.311870,-0.866368
1144437085.554,-0.472290,-0.307956,-0.885876
1144437085.564,-0.456596,-0.347098,-0.866368
1144437085.574,-0.444826,-0.378413,-0.866368
1144437085.583,-0.448749,-0.401898,-0.866368
1144437085.594,-0.456596,-0.405813,-0.881974
1144437085.604,-0.464443,-0.413641,-0.862466
1144437085.614,-0.452673,-0.390156,-0.846859
1144437085.624,-0.468367,-0.370584,-0.874171
1144437085.634,-0.456596,-0.374498,-0.889778
1144437085.644,-0.433055,-0.370584,-0.885876
1144437085.654,-0.405591,-0.351013,-0.885876
1144437085.663,-0.389897,-0.331441,-0.901483
1144437085.673,-0.385974,-0.351013,-0.905384
1144437085.685,-0.385974,-0.362756,-0.909286
1144437085.693,-0.397744,-0.362756,-0.901483
1144437085.703,-0.421285,-0.370584,-0.928794
1144437085.713,-0.417361,-0.382327,-0.944401
1144437085.723,-0.413438,-0.386241,-0.963910
1144437085.733,-0.417361,-0.386241,-0.963910
1144437085.743,-0.413438,-0.394070,-0.960008
1144437085.753,-0.413438,-0.378413,-0.960008
1144437085.763,-0.401668,-0.378413,-0.924893
1144437085.773,-0.405591,-0.386241,-0.905384
1144437085.783,-0.413438,-0.421470,-0.901483
1144437085.793,-0.429132,-0.444955,-0.913188
1144437085.803,-0.440902,-0.437127,-0.956106
1144437085.813,-0.436979,-0.441041,-0.983418
1144437085.823,-0.433055,-0.429298,-1.014631
1144437085.833,-0.421285,-0.417555,-1.002926
1144437085.843,-0.421285,-0.425384,-1.006828
1144437085.863,-0.421285,-0.460613,-1.014631
1144437085.873,-0.436979,-0.456698,-0.995123
1144437085.883,-0.456596,-0.441041,-0.991221
1144437085.892,-0.464443,-0.429298,-1.026336
1144437085.902,-0.448749,-0.437127,-1.096566
1144437085.913,-0.448749,-0.441041,-1.119977
1144437085.923,-0.452673,-0.444955,-1.104370
1144437085.933,-0.472290,-0.429298,-1.092665
1144437085.942,-0.476214,-0.452784,-1.088763
1144437085.952,-0.468367,-0.456698,-1.084862
1144437085.962,-0.484061,-0.452784,-1.077058
1144437085.972,-0.480137,-0.444955,-1.057550
1144437085.982,-0.487984,-0.444955,-1.034140
1144437085.992,-0.476214,-0.456698,-1.030238
1144437086.002,-0.487984,-0.444955,-0.995123
1144437086.012,-0.487984,-0.444955,-0.975615
1144437086.022,-0.484061,-0.448870,-1.002926
1144437086.032,-0.480137,-0.460613,-0.999025
1144437086.042,-0.484061,-0.456698,-0.995123
1144437086.052,-0.487984,-0.448870,-0.987320
1144437086.062,-0.484061,-0.456698,-0.963910
1144437086.072,-0.484061,-0.468441,-0.956106
1144437086.082,-0.484061,-0.429298,-0.944401
1144437086.092,-0.468367,-0.421470,-0.940500
1144437086.102,-0.456596,-0.421470,-0.971713
1144437086.112,-0.468367,-0.437127,-0.956106
1144437086.122,-0.480137,-0.444955,-0.952205
1144437086.132,-0.487984,-0.444955,-0.920991
1144437086.142,-0.484061,-0.433213,-0.920991
1144437086.153,-0.480137,-0.437127,-0.897581
1144437086.162,-0.495831,-0.456698,-0.893679
1144437086.172,-0.491908,-0.448870,-0.881974
1144437086.182,-0.503678,-0.437127,-0.874171
1144437086.192,-0.511525,-0.429298,-0.854663
1144437086.202,-0.519372,-0.433213,-0.905384
1144437086.212,-0.511525,-0.441041,-0.893679
1144437086.221,-0.511525,-0.441041,-0.878073
1144437086.232,-0.499755,-0.429298,-0.889778
1144437086.242,-0.495831,-0.429298,-0.885876
1144437086.251,-0.491908,-0.421470,-0.881974
1144437086.261,-0.499755,-0.429298,-0.870269
1144437086.271,-0.511525,-0.429298,-0.870269
1144437086.281,-0.515449,-0.421470,-0.901483
1144437086.291,-0.511525,-0.413641,-0.909286
1144437086.301,-0.519372,-0.425384,-0.893679
1144437086.311,-0.519372,-0.441041,-0.889778
1144437086.322,-0.531143,-0.425384,-0.862466
1144437086.331,-0.519372,-0.433213,-0.842958
1144437086.342,-0.503678,-0.421470,-0.842958
1144437086.351,-0.511525,-0.405813,-0.823449
1144437086.361,-0.531143,-0.413641,-0.803941
1144437086.371,-0.535066,-0.433213,-0.792236
1144437086.381,-0.542913,-0.417555,-0.803941
1144437086.391,-0.546837,-0.409727,-0.796137
1144437086.401,-0.535066,-0.421470,-0.784432
1144437086.411,-0.554684,-0.421470,-0.788334
1144437086.420,-0.562531,-0.433213,-0.772727
1144437086.431,-0.570378,-0.429298,-0.757121
1144437086.441,-0.550760,-0.401898,-0.737612
1144437086.451,-0.550760,-0.378413,-0.702497
1144437086.460,-0.566454,-0.370584,-0.698595
1144437086.471,-0.593919,-0.366670,-0.722005
1144437086.481,-0.582148,-0.370584,-0.706399
1144437086.491,-0.558607,-0.394070,-0.725907
1144437086.500,-0.582148,-0.386241,-0.722005
1144437086.511,-0.582148,-0.394070,-0.718104
1144437086.520,-0.554684,-0.366670,-0.671284
1144437086.532,-0.570378,-0.335356,-0.651775
1144437086.541,-0.586072,-0.323613,-0.663480
1144437086.551,-0.593919,-0.331441,-0.659579
1144437086.561,-0.586072,-0.347098,-0.643972
1144437086.570,-0.586072,-0.351013,-0.671284
1144437086.580,-0.589995,-0.339270,-0.640070
1144437086.590,-0.593919,-0.307956,-0.608857
1144437086.600,-0.574301,-0.315784,-0.581545
1144437086.610,-0.589995,-0.331441,-0.573742
1144437086.622,-0.605689,-0.327527,-0.554233
1144437086.630,-0.613536,-0.323613,-0.565938
1144437086.640,-0.609613,-0.307956,-0.550332
1144437086.650,-0.605689,-0.311870,-0.554233
1144437086.660,-0.601766,-0.307956,-0.565938
1144437086.670,-0.605689,-0.307956,-0.565938
1144437086.680,-0.601766,-0.327527,-0.550332
1144437086.690,-0.605689,-0.335356,-0.530823
1144437086.700,-0.613536,-0.331441,-0.503512
1144437086.710,-0.625306,-0.335356,-0.499610
1144437086.720,-0.644924,-0.347098,-0.476200
1144437086.730,-0.652771,-0.351013,-0.499610
1144437086.740,-0.644924,-0.351013,-0.523020
1144437086.750,-0.637077,-0.339270,-0.558135
1144437086.760,-0.617460,-0.315784,-0.550332
1144437086.770,-0.617460,-0.296213,-0.523020
1144437086.780,-0.621383,-0.296213,-0.491807
1144437086.790,-0.637077,-0.304041,-0.484003
1144437086.800,-0.652771,-0.311870,-0.472298
1144437086.810,-0.660618,-0.304041,-0.448888
1144437086.820,-0.684159,-0.288384,-0.452790
1144437086.830,-0.692006,-0.292299,-0.472298
1144437086.840,-0.699853,-0.288384,-0.487905
1144437086.850,-0.707700,-0.292299,-0.499610
1144437086.860,-0.707700,-0.280556,-0.480101
1144437086.870,-0.699853,-0.272727,-0.472298
1144437086.880,-0.699853,-0.257070,-0.448888
1144437086.890,-0.703776,-0.268813,-0.448888
1144437086.900,-0.707700,-0.272727,-0.441085
1144437086.909,-0.711623,-0.272727,-0.433281
1144437086.919,-0.727317,-0.264899,-0.437183
1144437086.929,-0.743011,-0.245327,-0.441085
1144437086.939,-0.746935,-0.241413,-0.452790
1144437086.949,-0.754782,-0.245327,-0.448888
1144437086.959,-0.758705,-0.249242,-0.456691
1144437086.969,-0.762629,-0.245327,-0.452790
1144437086.979,-0.758705,-0.253156,-0.433281
1144437086.989,-0.750858,-0.241413,-0.429380
1144437086.999,-0.758705,-0.237499,-0.433281
1144437087.009,-0.758705,-0.245327,-0.421576
1144437087.019,-0.782246,-0.221842,-0.437183
1144437087.029,-0.786170,-0.214013,-0.433281
1144437087.039,-0.786170,-0.217927,-0.437183
1144437087.049,-0.790093,-0.217927,-0.421576
1144437087.059,-0.797940,-0.217927,-0.409871
1144437087.069,-0.805787,-0.214013,-0.402068
1144437087.079,-0.813634,-0.194442,-0.413773
1144437087.089,-0.813634,-0.190527,-0.421576
1144437087.098,-0.805787,-0.194442,-0.409871
1144437087.109,-0.809711,-0.182699,-0.394265
1144437087.119,-0.817558,-0.178785,-0.405970
1144437087.129,-0.825405,-0.159213,-0.405970
1144437087.139,-0.841099,-0.147470,-0.386461
1144437087.149,-0.860716,-0.155299,-0.386461
1144437087.159,-0.868563,-0.167042,-0.394265
1144437087.168,-0.888181,-0.163127,-0.409871
1144437087.178,-0.884257,-0.159213,-0.405970
1144437087.188,-0.892104,-0.155299,-0.390363
1144437087.198,-0.888181,-0.155299,-0.394265
1144437087.208,-0.896027,-0.155299,-0.378658
1144437087.218,-0.899951,-0.147470,-0.374756
1144437087.228,-0.907798,-0.147470,-0.370854
1144437087.238,-0.927415,-0.163127,-0.382560
1144437087.248,-0.939186,-0.163127,-0.386461
1144437087.258,-0.943109,-0.167042,-0.402068
1144437087.268,-0.954880,-0.174870,-0.402068
1144437087.279,-0.962727,-0.174870,-0.413773
1144437087.288,-0.974497,-0.170956,-0.394265
1144437087.298,-0.966650,-0.167042,-0.398166
1144437087.308,-0.970574,-0.167042,-0.398166
1144437087.318,-0.978421,-0.170956,-0.402068
1144437087.328,-0.982344,-0.163127,-0.398166
1144437087.338,-0.990191,-0.163127,-0.394265
1144437087.348,-0.994115,-0.163127,-0.402068
1144437087.358,-0.994115,-0.151385,-0.394265
1144437087.368,-0.998038,-0.159213,-0.413773
1144437087.378,-0.998038,-0.151385,-0.417675
1144437087.388,-1.005885,-0.159213,-0.402068
1144437087.398,-0.998038,-0.170956,-0.421576
1144437087.408,-0.990191,-0.151385,-0.413773
1144437087.418,-0.982344,-0.163127,-0.421576
1144437087.428,-0.962727,-0.170956,-0.394265
1144437087.438,-0.962727,-0.159213,-0.398166
1144437087.447,-0.958803,-0.167042,-0.382560
1144437087.457,-0.958803,-0.163127,-0.390363
1144437087.467,-0.954880,-0.170956,-0.398166
1144437087.477,-0.943109,-0.174870,-0.402068
1144437087.487,-0.950956,-0.182699,-0.409871
1144437087.497,-0.939186,-0.170956,-0.386461
1144437087.507,-0.927415,-0.174870,-0.378658
1144437087.517,-0.927415,-0.163127,-0.382560
1144437087.527,-0.939186,-0.167042,-0.382560
1144437087.537,-0.931339,-0.174870,-0.386461
1144437087.547,-0.915645,-0.170956,-0.366953
1144437087.557,-0.915645,-0.151385,-0.378658
1144437087.567,-0.927415,-0.159213,-0.382560
1144437087.577,-0.935262,-0.159213,-0.386461
1144437087.587,-0.931339,-0.167042,-0.386461
1144437087.597,-0.931339,-0.178785,-0.382560
1144437087.607,-0.943109,-0.163127,-0.382560
1144437087.617,-0.935262,-0.167042,-0.374756
1144437087.627,-0.935262,-0.167042,-0.378658
1144437087.637,-0.935262,-0.178785,-0.374756
1144437087.647,-0.927415,-0.178785,-0.351346
1144437087.657,-0.923492,-0.182699,-0.374756
1144437087.667,-0.939186,-0.178785,-0.378658
1144437087.677,-0.939186,-0.186613,-0.382560
1144437087.687,-0.947033,-0.194442,-0.378658
1144437087.697,-0.943109,-0.178785,-0.378658
1144437087.706,-0.943109,-0.190527,-0.378658
1144437087.716,-0.935262,-0.182699,-0.390363
1144437087.726,-0.935262,-0.178785,-0.382560
1144437087.736,-0.935262,-0.174870,-0.378658
1144437087.748,-0.935262,-0.174870,-0.366953
1144437087.756,-0.943109,-0.178785,-0.378658
1144437087.766,-0.943109,-0.182699,-0.374756
1144437087.776,-0.943109,-0.186613,-0.378658
1144437087.786,-0.935262,-0.186613,-0.398166
1144437087.796,-0.939186,-0.190527,-0.382560
1144437087.806,-0.935262,-0.182699,-0.374756
1144437087.816,-0.935262,-0.174870,-0.386461
1144437087.826,-0.931339,-0.174870,-0.390363
1144437087.836,-0.915645,-0.174870,-0.394265
1144437087.846,-0.927415,-0.186613,-0.390363
1144437087.856,-0.935262,-0.190527,-0.394265
1144437087.866,-0.923492,-0.186613,-0.417675
1144437087.876,-0.919568,-0.190527,-0.421576
1144437087.886,-0.915645,-0.186613,-0.390363
1144437087.896,-0.915645,-0.194442,-0.437183
1144437087.906,-0.915645,-0.190527,-0.402068
1144437087.916,-0.915645,-0.198356,-0.394265
1144437087.925,-0.911721,-0.198356,-0.409871
1144437087.936,-0.915645,-0.194442,-0.417675
1144437087.945,-0.923492,-0.190527,-0.421576
1144437087.956,-0.911721,-0.198356,-0.405970
1144437087.965,-0.923492,-0.194442,-0.382560
1144437087.975,-0.919568,-0.190527,-0.386461
1144437087.985,-0.919568,-0.186613,-0.390363
1144437087.995,-0.915645,-0.178785,-0.374756
1144437088.005,-0.911721,-0.174870,-0.409871
1144437088.015,-0.911721,-0.174870,-0.402068
1144437088.025,-0.923492,-0.182699,-0.398166
1144437088.035,-0.923492,-0.186613,-0.398166
1144437088.045,-0.927415,-0.190527,-0.394265
1144437088.055,-0.931339,-0.186613,-0.394265
1144437088.065,-0.923492,-0.190527,-0.390363
1144437088.075,-0.927415,-0.178785,-0.398166
1144437088.085,-0.927415,-0.182699,-0.409871
1144437088.095,-0.931339,-0.186613,-0.405970
1144437088.105,-0.939186,-0.210099,-0.417675
1144437088.115,-0.950956,-0.214013,-0.433281
1144437088.125,-0.943109,-0.217927,-0.425478
1144437088.135,-0.947033,-0.221842,-0.444986
1144437088.145,-0.935262,-0.221842,-0.417675
1144437088.155,-0.935262,-0.229670,-0.425478
1144437088.165,-0.939186,-0.221842,-0.405970
1144437088.175,-0.947033,-0.206185,-0.421576
1144437088.185,-0.947033,-0.217927,-0.421576
1144437088.195,-0.947033,-0.217927,-0.448888
1144437088.204,-0.950956,-0.221842,-0.425478
1144437088.216,-0.943109,-0.198356,-0.437183
1144437088.224,-0.935262,-0.198356,-0.421576
1144437088.234,-0.939186,-0.210099,-0.425478
1144437088.245,-0.939186,-0.202270,-0.433281
1144437088.254,-0.927415,-0.202270,-0.441085
1144437088.264,-0.915645,-0.198356,-0.437183
1144437088.274,-0.915645,-0.198356,-0.441085
1144437088.284,-0.915645,-0.198356,-0.425478
1144437088.294,-0.915645,-0.190527,-0.409871
1144437088.304,-0.923492,-0.190527,-0.409871
1144437088.314,-0.911721,-0.190527,-0.417675
1144437088.324,-0.892104,-0.186613,-0.409871
1144437088.334,-0.896027,-0.182699,-0.394265
1144437088.344,-0.888181,-0.182699,-0.405970
1144437088.354,-0.872486,-0.182699,-0.386461
1144437088.364,-0.872486,-0.190527,-0.378658
1144437088.374,-0.860716,-0.182699,-0.366953
1144437088.384,-0.864640,-0.186613,-0.355248
1144437088.394,-0.872486,-0.174870,-0.366953
1144437088.404,-0.872486,-0.186613,-0.359149
1144437088.414,-0.884257,-0.186613,-0.370854
1144437088.424,-0.880334,-0.190527,-0.390363
1144437088.434,-0.868563,-0.198356,-0.398166
1144437088.444,-0.872486,-0.198356,-0.402068
1144437088.454,-0.860716,-0.202270,-0.366953
1144437088.464,-0.852869,-0.198356,-0.351346
1144437088.474,-0.852869,-0.198356,-0.359149
1144437088.484,-0.860716,-0.210099,-0.359149
1144437088.493,-0.872486,-0.210099,-0.394265
1144437088.503,-0.872486,-0.210099,-0.409871
1144437088.513,-0.872486,-0.198356,-0.417675
1144437088.524,-0.864640,-0.182699,-0.429380
1144437088.533,-0.860716,-0.170956,-0.417675
1144437088.543,-0.845022,-0.178785,-0.409871
1144437088.553,-0.837175,-0.182699,-0.421576
1144437088.563,-0.837175,-0.174870,-0.409871
1144437088.573,-0.845022,-0.170956,-0.417675
1144437088.583,-0.837175,-0.170956,-0.437183
1144437088.593,-0.817558,-0.167042,-0.425478
1144437088.603,-0.813634,-0.163127,-0.433281
1144437088.613,-0.809711,-0.155299,-0.448888
1144437088.623,-0.794017,-0.163127,-0.425478
1144437088.633,-0.794017,-0.163127,-0.437183
1144437088.643,-0.801864,-0.178785,-0.441085
1144437088.653,-0.794017,-0.190527,-0.448888
1144437088.663,-0.786170,-0.186613,-0.468396
1144437088.673,-0.782246,-0.198356,-0.452790
1144437088.684,-0.782246,-0.206185,-0.484003
1144437088.693,-0.770476,-0.206185,-0.491807
1144437088.703,-0.770476,-0.194442,-0.480101
1144437088.713,-0.774399,-0.210099,-0.511315
1144437088.723,-0.770476,-0.221842,-0.515217
1144437088.733,-0.754782,-0.225756,-0.523020
1144437088.753,-0.731241,-0.237499,-0.491807
1144437088.763,-0.727317,-0.249242,-0.507413
1144437088.773,-0.719470,-0.245327,-0.499610
1144437088.783,-0.727317,-0.237499,-0.503512
1144437088.793,-0.731241,-0.237499,-0.499610
1144437088.802,-0.758705,-0.253156,-0.519118
1144437088.812,-0.746935,-0.260984,-0.515217
1144437088.822,-0.746935,-0.268813,-0.519118
1144437088.832,-0.727317,-0.257070,-0.562037
1144437088.842,-0.723394,-0.245327,-0.562037
1144437088.852,-0.695929,-0.245327,-0.577643
1144437088.862,-0.656694,-0.264899,-0.558135
1144437088.873,-0.648848,-0.272727,-0.538627
1144437088.882,-0.656694,-0.268813,-0.550332
1144437088.892,-0.680235,-0.276641,-0.554233
1144437088.902,-0.695929,-0.288384,-0.597152
1144437088.912,-0.676312,-0.304041,-0.647874
1144437088.922,-0.660618,-0.296213,-0.671284
1144437088.932,-0.633154,-0.304041,-0.675185
1144437088.942,-0.625306,-0.307956,-0.698595
1144437088.952,-0.605689,-0.315784,-0.710300
1144437088.962,-0.586072,-0.339270,-0.675185
1144437088.972,-0.574301,-0.370584,-0.671284
1144437088.982,-0.574301,-0.386241,-0.686890
1144437088.992,-0.597842,-0.378413,-0.710300
1144437089.002,-0.621383,-0.374498,-0.729809
1144437089.012,-0.609613,-0.370584,-0.764924
1144437089.022,-0.597842,-0.362756,-0.796137
1144437089.032,-0.601766,-0.358841,-0.827351
1144437089.042,-0.586072,-0.362756,-0.827351
1144437089.052,-0.593919,-0.362756,-0.850761
1144437089.062,-0.570378,-0.362756,-0.846859
1144437089.072,-0.570378,-0.378413,-0.846859
1144437089.082,-0.562531,-0.386241,-0.866368
1144437089.092,-0.554684,-0.394070,-0.870269
1144437089.101,-0.546837,-0.394070,-0.862466
1144437089.111,-0.550760,-0.390156,-0.831253
1144437089.121,-0.546837,-0.405813,-0.819547
1144437089.131,-0.554684,-0.401898,-0.811744
1144437089.141,-0.570378,-0.397984,-0.780531
1144437089.151,-0.570378,-0.394070,-0.764924
1144437089.161,-0.570378,-0.394070,-0.757121
1144437089.171,-0.566454,-0.386241,-0.714202
1144437089.181,-0.578225,-0.374498,-0.729809
1144437089.191,-0.574301,-0.362756,-0.706399
1144437089.201,-0.574301,-0.362756,-0.718104
1144437089.211,-0.574301,-0.362756,-0.706399
1144437089.220,-0.582148,-0.351013,-0.694694
1144437089.231,-0.574301,-0.343184,-0.722005
1144437089.241,-0.570378,-0.343184,-0.729809
1144437089.251,-0.562531,-0.331441,-0.725907
1144437089.261,-0.542913,-0.335356,-0.710300
1144437089.271,-0.538990,-0.343184,-0.725907
1144437089.281,-0.535066,-0.358841,-0.722005
1144437089.291,-0.542913,-0.386241,-0.729809
1144437089.301,-0.566454,-0.401898,-0.776629
1144437089.311,-0.566454,-0.397984,-0.780531
1144437089.320,-0.535066,-0.386241,-0.757121
1144437089.331,-0.519372,-0.386241,-0.776629
1144437089.342,-0.507602,-0.394070,-0.761022
1144437089.351,-0.515449,-0.405813,-0.698595
1144437089.361,-0.515449,-0.401898,-0.702497
1144437089.371,-0.519372,-0.390156,-0.702497
1144437089.380,-0.523296,-0.374498,-0.718104
1144437089.390,-0.523296,-0.382327,-0.741514
1144437089.400,-0.519372,-0.378413,-0.729809
1144437089.411,-0.499755,-0.370584,-0.749317
1144437089.420,-0.495831,-0.366670,-0.741514
1144437089.430,-0.499755,-0.366670,-0.718104
1144437089.440,-0.484061,-0.374498,-0.714202
1144437089.450,-0.491908,-0.366670,-0.702497
1144437089.460,-0.476214,-0.354927,-0.722005
1144437089.470,-0.472290,-0.343184,-0.753219
1144437089.480,-0.460520,-0.351013,-0.792236
1144437089.490,-0.464443,-0.358841,-0.792236
1144437089.499,-0.448749,-0.370584,-0.831253
1144437089.510,-0.444826,-0.394070,-0.874171
1144437089.520,-0.460520,-0.409727,-0.901483
1144437089.530,-0.468367,-0.421470,-0.928794
1144437089.540,-0.456596,-0.425384,-0.967811
1144437089.550,-0.417361,-0.421470,-0.983418
1144437089.560,-0.401668,-0.417555,-0.987320
1144437089.570,-0.409515,-0.429298,-0.975615
1144437089.580,-0.417361,-0.437127,-0.979516
1144437089.590,-0.440902,-0.460613,-0.963910
1144437089.600,-0.472290,-0.452784,-0.979516
1144437089.610,-0.491908,-0.433213,-0.987320
1144437089.620,-0.472290,-0.405813,-0.975615
1144437089.630,-0.433055,-0.394070,-0.956106
1144437089.639,-0.417361,-0.370584,-0.944401
1144437089.649,-0.421285,-0.362756,-0.920991
1144437089.659,-0.436979,-0.354927,-0.901483
1144437089.669,-0.468367,-0.354927,-0.932696
1144437089.679,-0.511525,-0.354927,-0.956106
1144437089.689,-0.523296,-0.362756,-0.971713
1144437089.699,-0.511525,-0.382327,-0.963910
1144437089.709,-0.487984,-0.405813,-0.948303
1144437089.719,-0.460520,-0.405813,-0.924893
1144437089.729,-0.468367,-0.386241,-0.905384
1144437089.739,-0.472290,-0.390156,-0.874171
1144437089.749,-0.476214,-0.382327,-0.878073
1144437089.759,-0.491908,-0.374498,-0.905384
1144437089.769,-0.480137,-0.362756,-0.936598
1144437089.779,-0.448749,-0.362756,-0.928794
1144437089.789,-0.405591,-0.370584,-0.909286
1144437089.799,-0.393821,-0.354927,-0.905384
1144437089.810,-0.393821,-0.354927,-0.905384
1144437089.819,-0.389897,-0.347098,-0.920991
1144437089.829,-0.374203,-0.351013,-0.917089
1144437089.839,-0.358509,-0.351013,-0.928794
1144437089.849,-0.370280,-0.351013,-0.940500
1144437089.859,-0.382050,-0.354927,-0.944401
1144437089.869,-0.389897,-0.362756,-0.917089
1144437089.879,-0.389897,-0.351013,-0.917089
1144437089.889,-0.389897,-0.358841,-0.909286
1144437089.899,-0.405591,-0.351013,-0.885876
1144437089.909,-0.409515,-0.339270,-0.881974
1144437089.918,-0.409515,-0.343184,-0.862466
1144437089.928,-0.421285,-0.335356,-0.862466
1144437089.938,-0.433055,-0.335356,-0.846859
1144437089.948,-0.440902,-0.319699,-0.846859
1144437089.958,-0.444826,-0.315784,-0.839056
1144437089.968,-0.460520,-0.327527,-0.846859
1144437089.978,-0.460520,-0.311870,-0.885876
1144437089.988,-0.468367,-0.315784,-0.905384
1144437089.998,-0.456596,-0.315784,-0.932696
1144437090.008,-0.429132,-0.339270,-0.893679
1144437090.018,-0.429132,-0.351013,-0.924893
1144437090.028,-0.436979,-0.347098,-0.905384
1144437090.038,-0.444826,-0.351013,-0.889778
1144437090.048,-0.429132,-0.358841,-0.881974
1144437090.058,-0.448749,-0.362756,-0.893679
1144437090.068,-0.468367,-0.374498,-0.905384
1144437090.078,-0.464443,-0.362756,-0.897581
1144437090.088,-0.472290,-0.362756,-0.901483
1144437090.098,-0.480137,-0.339270,-0.897581
1144437090.108,-0.456596,-0.339270,-0.878073
1144437090.118,-0.436979,-0.339270,-0.858564
1144437090.128,-0.429132,-0.335356,-0.858564
1144437090.138,-0.421285,-0.327527,-0.850761
1144437090.148,-0.421285,-0.335356,-0.839056
1144437090.158,-0.417361,-0.339270,-0.839056
1144437090.168,-0.433055,-0.347098,-0.827351
1144437090.178,-0.448749,-0.335356,-0.846859
1144437090.188,-0.456596,-0.319699,-0.846859
1144437090.198,-0.429132,-0.315784,-0.815646
1144437090.208,-0.397744,-0.331441,-0.784432
1144437090.218,-0.374203,-0.343184,-0.811744
1144437090.228,-0.378127,-0.335356,-0.784432
1144437090.238,-0.370280,-0.300127,-0.729809
1144437090.247,-0.370280,-0.276641,-0.737612
1144437090.257,-0.374203,-0.304041,-0.745416
1144437090.267,-0.389897,-0.319699,-0.768826
1144437090.279,-0.417361,-0.323613,-0.831253
1144437090.287,-0.440902,-0.304041,-0.881974
1144437090.297,-0.433055,-0.304041,-0.885876
1144437090.307,-0.366356,-0.300127,-0.870269
1144437090.317,-0.346739,-0.288384,-0.881974
1144437090.327,-0.362433,-0.315784,-0.866368
1144437090.337,-0.374203,-0.343184,-0.866368
1144437090.347,-0.389897,-0.362756,-0.866368
1144437090.357,-0.413438,-0.397984,-0.901483
1144437090.367,-0.444826,-0.409727,-0.936598
1144437090.377,-0.456596,-0.429298,-0.948303
1144437090.387,-0.464443,-0.433213,-0.979516
1144437090.397,-0.456596,-0.409727,-1.018533
1144437090.407,-0.433055,-0.390156,-1.002926
1144437090.417,-0.436979,-0.370584,-0.999025
1144437090.427,-0.436979,-0.358841,-0.975615
1144437090.437,-0.456596,-0.354927,-0.944401
1144437090.447,-0.464443,-0.347098,-0.952205
1144437090.457,-0.495831,-0.351013,-0.983418
1144437090.467,-0.511525,-0.378413,-1.014631
1144437090.477,-0.523296,-0.405813,-1.014631
1144437090.487,-0.531143,-0.409727,-1.026336
1144437090.497,-0.523296,-0.413641,-1.018533
1144437090.507,-0.527219,-0.397984,-0.987320
1144437090.518,-0.527219,-0.378413,-0.952205
1144437090.527,-0.535066,-0.382327,-0.913188
1144437090.536,-0.542913,-0.366670,-0.905384
1144437090.547,-0.558607,-0.358841,-0.901483
1144437090.556,-0.554684,-0.366670,-0.905384
1144437090.566,-0.535066,-0.401898,-0.924893
1144437090.577,-0.511525,-0.413641,-0.924893
1144437090.586,-0.491908,-0.386241,-0.889778
1144437090.596,-0.484061,-0.362756,-0.866368
1144437090.606,-0.495831,-0.347098,-0.866368
1144437090.616,-0.484061,-0.358841,-0.901483
1144437090.626,-0.468367,-0.390156,-0.889778
1144437090.636,-0.472290,-0.413641,-0.905384
1144437090.646,-0.472290,-0.409727,-0.905384
1144437090.656,-0.452673,-0.421470,-0.920991
1144437090.665,-0.448749,-0.409727,-0.917089
1144437090.676,-0.448749,-0.421470,-0.917089
1144437090.686,-0.440902,-0.394070,-0.901483
1144437090.696,-0.429132,-0.370584,-0.913188
1144437090.706,-0.433055,-0.362756,-0.924893
1144437090.716,-0.440902,-0.366670,-0.967811
1144437090.726,-0.444826,-0.382327,-0.960008
1144437090.736,-0.452673,-0.378413,-0.963910
1144437090.747,-0.460520,-0.370584,-0.971713
1144437090.756,-0.476214,-0.370584,-0.979516
1144437090.766,-0.468367,-0.413641,-1.014631
1144437090.776,-0.468367,-0.433213,-1.022435
1144437090.786,-0.480137,-0.425384,-1.049746
1144437090.796,-0.484061,-0.405813,-1.065353
1144437090.806,-0.472290,-0.413641,-1.049746
1144437090.815,-0.464443,-0.417555,-1.049746
1144437090.825,-0.472290,-0.417555,-1.018533
1144437090.835,-0.499755,-0.413641,-0.987320
1144437090.845,-0.511525,-0.417555,-0.967811
1144437090.854,-0.527219,-0.429298,-0.960008
1144437090.865,-0.542913,-0.417555,-0.991221
1144437090.875,-0.554684,-0.401898,-0.999025
1144437090.885,-0.546837,-0.386241,-0.991221
1144437090.895,-0.511525,-0.370584,-1.002926
1144437090.905,-0.491908,-0.366670,-1.010730
1144437090.915,-0.495831,-0.374498,-0.999025
1144437090.925,-0.484061,-0.370584,-0.995123
1144437090.935,-0.487984,-0.390156,-0.944401
1144437090.945,-0.511525,-0.409727,-0.975615
1144437090.955,-0.511525,-0.409727,-1.006828
1144437090.965,-0.491908,-0.421470,-0.999025
1144437090.975,-0.484061,-0.409727,-0.995123
1144437090.985,-0.476214,-0.378413,-0.967811
1144437090.995,-0.468367,-0.362756,-0.932696
1144437091.005,-0.460520,-0.347098,-0.932696
1144437091.015,-0.464443,-0.327527,-0.909286
1144437091.025,-0.472290,-0.311870,-0.893679
1144437091.035,-0.480137,-0.319699,-0.901483
1144437091.045,-0.491908,-0.339270,-0.897581
1144437091.055,-0.499755,-0.339270,-0.885876
1144437091.064,-0.503678,-0.339270,-0.901483
1144437091.075,-0.480137,-0.343184,-0.893679
1144437091.085,-0.491908,-0.339270,-0.870269
1144437091.094,-0.507602,-0.347098,-0.874171
1144437091.104,-0.519372,-0.358841,-0.866368
1144437091.114,-0.531143,-0.354927,-0.874171
1144437091.124,-0.546837,-0.351013,-0.885876
1144437091.134,-0.562531,-0.351013,-0.889778
1144437091.144,-0.554684,-0.378413,-0.901483
1144437091.154,-0.566454,-0.394070,-0.901483
1144437091.164,-0.582148,-0.405813,-0.881974
1144437091.174,-0.566454,-0.394070,-0.905384
1144437091.184,-0.558607,-0.401898,-0.878073
1144437091.194,-0.550760,-0.394070,-0.874171
1144437091.204,-0.546837,-0.386241,-0.862466
1144437091.214,-0.550760,-0.386241,-0.831253
1144437091.224,-0.562531,-0.370584,-0.819547
1144437091.234,-0.578225,-0.362756,-0.788334
1144437091.244,-0.582148,-0.351013,-0.772727
1144437091.254,-0.593919,-0.351013,-0.776629
1144437091.264,-0.589995,-0.358841,-0.788334
1144437091.274,-0.574301,-0.358841,-0.784432
1144437091.284,-0.546837,-0.354927,-0.761022
1144437091.294,-0.538990,-0.351013,-0.757121
1144437091.304,-0.538990,-0.354927,-0.725907
1144437091.314,-0.542913,-0.362756,-0.686890
1144437091.324,-0.542913,-0.362756,-0.679087
1144437091.333,-0.535066,-0.362756,-0.714202
1144437091.343,-0.531143,-0.351013,-0.722005
1144437091.353,-0.515449,-0.331441,-0.675185
1144437091.363,-0.511525,-0.327527,-0.667382
1144437091.373,-0.531143,-0.327527,-0.628365
1144437091.383,-0.550760,-0.331441,-0.624464
1144437091.393,-0.546837,-0.327527,-0.608857
1144437091.404,-0.542913,-0.331441,-0.612759
1144437091.413,-0.542913,-0.323613,-0.612759
1144437091.423,-0.546837,-0.323613,-0.616660
1144437091.433,-0.538990,-0.311870,-0.616660
1144437091.443,-0.515449,-0.288384,-0.589348
1144437091.453,-0.519372,-0.292299,-0.585447
1144437091.463,-0.538990,-0.292299,-0.569840
1144437091.473,-0.558607,-0.296213,-0.542528
1144437091.483,-0.550760,-0.288384,-0.554233
1144437091.493,-0.550760,-0.300127,-0.581545
1144437091.503,-0.546837,-0.319699,-0.593250
1144437091.513,-0.554684,-0.323613,-0.581545
1144437091.523,-0.554684,-0.319699,-0.581545
1144437091.533,-0.570378,-0.323613,-0.573742
1144437091.543,-0.574301,-0.335356,-0.562037
1144437091.553,-0.593919,-0.331441,-0.546430
1144437091.563,-0.605689,-0.327527,-0.538627
1144437091.573,-0.613536,-0.327527,-0.550332
1144437091.583,-0.617460,-0.319699,-0.554233
1144437091.593,-0.609613,-0.319699,-0.534725
1144437091.603,-0.613536,-0.307956,-0.534725
1144437091.613,-0.625306,-0.296213,-0.534725
1144437091.632,-0.656694,-0.304041,-0.519118
1144437091.642,-0.672388,-0.323613,-0.523020
1144437091.652,-0.684159,-0.331441,-0.526922
1144437091.662,-0.672388,-0.319699,-0.507413
1144437091.672,-0.676312,-0.292299,-0.515217
1144437091.682,-0.664542,-0.280556,-0.491807
1144437091.692,-0.684159,-0.268813,-0.515217
1144437091.702,-0.692006,-0.272727,-0.507413
1144437091.712,-0.703776,-0.276641,-0.503512
1144437091.722,-0.703776,-0.292299,-0.507413
1144437091.732,-0.707700,-0.288384,-0.464495
1144437091.742,-0.703776,-0.292299,-0.460593
1144437091.752,-0.699853,-0.280556,-0.472298
1144437091.762,-0.695929,-0.264899,-0.480101
1144437091.772,-0.703776,-0.253156,-0.495708
1144437091.782,-0.715547,-0.245327,-0.495708
1144437091.792,-0.719470,-0.249242,-0.484003
1144437091.802,-0.723394,-0.245327,-0.468396
1144437091.812,-0.731241,-0.241413,-0.456691
1144437091.822,-0.731241,-0.229670,-0.476200
1144437091.832,-0.743011,-0.225756,-0.487905
1144437091.842,-0.750858,-0.237499,-0.468396
1144437091.851,-0.750858,-0.210099,-0.464495
1144437091.862,-0.750858,-0.194442,-0.460593
1144437091.873,-0.750858,-0.210099,-0.460593
1144437091.882,-0.758705,-0.198356,-0.464495
1144437091.892,-0.766552,-0.194442,-0.433281
1144437091.902,-0.782246,-0.206185,-0.429380
1144437091.912,-0.794017,-0.206185,-0.429380
1144437091.921,-0.805787,-0.202270,-0.433281
1144437091.931,-0.817558,-0.198356,-0.409871
1144437091.941,-0.821481,-0.190527,-0.429380
1144437091.951,-0.833252,-0.186613,-0.417675
1144437091.961,-0.837175,-0.186613,-0.433281
1144437091.971,-0.833252,-0.186613,-0.425478
1144437091.981,-0.825405,-0.194442,-0.390363
1144437091.991,-0.856793,-0.190527,-0.390363
1144437092.001,-0.860716,-0.178785,-0.374756
1144437092.011,-0.872486,-0.182699,-0.378658
1144437092.021,-0.896027,-0.186613,-0.378658
1144437092.031,-0.915645,-0.186613,-0.378658
1144437092.041,-0.927415,-0.178785,-0.378658
1144437092.051,-0.931339,-0.167042,-0.394265
1144437092.061,-0.935262,-0.178785,-0.394265
1144437092.072,-0.927415,-0.182699,-0.394265
1144437092.083,-0.939186,-0.194442,-0.386461
1144437092.091,-0.947033,-0.182699,-0.386461
1144437092.101,-0.954880,-0.182699,-0.386461
1144437092.120,-0.964689,-0.200313,-0.370854
1144437092.134,-0.976459,-0.204227,-0.388412
1144437092.142,-0.970574,-0.194442,-0.392314
1144437092.154,-0.964689,-0.192485,-0.398166
1144437092.162,-0.958803,-0.188570,-0.415724
1144437092.172,-0.948995,-0.172913,-0.404019
1144437092.182,-0.947033,-0.178785,-0.394265
1144437092.192,-0.950956,-0.176827,-0.396215
1144437092.202,-0.950956,-0.178785,-0.390363
1144437092.212,-0.947033,-0.168999,-0.390363
1144437092.222,-0.943109,-0.170956,-0.392314
1144437092.232,-0.945071,-0.170956,-0.400117
1144437092.242,-0.952918,-0.163127,-0.398166
1144437092.252,-0.945071,-0.147470,-0.394265
1144437092.262,-0.933301,-0.141599,-0.398166
1144437092.272,-0.929377,-0.147470,-0.384510
1144437092.282,-0.927415,-0.147470,-0.384510
1144437092.292,-0.923492,-0.145513,-0.380609
1144437092.302,-0.915645,-0.153342,-0.402068
1144437092.312,-0.911721,-0.174870,-0.392314
1144437092.322,-0.909760,-0.188570,-0.394265
1144437092.332,-0.911721,-0.168999,-0.394265
1144437092.342,-0.896027,-0.161170,-0.400117
1144437092.352,-0.901913,-0.167042,-0.421576
1144437092.362,-0.905836,-0.182699,-0.421576
1144437092.372,-0.919568,-0.204227,-0.411822
1144437092.382,-0.913683,-0.210099,-0.421576
1144437092.392,-0.907798,-0.198356,-0.429380
1144437092.402,-0.911721,-0.200313,-0.417675
1144437092.412,-0.911721,-0.204227,-0.419625
1144437092.421,-0.905836,-0.212056,-0.429380
1144437092.432,-0.907798,-0.204227,-0.409871
1144437092.441,-0.905836,-0.202270,-0.415724
1144437092.451,-0.901913,-0.188570,-0.402068
1144437092.461,-0.907798,-0.184656,-0.402068
1144437092.471,-0.907798,-0.194442,-0.417675
1144437092.481,-0.919568,-0.208142,-0.407920
1144437092.491,-0.915645,-0.210099,-0.396215
1144437092.501,-0.915645,-0.180742,-0.404019
1144437092.511,-0.890142,-0.161170,-0.413773
1144437092.523,-0.888181,-0.161170,-0.419625
1144437092.531,-0.903874,-0.182699,-0.409871
1144437092.541,-0.907798,-0.200313,-0.411822
1144437092.551,-0.917607,-0.198356,-0.402068
1144437092.561,-0.907798,-0.192485,-0.380609
1144437092.572,-0.905836,-0.184656,-0.398166
1144437092.581,-0.909760,-0.174870,-0.396215
1144437092.591,-0.901913,-0.190527,-0.398166
1144437092.601,-0.899951,-0.161170,-0.400117
1144437092.611,-0.907798,-0.161170,-0.402068
1144437092.688,-0.901913,-0.176827,-0.390363
1144437092.688,-0.913683,-0.188570,-0.398166
1144437092.689,-0.905836,-0.204227,-0.404019
1144437092.689,-0.911721,-0.198356,-0.405970
1144437092.689,-0.917607,-0.190527,-0.398166
1144437092.691,-0.911721,-0.174870,-0.400117
1144437092.691,-0.907798,-0.178785,-0.382560
1144437092.692,-0.907798,-0.180742,-0.396215
1144437092.701,-0.907798,-0.200313,-0.400117
1144437092.710,-0.905836,-0.208142,-0.413773
1144437092.720,-0.909760,-0.196399,-0.396215
1144437092.731,-0.899951,-0.192485,-0.405970
1144437092.741,-0.899951,-0.188570,-0.413773
1144437092.751,-0.899951,-0.196399,-0.409871
1144437092.761,-0.897989,-0.214013,-0.411822
1144437092.771,-0.890142,-0.202270,-0.425478
1144437092.781,-0.892104,-0.194442,-0.419625
1144437092.791,-0.888181,-0.192485,-0.417675
1144437092.801,-0.882295,-0.198356,-0.423527
1144437092.811,-0.890142,-0.200313,-0.433281
1144437092.820,-0.894066,-0.210099,-0.427429
1144437092.831,-0.884257,-0.210099,-0.439134
1144437092.841,-0.878372,-0.217927,-0.435232
1144437092.851,-0.880334,-0.194442,-0.437183
1144437092.861,-0.884257,-0.188570,-0.417675
1144437092.871,-0.872486,-0.182699,-0.413773
1144437092.881,-0.874448,-0.202270,-0.409871
1144437092.891,-0.860716,-0.206185,-0.394265
1144437092.901,-0.856793,-0.196399,-0.394265
1144437092.910,-0.854831,-0.194442,-0.380609
1144437092.920,-0.858754,-0.192485,-0.372805
1144437092.931,-0.858754,-0.202270,-0.368904
1144437092.940,-0.852869,-0.208142,-0.380609
1144437092.951,-0.858754,-0.212056,-0.370854
1144437092.961,-0.854831,-0.210099,-0.372805
1144437092.971,-0.854831,-0.200313,-0.382560
1144437092.981,-0.852869,-0.200313,-0.384510
1144437092.991,-0.845022,-0.202270,-0.390363
1144437093.001,-0.833252,-0.208142,-0.405970
1144437093.010,-0.839137,-0.217927,-0.405970
1144437093.020,-0.831290,-0.214013,-0.429380
1144437093.030,-0.819519,-0.221842,-0.439134
1144437093.040,-0.817558,-0.223799,-0.443036
1144437093.050,-0.829328,-0.233584,-0.448888
1144437093.060,-0.827366,-0.212056,-0.478151
1144437093.070,-0.825405,-0.204227,-0.474249
1144437093.080,-0.813634,-0.202270,-0.470347
1144437093.092,-0.811672,-0.196399,-0.485954
1144437093.100,-0.801864,-0.208142,-0.474249
1144437093.110,-0.799902,-0.210099,-0.460593
1144437093.120,-0.795978,-0.212056,-0.476200
1144437093.130,-0.784208,-0.210099,-0.466446
1144437093.140,-0.778323,-0.208142,-0.466446
1144437093.150,-0.774399,-0.206185,-0.478151
1144437093.160,-0.772437,-0.215970,-0.484003
1144437093.170,-0.768514,-0.219885,-0.470347
1144437093.180,-0.768514,-0.210099,-0.470347
1144437093.190,-0.758705,-0.206185,-0.472298
1144437093.200,-0.754782,-0.217927,-0.482052
1144437093.210,-0.754782,-0.217927,-0.489856
1144437093.220,-0.754782,-0.217927,-0.503512
1144437093.230,-0.741050,-0.229670,-0.521069
1144437093.240,-0.727317,-0.229670,-0.524971
1144437093.250,-0.717509,-0.231627,-0.526922
1144437093.260,-0.699853,-0.245327,-0.524971
1144437093.270,-0.697891,-0.251199,-0.532774
1144437093.280,-0.697891,-0.247284,-0.528872
1144437093.290,-0.707700,-0.245327,-0.530823
1144437093.300,-0.713585,-0.255113,-0.532774
1144437093.310,-0.715547,-0.259027,-0.536676
1144437093.320,-0.713585,-0.247284,-0.540577
1144437093.330,-0.705738,-0.245327,-0.548381
1144437093.340,-0.693968,-0.245327,-0.538627
1144437093.350,-0.686121,-0.249242,-0.515217
1144437093.360,-0.684159,-0.251199,-0.521069
1144437093.370,-0.686121,-0.259027,-0.526922
1144437093.380,-0.690044,-0.259027,-0.523020
1144437093.390,-0.688082,-0.260984,-0.544479
1144437093.400,-0.680235,-0.262942,-0.554233
1144437093.410,-0.666503,-0.259027,-0.554233
1144437093.420,-0.652771,-0.264899,-0.567889
1144437093.430,-0.650809,-0.268813,-0.593250
1144437093.440,-0.646886,-0.278599,-0.599103
1144437093.450,-0.641000,-0.284470,-0.603004
1144437093.460,-0.635115,-0.296213,-0.599103
1144437093.470,-0.635115,-0.311870,-0.614709
1144437093.480,-0.619421,-0.317741,-0.626414
1144437093.490,-0.607651,-0.335356,-0.638119
1144437093.500,-0.603727,-0.329484,-0.630316
1144437093.510,-0.607651,-0.327527,-0.643972
1144437093.520,-0.613536,-0.315784,-0.624464
1144437093.530,-0.607651,-0.319699,-0.638119
1144437093.540,-0.605689,-0.317741,-0.651775
1144437093.549,-0.599804,-0.327527,-0.655677
1144437093.561,-0.601766,-0.323613,-0.659579
1144437093.570,-0.607651,-0.315784,-0.686890
1144437093.579,-0.595880,-0.321656,-0.671284
1144437093.590,-0.584110,-0.339270,-0.692743
1144437093.599,-0.564492,-0.333399,-0.706399
1144437093.609,-0.552722,-0.347098,-0.718104
1144437093.619,-0.548798,-0.362756,-0.745416
1144437093.629,-0.538990,-0.392113,-0.761022
1144437093.639,-0.540952,-0.384284,-0.770777
1144437093.649,-0.527219,-0.341227,-0.751268
1144437093.659,-0.529181,-0.317741,-0.747366
1144437093.669,-0.538990,-0.337313,-0.764924
1144437093.679,-0.538990,-0.366670,-0.776629
1144437093.689,-0.527219,-0.351013,-0.745416
1144437093.699,-0.535066,-0.311870,-0.757121
1144437093.709,-0.537028,-0.319699,-0.776629
1144437093.719,-0.517410,-0.339270,-0.801990
1144437093.729,-0.499755,-0.351013,-0.794187
1144437093.739,-0.495831,-0.356884,-0.805892
1144437093.749,-0.495831,-0.354927,-0.788334
1144437093.759,-0.489946,-0.345141,-0.747366
1144437093.769,-0.489946,-0.364713,-0.735661
1144437093.779,-0.499755,-0.376456,-0.749317
1144437093.789,-0.495831,-0.380370,-0.757121
1144437093.799,-0.499755,-0.386241,-0.770777
1144437093.809,-0.509563,-0.376456,-0.790285
1144437093.819,-0.513487,-0.364713,-0.784432
1144437093.829,-0.515449,-0.351013,-0.792236
1144437093.839,-0.513487,-0.351013,-0.790285
1144437093.849,-0.509563,-0.360798,-0.800039
1144437093.859,-0.499755,-0.366670,-0.839056
1144437093.869,-0.484061,-0.349056,-0.862466
1144437093.879,-0.484061,-0.349056,-0.880023
1144437093.889,-0.474252,-0.382327,-0.907335
1144437093.899,-0.474252,-0.407770,-0.913188
1144437093.909,-0.478176,-0.417555,-0.901483
1144437093.919,-0.478176,-0.411684,-0.881974
1144437093.929,-0.482099,-0.401898,-0.848810
1144437093.939,-0.470329,-0.399941,-0.844908
1144437093.949,-0.472290,-0.397984,-0.841007
1144437093.959,-0.464443,-0.390156,-0.846859
1144437093.969,-0.458558,-0.397984,-0.852712
1144437093.979,-0.472290,-0.396027,-0.831253
1144437093.989,-0.489946,-0.380370,-0.815646
1144437093.999,-0.486023,-0.360798,-0.809793
1144437094.009,-0.478176,-0.351013,-0.805892
1144437094.019,-0.476214,-0.339270,-0.786383
1144437094.029,-0.466405,-0.335356,-0.792236
1144437094.039,-0.452673,-0.335356,-0.823449
1144437094.049,-0.448749,-0.347098,-0.837105
1144437094.059,-0.454635,-0.368627,-0.835154
1144437094.069,-0.462482,-0.376456,-0.827351
1144437094.079,-0.466405,-0.392113,-0.833203
1144437094.089,-0.464443,-0.390156,-0.841007
1144437094.098,-0.456596,-0.403856,-0.829302
1144437094.109,-0.464443,-0.417555,-0.852712
1144437094.119,-0.452673,-0.421470,-0.872220
1144437094.129,-0.431094,-0.421470,-0.862466
1144437094.139,-0.419323,-0.407770,-0.841007
1144437094.149,-0.415400,-0.417555,-0.821498
1144437094.159,-0.415400,-0.427341,-0.813695
1144437094.169,-0.433055,-0.415598,-0.788334
1144437094.179,-0.423247,-0.413641,-0.790285
1144437094.189,-0.427170,-0.392113,-0.753219
1144437094.199,-0.433055,-0.378413,-0.757121
1144437094.208,-0.448749,-0.364713,-0.735661
1144437094.218,-0.438941,-0.349056,-0.725907
1144437094.228,-0.431094,-0.347098,-0.727858
1144437094.238,-0.433055,-0.362756,-0.735661
1144437094.248,-0.433055,-0.411684,-0.753219
1144437094.258,-0.446788,-0.466484,-0.825400
1144437094.269,-0.466405,-0.466484,-0.800039
1144437094.278,-0.472290,-0.409727,-0.731760
1144437094.288,-0.489946,-0.362756,-0.567889
1144437094.298,-0.507602,-0.329484,-0.548381
1144437094.310,-0.460520,-0.325570,-0.794187
1144437094.318,-0.358509,-0.511498,-1.020484
1144437094.328,-0.293771,-0.681769,-1.203863
1144437094.338,-0.360471,-0.656326,-1.198010
1144437094.348,-0.484061,-0.503670,-0.997074
1144437094.358,-0.542913,-0.466484,-0.846859
1144437094.368,-0.470329,-0.531069,-0.733711
1144437094.378,-0.411476,-0.548684,-0.727858
1144437094.388,-0.395782,-0.486055,-0.749317
1144437094.398,-0.389897,-0.421470,-0.762973
1144437094.408,-0.382050,-0.386241,-0.844908
1144437094.418,-0.368318,-0.429298,-0.897581
1144437094.428,-0.380088,-0.464527,-0.876122
1144437094.438,-0.401668,-0.476270,-0.864417
1144437094.448,-0.395782,-0.491927,-0.858564
1144437094.458,-0.391859,-0.517370,-0.837105
1144437094.468,-0.399706,-0.509541,-0.823449
1144437094.478,-0.395782,-0.486055,-0.835154
1144437094.488,-0.397744,-0.484098,-0.837105
1144437094.498,-0.376165,-0.478227,-0.848810
1144437094.508,-0.382050,-0.480184,-0.860515
1144437094.519,-0.385974,-0.489970,-0.856613
1144437094.528,-0.385974,-0.501712,-0.852712
1144437094.538,-0.399706,-0.503670,-0.846859
1144437094.548,-0.403629,-0.484098,-0.827351
1144437094.558,-0.403629,-0.478227,-0.829302
1144437094.568,-0.421285,-0.486055,-0.821498
1144437094.578,-0.431094,-0.495841,-0.805892
1144437094.588,-0.435017,-0.489970,-0.803941
1144437094.598,-0.417361,-0.456698,-0.770777
1144437094.608,-0.407553,-0.439084,-0.784432
1144437094.618,-0.413438,-0.442998,-0.809793
1144437094.628,-0.440902,-0.427341,-0.829302
1144437094.638,-0.429132,-0.433213,-0.827351
1144437094.648,-0.431094,-0.435170,-0.842958
1144437094.658,-0.438941,-0.450827,-0.837105
1144437094.668,-0.438941,-0.460613,-0.862466
1144437094.678,-0.429132,-0.462570,-0.858564
1144437094.688,-0.407553,-0.466484,-0.876122
1144437094.698,-0.403629,-0.472355,-0.868318
1144437094.708,-0.413438,-0.474313,-0.852712
1144437094.718,-0.427170,-0.480184,-0.854663
1144437094.728,-0.435017,-0.491927,-0.854663
1144437094.738,-0.442864,-0.474313,-0.870269
1144437094.748,-0.438941,-0.466484,-0.862466
1144437094.758,-0.427170,-0.476270,-0.839056
1144437094.768,-0.413438,-0.464527,-0.809793
1144437094.779,-0.427170,-0.476270,-0.774678
1144437094.788,-0.456596,-0.478227,-0.774678
1144437094.798,-0.484061,-0.472355,-0.757121
1144437094.807,-0.493870,-0.464527,-0.753219
1144437094.818,-0.480137,-0.495841,-0.774678
1144437094.828,-0.456596,-0.491927,-0.805892
1144437094.838,-0.462482,-0.460613,-0.831253
1144437094.848,-0.482099,-0.456698,-0.837105
1144437094.858,-0.491908,-0.458655,-0.872220
1144437094.868,-0.497793,-0.466484,-0.893679
1144437094.878,-0.497793,-0.482141,-0.901483
1144437094.888,-0.487984,-0.489970,-0.942450
1144437094.898,-0.489946,-0.476270,-0.930745
1144437094.907,-0.497793,-0.482141,-0.950254
1144437094.917,-0.493870,-0.480184,-0.960008
1144437094.927,-0.505640,-0.480184,-0.971713
1144437094.937,-0.515449,-0.472355,-0.997074
1144437094.947,-0.509563,-0.470398,-1.012680
1144437094.957,-0.511525,-0.474313,-1.018533
1144437094.967,-0.505640,-0.468441,-1.014631
1144437094.977,-0.503678,-0.478227,-1.016582
1144437094.987,-0.505640,-0.474313,-1.024386
1144437094.997,-0.491908,-0.488012,-1.024386
1144437095.007,-0.493870,-0.499755,-1.038041
1144437095.017,-0.503678,-0.503670,-1.032189
1144437095.027,-0.509563,-0.505627,-1.043894
1144437095.037,-0.501717,-0.501712,-1.059501
1144437095.047,-0.476214,-0.519327,-1.051697
1144437095.057,-0.460520,-0.531069,-1.032189
1144437095.067,-0.452673,-0.523241,-1.026336
1144437095.077,-0.440902,-0.511498,-0.981467
1144437095.087,-0.433055,-0.509541,-0.963910
1144437095.097,-0.431094,-0.497798,-0.934647
1144437095.107,-0.442864,-0.482141,-0.920991
1144437095.117,-0.452673,-0.460613,-0.887827
1144437095.127,-0.448749,-0.444955,-0.883925
1144437095.137,-0.458558,-0.441041,-0.874171
1144437095.147,-0.444826,-0.439084,-0.866368
1144437095.157,-0.442864,-0.421470,-0.860515
1144437095.167,-0.452673,-0.417555,-0.858564
1144437095.177,-0.472290,-0.411684,-0.833203
1144437095.187,-0.478176,-0.409727,-0.841007
1144437095.197,-0.486023,-0.433213,-0.842958
1144437095.207,-0.486023,-0.441041,-0.874171
1144437095.217,-0.495831,-0.452784,-0.874171
1144437095.227,-0.501717,-0.446913,-0.876122
1144437095.237,-0.503678,-0.452784,-0.889778
1144437095.248,-0.501717,-0.460613,-0.887827
1144437095.257,-0.501717,-0.464527,-0.874171
1144437095.267,-0.503678,-0.476270,-0.846859
1144437095.277,-0.509563,-0.476270,-0.837105
1144437095.287,-0.509563,-0.476270,-0.815646
1144437095.297,-0.513487,-0.489970,-0.823449
1144437095.307,-0.511525,-0.495841,-0.831253
1144437095.317,-0.507602,-0.472355,-0.842958
1144437095.327,-0.509563,-0.456698,-0.805892
1144437095.337,-0.501717,-0.456698,-0.792236
1144437095.347,-0.499755,-0.478227,-0.792236
1144437095.357,-0.495831,-0.489970,-0.800039
1144437095.367,-0.499755,-0.489970,-0.801990
1144437095.377,-0.495831,-0.480184,-0.774678
1144437095.387,-0.497793,-0.452784,-0.739563
1144437095.397,-0.509563,-0.421470,-0.727858
1144437095.407,-0.509563,-0.405813,-0.718104
1144437095.417,-0.501717,-0.423427,-0.722005
1144437095.427,-0.489946,-0.433213,-0.733711
1144437095.437,-0.489946,-0.442998,-0.723956
1144437095.447,-0.503678,-0.450827,-0.710300
1144437095.457,-0.521334,-0.439084,-0.706399
1144437095.467,-0.537028,-0.435170,-0.700546
1144437095.477,-0.548798,-0.448870,-0.710300
1144437095.487,-0.568416,-0.441041,-0.708350
1144437095.497,-0.556645,-0.444955,-0.706399
1144437095.507,-0.558607,-0.444955,-0.710300
1144437095.517,-0.566454,-0.437127,-0.710300
1144437095.527,-0.574301,-0.433213,-0.694694
1144437095.537,-0.574301,-0.433213,-0.690792
1144437095.547,-0.589995,-0.441041,-0.681038
1144437095.557,-0.601766,-0.464527,-0.673235
1144437095.567,-0.603727,-0.476270,-0.671284
1144437095.577,-0.599804,-0.480184,-0.690792
1144437095.587,-0.589995,-0.460613,-0.688841
1144437095.596,-0.570378,-0.442998,-0.663480
1144437095.607,-0.552722,-0.423427,-0.642021
1144437095.617,-0.558607,-0.401898,-0.626414
1144437095.627,-0.558607,-0.388198,-0.610808
1144437095.637,-0.562531,-0.382327,-0.589348
1144437095.647,-0.564492,-0.374498,-0.591299
1144437095.656,-0.570378,-0.372541,-0.581545
1144437095.666,-0.570378,-0.364713,-0.573742
1144437095.676,-0.572339,-0.341227,-0.558135
1144437095.686,-0.562531,-0.327527,-0.548381
1144437095.696,-0.550760,-0.315784,-0.538627
1144437095.706,-0.564492,-0.337313,-0.495708
1144437095.717,-0.586072,-0.352970,-0.489856
1144437095.726,-0.582148,-0.339270,-0.497659
1144437095.736,-0.582148,-0.304041,-0.517167
1144437095.746,-0.574301,-0.305999,-0.536676
1144437095.756,-0.570378,-0.315784,-0.556184
1144437095.766,-0.588033,-0.339270,-0.562037
1144437095.776,-0.597842,-0.345141,-0.571791
1144437095.786,-0.593919,-0.341227,-0.548381
1144437095.796,-0.603727,-0.333399,-0.540577
1144437095.806,-0.605689,-0.352970,-0.513266
1144437095.816,-0.599804,-0.370584,-0.509364
1144437095.825,-0.605689,-0.370584,-0.497659
1144437095.836,-0.617460,-0.356884,-0.476200
1144437095.846,-0.619421,-0.339270,-0.487905
1144437095.855,-0.623345,-0.323613,-0.476200
1144437095.866,-0.635115,-0.304041,-0.474249
1144437095.876,-0.635115,-0.296213,-0.482052
1144437095.886,-0.652771,-0.302084,-0.468396
1144437095.896,-0.648848,-0.305999,-0.484003
1144437095.906,-0.644924,-0.296213,-0.491807
1144437095.916,-0.641000,-0.286427,-0.450839
1144437095.925,-0.662580,-0.292299,-0.433281
1144437095.936,-0.678274,-0.282513,-0.444986
1144437095.946,-0.686121,-0.270770,-0.443036
1144437095.955,-0.688082,-0.268813,-0.450839
1144437095.966,-0.693968,-0.260984,-0.427429
1144437095.976,-0.684159,-0.262942,-0.431330
1144437095.986,-0.695929,-0.255113,-0.411822
1144437095.997,-0.701815,-0.255113,-0.415724
1144437096.006,-0.705738,-0.253156,-0.433281
1144437096.016,-0.707700,-0.243370,-0.421576
1144437096.026,-0.707700,-0.247284,-0.417675
1144437096.035,-0.713585,-0.241413,-0.435232
1144437096.046,-0.717509,-0.223799,-0.421576
1144437096.056,-0.725356,-0.221842,-0.398166
1144437096.066,-0.741050,-0.227713,-0.402068
1144437096.076,-0.750858,-0.223799,-0.392314
1144437096.086,-0.752820,-0.229670,-0.394265
1144437096.096,-0.768514,-0.233584,-0.402068
1144437096.106,-0.760667,-0.233584,-0.402068
1144437096.116,-0.762629,-0.237499,-0.390363
1144437096.126,-0.774399,-0.223799,-0.392314
1144437096.136,-0.778323,-0.233584,-0.386461
1144437096.145,-0.784208,-0.231627,-0.400117
1144437096.156,-0.790093,-0.233584,-0.386461
1144437096.165,-0.805787,-0.245327,-0.380609
1144437096.175,-0.817558,-0.249242,-0.384510
1144437096.186,-0.827366,-0.257070,-0.380609
1144437096.195,-0.833252,-0.249242,-0.382560
1144437096.205,-0.848946,-0.239456,-0.390363
1144437096.215,-0.868563,-0.229670,-0.384510
1144437096.225,-0.876410,-0.227713,-0.392314
1144437096.235,-0.894066,-0.233584,-0.398166
1144437096.245,-0.903874,-0.229670,-0.405970
1144437096.255,-0.903874,-0.221842,-0.394265
1144437096.265,-0.911721,-0.219885,-0.405970
1144437096.275,-0.911721,-0.212056,-0.384510
1144437096.285,-0.923492,-0.219885,-0.394265
1144437096.296,-0.925454,-0.217927,-0.376707
1144437096.305,-0.927415,-0.215970,-0.376707
1144437096.315,-0.935262,-0.212056,-0.384510
1144437096.325,-0.937224,-0.212056,-0.376707
1144437096.335,-0.941148,-0.212056,-0.394265
1144437096.345,-0.939186,-0.196399,-0.386461
1144437096.355,-0.945071,-0.196399,-0.363051
1144437096.365,-0.935262,-0.188570,-0.366953
1144437096.375,-0.933301,-0.182699,-0.359149
1144437096.385,-0.931339,-0.184656,-0.341592
1144437096.395,-0.933301,-0.176827,-0.341592
1144437096.405,-0.935262,-0.180742,-0.345494
1144437096.415,-0.939186,-0.180742,-0.347444
1144437096.425,-0.933301,-0.180742,-0.363051
1144437096.435,-0.939186,-0.180742,-0.357199
1144437096.445,-0.935262,-0.174870,-0.363051
1144437096.455,-0.935262,-0.176827,-0.372805
1144437096.466,-0.919568,-0.186613,-0.378658
1144437096.475,-0.921530,-0.198356,-0.388412
1144437096.485,-0.913683,-0.215970,-0.380609
1144437096.495,-0.919568,-0.223799,-0.378658
1144437096.505,-0.921530,-0.219885,-0.390363
1144437096.516,-0.919568,-0.214013,-0.400117
1144437096.525,-0.923492,-0.206185,-0.405970
1144437096.535,-0.925454,-0.208142,-0.396215
1144437096.545,-0.933301,-0.210099,-0.392314
1144437096.555,-0.927415,-0.214013,-0.388412
1144437096.565,-0.923492,-0.210099,-0.388412
1144437096.575,-0.915645,-0.198356,-0.378658
1144437096.585,-0.917607,-0.196399,-0.376707
1144437096.595,-0.913683,-0.200313,-0.376707
1144437096.605,-0.913683,-0.200313,-0.384510
1144437096.615,-0.903874,-0.194442,-0.396215
1144437096.625,-0.903874,-0.194442,-0.402068
1144437096.635,-0.903874,-0.186613,-0.374756
1144437096.644,-0.899951,-0.188570,-0.398166
1144437096.654,-0.901913,-0.182699,-0.390363
1144437096.664,-0.901913,-0.180742,-0.404019
1144437096.674,-0.901913,-0.190527,-0.402068
1144437096.684,-0.896027,-0.202270,-0.405970
1144437096.694,-0.897989,-0.204227,-0.396215
1144437096.704,-0.890142,-0.212056,-0.396215
1144437096.714,-0.890142,-0.200313,-0.390363
1144437096.724,-0.888181,-0.204227,-0.372805
1144437096.734,-0.897989,-0.217927,-0.384510
1144437096.744,-0.901913,-0.219885,-0.380609
1144437096.754,-0.905836,-0.221842,-0.386461
1144437096.764,-0.899951,-0.214013,-0.394265
1144437096.774,-0.903874,-0.202270,-0.423527
1144437096.784,-0.899951,-0.204227,-0.409871
1144437096.794,-0.907798,-0.208142,-0.423527
1144437096.804,-0.907798,-0.208142,-0.409871
1144437096.814,-0.903874,-0.206185,-0.407920
1144437096.824,-0.901913,-0.198356,-0.400117
1144437096.834,-0.911721,-0.198356,-0.404019
1144437096.844,-0.901913,-0.200313,-0.409871
1144437096.853,-0.905836,-0.208142,-0.415724
1144437096.864,-0.901913,-0.200313,-0.405970
1144437096.874,-0.894066,-0.198356,-0.421576
1144437096.884,-0.884257,-0.214013,-0.433281
1144437096.894,-0.872486,-0.204227,-0.413773
1144437096.904,-0.870525,-0.208142,-0.400117
1144437096.914,-0.874448,-0.212056,-0.413773
1144437096.924,-0.870525,-0.221842,-0.421576
1144437096.935,-0.862678,-0.235542,-0.405970
1144437096.944,-0.850907,-0.239456,-0.405970
1144437096.954,-0.848946,-0.239456,-0.417675
1144437096.964,-0.850907,-0.251199,-0.443036
1144437096.974,-0.856793,-0.247284,-0.437183
1144437096.984,-0.856793,-0.237499,-0.446937
1144437096.994,-0.856793,-0.235542,-0.425478
1144437097.004,-0.856793,-0.235542,-0.435232
1144437097.014,-0.854831,-0.245327,-0.421576
1144437097.024,-0.845022,-0.243370,-0.439134
1144437097.034,-0.835213,-0.229670,-0.458642
1144437097.044,-0.825405,-0.233584,-0.448888
1144437097.054,-0.827366,-0.235542,-0.444986
1144437097.064,-0.833252,-0.227713,-0.446937
1144437097.074,-0.819519,-0.219885,-0.454741
1144437097.084,-0.813634,-0.219885,-0.458642
1144437097.094,-0.811672,-0.231627,-0.464495
1144437097.104,-0.797940,-0.229670,-0.466446
1144437097.114,-0.784208,-0.233584,-0.482052
1144437097.124,-0.776361,-0.245327,-0.470347
1144437097.134,-0.766552,-0.241413,-0.470347
1144437097.144,-0.758705,-0.243370,-0.472298
1144437097.154,-0.746935,-0.249242,-0.464495
1144437097.163,-0.748897,-0.251199,-0.464495
1144437097.173,-0.739088,-0.241413,-0.458642
1144437097.183,-0.725356,-0.237499,-0.474249
1144437097.193,-0.707700,-0.219885,-0.464495
1144437097.203,-0.701815,-0.217927,-0.452790
1144437097.213,-0.690044,-0.217927,-0.456691
1144437097.223,-0.686121,-0.223799,-0.456691
1144437097.233,-0.664542,-0.235542,-0.450839
1144437097.243,-0.670427,-0.243370,-0.443036
1144437097.253,-0.662580,-0.235542,-0.454741
1144437097.263,-0.668465,-0.227713,-0.476200
1144437097.273,-0.668465,-0.239456,-0.491807
1144437097.283,-0.644924,-0.264899,-0.503512
1144437097.293,-0.637077,-0.276641,-0.532774
1144437097.303,-0.633154,-0.264899,-0.536676
1144437097.313,-0.623345,-0.259027,-0.562037
1144437097.323,-0.615498,-0.260984,-0.563988
1144437097.333,-0.597842,-0.259027,-0.565938
1144437097.343,-0.599804,-0.266856,-0.577643
1144437097.353,-0.613536,-0.284470,-0.585447
1144437097.363,-0.623345,-0.298170,-0.604955
1144437097.373,-0.631192,-0.296213,-0.618611
1144437097.383,-0.613536,-0.292299,-0.655677
1144437097.393,-0.595880,-0.286427,-0.655677
1144437097.404,-0.572339,-0.276641,-0.655677
1144437097.413,-0.558607,-0.272727,-0.649824
1144437097.423,-0.550760,-0.278599,-0.632267
1144437097.433,-0.538990,-0.282513,-0.624464
1144437097.443,-0.537028,-0.292299,-0.622513
1144437097.453,-0.544875,-0.307956,-0.628365
1144437097.463,-0.562531,-0.331441,-0.632267
1144437097.473,-0.580186,-0.335356,-0.626414
1144437097.483,-0.586072,-0.323613,-0.640070
1144437097.493,-0.580186,-0.302084,-0.642021
1144437097.503,-0.556645,-0.280556,-0.640070
1144437097.513,-0.540952,-0.266856,-0.642021
1144437097.523,-0.527219,-0.278599,-0.628365
1144437097.533,-0.523296,-0.276641,-0.626414
1144437097.543,-0.529181,-0.278599,-0.612759
1144437097.553,-0.544875,-0.272727,-0.640070
1144437097.563,-0.562531,-0.278599,-0.642021
1144437097.573,-0.574301,-0.282513,-0.665431
1144437097.583,-0.574301,-0.278599,-0.688841
1144437097.593,-0.558607,-0.280556,-0.700546
1144437097.604,-0.538990,-0.296213,-0.722005
1144437097.613,-0.521334,-0.305999,-0.731760
1144437097.623,-0.499755,-0.305999,-0.694694
1144437097.633,-0.493870,-0.317741,-0.684940
1144437097.643,-0.503678,-0.321656,-0.688841
1144437097.653,-0.523296,-0.323613,-0.669333
1144437097.663,-0.544875,-0.307956,-0.686890
1144437097.673,-0.552722,-0.302084,-0.692743
1144437097.683,-0.554684,-0.315784,-0.739563
1144437097.693,-0.564492,-0.317741,-0.761022
1144437097.703,-0.560569,-0.315784,-0.776629
1144437097.713,-0.556645,-0.302084,-0.780531
1144437097.723,-0.538990,-0.302084,-0.778580
1144437097.733,-0.523296,-0.313827,-0.790285
1144437097.743,-0.521334,-0.321656,-0.766875
1144437097.753,-0.533104,-0.339270,-0.762973
1144437097.763,-0.556645,-0.339270,-0.768826
1144437097.773,-0.591957,-0.356884,-0.766875
1144437097.783,-0.619421,-0.351013,-0.792236
1144437097.793,-0.652771,-0.370584,-0.794187
1144437097.803,-0.697891,-0.394070,-0.801990
1144437097.813,-0.748897,-0.384284,-0.829302
1144437097.823,-0.803825,-0.360798,-0.842958
1144437097.833,-0.797940,-0.366670,-0.856613
1144437097.843,-0.770476,-0.397984,-0.850761
1144437097.852,-0.764591,-0.431255,-0.809793
1144437097.863,-0.762629,-0.454741,-0.782481
1144437097.873,-0.758705,-0.466484,-0.784432
1144437097.882,-0.721432,-0.450827,-0.790285
1144437097.892,-0.654733,-0.450827,-0.790285
1144437097.902,-0.613536,-0.450827,-0.803941
1144437097.912,-0.591957,-0.427341,-0.805892
1144437097.922,-0.588033,-0.397984,-0.819547
1144437097.932,-0.552722,-0.370584,-0.860515
1144437097.942,-0.493870,-0.360798,-0.885876
1144437097.952,-0.440902,-0.358841,-0.885876
1144437097.962,-0.399706,-0.378413,-0.872220
1144437097.972,-0.391859,-0.396027,-0.846859
1144437097.982,-0.411476,-0.401898,-0.848810
1144437097.992,-0.442864,-0.411684,-0.883925
1144437098.002,-0.462482,-0.388198,-0.917089
1144437098.012,-0.431094,-0.351013,-0.913188
1144437098.022,-0.407553,-0.337313,-0.917089
1144437098.032,-0.395782,-0.331441,-0.907335
1144437098.042,-0.378127,-0.315784,-0.905384
1144437098.052,-0.364394,-0.317741,-0.866368
1144437098.062,-0.370280,-0.323613,-0.844908
1144437098.072,-0.370280,-0.313827,-0.825400
1144437098.082,-0.356547,-0.327527,-0.827351
1144437098.092,-0.350662,-0.343184,-0.821498
1144437098.102,-0.364394,-0.368627,-0.837105
1144437098.112,-0.376165,-0.390156,-0.844908
1144437098.122,-0.409515,-0.405813,-0.854663
1144437098.132,-0.429132,-0.401898,-0.872220
1144437098.142,-0.436979,-0.378413,-0.874171
1144437098.154,-0.427170,-0.376456,-0.856613
1144437098.162,-0.431094,-0.394070,-0.839056
1144437098.172,-0.448749,-0.431255,-0.798088
1144437098.182,-0.478176,-0.437127,-0.788334
1144437098.192,-0.497793,-0.427341,-0.794187
1144437098.202,-0.501717,-0.411684,-0.784432
1144437098.212,-0.493870,-0.415598,-0.790285
1144437098.222,-0.489946,-0.415598,-0.815646
1144437098.232,-0.495831,-0.431255,-0.815646
1144437098.242,-0.501717,-0.429298,-0.813695
1144437098.252,-0.505640,-0.427341,-0.805892
1144437098.262,-0.527219,-0.435170,-0.796137
1144437098.272,-0.560569,-0.458655,-0.796137
1144437098.282,-0.574301,-0.482141,-0.801990
1144437098.292,-0.566454,-0.484098,-0.786383
1144437098.302,-0.550760,-0.460613,-0.790285
1144437098.312,-0.548798,-0.429298,-0.803941
1144437098.322,-0.564492,-0.419513,-0.811744
1144437098.332,-0.566454,-0.427341,-0.807842
1144437098.342,-0.552722,-0.458655,-0.837105
1144437098.352,-0.529181,-0.486055,-0.842958
1144437098.362,-0.511525,-0.497798,-0.835154
1144437098.372,-0.501717,-0.503670,-0.800039
1144437098.382,-0.511525,-0.495841,-0.798088
1144437098.392,-0.523296,-0.470398,-0.780531
1144437098.402,-0.527219,-0.468441,-0.803941
1144437098.412,-0.523296,-0.464527,-0.796137
1144437098.421,-0.511525,-0.468441,-0.835154
1144437098.432,-0.501717,-0.470398,-0.858564
1144437098.442,-0.497793,-0.460613,-0.852712
1144437098.452,-0.503678,-0.456698,-0.829302
1144437098.462,-0.523296,-0.454741,-0.823449
1144437098.472,-0.517410,-0.458655,-0.827351
1144437098.482,-0.519372,-0.468441,-0.835154
1144437098.492,-0.533104,-0.484098,-0.848810
1144437098.502,-0.564492,-0.488012,-0.878073
1144437098.513,-0.570378,-0.478227,-0.870269
1144437098.521,-0.564492,-0.466484,-0.874171
1144437098.532,-0.544875,-0.476270,-0.870269
1144437098.542,-0.537028,-0.466484,-0.831253
1144437098.552,-0.519372,-0.456698,-0.805892
1144437098.562,-0.537028,-0.458655,-0.788334
1144437098.572,-0.546837,-0.452784,-0.798088
1144437098.581,-0.576263,-0.448870,-0.813695
1144437098.591,-0.588033,-0.437127,-0.821498
1144437098.601,-0.572339,-0.439084,-0.829302
1144437098.611,-0.552722,-0.441041,-0.817597
1144437098.623,-0.529181,-0.442998,-0.842958
1144437098.631,-0.515449,-0.444955,-0.817597
1144437098.641,-0.507602,-0.442998,-0.823449
1144437098.651,-0.521334,-0.452784,-0.817597
1144437098.661,-0.554684,-0.466484,-0.817597
1144437098.671,-0.576263,-0.474313,-0.829302
1144437098.681,-0.562531,-0.488012,-0.866368
1144437098.691,-0.552722,-0.493884,-0.895630
1144437098.701,-0.544875,-0.493884,-0.909286
1144437098.711,-0.556645,-0.476270,-0.913188
1144437098.721,-0.562531,-0.472355,-0.909286
1144437098.731,-0.568416,-0.493884,-0.915139
1144437098.741,-0.560569,-0.519327,-0.895630
1144437098.751,-0.556645,-0.531069,-0.897581
1144437098.761,-0.578225,-0.523241,-0.915139
1144437098.771,-0.584110,-0.515412,-0.909286
1144437098.781,-0.591957,-0.517370,-0.924893
1144437098.791,-0.576263,-0.536941,-0.946352
1144437098.801,-0.556645,-0.548684,-0.946352
1144437098.811,-0.542913,-0.540855,-0.950254
1144437098.821,-0.535066,-0.538898,-0.928794
1144437098.831,-0.540952,-0.534984,-0.915139
1144437098.841,-0.542913,-0.519327,-0.924893
1144437098.851,-0.529181,-0.509541,-0.930745
1144437098.861,-0.523296,-0.517370,-0.948303
1144437098.871,-0.525257,-0.517370,-0.922942
1144437098.881,-0.523296,-0.507584,-0.909286
1144437098.891,-0.537028,-0.497798,-0.874171
1144437098.901,-0.546837,-0.482141,-0.868318
1144437098.911,-0.558607,-0.476270,-0.842958
1144437098.921,-0.556645,-0.466484,-0.809793
1144437098.931,-0.578225,-0.444955,-0.786383
1144437098.940,-0.603727,-0.425384,-0.768826
1144437098.951,-0.615498,-0.407770,-0.792236
1144437098.960,-0.609613,-0.409727,-0.798088
1144437098.971,-0.603727,-0.425384,-0.805892
1144437098.981,-0.589995,-0.425384,-0.788334
1144437098.991,-0.595880,-0.441041,-0.819547
1144437099.001,-0.584110,-0.466484,-0.805892
1144437099.011,-0.586072,-0.478227,-0.821498
1144437099.020,-0.595880,-0.480184,-0.837105
1144437099.031,-0.589995,-0.491927,-0.841007
1144437099.041,-0.586072,-0.497798,-0.815646
1144437099.051,-0.580186,-0.511498,-0.794187
1144437099.061,-0.578225,-0.493884,-0.823449
1144437099.070,-0.574301,-0.484098,-0.790285
1144437099.081,-0.578225,-0.480184,-0.776629
1144437099.092,-0.588033,-0.470398,-0.774678
1144437099.101,-0.605689,-0.456698,-0.778580
1144437099.111,-0.580186,-0.446913,-0.772727
1144437099.120,-0.560569,-0.441041,-0.745416
1144437099.130,-0.544875,-0.452784,-0.747366
1144437099.140,-0.548798,-0.458655,-0.725907
1144437099.150,-0.562531,-0.462570,-0.723956
1144437099.160,-0.572339,-0.450827,-0.714202
1144437099.170,-0.570378,-0.431255,-0.712251
1144437099.180,-0.562531,-0.441041,-0.735661
1144437099.190,-0.562531,-0.456698,-0.733711
1144437099.200,-0.578225,-0.456698,-0.735661
1144437099.211,-0.589995,-0.446913,-0.729809
1144437099.220,-0.584110,-0.450827,-0.747366
1144437099.231,-0.589995,-0.456698,-0.745416
1144437099.241,-0.589995,-0.458655,-0.708350
1144437099.251,-0.591957,-0.454741,-0.684940
1144437099.261,-0.591957,-0.448870,-0.665431
1144437099.271,-0.599804,-0.435170,-0.663480
1144437099.281,-0.603727,-0.425384,-0.681038
1144437099.291,-0.603727,-0.423427,-0.690792
1144437099.300,-0.611574,-0.411684,-0.686890
1144437099.311,-0.611574,-0.399941,-0.667382
1144437099.320,-0.593919,-0.397984,-0.638119
1144437099.331,-0.588033,-0.394070,-0.618611
1144437099.340,-0.578225,-0.397984,-0.581545
1144437099.350,-0.586072,-0.405813,-0.601053
1144437099.361,-0.601766,-0.403856,-0.591299
1144437099.370,-0.599804,-0.386241,-0.589348
1144437099.380,-0.599804,-0.366670,-0.560086
1144437099.390,-0.586072,-0.354927,-0.556184
1144437099.400,-0.562531,-0.345141,-0.563988
1144437099.410,-0.540952,-0.341227,-0.556184
1144437099.420,-0.548798,-0.341227,-0.538627
1144437099.430,-0.572339,-0.345141,-0.507413
1144437099.440,-0.593919,-0.347098,-0.513266
1144437099.450,-0.607651,-0.343184,-0.521069
1144437099.460,-0.601766,-0.335356,-0.519118
1144437099.470,-0.582148,-0.339270,-0.503512
1144437099.480,-0.572339,-0.349056,-0.526922
1144437099.490,-0.578225,-0.343184,-0.509364
1144437099.500,-0.582148,-0.347098,-0.487905
1144437099.510,-0.589995,-0.343184,-0.491807
1144437099.520,-0.584110,-0.339270,-0.499610
1144437099.530,-0.589995,-0.335356,-0.521069
1144437099.540,-0.591957,-0.321656,-0.501561
1144437099.550,-0.609613,-0.327527,-0.474249
1144437099.561,-0.613536,-0.315784,-0.472298
1144437099.570,-0.621383,-0.317741,-0.460593
1144437099.580,-0.625306,-0.319699,-0.470347
1144437099.590,-0.633154,-0.325570,-0.480101
1144437099.600,-0.646886,-0.325570,-0.523020
1144437099.610,-0.639039,-0.327527,-0.526922
1144437099.620,-0.633154,-0.329484,-0.548381
1144437099.630,-0.635115,-0.319699,-0.554233
1144437099.640,-0.635115,-0.325570,-0.519118
1144437099.650,-0.650809,-0.339270,-0.493757
1144437099.660,-0.674350,-0.341227,-0.487905
1144437099.670,-0.684159,-0.329484,-0.472298
1144437099.680,-0.690044,-0.315784,-0.476200
1144437099.690,-0.686121,-0.313827,-0.485954
1144437099.700,-0.686121,-0.315784,-0.497659
1144437099.710,-0.676312,-0.309913,-0.515217
1144437099.720,-0.670427,-0.302084,-0.493757
1144437099.730,-0.666503,-0.286427,-0.493757
1144437099.740,-0.688082,-0.268813,-0.476200
1144437099.750,-0.695929,-0.268813,-0.458642
1144437099.760,-0.705738,-0.284470,-0.435232
1144437099.770,-0.709662,-0.305999,-0.429380
1144437099.780,-0.701815,-0.300127,-0.419625
1144437099.790,-0.692006,-0.280556,-0.415724
1144437099.800,-0.701815,-0.262942,-0.415724
1144437099.810,-0.711623,-0.251199,-0.433281
1144437099.820,-0.715547,-0.241413,-0.437183
1144437099.830,-0.723394,-0.229670,-0.439134
1144437099.841,-0.719470,-0.208142,-0.441085
1144437099.850,-0.725356,-0.214013,-0.431330
1144437099.860,-0.723394,-0.231627,-0.417675
1144437099.870,-0.735164,-0.221842,-0.409871
1144437099.880,-0.739088,-0.219885,-0.404019
1144437099.890,-0.744973,-0.221842,-0.411822
1144437099.900,-0.744973,-0.229670,-0.435232
1144437099.910,-0.760667,-0.223799,-0.462544
1144437099.920,-0.758705,-0.225756,-0.466446
1144437099.930,-0.760667,-0.221842,-0.454741
1144437099.939,-0.772437,-0.212056,-0.446937
1144437099.950,-0.778323,-0.221842,-0.435232
1144437099.960,-0.778323,-0.233584,-0.423527
1144437099.970,-0.795978,-0.245327,-0.415724
1144437099.980,-0.803825,-0.245327,-0.421576
1144437099.990,-0.811672,-0.229670,-0.437183
1144437100.000,-0.811672,-0.231627,-0.437183
1144437100.010,-0.829328,-0.231627,-0.454741
1144437100.020,-0.843060,-0.231627,-0.439134
1144437100.030,-0.852869,-0.231627,-0.427429
1144437100.040,-0.858754,-0.225756,-0.439134
1144437100.050,-0.860716,-0.219885,-0.444986
1144437100.060,-0.864640,-0.219885,-0.443036
1144437100.070,-0.866601,-0.223799,-0.437183
1144437100.079,-0.876410,-0.233584,-0.443036
1144437100.089,-0.892104,-0.229670,-0.443036
1144437100.100,-0.899951,-0.245327,-0.450839
1144437100.109,-0.894066,-0.243370,-0.456691
1144437100.119,-0.899951,-0.245327,-0.452790
1144437100.129,-0.901913,-0.239456,-0.450839
1144437100.139,-0.901913,-0.241413,-0.433281
1144437100.149,-0.903874,-0.235542,-0.444986
1144437100.159,-0.909760,-0.215970,-0.425478
1144437100.169,-0.905836,-0.212056,-0.429380
1144437100.179,-0.917607,-0.196399,-0.439134
1144437100.189,-0.923492,-0.178785,-0.450839
1144437100.199,-0.917607,-0.184656,-0.444986
1144437100.209,-0.919568,-0.178785,-0.443036
1144437100.219,-0.915645,-0.186613,-0.443036
1144437100.229,-0.931339,-0.182699,-0.450839
1144437100.239,-0.923492,-0.182699,-0.441085
1144437100.249,-0.915645,-0.188570,-0.466446
1144437100.259,-0.911721,-0.188570,-0.466446
1144437100.269,-0.907798,-0.186613,-0.480101
1144437100.279,-0.901913,-0.198356,-0.485954
1144437100.289,-0.903874,-0.204227,-0.472298
1144437100.299,-0.903874,-0.206185,-0.482052
1144437100.311,-0.901913,-0.217927,-0.466446
1144437100.319,-0.899951,-0.214013,-0.484003
1144437100.329,-0.896027,-0.210099,-0.485954
1144437100.339,-0.884257,-0.210099,-0.495708
1144437100.349,-0.870525,-0.210099,-0.501561
1144437100.359,-0.878372,-0.210099,-0.491807
1144437100.369,-0.874448,-0.221842,-0.484003
1144437100.379,-0.858754,-0.221842,-0.501561
1144437100.389,-0.854831,-0.223799,-0.489856
1144437100.399,-0.852869,-0.215970,-0.493757
1144437100.409,-0.858754,-0.215970,-0.485954
1144437100.419,-0.858754,-0.217927,-0.482052
1144437100.429,-0.848946,-0.215970,-0.476200
1144437100.439,-0.848946,-0.200313,-0.484003
1144437100.449,-0.850907,-0.194442,-0.511315
1144437100.459,-0.841099,-0.200313,-0.493757
1144437100.469,-0.841099,-0.208142,-0.493757
1144437100.479,-0.843060,-0.212056,-0.470347
1144437100.489,-0.831290,-0.206185,-0.484003
1144437100.499,-0.835213,-0.214013,-0.470347
1144437100.510,-0.846984,-0.219885,-0.478151
1144437100.519,-0.854831,-0.215970,-0.476200
1144437100.529,-0.858754,-0.223799,-0.466446
1144437100.539,-0.862678,-0.223799,-0.485954
1144437100.549,-0.870525,-0.223799,-0.476200
1144437100.559,-0.866601,-0.212056,-0.478151
1144437100.569,-0.866601,-0.221842,-0.462544
1144437100.579,-0.868563,-0.225756,-0.476200
1144437100.589,-0.858754,-0.215970,-0.470347
1144437100.599,-0.856793,-0.214013,-0.462544
1144437100.609,-0.856793,-0.212056,-0.466446
1144437100.619,-0.858754,-0.198356,-0.482052
1144437100.629,-0.856793,-0.184656,-0.474249
1144437100.639,-0.858754,-0.194442,-0.476200
1144437100.649,-0.854831,-0.202270,-0.487905
1144437100.659,-0.854831,-0.196399,-0.476200
1144437100.669,-0.846984,-0.198356,-0.472298
1144437100.679,-0.852869,-0.194442,-0.476200
1144437100.689,-0.862678,-0.182699,-0.476200
1144437100.699,-0.860716,-0.190527,-0.456691
1144437100.709,-0.862678,-0.192485,-0.464495
1144437100.719,-0.872486,-0.190527,-0.468396
1144437100.729,-0.876410,-0.184656,-0.466446
1144437100.739,-0.868563,-0.182699,-0.458642
1144437100.749,-0.862678,-0.192485,-0.462544
1144437100.758,-0.862678,-0.186613,-0.456691
1144437100.768,-0.870525,-0.190527,-0.458642
1144437100.779,-0.872486,-0.190527,-0.456691
1144437100.788,-0.866601,-0.196399,-0.458642
1144437100.798,-0.866601,-0.196399,-0.466446
1144437100.809,-0.860716,-0.196399,-0.462544
1144437100.818,-0.872486,-0.190527,-0.484003
1144437100.828,-0.868563,-0.200313,-0.482052
1144437100.838,-0.876410,-0.206185,-0.505462
1144437100.848,-0.882295,-0.200313,-0.511315
1144437100.858,-0.870525,-0.204227,-0.505462
1144437100.868,-0.866601,-0.215970,-0.507413
1144437100.879,-0.868563,-0.223799,-0.497659
1144437100.888,-0.864640,-0.217927,-0.511315
1144437100.898,-0.850907,-0.214013,-0.511315
1144437100.908,-0.864640,-0.210099,-0.511315
1144437100.918,-0.862678,-0.212056,-0.532774
1144437100.928,-0.860716,-0.202270,-0.530823
1144437100.938,-0.854831,-0.196399,-0.532774
1144437100.948,-0.839137,-0.196399,-0.519118
1144437100.958,-0.841099,-0.194442,-0.497659
1144437100.968,-0.835213,-0.196399,-0.497659
1144437100.978,-0.827366,-0.198356,-0.495708
1144437100.988,-0.817558,-0.194442,-0.472298
1144437100.998,-0.805787,-0.202270,-0.491807
1144437101.008,-0.803825,-0.198356,-0.497659
1144437101.018,-0.788131,-0.188570,-0.491807
1144437101.028,-0.780284,-0.194442,-0.495708
1144437101.038,-0.782246,-0.206185,-0.489856
1144437101.048,-0.782246,-0.212056,-0.497659
1144437101.060,-0.780284,-0.214013,-0.482052
1144437101.068,-0.760667,-0.206185,-0.476200
1144437101.078,-0.766552,-0.202270,-0.478151
1144437101.088,-0.760667,-0.217927,-0.472298
1144437101.098,-0.758705,-0.215970,-0.476200
1144437101.108,-0.758705,-0.212056,-0.484003
1144437101.118,-0.743011,-0.208142,-0.505462
1144437101.128,-0.741050,-0.204227,-0.503512
1144437101.138,-0.733203,-0.221842,-0.515217
1144437101.148,-0.733203,-0.223799,-0.519118
1144437101.158,-0.735164,-0.223799,-0.532774
1144437101.168,-0.721432,-0.214013,-0.538627
1144437101.178,-0.723394,-0.219885,-0.534725
1144437101.188,-0.717509,-0.223799,-0.542528
1144437101.198,-0.713585,-0.219885,-0.546430
1144437101.208,-0.699853,-0.214013,-0.554233
1144437101.218,-0.693968,-0.221842,-0.556184
1144437101.228,-0.678274,-0.212056,-0.540577
1144437101.238,-0.678274,-0.217927,-0.550332
1144437101.248,-0.668465,-0.212056,-0.554233
1144437101.258,-0.658656,-0.217927,-0.573742
1144437101.267,-0.654733,-0.206185,-0.577643
1144437101.278,-0.637077,-0.214013,-0.573742
1144437101.288,-0.625306,-0.221842,-0.573742
1144437101.298,-0.621383,-0.221842,-0.577643
1144437101.308,-0.615498,-0.212056,-0.579594
1144437101.318,-0.617460,-0.208142,-0.569840
1144437101.328,-0.607651,-0.204227,-0.585447
1144437101.338,-0.591957,-0.200313,-0.599103
1144437101.348,-0.576263,-0.202270,-0.624464
1144437101.358,-0.552722,-0.202270,-0.612759
1144437101.368,-0.546837,-0.196399,-0.628365
1144437101.378,-0.531143,-0.198356,-0.645923
1144437101.388,-0.523296,-0.217927,-0.651775
1144437101.398,-0.521334,-0.225756,-0.681038
1144437101.408,-0.503678,-0.245327,-0.718104
1144437101.418,-0.482099,-0.266856,-0.745416
1144437101.427,-0.460520,-0.278599,-0.739563
1144437101.437,-0.454635,-0.307956,-0.751268
1144437101.447,-0.454635,-0.323613,-0.745416
1144437101.457,-0.460520,-0.335356,-0.727858
1144437101.467,-0.462482,-0.331441,-0.749317
1144437101.477,-0.476214,-0.347098,-0.739563
1144437101.487,-0.476214,-0.349056,-0.745416
1144437101.497,-0.486023,-0.343184,-0.731760
1144437101.507,-0.493870,-0.319699,-0.739563
1144437101.517,-0.495831,-0.282513,-0.735661
1144437101.529,-0.478176,-0.270770,-0.747366
1144437101.537,-0.480137,-0.259027,-0.759072
1144437101.547,-0.468367,-0.237499,-0.772727
1144437101.557,-0.454635,-0.241413,-0.764924
1144437101.567,-0.450711,-0.253156,-0.737612
1144437101.577,-0.460520,-0.253156,-0.743465
1144437101.587,-0.478176,-0.249242,-0.757121
1144437101.597,-0.487984,-0.249242,-0.772727
1144437101.607,-0.491908,-0.257070,-0.796137
1144437101.617,-0.501717,-0.264899,-0.801990
1144437101.627,-0.503678,-0.272727,-0.831253
1144437101.637,-0.503678,-0.298170,-0.835154
1144437101.647,-0.489946,-0.315784,-0.815646
1144437101.657,-0.484061,-0.327527,-0.798088
1144437101.667,-0.474252,-0.341227,-0.786383
1144437101.677,-0.482099,-0.352970,-0.770777
1144437101.687,-0.478176,-0.349056,-0.761022
1144437101.697,-0.464443,-0.349056,-0.733711
1144437101.707,-0.474252,-0.333399,-0.745416
1144437101.717,-0.476214,-0.333399,-0.737612
1144437101.727,-0.480137,-0.319699,-0.764924
1144437101.737,-0.464443,-0.335356,-0.753219
1144437101.747,-0.452673,-0.337313,-0.749317
1144437101.757,-0.446788,-0.349056,-0.755170
1144437101.767,-0.448749,-0.341227,-0.745416
1144437101.777,-0.456596,-0.343184,-0.708350
1144437101.787,-0.460520,-0.341227,-0.706399
1144437101.797,-0.454635,-0.331441,-0.702497
1144437101.807,-0.452673,-0.325570,-0.708350
1144437101.817,-0.450711,-0.329484,-0.722005
1144437101.827,-0.442864,-0.325570,-0.761022
1144437101.837,-0.429132,-0.313827,-0.762973
1144437101.846,-0.427170,-0.311870,-0.770777
1144437101.857,-0.419323,-0.323613,-0.770777
1144437101.867,-0.421285,-0.345141,-0.766875
1144437101.877,-0.427170,-0.345141,-0.770777
1144437101.887,-0.431094,-0.327527,-0.757121
1144437101.897,-0.421285,-0.323613,-0.780531
1144437101.907,-0.423247,-0.337313,-0.782481
1144437101.917,-0.415400,-0.337313,-0.798088
1144437101.927,-0.413438,-0.341227,-0.809793
1144437101.937,-0.405591,-0.343184,-0.827351
1144437101.947,-0.411476,-0.337313,-0.821498
1144437101.957,-0.415400,-0.337313,-0.839056
1144437101.967,-0.419323,-0.337313,-0.874171
1144437101.977,-0.405591,-0.333399,-0.891729
1144437101.987,-0.393821,-0.345141,-0.907335
1144437101.998,-0.380088,-0.349056,-0.940500
1144437102.007,-0.391859,-0.356884,-0.956106
1144437102.017,-0.374203,-0.368627,-0.944401
1144437102.027,-0.391859,-0.362756,-0.965860
1144437102.037,-0.413438,-0.366670,-1.002926
1144437102.047,-0.425208,-0.394070,-1.004877
1144437102.057,-0.425208,-0.405813,-1.010730
1144437102.067,-0.401668,-0.419513,-1.026336
1144437102.077,-0.399706,-0.425384,-0.971713
1144437102.087,-0.384012,-0.413641,-0.963910
1144437102.097,-0.380088,-0.388198,-0.920991
1144437102.107,-0.389897,-0.351013,-0.932696
1144437102.117,-0.411476,-0.351013,-0.899532
1144437102.127,-0.409515,-0.349056,-0.897581
1144437102.137,-0.417361,-0.341227,-0.919040
1144437102.146,-0.431094,-0.352970,-0.907335
1144437102.156,-0.405591,-0.370584,-0.911237
1144437102.166,-0.397744,-0.366670,-0.919040
1144437102.176,-0.389897,-0.358841,-0.911237
1144437102.186,-0.376165,-0.354927,-0.895630
1144437102.196,-0.382050,-0.354927,-0.887827
1144437102.206,-0.413438,-0.360798,-0.911237
1144437102.216,-0.433055,-0.366670,-0.919040
1144437102.226,-0.419323,-0.364713,-0.946352
1144437102.236,-0.413438,-0.374498,-0.954155
1144437102.246,-0.409515,-0.372541,-0.958057
1144437102.256,-0.407553,-0.374498,-0.956106
1144437102.266,-0.405591,-0.394070,-0.963910
1144437102.276,-0.407553,-0.394070,-0.950254
1144437102.286,-0.415400,-0.368627,-0.969762
1144437102.296,-0.401668,-0.354927,-0.944401
1144437102.306,-0.387935,-0.354927,-0.940500
1144437102.316,-0.382050,-0.354927,-0.942450
1144437102.326,-0.378127,-0.352970,-0.952205
1144437102.336,-0.384012,-0.343184,-0.948303
1144437102.346,-0.385974,-0.339270,-0.958057
1144437102.356,-0.401668,-0.376456,-0.950254
1144437102.366,-0.397744,-0.382327,-0.952205
1144437102.376,-0.399706,-0.370584,-0.915139
1144437102.386,-0.389897,-0.374498,-0.885876
1144437102.396,-0.395782,-0.366670,-0.872220
1144437102.406,-0.385974,-0.364713,-0.835154
1144437102.416,-0.384012,-0.360798,-0.842958
1144437102.426,-0.382050,-0.374498,-0.864417
1144437102.436,-0.374203,-0.386241,-0.889778
1144437102.446,-0.360471,-0.421470,-0.897581
1144437102.456,-0.352624,-0.448870,-0.909286
1144437102.467,-0.354586,-0.464527,-0.907335
1144437102.476,-0.350662,-0.466484,-0.897581
1144437102.486,-0.346739,-0.456698,-0.901483
1144437102.496,-0.338892,-0.448870,-0.895630
1144437102.507,-0.348700,-0.427341,-0.905384
1144437102.516,-0.360471,-0.423427,-0.905384
1144437102.526,-0.368318,-0.411684,-0.895630
1144437102.536,-0.366356,-0.417555,-0.897581
1144437102.546,-0.356547,-0.427341,-0.887827
1144437102.556,-0.364394,-0.442998,-0.856613
1144437102.566,-0.376165,-0.452784,-0.837105
1144437102.576,-0.397744,-0.470398,-0.819547
1144437102.586,-0.405591,-0.468441,-0.807842
1144437102.596,-0.405591,-0.448870,-0.811744
1144437102.606,-0.407553,-0.411684,-0.819547
1144437102.616,-0.413438,-0.415598,-0.821498
1144437102.626,-0.399706,-0.429298,-0.831253
1144437102.636,-0.413438,-0.427341,-0.829302
1144437102.646,-0.417361,-0.427341,-0.819547
1144437102.656,-0.423247,-0.431255,-0.805892
1144437102.666,-0.433055,-0.431255,-0.794187
1144437102.676,-0.436979,-0.431255,-0.794187
1144437102.686,-0.433055,-0.437127,-0.798088
1144437102.696,-0.438941,-0.435170,-0.815646
1144437102.706,-0.425208,-0.437127,-0.811744
1144437102.716,-0.423247,-0.441041,-0.798088
1144437102.726,-0.436979,-0.437127,-0.764924
1144437102.736,-0.450711,-0.454741,-0.770777
1144437102.747,-0.470329,-0.450827,-0.778580
1144437102.756,-0.491908,-0.448870,-0.780531
1144437102.766,-0.487984,-0.441041,-0.790285
1144437102.776,-0.480137,-0.437127,-0.800039
1144437102.786,-0.472290,-0.437127,-0.798088
1144437102.796,-0.472290,-0.431255,-0.800039
1144437102.806,-0.464443,-0.433213,-0.792236
1144437102.816,-0.446788,-0.431255,-0.780531
1144437102.826,-0.435017,-0.423427,-0.788334
1144437102.836,-0.436979,-0.419513,-0.784432
1144437102.846,-0.442864,-0.427341,-0.790285
1144437102.855,-0.446788,-0.427341,-0.792236
1144437102.866,-0.452673,-0.433213,-0.805892
1144437102.876,-0.452673,-0.417555,-0.792236
1144437102.886,-0.446788,-0.421470,-0.786383
1144437102.896,-0.442864,-0.427341,-0.796137
1144437102.905,-0.440902,-0.419513,-0.800039
1144437102.915,-0.438941,-0.413641,-0.801990
1144437102.925,-0.450711,-0.421470,-0.788334
1144437102.936,-0.456596,-0.437127,-0.805892
1144437102.945,-0.478176,-0.435170,-0.807842
1144437102.955,-0.478176,-0.437127,-0.833203
1144437102.965,-0.466405,-0.462570,-0.842958
1144437102.975,-0.478176,-0.484098,-0.850761
1144437102.985,-0.491908,-0.484098,-0.839056
1144437102.995,-0.515449,-0.482141,-0.839056
1144437103.005,-0.509563,-0.488012,-0.852712
1144437103.015,-0.515449,-0.495841,-0.868318
1144437103.025,-0.529181,-0.489970,-0.868318
1144437103.035,-0.535066,-0.489970,-0.893679
1144437103.045,-0.542913,-0.495841,-0.909286
1144437103.055,-0.560569,-0.507584,-0.922942
1144437103.065,-0.582148,-0.523241,-0.956106
1144437103.075,-0.588033,-0.552598,-0.987320
1144437103.085,-0.572339,-0.589784,-1.030238
1144437103.095,-0.588033,-0.599569,-1.077058
1144437103.105,-0.591957,-0.617184,-1.096566
1144437103.115,-0.580186,-0.619141,-1.100468
1144437103.125,-0.560569,-0.613269,-1.098518
1144437103.135,-0.560569,-0.611312,-1.084862
1144437103.145,-0.550760,-0.621098,-1.047795
1144437103.155,-0.552722,-0.615226,-1.024386
1144437103.165,-0.568416,-0.605441,-1.034140
1144437103.175,-0.572339,-0.560427,-1.030238
1144437103.185,-0.544875,-0.542812,-1.000975
1144437103.195,-0.523296,-0.525198,-0.958057
1144437103.205,-0.505640,-0.503670,-0.917089
1144437103.216,-0.515449,-0.491927,-0.887827
1144437103.225,-0.523296,-0.468441,-0.883925
1144437103.235,-0.525257,-0.458655,-0.872220
1144437103.245,-0.529181,-0.442998,-0.848810
1144437103.255,-0.540952,-0.429298,-0.833203
1144437103.265,-0.535066,-0.413641,-0.831253
1144437103.275,-0.517410,-0.425384,-0.833203
1144437103.285,-0.517410,-0.423427,-0.844908
1144437103.294,-0.531143,-0.439084,-0.854663
1144437103.305,-0.533104,-0.452784,-0.848810
1144437103.315,-0.513487,-0.462570,-0.850761
1144437103.325,-0.503678,-0.462570,-0.841007
1144437103.335,-0.501717,-0.468441,-0.844908
1144437103.345,-0.509563,-0.468441,-0.841007
1144437103.355,-0.525257,-0.468441,-0.831253
1144437103.365,-0.531143,-0.474313,-0.839056
1144437103.375,-0.548798,-0.491927,-0.842958
1144437103.385,-0.544875,-0.489970,-0.835154
1144437103.395,-0.550760,-0.489970,-0.817597
1144437103.405,-0.542913,-0.482141,-0.823449
1144437103.415,-0.535066,-0.474313,-0.792236
1144437103.425,-0.535066,-0.454741,-0.780531
1144437103.435,-0.537028,-0.423427,-0.755170
1144437103.445,-0.554684,-0.425384,-0.731760
1144437103.455,-0.578225,-0.437127,-0.749317
1144437103.465,-0.589995,-0.446913,-0.774678
1144437103.475,-0.593919,-0.431255,-0.764924
1144437103.485,-0.578225,-0.417555,-0.747366
1144437103.495,-0.576263,-0.415598,-0.757121
1144437103.505,-0.584110,-0.431255,-0.766875
1144437103.515,-0.580186,-0.446913,-0.751268
1144437103.525,-0.580186,-0.442998,-0.716153
1144437103.535,-0.589995,-0.431255,-0.708350
1144437103.545,-0.611574,-0.415598,-0.688841
1144437103.555,-0.605689,-0.403856,-0.704448
1144437103.565,-0.611574,-0.409727,-0.702497
1144437103.575,-0.597842,-0.405813,-0.694694
1144437103.585,-0.582148,-0.409727,-0.690792
1144437103.594,-0.584110,-0.397984,-0.673235
1144437103.604,-0.582148,-0.396027,-0.659579
1144437103.614,-0.570378,-0.392113,-0.642021
1144437103.624,-0.570378,-0.384284,-0.626414
1144437103.634,-0.582148,-0.384284,-0.601053
1144437103.644,-0.597842,-0.378413,-0.591299
1144437103.654,-0.611574,-0.382327,-0.593250
1144437103.664,-0.621383,-0.386241,-0.612759
1144437103.674,-0.609613,-0.380370,-0.632267
1144437103.686,-0.576263,-0.370584,-0.606906
1144437103.694,-0.566454,-0.345141,-0.601053
1144437103.704,-0.558607,-0.325570,-0.571791
1144437103.714,-0.582148,-0.321656,-0.550332
1144437103.724,-0.609613,-0.339270,-0.530823
1144437103.734,-0.625306,-0.351013,-0.505462
1144437103.744,-0.621383,-0.352970,-0.515217
1144437103.754,-0.625306,-0.347098,-0.511315
1144437103.764,-0.611574,-0.337313,-0.511315
1144437103.774,-0.605689,-0.323613,-0.523020
1144437103.784,-0.595880,-0.309913,-0.515217
1144437103.794,-0.580186,-0.288384,-0.499610
1144437103.804,-0.584110,-0.274684,-0.487905
