absolute_timestamp,accel_x,accel_y,accel_z
1775528978467,0.226,-0.619,-0.779
1775528978487,0.219,-0.630,-0.771
1775528978507,0.208,-0.632,-0.735
1775528978527,0.208,-0.638,-0.697
1775528978546,0.218,-0.617,-0.677
1775528978566,0.231,-0.612,-0.681
1775528978586,0.244,-0.620,-0.700
1775528978605,0.253,-0.627,-0.718
1775528978625,0.252,-0.629,-0.763
1775528978645,0.247,-0.624,-0.771
1775528978664,0.255,-0.621,-0.783
1775528978684,0.254,-0.633,-0.760
1775528978704,0.246,-0.614,-0.733
1775528978724,0.229,-0.595,-0.706
1775528978743,0.212,-0.601,-0.696
1775528978763,0.198,-0.622,-0.666
1775528978783,0.167,-0.642,-0.621
1775528978802,0.185,-0.537,-0.676
1775528978822,0.204,-0.554,-0.755
1775528978842,0.201,-0.630,-0.716
1775528978861,0.198,-0.575,-0.751
1775528978881,0.225,-0.479,-0.864
1775528978901,0.213,-0.562,-0.832
1775528978921,0.188,-0.575,-0.799
1775528978940,0.181,-0.554,-0.809
1775528978960,0.200,-0.490,-0.888
1775528978980,0.192,-0.537,-0.867
1775528978999,0.176,-0.539,-0.804
1775528979019,0.164,-0.517,-0.797
1775528979039,0.180,-0.461,-0.870
1775528979058,0.190,-0.503,-0.875
1775528979078,0.174,-0.512,-0.846
1775528979098,0.177,-0.481,-0.871
1775528979117,0.189,-0.447,-0.943
1775528979137,0.178,-0.482,-0.908
1775528979157,0.163,-0.497,-0.867
1775528979177,0.157,-0.510,-0.857
1775528979196,0.164,-0.452,-0.868
1775528979216,0.161,-0.441,-0.876
1775528979236,0.163,-0.465,-0.866
1775528979255,0.163,-0.499,-0.855
1775528979275,0.170,-0.441,-0.901
1775528979295,0.157,-0.465,-0.902
1775528979314,0.155,-0.476,-0.855
1775528979334,0.158,-0.463,-0.860
1775528979354,0.171,-0.459,-0.881
1775528979374,0.174,-0.463,-0.865
1775528979393,0.170,-0.453,-0.851
1775528979413,0.171,-0.421,-0.862
1775528979433,0.169,-0.455,-0.857
1775528979452,0.182,-0.453,-0.865
1775528979472,0.176,-0.427,-0.881
1775528979492,0.167,-0.424,-0.880
1775528979511,0.167,-0.434,-0.857
1775528979531,0.169,-0.435,-0.885
1775528979551,0.169,-0.458,-0.879
1775528979570,0.172,-0.432,-0.859
1775528979590,0.168,-0.402,-0.869
1775528979610,0.171,-0.428,-0.880
1775528979630,0.168,-0.431,-0.876
1775528979649,0.169,-0.422,-0.891
1775528979669,0.167,-0.431,-0.890
1775528979689,0.168,-0.423,-0.883
1775528979708,0.170,-0.420,-0.895
1775528979728,0.167,-0.422,-0.892
1775528979748,0.160,-0.425,-0.877
1775528979767,0.167,-0.406,-0.883
1775528979787,0.162,-0.422,-0.881
1775528979807,0.158,-0.433,-0.882
1775528979827,0.154,-0.428,-0.884
1775528979846,0.155,-0.419,-0.894
1775528979866,0.154,-0.427,-0.884
1775528979886,0.157,-0.429,-0.884
1775528979905,0.158,-0.414,-0.887
1775528979925,0.156,-0.420,-0.895
1775528979945,0.155,-0.435,-0.894
1775528979964,0.157,-0.411,-0.894
1775528979984,0.159,-0.416,-0.906
1775528980004,0.161,-0.436,-0.889
1775528980024,0.164,-0.412,-0.886
1775528980043,0.164,-0.403,-0.891
1775528980063,0.163,-0.404,-0.880
1775528980083,0.154,-0.428,-0.863
1775528980102,0.149,-0.419,-0.867
1775528980122,0.150,-0.426,-0.894
1775528980142,0.157,-0.433,-0.891
1775528980161,0.166,-0.427,-0.890
1775528980181,0.172,-0.409,-0.890
1775528980201,0.171,-0.399,-0.891
1775528980220,0.171,-0.406,-0.893
1775528980240,0.173,-0.421,-0.882
1775528980260,0.167,-0.421,-0.883
1775528980280,0.165,-0.410,-0.888
1775528980299,0.165,-0.401,-0.885
1775528980319,0.164,-0.417,-0.884
1775528980339,0.166,-0.422,-0.873
1775528980358,0.172,-0.398,-0.884
1775528980378,0.169,-0.420,-0.876
1775528980398,0.170,-0.406,-0.878
1775528980418,0.171,-0.401,-0.879
1775528980437,0.168,-0.419,-0.876
1775528980457,0.165,-0.410,-0.872
1775528980477,0.171,-0.401,-0.890
1775528980496,0.165,-0.411,-0.895
1775528980516,0.165,-0.435,-0.890
1775528980536,0.173,-0.403,-0.901
1775528980555,0.173,-0.406,-0.912
1775528980575,0.175,-0.421,-0.889
1775528980595,0.180,-0.403,-0.881
1775528980615,0.180,-0.387,-0.882
1775528980634,0.176,-0.399,-0.888
1775528980654,0.170,-0.408,-0.889
1775528980674,0.170,-0.408,-0.898
1775528980693,0.179,-0.386,-0.890
1775528980713,0.192,-0.381,-0.875
1775528980733,0.193,-0.360,-0.862
1775528980752,0.189,-0.368,-0.864
1775528980772,0.189,-0.369,-0.870
1775528980792,0.196,-0.351,-0.878
1775528980812,0.199,-0.354,-0.897
1775528980831,0.198,-0.356,-0.916
1775528980851,0.208,-0.323,-0.939
1775528980871,0.209,-0.319,-0.937
1775528980890,0.213,-0.338,-0.923
1775528980910,0.211,-0.334,-0.927
1775528980930,0.224,-0.322,-0.975
1775528980949,0.247,-0.336,-0.989
1775528980969,0.258,-0.383,-1.014
1775528980989,0.250,-0.333,-1.069
1775528981009,0.255,-0.316,-1.087
1775528981028,0.267,-0.406,-1.101
1775528981048,0.300,-0.450,-1.145
1775528981068,0.309,-0.416,-1.169
1775528981087,0.290,-0.364,-1.167
1775528981107,0.259,-0.443,-1.171
1775528981127,0.241,-0.420,-1.244
1775528981146,0.202,-0.424,-1.152
1775528981166,0.173,-0.507,-1.053
1775528981186,0.137,-0.508,-0.916
1775528981206,0.032,-0.546,-0.704
1775528981225,-0.101,-0.441,-0.506
1775528981245,-0.137,-0.643,-0.352
1775528981265,-0.037,-0.836,-0.265
1775528981284,0.054,-0.494,-0.336
1775528981304,0.187,-0.095,-0.450
1775528981324,0.075,-0.106,-0.399
1775528981344,0.018,-0.297,-0.460
1775528981363,-0.001,-0.229,-0.601
1775528981383,-0.098,-0.185,-0.663
1775528981403,-0.068,-0.297,-0.791
1775528981422,0.210,-0.746,-0.977
1775528981442,0.292,-0.574,-1.283
1775528981462,0.262,0.108,-1.374
1775528981481,0.188,0.000,-1.368
1775528981501,0.103,-0.503,-1.346
1775528981521,0.129,-0.407,-1.429
1775528981541,0.196,-0.251,-1.424
1775528981560,0.231,-0.298,-1.428
1775528981580,0.212,-0.274,-1.354
1775528981600,0.202,-0.320,-1.285
1775528981619,0.201,-0.356,-1.229
1775528981639,0.201,-0.402,-1.233
1775528981659,0.239,-0.489,-1.221
1775528981679,0.211,-0.384,-1.206
1775528981698,0.165,-0.447,-1.103
1775528981718,0.147,-0.598,-0.928
1775528981738,0.123,-0.503,-0.783
1775528981757,0.108,-0.531,-0.674
1775528981777,0.100,-0.673,-0.511
1775528981797,0.095,-0.770,-0.353
1775528981817,0.178,-0.716,-0.324
1775528981836,0.223,-0.792,-0.370
1775528981856,0.211,-0.690,-0.408
1775528981876,0.152,-0.411,-0.392
1775528981895,0.065,-0.668,-0.466
1775528981915,0.073,-0.726,-0.626
1775528981935,0.115,-0.707,-0.636
1775528981954,0.116,-0.581,-0.538
1775528981974,0.104,-0.420,-0.456
1775528981994,0.026,-0.479,-0.525
1775528982014,0.035,-0.519,-0.686
1775528982033,0.121,-0.928,-0.629
1775528982053,0.250,-1.011,-0.653
1775528982073,0.281,-0.429,-0.824
1775528982092,0.285,-0.570,-0.881
1775528982112,0.310,-0.982,-0.775
1775528982132,0.359,-0.740,-0.757
1775528982152,0.383,-0.744,-0.790
1775528982171,0.434,-0.786,-0.754
1775528982191,0.406,-0.858,-0.685
1775528982211,0.359,-0.851,-0.570
1775528982230,0.319,-0.798,-0.504
1775528982250,0.280,-0.833,-0.565
1775528982270,0.263,-0.816,-0.559
1775528982290,0.241,-0.968,-0.488
1775528982309,0.230,-1.020,-0.442
1775528982329,0.194,-0.929,-0.440
1775528982349,0.198,-0.713,-0.503
1775528982368,0.226,-0.670,-0.569
1775528982388,0.205,-0.787,-0.537
1775528982408,0.138,-0.804,-0.486
1775528982427,0.101,-0.744,-0.481
1775528982447,0.112,-0.632,-0.509
1775528982467,0.126,-0.560,-0.536
1775528982487,0.084,-0.658,-0.536
1775528982506,0.068,-0.671,-0.532
1775528982526,0.038,-0.667,-0.546
1775528982546,0.029,-0.566,-0.569
1775528982565,0.052,-0.583,-0.628
1775528982585,0.055,-0.593,-0.625
1775528982605,0.051,-0.611,-0.648
1775528982624,0.049,-0.602,-0.646
1775528982644,0.029,-0.679,-0.739
1775528982664,0.026,-0.610,-0.768
1775528982683,0.019,-0.580,-0.710
1775528982703,0.031,-0.610,-0.687
1775528982723,0.034,-0.556,-0.652
1775528982743,0.040,-0.551,-0.665
1775528982762,0.057,-0.543,-0.643
1775528982782,0.054,-0.580,-0.658
1775528982802,0.047,-0.543,-0.714
1775528982821,0.047,-0.495,-0.720
1775528982841,0.059,-0.502,-0.726
1775528982861,0.062,-0.558,-0.838
1775528982880,0.061,-0.490,-0.852
1775528982900,0.056,-0.538,-0.850
1775528982920,0.053,-0.558,-0.914
1775528982939,0.051,-0.507,-0.942
1775528982959,0.055,-0.454,-0.915
1775528982979,0.067,-0.505,-0.882
1775528982999,0.077,-0.505,-0.872
1775528983018,0.089,-0.444,-0.854
1775528983038,0.094,-0.375,-0.847
1775528983058,0.109,-0.431,-0.887
1775528983077,0.122,-0.470,-0.920
1775528983097,0.137,-0.407,-0.932
1775528983117,0.143,-0.387,-0.951
1775528983136,0.139,-0.387,-0.943
1775528983156,0.139,-0.446,-0.929
1775528983176,0.151,-0.425,-0.945
1775528983196,0.150,-0.397,-0.931
1775528983215,0.143,-0.417,-0.881
1775528983235,0.146,-0.402,-0.859
1775528983255,0.136,-0.398,-0.899
1775528983274,0.134,-0.384,-0.911
1775528983294,0.135,-0.418,-0.863
1775528983314,0.139,-0.436,-0.854
1775528983333,0.137,-0.405,-0.884
1775528983353,0.145,-0.369,-0.896
1775528983373,0.147,-0.437,-0.873
1775528983393,0.144,-0.447,-0.867
1775528983412,0.141,-0.404,-0.905
1775528983432,0.134,-0.354,-0.950
1775528983452,0.123,-0.383,-0.915
1775528983471,0.107,-0.428,-0.907
1775528983491,0.105,-0.376,-0.927
1775528983511,0.103,-0.394,-0.914
1775528983530,0.099,-0.393,-0.904
1775528983550,0.093,-0.396,-0.887
1775528983570,0.082,-0.393,-0.871
1775528983590,0.086,-0.375,-0.887
1775528983609,0.090,-0.369,-0.897
1775528983629,0.084,-0.437,-0.895
1775528983649,0.085,-0.457,-0.871
1775528983668,0.091,-0.419,-0.886
1775528983688,0.095,-0.394,-0.906
1775528983708,0.101,-0.386,-0.902
1775528983727,0.098,-0.364,-0.922
1775528983747,0.088,-0.389,-0.940
1775528983767,0.093,-0.391,-0.949
1775528983786,0.098,-0.396,-0.940
1775528983806,0.106,-0.361,-0.921
1775528983826,0.109,-0.371,-0.918
1775528983846,0.105,-0.386,-0.941
1775528983865,0.114,-0.364,-0.957
1775528983885,0.124,-0.381,-0.935
1775528983905,0.124,-0.370,-0.930
1775528983924,0.116,-0.390,-0.919
1775528983944,0.112,-0.405,-0.905
1775528983964,0.113,-0.419,-0.917
1775528983983,0.124,-0.405,-0.892
1775528984003,0.122,-0.395,-0.886
1775528984023,0.118,-0.399,-0.886
1775528984043,0.113,-0.409,-0.890
1775528984062,0.112,-0.393,-0.902
1775528984082,0.114,-0.403,-0.900
1775528984102,0.111,-0.416,-0.902
1775528984121,0.109,-0.413,-0.906
1775528984141,0.105,-0.414,-0.902
1775528984161,0.102,-0.408,-0.894
1775528984180,0.100,-0.410,-0.891
1775528984200,0.100,-0.409,-0.890
1775528984220,0.099,-0.416,-0.889
1775528984240,0.098,-0.421,-0.871
1775528984259,0.097,-0.406,-0.873
1775528984279,0.101,-0.411,-0.875
1775528984299,0.099,-0.438,-0.877
1775528984318,0.101,-0.435,-0.885
1775528984338,0.102,-0.418,-0.879
1775528984358,0.101,-0.424,-0.873
1775528984377,0.104,-0.455,-0.881
1775528984397,0.103,-0.434,-0.903
1775528984417,0.103,-0.435,-0.901
1775528984437,0.106,-0.462,-0.878
1775528984456,0.112,-0.433,-0.878
1775528984476,0.123,-0.452,-0.886
1775528984496,0.131,-0.434,-0.886
1775528984515,0.133,-0.451,-0.882
1775528984535,0.138,-0.447,-0.878
1775528984555,0.154,-0.445,-0.883
1775528984575,0.153,-0.457,-0.892
1775528984594,0.149,-0.456,-0.889
1775528984614,0.150,-0.485,-0.871
1775528984634,0.154,-0.479,-0.859
1775528984653,0.157,-0.468,-0.857
1775528984673,0.157,-0.489,-0.842
1775528984693,0.160,-0.494,-0.835
1775528984712,0.160,-0.476,-0.848
1775528984732,0.158,-0.484,-0.830
1775528984752,0.163,-0.485,-0.826
1775528984772,0.164,-0.484,-0.849
1775528984791,0.161,-0.492,-0.844
1775528984811,0.160,-0.503,-0.820
1775528984831,0.172,-0.494,-0.841
1775528984850,0.167,-0.505,-0.853
1775528984870,0.158,-0.518,-0.821
1775528984890,0.154,-0.519,-0.810
1775528984909,0.148,-0.501,-0.838
1775528984929,0.148,-0.521,-0.830
1775528984949,0.152,-0.534,-0.828
1775528984969,0.156,-0.517,-0.846
1775528984988,0.152,-0.517,-0.847
1775528985008,0.144,-0.520,-0.845
1775528985028,0.151,-0.523,-0.844
1775528985047,0.151,-0.521,-0.860
1775528985067,0.142,-0.552,-0.840
1775528985087,0.128,-0.553,-0.803
1775528985106,0.124,-0.564,-0.801
1775528985126,0.109,-0.583,-0.802
1775528985146,0.104,-0.599,-0.796
1775528985166,0.111,-0.566,-0.789
1775528985185,0.122,-0.530,-0.803
1775528985205,0.132,-0.537,-0.815
1775528985225,0.131,-0.541,-0.832
1775528985244,0.123,-0.532,-0.855
1775528985264,0.111,-0.529,-0.860
1775528985284,0.106,-0.518,-0.836
1775528985303,0.098,-0.538,-0.815
1775528985323,0.100,-0.541,-0.818
1775528985343,0.098,-0.541,-0.810
1775528985363,0.094,-0.563,-0.813
1775528985382,0.093,-0.545,-0.823
1775528985402,0.089,-0.538,-0.829
1775528985422,0.090,-0.542,-0.819
1775528985441,0.087,-0.576,-0.804
1775528985461,0.081,-0.595,-0.800
1775528985481,0.071,-0.580,-0.804
1775528985500,0.069,-0.568,-0.806
1775528985520,0.072,-0.572,-0.791
1775528985540,0.076,-0.582,-0.784
1775528985560,0.065,-0.596,-0.786
1775528985579,0.059,-0.578,-0.785
1775528985599,0.054,-0.577,-0.787
1775528985619,0.046,-0.590,-0.784
1775528985638,0.035,-0.601,-0.786
1775528985658,0.026,-0.600,-0.783
1775528985678,0.020,-0.616,-0.780
1775528985697,0.014,-0.619,-0.775
1775528985717,0.017,-0.606,-0.776
1775528985737,0.002,-0.590,-0.775
1775528985757,-0.012,-0.615,-0.756
1775528985776,-0.021,-0.627,-0.736
1775528985796,-0.028,-0.607,-0.751
1775528985816,-0.023,-0.567,-0.774
1775528985835,-0.037,-0.569,-0.790
1775528985855,-0.041,-0.557,-0.812
1775528985875,-0.038,-0.544,-0.845
1775528985894,-0.035,-0.537,-0.883
1775528985914,-0.029,-0.552,-0.899
1775528985934,-0.016,-0.565,-0.874
1775528985953,-0.028,-0.600,-0.893
1775528985973,-0.040,-0.567,-0.911
1775528985993,-0.046,-0.560,-0.873
1775528986013,-0.054,-0.580,-0.839
1775528986032,-0.057,-0.589,-0.816
1775528986052,-0.061,-0.604,-0.809
1775528986072,-0.068,-0.564,-0.788
1775528986091,-0.077,-0.582,-0.772
1775528986111,-0.082,-0.597,-0.771
1775528986131,-0.085,-0.629,-0.771
1775528986150,-0.083,-0.628,-0.749
1775528986170,-0.080,-0.595,-0.743
1775528986190,-0.080,-0.587,-0.756
1775528986210,-0.082,-0.619,-0.749
1775528986229,-0.082,-0.647,-0.730
1775528986249,-0.087,-0.630,-0.735
1775528986269,-0.093,-0.606,-0.739
1775528986288,-0.102,-0.654,-0.733
1775528986308,-0.109,-0.683,-0.709
1775528986328,-0.111,-0.674,-0.700
1775528986347,-0.110,-0.652,-0.698
1775528986367,-0.111,-0.655,-0.687
1775528986387,-0.111,-0.652,-0.686
1775528986407,-0.118,-0.661,-0.708
1775528986426,-0.114,-0.659,-0.722
1775528986446,-0.117,-0.663,-0.727
1775528986466,-0.112,-0.663,-0.732
1775528986485,-0.116,-0.673,-0.739
1775528986505,-0.118,-0.674,-0.730
1775528986525,-0.119,-0.675,-0.725
1775528986544,-0.119,-0.682,-0.721
1775528986564,-0.115,-0.678,-0.719
1775528986584,-0.114,-0.677,-0.720
1775528986604,-0.114,-0.690,-0.717
1775528986623,-0.110,-0.693,-0.707
1775528986643,-0.102,-0.688,-0.699
1775528986663,-0.098,-0.688,-0.702
1775528986682,-0.101,-0.682,-0.707
1775528986702,-0.098,-0.687,-0.698
1775528986722,-0.096,-0.680,-0.692
1775528986741,-0.095,-0.681,-0.689
1775528986761,-0.102,-0.683,-0.693
1775528986781,-0.102,-0.680,-0.692
1775528986801,-0.103,-0.699,-0.695
1775528986820,-0.105,-0.704,-0.693
1775528986840,-0.101,-0.698,-0.699
1775528986860,-0.098,-0.698,-0.697
1775528986879,-0.092,-0.690,-0.690
1775528986899,-0.093,-0.703,-0.691
1775528986919,-0.086,-0.684,-0.691
1775528986938,-0.086,-0.691,-0.696
1775528986958,-0.094,-0.663,-0.699
1775528986978,-0.098,-0.679,-0.698
1775528986998,-0.095,-0.686,-0.695
1775528987017,-0.105,-0.687,-0.710
1775528987037,-0.109,-0.692,-0.707
1775528987057,-0.114,-0.709,-0.704
1775528987076,-0.110,-0.728,-0.701
1775528987096,-0.103,-0.727,-0.700
1775528987116,-0.100,-0.701,-0.706
1775528987135,-0.096,-0.689,-0.706
1775528987155,-0.090,-0.688,-0.699
1775528987175,-0.090,-0.679,-0.700
1775528987195,-0.088,-0.680,-0.711
1775528987214,-0.093,-0.697,-0.700
1775528987234,-0.095,-0.693,-0.687
1775528987254,-0.096,-0.691,-0.689
1775528987273,-0.096,-0.701,-0.698
1775528987293,-0.097,-0.703,-0.697
1775528987313,-0.097,-0.689,-0.696
1775528987332,-0.096,-0.692,-0.697
1775528987352,-0.094,-0.684,-0.693
1775528987372,-0.098,-0.683,-0.701
1775528987392,-0.096,-0.690,-0.708
1775528987411,-0.092,-0.683,-0.707
1775528987431,-0.091,-0.679,-0.703
1775528987451,-0.092,-0.685,-0.719
1775528987470,-0.093,-0.679,-0.731
1775528987490,-0.091,-0.671,-0.732
1775528987510,-0.091,-0.688,-0.729
1775528987529,-0.095,-0.692,-0.719
1775528987549,-0.095,-0.687,-0.715
1775528987569,-0.089,-0.685,-0.727
1775528987589,-0.083,-0.677,-0.730
1775528987608,-0.075,-0.674,-0.741
1775528987628,-0.071,-0.687,-0.752
1775528987648,-0.067,-0.696,-0.726
1775528987667,-0.070,-0.705,-0.690
1775528987687,-0.075,-0.701,-0.677
1775528987707,-0.079,-0.678,-0.643
1775528987727,-0.083,-0.701,-0.607
1775528987746,-0.083,-0.704,-0.554
1775528987766,-0.090,-0.742,-0.524
1775528987786,-0.096,-0.715,-0.536
1775528987805,-0.098,-0.690,-0.523
1775528987825,-0.097,-0.699,-0.487
1775528987845,-0.108,-0.711,-0.524
1775528987864,-0.116,-0.681,-0.599
1775528987884,-0.124,-0.690,-0.573
1775528987904,-0.116,-0.677,-0.496
1775528987924,-0.117,-0.673,-0.481
1775528987943,-0.126,-0.672,-0.595
1775528987963,-0.126,-0.636,-0.616
1775528987983,-0.122,-0.657,-0.524
1775528988002,-0.149,-0.633,-0.494
1775528988022,-0.179,-0.742,-0.651
1775528988042,-0.187,-0.594,-0.660
1775528988061,-0.168,-0.567,-0.560
1775528988081,-0.178,-0.579,-0.480
1775528988101,-0.222,-0.725,-0.647
1775528988121,-0.215,-0.673,-0.719
1775528988140,-0.223,-0.621,-0.567
1775528988160,-0.208,-0.684,-0.423
1775528988180,-0.202,-0.556,-0.360
1775528988199,-0.199,-0.694,-0.583
1775528988219,-0.218,-0.734,-0.532
1775528988239,-0.178,-0.541,-0.326
1775528988258,-0.083,-0.487,-0.356
1775528988278,-0.120,-0.836,-0.487
1775528988298,-0.118,-0.815,-0.460
1775528988318,-0.092,-0.616,-0.455
1775528988337,-0.036,-0.568,-0.448
1775528988357,-0.020,-0.526,-0.365
1775528988377,-0.063,-0.621,-0.371
1775528988396,-0.035,-0.758,-0.556
1775528988416,-0.051,-0.607,-0.649
1775528988436,0.000,-0.676,-0.708
1775528988456,-0.080,-1.013,-0.877
1775528988475,-0.102,-0.535,-1.062
1775528988495,-0.054,-0.986,-1.097
1775528988515,0.041,-1.099,-1.480
1775528988534,0.031,-0.404,-1.572
1775528988554,0.018,-0.844,-1.296
1775528988574,0.054,-0.761,-1.200
1775528988593,0.040,-0.507,-1.201
1775528988613,0.031,-0.656,-1.029
1775528988633,0.042,-0.518,-1.065
1775528988653,0.019,-0.455,-1.003
1775528988672,0.015,-0.531,-0.887
1775528988692,0.030,-0.443,-0.883
1775528988712,0.019,-0.450,-0.802
1775528988731,0.006,-0.427,-0.841
1775528988751,-0.036,-0.374,-0.809
1775528988771,-0.052,-0.381,-0.806
1775528988790,-0.019,-0.357,-1.011
1775528988810,0.065,-0.360,-1.416
1775528988830,0.023,-0.450,-1.418
1775528988850,-0.068,-0.360,-1.176
1775528988869,-0.127,-0.042,-1.150
1775528988889,-0.129,-0.080,-1.090
1775528988909,-0.152,-0.316,-1.000
1775528988928,-0.157,-0.148,-0.875
1775528988948,-0.142,-0.080,-0.813
1775528988968,-0.163,-0.175,-0.868
1775528988987,-0.196,-0.078,-0.950
1775528989007,-0.256,-0.107,-0.998
1775528989027,-0.327,-0.153,-0.920
1775528989047,-0.334,-0.213,-0.924
1775528989066,-0.301,-0.263,-1.062
1775528989086,-0.297,-0.282,-1.030
1775528989106,-0.286,-0.323,-0.993
1775528989125,-0.227,-0.325,-1.069
1775528989145,-0.189,-0.253,-1.001
1775528989165,-0.202,-0.229,-0.917
1775528989184,-0.212,-0.322,-0.852
1775528989204,-0.235,-0.250,-0.862
1775528989224,-0.244,-0.244,-0.852
1775528989244,-0.264,-0.260,-0.816
1775528989263,-0.317,-0.178,-0.815
1775528989283,-0.340,-0.240,-0.824
1775528989303,-0.363,-0.252,-0.878
1775528989322,-0.355,-0.299,-0.892
1775528989342,-0.300,-0.318,-0.848
1775528989362,-0.166,-0.377,-0.985
1775528989381,-0.112,-0.394,-1.185
1775528989401,-0.135,-0.186,-1.149
1775528989421,-0.174,-0.202,-0.863
1775528989441,-0.114,-0.411,-0.756
1775528989460,-0.072,-0.350,-0.842
1775528989480,-0.094,-0.209,-0.882
1775528989500,-0.116,-0.125,-0.794
1775528989519,-0.114,-0.323,-0.748
1775528989539,-0.098,-0.369,-0.945
1775528989559,-0.132,-0.175,-1.104
1775528989578,-0.181,-0.194,-1.002
1775528989598,-0.166,-0.343,-0.964
1775528989618,-0.108,-0.144,-1.059
1775528989638,-0.066,-0.031,-1.081
1775528989657,-0.099,-0.012,-1.004
1775528989677,-0.163,-0.080,-0.980
1775528989697,-0.182,-0.055,-1.106
1775528989716,-0.168,0.053,-1.105
1775528989736,-0.162,0.235,-1.089
1775528989756,-0.153,0.339,-1.150
1775528989775,-0.181,-0.059,-0.993
1775528989795,-0.100,-0.231,-0.942
1775528989815,-0.057,0.116,-1.101
1775528989835,-0.059,0.199,-1.018
1775528989854,-0.155,-0.070,-0.783
1775528989874,-0.153,-0.125,-0.875
1775528989894,-0.111,-0.092,-1.021
1775528989913,-0.079,0.027,-1.030
1775528989933,-0.054,0.088,-0.984
1775528989953,-0.045,0.061,-1.006
1775528989973,-0.006,0.087,-1.098
1775528989992,0.019,0.193,-1.089
1775528990012,-0.031,0.140,-1.006
1775528990032,-0.068,0.081,-0.986
1775528990051,-0.082,0.035,-0.920
1775528990071,-0.052,0.037,-0.906
1775528990091,-0.051,0.079,-0.855
1775528990110,-0.040,0.132,-0.803
1775528990130,-0.011,0.089,-0.771
1775528990150,0.011,0.169,-0.888
1775528990170,-0.022,0.190,-0.983
1775528990189,-0.027,0.095,-0.984
1775528990209,-0.044,0.041,-0.875
1775528990229,-0.067,-0.008,-0.804
1775528990248,-0.064,0.061,-0.738
1775528990268,-0.041,0.075,-0.826
1775528990288,-0.060,0.070,-0.802
1775528990307,-0.108,0.019,-0.651
1775528990327,-0.091,-0.093,-0.552
1775528990347,-0.009,-0.106,-0.665
1775528990367,-0.019,0.119,-0.761
1775528990386,-0.094,0.191,-0.651
1775528990406,-0.105,-0.027,-0.658
1775528990426,-0.094,-0.015,-0.808
1775528990445,-0.049,0.182,-0.713
1775528990465,-0.043,0.208,-0.691
1775528990485,0.003,0.209,-1.005
1775528990504,0.040,0.132,-1.147
1775528990524,0.039,0.067,-0.827
1775528990544,-0.029,0.248,-0.653
1775528990564,-0.035,0.103,-0.778
1775528990583,0.048,0.021,-0.993
1775528990603,0.016,0.406,-1.140
1775528990623,-0.061,0.401,-1.035
1775528990642,0.003,-0.133,-0.988
1775528990662,-0.019,0.166,-1.231
1775528990682,0.026,0.593,-1.171
1775528990702,-0.032,0.137,-0.953
1775528990721,-0.065,-0.091,-1.152
1775528990741,-0.038,0.353,-1.483
1775528990761,-0.102,0.391,-1.339
1775528990780,-0.051,0.096,-1.197
1775528990800,-0.021,0.239,-1.452
1775528990820,-0.065,0.204,-1.418
1775528990839,-0.055,0.234,-1.320
1775528990859,-0.020,0.275,-1.276
1775528990879,-0.004,0.337,-1.247
1775528990899,-0.076,0.221,-1.184
1775528990918,-0.104,0.154,-1.298
1775528990938,-0.078,0.299,-1.374
1775528990958,-0.111,0.277,-1.235
1775528990977,-0.126,0.221,-1.250
1775528990997,-0.106,0.131,-1.227
1775528991017,-0.061,0.265,-1.208
1775528991036,-0.087,0.367,-1.107
1775528991056,-0.123,0.240,-1.057
1775528991076,-0.091,0.161,-1.137
1775528991095,-0.034,0.173,-1.137
1775528991115,-0.012,0.331,-1.134
1775528991135,-0.034,0.344,-1.041
1775528991155,-0.033,0.244,-1.012
1775528991174,0.010,0.198,-1.114
1775528991194,0.012,0.329,-1.187
1775528991214,-0.038,0.295,-1.092
1775528991233,-0.031,0.197,-1.056
1775528991253,0.000,0.151,-1.131
1775528991273,-0.009,0.330,-1.138
1775528991293,-0.038,0.273,-0.988
1775528991312,-0.043,0.199,-0.927
1775528991332,-0.055,0.265,-0.973
1775528991352,-0.072,0.213,-0.971
1775528991371,-0.067,0.168,-0.990
1775528991391,-0.049,0.228,-0.974
1775528991411,-0.048,0.260,-0.904
1775528991430,-0.041,0.237,-0.889
1775528991450,-0.016,0.117,-0.969
1775528991470,0.006,0.209,-1.007
1775528991490,-0.020,0.304,-0.909
1775528991509,-0.054,0.163,-0.844
1775528991529,-0.027,0.049,-0.840
1775528991549,-0.004,0.120,-0.859
1775528991568,-0.033,0.257,-0.865
1775528991588,-0.046,0.223,-0.781
1775528991608,-0.040,0.041,-0.719
1775528991627,-0.038,0.065,-0.696
1775528991647,-0.061,0.136,-0.662
1775528991667,-0.071,0.040,-0.583
1775528991687,-0.058,-0.043,-0.551
1775528991706,-0.056,-0.037,-0.560
1775528991726,-0.045,-0.030,-0.520
1775528991746,-0.026,0.030,-0.554
1775528991765,-0.041,0.148,-0.686
1775528991785,-0.093,0.137,-0.694
1775528991805,-0.102,-0.007,-0.622
1775528991824,-0.088,0.119,-0.675
1775528991844,-0.093,0.322,-0.865
1775528991864,-0.097,0.037,-0.899
1775528991884,-0.070,-0.270,-0.675
1775528991903,-0.051,0.219,-0.690
1775528991923,-0.080,0.494,-0.929
1775528991943,-0.065,-0.089,-0.802
1775528991962,-0.009,-0.373,-0.504
1775528991982,-0.044,0.406,-0.652
1775528992002,-0.053,0.648,-0.990
1775528992021,-0.008,-0.043,-0.869
1775528992041,-0.043,-0.447,-0.672
1775528992061,-0.012,0.247,-0.677
1775528992081,-0.018,0.758,-0.887
1775528992100,0.044,0.192,-1.082
1775528992120,-0.105,-0.214,-1.078
1775528992140,0.017,0.225,-0.881
1775528992159,-0.042,0.419,-0.961
1775528992179,-0.037,0.397,-1.413
1775528992199,-0.119,0.344,-1.556
1775528992218,-0.081,0.067,-1.124
1775528992238,0.012,0.030,-1.074
1775528992258,0.053,0.475,-1.464
1775528992278,0.024,0.519,-1.438
1775528992297,-0.056,0.153,-1.052
1775528992317,-0.016,-0.049,-1.001
1775528992337,0.058,0.280,-1.212
1775528992356,0.020,0.506,-1.230
1775528992376,-0.017,0.165,-1.103
1775528992396,0.009,0.082,-1.174
1775528992416,0.015,0.356,-1.204
1775528992435,-0.003,0.370,-1.194
1775528992455,0.013,0.244,-1.255
1775528992475,-0.001,0.323,-1.376
1775528992494,-0.062,0.384,-1.429
1775528992514,-0.053,0.130,-1.258
1775528992534,0.005,0.100,-1.204
1775528992553,0.018,0.390,-1.297
1775528992573,-0.050,0.451,-1.251
1775528992593,-0.062,0.180,-1.074
1775528992613,0.004,0.149,-1.034
1775528992632,0.031,0.305,-1.190
1775528992652,-0.016,0.447,-1.205
1775528992672,-0.021,0.205,-1.036
1775528992691,0.033,0.068,-0.979
1775528992711,0.038,0.346,-1.144
1775528992731,-0.019,0.457,-1.182
1775528992750,-0.040,0.155,-1.006
1775528992770,-0.002,-0.017,-0.935
1775528992790,-0.008,0.334,-1.099
1775528992810,-0.053,0.382,-1.164
1775528992829,-0.021,0.052,-0.990
1775528992849,0.006,-0.019,-0.946
1775528992869,0.005,0.305,-1.047
1775528992888,-0.013,0.314,-1.017
1775528992908,0.026,0.031,-0.929
1775528992967,-0.037,0.085,-0.850
1775528992987,-0.003,-0.002,-0.818
1775528993007,-0.006,0.194,-0.890
1775528993026,-0.026,0.126,-0.870
1775528993046,-0.010,-0.061,-0.787
1775528993066,-0.022,0.174,-0.807
1775528993085,-0.049,0.235,-0.884
1775528993105,-0.068,0.020,-0.838
1775528993125,-0.048,-0.080,-0.783
1775528993144,-0.051,0.072,-0.805
1775528993164,-0.077,0.082,-0.781
1775528993184,-0.086,-0.069,-0.696
1775528993204,-0.036,-0.137,-0.561
1775528993223,-0.003,0.063,-0.558
1775528993243,0.007,0.071,-0.656
1775528993263,0.007,-0.026,-0.610
1775528993282,-0.005,0.063,-0.610
1775528993302,-0.036,0.145,-0.704
1775528993322,-0.089,0.132,-0.780
1775528993341,-0.076,0.030,-0.796
1775528993361,-0.050,-0.194,-0.778
1775528993381,-0.068,0.036,-0.755
1775528993400,-0.084,0.175,-0.735
1775528993420,-0.035,0.034,-0.755
1775528993440,-0.022,-0.039,-0.746
1775528993460,-0.075,0.200,-0.667
1775528993479,-0.109,0.276,-0.666
1775528993499,-0.023,-0.049,-0.859
1775528993519,-0.014,-0.080,-0.943
1775528993538,-0.068,0.295,-0.776
1775528993558,-0.108,0.204,-0.629
1775528993578,-0.009,-0.142,-0.788
1775528993597,-0.031,0.164,-1.025
1775528993617,0.010,0.418,-0.870
1775528993637,-0.012,0.172,-0.773
1775528993656,0.002,0.160,-1.204
1775528993676,-0.064,0.367,-1.411
1775528993696,-0.078,0.117,-0.960
1775528993716,-0.038,-0.161,-0.792
1775528993735,-0.006,0.354,-1.154
1775528993755,-0.137,0.747,-1.383
1775528993775,-0.154,0.079,-1.022
1775528993794,-0.054,-0.336,-0.900
1775528993814,0.036,0.549,-1.215
1775528993834,-0.054,0.892,-1.316
1775528993853,-0.038,0.099,-0.997
1775528993873,-0.051,-0.065,-1.146
1775528993893,0.026,0.647,-1.437
1775528993913,0.025,0.501,-1.266
1775528993932,0.060,0.083,-1.200
1775528993952,0.067,0.377,-1.406
1775528993972,0.003,0.570,-1.249
1775528993991,-0.047,0.129,-1.032
1775528994011,-0.029,0.208,-1.119
1775528994031,-0.008,0.544,-1.256
1775528994050,-0.052,0.313,-1.116
1775528994070,-0.007,0.206,-1.087
1775528994090,0.027,0.409,-1.207
1775528994109,-0.010,0.464,-1.270
1775528994129,-0.072,0.265,-1.143
1775528994149,-0.035,0.267,-1.093
1775528994169,-0.026,0.412,-1.139
1775528994188,-0.061,0.464,-1.138
1775528994208,-0.045,0.256,-1.097
1775528994228,0.059,0.189,-1.084
1775528994247,0.059,0.470,-1.187
1775528994267,-0.028,0.498,-1.123
1775528994287,-0.027,0.134,-0.982
1775528994306,-0.004,0.133,-1.041
1775528994326,-0.045,0.515,-1.091
1775528994346,0.014,0.326,-0.976
1775528994366,0.049,0.076,-0.992
1775528994385,0.047,0.294,-1.082
1775528994405,-0.019,0.416,-1.038
1775528994425,-0.002,0.162,-0.912
1775528994444,0.008,0.152,-0.949
1775528994464,0.008,0.348,-1.077
1775528994484,-0.020,0.216,-0.977
1775528994503,0.016,0.084,-0.847
1775528994523,0.023,0.207,-0.926
1775528994543,-0.001,0.344,-0.961
1775528994563,-0.020,0.119,-0.863
1775528994582,0.026,-0.043,-0.790
1775528994602,0.013,0.222,-0.791
1775528994622,-0.009,0.326,-0.824
1775528994641,-0.010,0.016,-0.809
1775528994661,0.017,0.050,-0.810
1775528994681,0.014,0.224,-0.846
1775528994700,-0.012,0.182,-0.884
1775528994720,-0.020,-0.011,-0.885
1775528994740,-0.022,0.069,-0.824
1775528994759,-0.047,0.152,-0.788
1775528994779,-0.038,0.101,-0.825
1775528994799,-0.060,0.050,-0.793
1775528994819,-0.099,0.001,-0.716
1775528994838,-0.063,-0.171,-0.659
1775528994858,-0.030,-0.065,-0.585
1775528994878,-0.053,0.151,-0.653
1775528994897,-0.082,0.105,-0.746
1775528994917,-0.077,0.025,-0.679
1775528994937,-0.082,0.022,-0.681
1775528994956,-0.100,0.065,-0.717
1775528994976,-0.102,0.056,-0.784
1775528994996,-0.103,0.033,-0.775
1775528995016,-0.124,0.087,-0.720
1775528995035,-0.120,-0.053,-0.620
1775528995055,-0.030,-0.089,-0.624
1775528995075,-0.006,0.071,-0.760
1775528995094,-0.029,0.315,-0.772
1775528995114,-0.076,0.106,-0.637
1775528995134,-0.007,-0.086,-0.768
1775528995153,-0.002,0.027,-0.881
1775528995173,-0.094,0.459,-0.867
1775528995193,-0.105,0.059,-0.676
1775528995213,-0.019,-0.195,-0.759
1775528995232,0.036,0.312,-0.989
1775528995252,0.011,0.538,-1.073
1775528995272,-0.029,-0.006,-0.753
1775528995291,-0.105,0.083,-0.908
1775528995311,-0.082,0.438,-1.255
1775528995331,-0.045,0.286,-1.175
1775528995350,0.032,-0.024,-1.056
1775528995370,0.025,0.432,-1.425
1775528995390,-0.132,0.721,-1.603
1775528995410,-0.113,0.082,-1.177
1775528995429,-0.163,-0.166,-0.975
1775528995449,-0.020,0.445,-1.229
1775528995469,-0.031,0.574,-1.431
1775528995488,-0.052,0.049,-1.284
1775528995508,-0.055,0.324,-1.445
1775528995528,-0.034,0.653,-1.437
1775528995547,-0.035,0.307,-1.262
1775528995567,0.026,0.237,-1.341
1775528995587,0.029,0.476,-1.425
1775528995607,-0.042,0.358,-1.225
1775528995626,-0.046,0.244,-1.139
1775528995646,0.008,0.257,-1.222
1775528995666,-0.026,0.369,-1.235
1775528995685,-0.053,0.308,-1.051
1775528995705,-0.012,0.299,-0.926
1775528995725,-0.030,0.405,-1.034
1775528995744,-0.086,0.314,-1.132
1775528995764,-0.035,0.194,-1.047
1775528995784,0.037,0.202,-1.013
1775528995804,-0.009,0.470,-1.129
1775528995823,-0.134,0.435,-1.141
1775528995843,-0.057,0.017,-0.969
1775528995863,0.013,0.031,-1.006
1775528995882,-0.018,0.572,-1.086
1775528995902,-0.034,0.358,-0.968
1775528995922,0.001,-0.016,-0.881
1775528995941,0.011,0.206,-0.966
1775528995961,-0.045,0.343,-0.950
1775528995981,-0.010,0.068,-0.935
1775528996001,0.026,0.115,-1.001
1775528996020,0.006,0.319,-1.058
1775528996040,-0.027,0.126,-0.969
1775528996060,-0.016,0.057,-0.881
1775528996079,-0.007,0.253,-0.960
1775528996099,-0.067,0.352,-0.991
1775528996119,-0.030,0.056,-0.894
1775528996138,-0.004,0.125,-0.921
1775528996158,0.000,0.315,-0.999
1775528996178,-0.020,0.283,-0.932
1775528996198,0.001,0.009,-0.849
1775528996217,0.032,0.061,-0.843
1775528996237,0.008,0.349,-0.865
1775528996257,0.001,0.320,-0.833
1775528996276,-0.001,0.045,-0.845
1775528996296,-0.008,0.119,-0.825
1775528996316,-0.056,0.195,-0.757
1775528996335,-0.048,0.171,-0.857
1775528996355,-0.057,0.134,-0.910
1775528996375,-0.084,0.014,-0.854
1775528996394,-0.095,0.038,-0.794
1775528996414,-0.108,0.013,-0.697
1775528996434,-0.067,-0.017,-0.634
1775528996454,-0.058,-0.012,-0.667
1775528996473,-0.039,0.094,-0.774
1775528996493,-0.062,0.066,-0.670
1775528996513,-0.072,0.133,-0.706
1775528996532,-0.071,0.039,-0.806
1775528996552,-0.037,-0.050,-0.818
1775528996572,-0.085,0.104,-0.752
1775528996591,-0.075,0.130,-0.763
1775528996611,-0.008,-0.088,-0.778
1775528996631,0.021,-0.073,-0.758
1775528996651,-0.045,0.328,-0.719
1775528996670,-0.090,0.290,-0.647
1775528996690,-0.004,-0.127,-0.752
1775528996710,-0.019,-0.142,-0.799
1775528996729,-0.045,0.419,-0.749
1775528996749,-0.085,0.422,-0.662
1775528996769,0.010,-0.020,-0.911
1775528996788,-0.094,-0.018,-1.070
1775528996808,-0.108,0.333,-0.774
1775528996828,-0.134,0.274,-0.507
1775528996848,0.015,0.021,-0.862
1775528996867,-0.052,0.239,-1.254
1775528996887,0.021,0.505,-1.057
1775528996907,-0.039,0.066,-0.718
1775528996926,0.023,0.154,-0.979
1775528996946,-0.005,0.764,-1.490
1775528996966,-0.154,0.785,-1.465
1775528996985,-0.108,-0.138,-0.970
1775528997005,-0.064,-0.274,-1.072
1775528997025,0.037,0.797,-1.489
1775528997045,-0.058,0.865,-1.307
1775528997064,-0.046,0.029,-0.872
1775528997084,-0.047,-0.042,-1.026
1775528997104,0.024,0.638,-1.375
1775528997123,-0.020,0.478,-1.174
1775528997143,0.018,0.066,-1.039
1775528997163,0.059,0.471,-1.272
1775528997182,-0.034,0.591,-1.331
1775528997202,-0.009,0.236,-1.161
1775528997222,0.047,0.250,-1.220
1775528997241,0.057,0.649,-1.386
1775528997261,-0.047,0.541,-1.274
1775528997281,-0.037,0.102,-1.136
1775528997301,0.038,0.235,-1.183
1775528997320,-0.038,0.649,-1.233
1775528997340,-0.112,0.436,-1.036
1775528997360,-0.003,0.097,-0.913
1775528997379,0.057,0.342,-1.076
1775528997399,-0.010,0.664,-1.191
1775528997419,-0.038,0.279,-0.972
1775528997438,0.039,0.009,-0.926
1775528997458,0.063,0.492,-1.164
1775528997478,-0.021,0.614,-1.179
1775528997497,-0.020,0.044,-0.962
1775528997517,-0.006,0.029,-0.944
1775528997537,-0.012,0.590,-1.072
1775528997557,-0.056,0.349,-0.961
1775528997576,0.022,-0.010,-0.900
1775528997596,0.068,0.228,-1.003
1775528997616,0.001,0.600,-1.079
1775528997635,-0.071,0.280,-0.999
1775528997655,-0.026,-0.030,-0.927
1775528997675,0.024,0.198,-1.006
1775528997694,-0.051,0.473,-1.010
1775528997714,-0.055,0.109,-0.864
1775528997734,-0.013,0.027,-0.833
1775528997754,0.000,0.236,-0.888
1775528997773,-0.055,0.336,-0.845
1775528997793,-0.074,0.064,-0.818
1775528997813,-0.021,0.062,-0.888
1775528997832,-0.015,0.165,-0.848
1775528997852,0.002,0.127,-0.847
1775528997872,-0.003,0.164,-0.851
1775528997891,-0.014,0.221,-0.900
1775528997911,-0.052,0.099,-0.899
1775528997931,-0.061,-0.009,-0.839
1775528997950,-0.065,0.007,-0.785
1775528997970,-0.042,0.112,-0.736
1775528997990,-0.051,0.071,-0.769
1775528998010,-0.066,0.131,-0.713
1775528998029,-0.073,0.150,-0.689
1775528998049,-0.044,0.029,-0.770
1775528998069,-0.021,0.040,-0.823
1775528998088,-0.042,0.058,-0.769
1775528998108,-0.030,0.063,-0.732
1775528998128,-0.021,0.170,-0.813
1775528998147,-0.069,0.119,-0.826
1775528998167,-0.110,0.065,-0.771
1775528998187,-0.086,-0.099,-0.631
1775528998206,-0.016,-0.007,-0.677
1775528998226,-0.031,0.270,-0.850
1775528998246,-0.103,0.359,-0.910
1775528998266,-0.119,-0.064,-0.654
1775528998285,0.005,-0.297,-0.602
1775528998305,0.035,0.145,-0.792
1775528998325,-0.032,0.657,-0.957
1775528998344,-0.103,0.404,-0.825
1775528998364,-0.095,-0.283,-0.793
1775528998384,-0.123,-0.153,-0.760
1775528998403,-0.064,0.332,-0.746
1775528998423,-0.008,0.299,-0.774
1775528998443,0.026,0.173,-1.010
1775528998463,-0.060,0.357,-1.011
1775528998482,-0.066,0.088,-0.704
1775528998502,0.068,-0.018,-0.832
1775528998522,0.040,0.524,-1.316
1775528998541,-0.141,0.870,-1.279
1775528998561,-0.134,-0.034,-0.828
1775528998581,-0.059,-0.436,-0.838
1775528998600,0.094,0.607,-1.357
1775528998620,0.012,1.199,-1.497
1775528998640,-0.006,0.244,-1.010
1775528998660,-0.091,-0.308,-1.041
1775528998679,0.100,0.438,-1.247
1775528998699,0.010,0.662,-1.051
1775528998719,0.048,0.105,-1.001
1775528998738,0.043,0.401,-1.221
1775528998758,-0.053,0.622,-1.174
1775528998778,-0.055,0.229,-1.012
1775528998797,0.010,0.206,-1.140
1775528998817,0.031,0.625,-1.253
1775528998837,-0.042,0.629,-1.140
1775528998856,-0.013,0.209,-1.109
1775528998876,0.064,0.236,-1.319
1775528998896,0.021,0.681,-1.417
1775528998916,-0.052,0.411,-1.147
1775528998935,0.011,0.134,-1.032
1775528998955,0.080,0.453,-1.273
1775528998975,0.016,0.592,-1.195
1775528998994,-0.011,0.215,-0.872
1775528999014,0.061,0.280,-0.905
1775528999034,0.091,0.519,-1.115
1775528999053,0.021,0.398,-1.070
1775528999073,0.031,0.140,-0.909
1775528999093,0.076,0.264,-0.941
1775528999113,0.031,0.590,-1.088
1775528999132,-0.028,0.381,-1.042
1775528999152,0.033,0.040,-0.954
1775528999172,0.077,0.353,-1.026
1775528999191,0.029,0.637,-1.089
1775528999211,-0.005,0.266,-0.962
1775528999231,0.047,0.192,-0.953
1775528999250,0.020,0.519,-1.028
1775528999270,-0.046,0.507,-1.040
1775528999290,-0.015,0.166,-0.958
1775528999310,0.046,0.271,-1.015
1775528999329,0.002,0.481,-1.079
1775528999349,-0.040,0.334,-0.993
1775528999369,-0.016,0.127,-0.893
1775528999388,-0.005,0.312,-0.890
1775528999408,-0.029,0.364,-0.844
1775528999428,-0.014,0.257,-0.853
1775528999447,0.034,0.179,-0.855
1775528999467,0.013,0.296,-0.838
1775528999487,-0.035,0.230,-0.765
1775528999506,-0.024,0.175,-0.762
1775528999526,-0.011,0.250,-0.883
1775528999546,-0.023,0.204,-0.888
1775528999566,-0.055,0.150,-0.814
1775528999585,-0.049,0.198,-0.870
1775528999605,-0.042,0.176,-0.898
1775528999625,-0.033,0.130,-0.873
1775528999644,-0.027,0.091,-0.845
1775528999664,-0.060,0.247,-0.819
1775528999684,-0.107,0.226,-0.787
1775528999703,-0.091,-0.008,-0.768
1775528999723,-0.011,-0.109,-0.706
1775528999743,0.025,0.251,-0.741
1775528999763,-0.020,0.492,-0.732
1775528999782,-0.034,0.285,-0.702
1775528999802,-0.031,0.063,-0.751
1775528999822,-0.032,0.242,-0.726
1775528999841,-0.054,0.306,-0.740
1775528999861,-0.043,0.132,-0.734
1775528999881,-0.012,0.138,-0.796
1775528999900,-0.019,0.212,-0.740
1775528999920,-0.021,0.177,-0.620
1775528999940,-0.002,0.201,-0.624
1775528999960,-0.028,0.388,-0.832
1775528999979,-0.126,0.223,-0.851
1775528999999,-0.113,-0.072,-0.655
1775529000019,0.023,-0.017,-0.638
1775529000038,0.068,0.564,-0.982
1775529000058,-0.075,0.607,-1.065
1775529000078,-0.138,0.013,-0.791
1775529000097,-0.126,-0.379,-0.656
1775529000117,-0.020,0.083,-0.747
1775529000137,-0.006,0.562,-0.891
1775529000157,-0.029,0.594,-0.924
1775529000176,-0.107,0.015,-0.873
1775529000196,-0.020,-0.201,-0.794
1775529000216,0.001,0.541,-0.877
1775529000235,-0.020,0.788,-1.209
1775529000255,-0.063,0.253,-1.278
1775529000275,-0.078,-0.233,-1.005
1775529000294,-0.032,0.156,-0.790
1775529000314,0.001,0.590,-1.029
1775529000334,0.013,0.492,-1.218
1775529000354,0.013,0.429,-1.244
1775529000373,-0.044,0.406,-1.132
1775529000393,-0.012,0.255,-1.043
1775529000413,0.109,0.508,-1.317
1775529000432,0.046,0.766,-1.554
1775529000452,-0.051,0.623,-1.501
1775529000472,-0.069,0.156,-1.272
1775529000491,-0.038,0.419,-1.279
1775529000511,-0.058,0.772,-1.258
1775529000531,-0.006,0.355,-1.192
1775529000550,0.042,0.347,-1.177
1775529000570,-0.035,0.720,-1.132
1775529000590,-0.103,0.526,-1.005
1775529000610,-0.041,0.260,-0.962
1775529000629,0.034,0.372,-1.101
1775529000649,-0.033,0.730,-1.223
1775529000669,-0.071,0.470,-1.037
1775529000688,-0.044,0.219,-0.921
1775529000708,-0.045,0.481,-1.118
1775529000728,-0.079,0.613,-1.151
1775529000747,-0.015,0.298,-0.966
1775529000767,0.050,0.240,-1.004
1775529000787,-0.022,0.714,-1.118
1775529000807,-0.119,0.501,-1.068
1775529000826,-0.032,0.006,-0.929
1775529000846,0.000,0.276,-1.019
1775529000866,-0.037,0.787,-1.124
1775529000885,-0.080,0.334,-0.907
1775529000905,-0.053,0.019,-0.819
1775529000925,-0.015,0.399,-0.916
1775529000944,-0.076,0.590,-0.920
1775529000964,-0.034,0.136,-0.828
1775529000984,0.031,0.098,-0.854
1775529001004,-0.012,0.515,-0.896
1775529001023,-0.050,0.369,-0.842
1775529001043,-0.018,0.028,-0.810
1775529001063,-0.012,0.147,-0.870
1775529001082,-0.059,0.408,-0.825
1775529001102,-0.089,0.188,-0.753
1775529001122,-0.044,0.203,-0.872
1775529001141,-0.026,0.150,-0.888
1775529001161,-0.059,0.187,-0.784
1775529001181,-0.047,0.236,-0.821
1775529001201,-0.022,0.221,-0.870
1775529001220,-0.010,0.189,-0.872
1775529001240,-0.034,0.132,-0.822
1775529001260,-0.060,0.044,-0.748
1775529001279,-0.079,0.036,-0.620
1775529001299,-0.071,0.029,-0.676
1775529001319,-0.042,0.062,-0.708
1775529001338,-0.033,0.116,-0.646
1775529001358,-0.020,0.249,-0.745
1775529001378,-0.025,0.170,-0.843
1775529001398,-0.069,0.123,-0.820
1775529001417,-0.085,0.185,-0.843
1775529001437,-0.072,0.026,-0.803
1775529001457,-0.064,-0.033,-0.755
1775529001476,-0.082,0.202,-0.759
1775529001496,-0.085,0.152,-0.757
1775529001516,-0.001,-0.072,-0.702
1775529001535,0.012,-0.044,-0.694
1775529001555,-0.048,0.413,-0.796
1775529001575,-0.107,0.337,-0.778
1775529001595,-0.086,-0.097,-0.712
1775529001614,-0.114,-0.109,-0.680
1775529001634,-0.062,0.508,-0.845
1775529001654,-0.067,0.488,-1.064
1775529001673,-0.053,-0.051,-1.008
1775529001693,-0.045,-0.225,-0.753
1775529001713,-0.060,0.227,-0.697
1775529001732,0.002,0.335,-0.746
1775529001752,0.035,0.286,-0.921
1775529001772,0.024,0.186,-0.955
1775529001792,-0.034,0.237,-0.758
1775529001811,-0.047,0.322,-0.772
1775529001831,0.066,0.534,-1.275
1775529001851,-0.033,0.633,-1.618
1775529001870,-0.064,0.262,-1.200
1775529001890,0.029,-0.056,-0.899
1775529001910,0.057,0.364,-1.244
1775529001930,0.027,0.816,-1.561
1775529001949,-0.060,0.426,-1.178
1775529001969,-0.016,-0.073,-0.918
1775529001989,-0.015,0.302,-1.039
1775529002008,-0.062,0.718,-1.188
1775529002028,-0.038,0.262,-1.021
1775529002048,0.059,0.145,-1.125
1775529002067,0.051,0.745,-1.393
1775529002087,-0.044,0.680,-1.369
1775529002107,-0.017,0.116,-1.201
1775529002127,0.042,0.338,-1.376
1775529002146,-0.002,0.761,-1.456
1775529002166,-0.053,0.406,-1.282
1775529002186,0.026,0.096,-1.153
1775529002205,0.061,0.395,-1.168
1775529002225,-0.045,0.690,-1.118
1775529002245,-0.071,0.344,-0.972
1775529002264,-0.002,0.142,-0.923
1775529002284,0.027,0.457,-1.054
1775529002304,-0.037,0.595,-1.105
1775529002324,-0.011,0.217,-1.035
1775529002343,0.011,0.113,-1.020
1775529002363,-0.024,0.551,-1.094
1775529002383,-0.075,0.347,-0.994
1775529002402,0.026,0.048,-0.952
1775529002422,0.037,0.328,-1.000
1775529002442,-0.044,0.568,-1.027
1775529002461,-0.049,0.112,-0.869
1775529002481,0.034,-0.024,-0.874
1775529002501,0.048,0.397,-0.965
1775529002521,-0.032,0.570,-0.989
1775529002540,-0.027,0.091,-0.870
1775529002560,0.010,-0.021,-0.887
1775529002580,0.018,0.366,-0.952
1775529002599,-0.008,0.398,-0.858
1775529002619,-0.025,0.043,-0.836
1775529002639,0.019,0.124,-0.931
1775529002658,-0.013,0.296,-0.917
1775529002678,-0.018,0.141,-0.742
1775529002698,-0.002,0.120,-0.802
1775529002718,-0.008,0.307,-0.990
1775529002737,-0.036,0.303,-1.001
1775529002757,-0.036,0.072,-0.898
1775529002777,-0.014,0.054,-0.871
1775529002796,-0.037,0.048,-0.797
1775529002816,-0.014,0.142,-0.811
1775529002836,-0.030,0.161,-0.798
1775529002855,-0.092,0.095,-0.696
1775529002875,-0.072,0.157,-0.725
1775529002895,-0.069,0.149,-0.826
1775529002915,-0.083,0.010,-0.816
1775529002934,-0.058,-0.081,-0.749
1775529002954,-0.016,0.083,-0.712
1775529002974,-0.041,0.315,-0.835
1775529002993,-0.112,0.109,-0.821
1775529003013,-0.099,-0.020,-0.727
1775529003033,-0.072,-0.043,-0.682
1775529003052,-0.032,0.085,-0.769
1775529003072,-0.064,0.076,-0.758
1775529003092,-0.065,0.042,-0.683
1775529003112,-0.034,0.014,-0.638
1775529003131,-0.009,-0.006,-0.666
1775529003151,-0.065,0.143,-0.685
1775529003171,-0.104,0.323,-0.731
1775529003190,-0.088,0.023,-0.723
1775529003210,0.000,-0.008,-0.690
1775529003230,-0.062,0.506,-0.927
1775529003249,-0.071,0.383,-1.105
1775529003269,-0.048,-0.102,-0.950
1775529003289,0.028,-0.133,-0.888
1775529003309,-0.065,0.415,-0.959
1775529003328,-0.139,0.574,-0.878
1775529003348,-0.081,-0.085,-0.793
1775529003368,0.006,-0.115,-0.830
1775529003387,0.035,0.530,-0.940
1775529003407,-0.003,0.732,-0.972
1775529003427,0.030,0.106,-1.031
1775529003446,0.053,0.125,-1.241
1775529003466,0.063,0.663,-1.164
1775529003486,-0.007,0.289,-0.932
1775529003506,0.062,0.044,-1.094
1775529003525,0.070,0.664,-1.370
1775529003545,-0.065,0.772,-1.310
1775529003565,-0.078,0.058,-1.056
1775529003584,-0.022,-0.113,-1.046
1775529003604,0.108,0.605,-1.298
1775529003624,0.069,0.669,-1.166
1775529003644,0.095,0.194,-1.036
1775529003663,0.135,0.475,-1.295
1775529003683,0.051,0.710,-1.440
1775529003703,-0.015,0.252,-1.288
1775529003722,0.030,0.139,-1.241
1775529003742,0.077,0.665,-1.353
1775529003762,-0.034,0.643,-1.267
1775529003781,0.020,0.134,-1.104
1775529003801,0.105,0.234,-1.070
1775529003821,0.054,0.795,-1.140
1775529003841,-0.060,0.501,-1.034
1775529003860,-0.003,0.103,-0.948
1775529003880,0.055,0.261,-1.038
1775529003900,0.011,0.675,-1.132
1775529003919,-0.053,0.396,-1.029
1775529003939,-0.036,0.105,-0.961
1775529003959,-0.034,0.380,-1.087
1775529003978,-0.039,0.425,-1.045
1775529003998,0.003,0.232,-0.959
1775529004018,0.051,0.280,-1.019
1775529004038,-0.005,0.457,-1.076
1775529004057,-0.067,0.315,-1.017
1775529004077,-0.028,0.123,-0.894
1775529004097,-0.015,0.295,-0.981
1775529004116,-0.030,0.470,-1.007
1775529004136,-0.065,0.231,-0.978
1775529004156,-0.050,0.113,-0.911
1775529004175,-0.051,0.250,-0.881
1775529004195,-0.026,0.359,-0.859
1775529004215,0.009,0.164,-0.911
1775529004235,0.044,0.229,-0.940
1775529004254,0.002,0.231,-0.854
1775529004274,0.021,0.136,-0.757
1775529004294,0.027,0.304,-0.892
1775529004313,-0.005,0.289,-0.996
1775529004333,-0.038,0.095,-0.839
1775529004353,-0.017,-0.029,-0.749
1775529004372,0.006,0.194,-0.802
1775529004392,-0.003,0.305,-0.903
1775529004412,0.003,0.111,-0.850
1775529004432,0.005,0.137,-0.811
1775529004451,-0.057,0.143,-0.801
1775529004471,-0.082,0.142,-0.800
1775529004491,-0.063,0.074,-0.782
1775529004510,-0.030,0.062,-0.765
1775529004530,-0.067,0.088,-0.738
1775529004550,-0.109,0.013,-0.685
1775529004569,-0.076,-0.030,-0.588
1775529004589,-0.074,0.096,-0.626
1775529004609,-0.069,0.187,-0.723
1775529004629,-0.067,0.242,-0.783
1775529004648,-0.060,0.119,-0.807
1775529004668,-0.056,0.099,-0.891
1775529004688,-0.085,0.011,-0.831
1775529004707,-0.077,0.021,-0.762
1775529004727,-0.036,0.005,-0.720
1775529004747,-0.022,0.217,-0.749
1775529004766,-0.111,0.139,-0.650
1775529004786,-0.070,-0.045,-0.585
1775529004806,0.002,0.055,-0.650
1775529004826,-0.009,0.512,-0.885
1775529004845,-0.088,0.257,-0.907
1775529004865,-0.016,-0.199,-0.733
1775529004885,0.041,-0.023,-0.905
1775529004904,0.003,0.522,-1.137
1775529004924,-0.090,0.688,-1.200
1775529004944,-0.072,-0.097,-0.889
1775529004963,-0.098,-0.410,-0.765
1775529004983,0.007,0.320,-0.909
1775529005003,-0.056,0.611,-0.990
1775529005023,0.013,0.130,-0.950
1775529005042,-0.024,0.207,-1.115
1775529005062,-0.038,0.514,-1.180
1775529005082,-0.010,0.180,-1.067
1775529005101,0.070,0.067,-1.166
1775529005121,0.034,0.513,-1.268
1775529005141,-0.114,0.491,-1.142
1775529005160,0.029,-0.143,-1.044
1775529005180,0.110,0.208,-1.421
1775529005200,0.156,0.732,-1.550
1775529005219,0.098,0.276,-1.173
1775529005239,0.036,0.000,-1.047
1775529005259,0.055,0.356,-1.163
1775529005279,-0.061,0.521,-1.162
1775529005298,-0.053,0.253,-1.172
1775529005318,-0.010,0.191,-1.238
1775529005338,0.010,0.472,-1.275
1775529005357,-0.057,0.367,-1.264
1775529005377,-0.027,0.215,-1.282
1775529005397,0.026,0.356,-1.239
1775529005417,-0.070,0.496,-1.221
1775529005436,-0.118,0.239,-1.165
1775529005456,-0.035,0.150,-1.096
1775529005476,0.018,0.247,-1.189
1775529005495,-0.003,0.412,-1.110
1775529005515,-0.016,0.244,-0.960
1775529005535,-0.027,0.149,-0.909
1775529005554,-0.060,0.370,-1.023
1775529005574,-0.074,0.239,-1.014
1775529005594,0.013,0.111,-1.007
1775529005614,0.037,0.310,-1.070
1775529005633,-0.032,0.431,-1.120
1775529005653,-0.009,0.105,-1.004
1775529005673,0.046,0.076,-0.980
1775529005692,0.061,0.457,-1.096
1775529005712,-0.053,0.340,-1.063
1775529005732,-0.054,-0.037,-0.875
1775529005751,0.032,0.025,-0.852
1775529005771,0.029,0.350,-1.000
1775529005791,-0.037,0.382,-0.948
1775529005811,-0.033,0.023,-0.805
1775529005830,0.012,0.070,-0.882
1775529005850,0.005,0.286,-0.942
1775529005870,-0.043,0.250,-0.870
1775529005889,-0.041,-0.003,-0.882
1775529005909,-0.014,0.081,-0.884
1775529005929,-0.039,0.219,-0.882
1775529005948,-0.034,0.080,-0.863
1775529005968,-0.001,0.126,-0.864
1775529005988,-0.019,0.219,-0.865
1775529006008,-0.020,0.021,-0.857
1775529006027,-0.003,0.089,-0.905
1775529006047,-0.032,0.206,-0.885
1775529006067,-0.049,0.010,-0.816
1775529006086,-0.061,0.018,-0.809
1775529006106,-0.072,0.064,-0.849
1775529006126,-0.058,0.181,-0.852
1775529006146,-0.059,0.111,-0.817
1775529006165,-0.099,0.012,-0.826
1775529006185,-0.071,0.034,-0.855
1775529006205,-0.029,-0.005,-0.867
1775529006224,-0.047,0.123,-0.822
1775529006244,-0.038,0.010,-0.697
1775529006264,-0.024,0.131,-0.804
1775529006283,-0.020,0.184,-0.944
1775529006303,-0.040,0.154,-0.907
1775529006323,-0.051,0.121,-0.877
1775529006343,-0.040,0.090,-0.938
1775529006362,-0.039,0.138,-1.021
1775529006382,-0.045,0.127,-0.980
1775529006402,-0.050,0.055,-0.865
1775529006421,-0.038,0.060,-0.819
1775529006441,-0.014,0.191,-0.885
1775529006461,-0.019,0.105,-0.830
1775529006480,-0.030,0.001,-0.714
1775529006500,-0.051,0.164,-0.710
1775529006520,-0.044,0.349,-0.894
1775529006540,-0.041,0.252,-1.052
1775529006559,-0.040,0.022,-0.949
1775529006579,-0.040,0.056,-0.851
1775529006599,-0.046,0.332,-1.024
1775529006618,-0.041,0.493,-1.177
1775529006638,-0.082,0.161,-1.081
1775529006658,-0.093,-0.133,-0.813
1775529006677,-0.016,-0.075,-0.757
1775529006697,0.009,0.352,-0.868
1775529006717,-0.008,0.548,-0.988
1775529006737,-0.081,0.130,-0.859
1775529006756,-0.045,-0.018,-0.733
1775529006776,0.028,0.392,-0.999
1775529006796,-0.011,0.656,-1.309
1775529006815,-0.069,0.407,-1.211
1775529006835,-0.071,-0.015,-1.033
1775529006855,0.012,0.064,-1.093
1775529006875,0.029,0.385,-1.142
1775529006894,-0.005,0.276,-0.968
1775529006914,-0.018,0.119,-0.812
1775529006934,-0.011,0.260,-0.828
1775529006953,0.010,0.555,-1.038
1775529006973,-0.005,0.515,-1.139
1775529006993,0.013,0.326,-1.125
1775529007012,0.024,0.448,-1.223
1775529007032,-0.055,0.489,-1.384
1775529007052,-0.106,0.215,-1.318
1775529007072,-0.056,0.076,-1.139
1775529007091,-0.027,0.357,-1.122
1775529007150,-0.012,0.202,-0.826
1775529007170,-0.003,0.371,-0.832
1775529007190,-0.018,0.414,-0.888
1775529007209,-0.031,0.372,-1.022
1775529007229,-0.045,0.336,-1.034
1775529007249,-0.027,0.262,-1.013
1775529007269,0.017,0.373,-1.091
1775529007288,0.003,0.525,-1.155
1775529007308,-0.013,0.302,-1.093
1775529007328,0.011,0.239,-1.023
1775529007347,0.019,0.419,-1.050
1775529007367,-0.013,0.401,-0.997
1775529007387,-0.008,0.219,-0.978
1775529007406,0.015,0.288,-0.922
1775529007426,0.005,0.324,-0.918
1775529007446,0.015,0.254,-0.890
1775529007466,0.036,0.286,-0.886
1775529007485,0.030,0.435,-0.914
1775529007505,-0.018,0.487,-0.985
1775529007525,-0.010,0.338,-1.002
1775529007544,0.021,0.265,-1.047
1775529007564,0.026,0.211,-1.045
1775529007584,0.022,0.233,-0.948
1775529007603,0.009,0.313,-0.844
1775529007623,-0.021,0.352,-0.806
1775529007643,-0.056,0.218,-0.814
1775529007663,-0.043,0.169,-0.794
1775529007682,-0.055,0.168,-0.781
1775529007702,-0.056,0.252,-0.831
1775529007722,-0.085,0.176,-0.853
1775529007741,-0.033,0.082,-0.911
1775529007761,0.006,0.203,-0.873
1775529007781,0.019,0.202,-0.883
1775529007800,0.054,0.159,-0.821
1775529007820,0.036,0.236,-0.764
1775529007840,0.018,0.268,-0.773
1775529007860,0.044,0.246,-0.806
1775529007879,0.037,0.332,-0.739
1775529007899,0.021,0.455,-0.792
1775529007919,0.005,0.416,-0.914
1775529007938,-0.001,0.288,-1.006
1775529007958,-0.016,0.213,-1.001
1775529007978,-0.026,0.202,-0.987
1775529007997,-0.018,0.242,-1.014
1775529008017,0.001,0.190,-0.973
1775529008037,0.009,0.209,-0.923
1775529008057,-0.011,0.204,-0.834
1775529008076,-0.020,0.252,-0.756
1775529008096,-0.005,0.204,-0.776
1775529008116,0.000,0.129,-0.837
1775529008135,-0.017,0.259,-0.914
1775529008155,-0.036,0.293,-0.967
1775529008175,-0.025,0.158,-0.937
1775529008194,-0.016,0.151,-0.949
1775529008214,-0.027,0.163,-0.891
1775529008234,-0.030,0.224,-0.856
1775529008254,0.000,0.198,-0.875
1775529008273,0.016,0.213,-0.824
1775529008293,-0.023,0.236,-0.772
1775529008313,-0.017,0.171,-0.760
1775529008332,0.055,0.297,-0.922
1775529008352,0.091,0.485,-1.094
1775529008372,0.054,0.437,-1.068
1775529008392,-0.009,0.211,-0.915
1775529008411,0.036,0.132,-1.012
1775529008431,0.043,0.162,-0.963
1775529008451,0.043,0.357,-0.814
1775529008470,0.040,0.262,-0.747
1775529008490,0.051,0.164,-0.762
1775529008510,0.033,0.113,-0.692
1775529008529,-0.028,0.368,-0.708
1775529008549,-0.008,0.490,-0.980
1775529008569,0.069,0.449,-1.282
1775529008589,0.093,0.681,-1.341
1775529008608,0.062,0.633,-1.421
1775529008628,0.084,0.499,-1.645
1775529008648,0.104,0.503,-1.696
1775529008667,0.044,0.684,-1.545
1775529008687,-0.070,0.453,-1.393
1775529008707,-0.023,0.140,-1.209
1775529008726,0.048,0.369,-1.153
1775529008746,0.016,0.663,-1.156
1775529008766,-0.009,0.389,-1.010
1775529008786,0.017,0.285,-0.932
1775529008805,0.022,0.393,-0.942
1775529008825,0.009,0.354,-0.934
1775529008845,0.029,0.310,-0.972
1775529008864,0.042,0.341,-0.933
1775529008884,0.039,0.226,-0.934
1775529008904,0.024,0.254,-0.924
1775529008924,-0.005,0.195,-0.824
1775529008943,0.011,0.120,-0.731
1775529008963,0.008,0.253,-0.700
1775529008983,0.007,0.271,-0.681
1775529009002,0.014,0.280,-0.702
1775529009022,0.004,0.334,-0.818
1775529009042,-0.044,0.139,-0.845
1775529009061,-0.030,0.013,-0.799
1775529009081,0.021,0.238,-0.791
1775529009101,0.031,0.492,-0.897
1775529009121,-0.019,0.223,-0.974
1775529009140,-0.033,-0.029,-0.836
1775529009160,-0.018,0.168,-0.744
1775529009180,0.007,0.267,-0.863
1775529009199,0.026,0.180,-0.869
1775529009219,0.034,0.239,-0.866
1775529009239,0.013,0.357,-0.917
1775529009259,-0.004,0.194,-0.963
1775529009278,0.005,0.113,-0.954
1775529009298,-0.007,0.255,-0.953
1775529009318,-0.061,0.187,-0.902
1775529009337,-0.056,0.192,-0.893
1775529009357,-0.022,0.269,-0.949
1775529009377,-0.037,0.222,-0.937
1775529009396,-0.036,0.199,-0.931
1775529009416,-0.011,0.239,-0.947
1775529009436,-0.004,0.251,-0.968
1775529009456,-0.033,0.269,-0.981
1775529009475,-0.049,0.209,-0.944
1775529009495,-0.050,0.168,-0.905
1775529009515,-0.025,0.259,-0.938
1775529009534,-0.031,0.230,-0.923
1775529009554,-0.020,0.189,-0.904
1775529009574,-0.005,0.165,-0.892
1775529009593,-0.001,0.182,-0.864
1775529009613,0.007,0.195,-0.819
1775529009633,0.012,0.179,-0.801
1775529009653,0.022,0.163,-0.837
1775529009672,0.027,0.289,-0.907
1775529009692,-0.030,0.251,-0.840
1775529009712,-0.038,0.201,-0.828
1775529009731,0.000,0.283,-0.919
1775529009751,-0.001,0.312,-0.997
1775529009771,-0.036,0.189,-0.954
1775529009790,-0.047,0.144,-0.912
1775529009810,0.005,0.238,-0.950
1775529009830,0.015,0.357,-0.942
1775529009850,-0.019,0.256,-0.880
1775529009869,-0.006,0.053,-0.792
1775529009889,0.024,0.075,-0.763
1775529009909,0.023,0.336,-0.848
1775529009928,-0.070,0.513,-0.886
1775529009948,-0.107,0.273,-0.782
1775529009968,-0.096,0.035,-0.849
1775529009987,0.013,0.181,-0.951
1775529010007,0.030,0.493,-0.987
1775529010027,0.011,0.488,-1.023
1775529010047,0.037,0.192,-1.071
1775529010066,0.071,0.306,-1.069
1775529010086,0.036,0.368,-0.971
1775529010106,0.023,0.189,-0.874
1775529010125,0.045,0.328,-0.873
1775529010145,0.047,0.396,-0.920
1775529010165,0.050,0.306,-0.915
1775529010185,0.048,0.278,-0.922
1775529010204,-0.023,0.505,-0.940
1775529010224,-0.119,0.602,-0.953
1775529010244,-0.076,0.382,-1.136
1775529010263,0.035,0.477,-1.360
1775529010283,0.056,0.685,-1.410
1775529010303,-0.022,0.521,-1.252
1775529010322,0.010,0.453,-1.242
1775529010342,-0.001,0.603,-1.238
1775529010362,-0.101,0.558,-1.150
1775529010382,-0.118,0.261,-1.048
1775529010401,-0.009,0.314,-1.071
1775529010421,0.012,0.544,-1.002
1775529010441,-0.033,0.541,-0.921
1775529010460,-0.031,0.272,-0.925
1775529010480,0.029,0.276,-0.984
1775529010500,0.020,0.586,-1.014
1775529010520,-0.050,0.462,-0.995
1775529010539,-0.018,0.273,-1.020
1775529010559,0.012,0.384,-1.009
1775529010579,-0.016,0.548,-1.010
1775529010598,-0.001,0.322,-0.987
1775529010618,0.061,0.431,-1.011
1775529010638,0.013,0.449,-0.957
1775529010658,-0.025,0.360,-0.993
1775529010677,0.024,0.324,-0.975
1775529010697,0.087,0.331,-0.979
1775529010717,0.035,0.510,-0.989
1775529010736,-0.086,0.271,-0.850
1775529010756,-0.070,0.181,-0.775
1775529010776,-0.018,0.458,-0.875
1775529010795,-0.040,0.346,-0.796
1775529010815,-0.027,0.278,-0.806
1775529010835,0.018,0.309,-0.935
1775529010855,0.020,0.385,-0.957
1775529010874,-0.029,0.320,-0.901
1775529010894,-0.006,0.278,-0.904
1775529010914,-0.015,0.222,-0.928
1775529010933,-0.021,0.229,-0.904
1775529010953,-0.039,0.365,-0.873
1775529010973,-0.041,0.331,-0.930
1775529010992,-0.039,0.190,-0.879
1775529011012,-0.053,0.240,-0.828
1775529011032,-0.045,0.382,-0.907
1775529011052,-0.046,0.251,-0.915
1775529011071,-0.064,0.089,-0.800
1775529011091,-0.093,0.053,-0.664
1775529011111,-0.081,0.052,-0.594
1775529011130,0.028,0.065,-0.678
1775529011150,0.065,0.163,-0.691
1775529011170,0.054,0.339,-0.705
1775529011189,0.041,0.249,-0.829
1775529011209,0.054,0.298,-0.916
1775529011229,0.013,0.461,-0.994
1775529011249,-0.036,0.403,-1.047
1775529011268,-0.072,0.192,-0.998
1775529011288,-0.061,0.125,-1.001
1775529011308,-0.061,0.210,-0.997
1775529011327,-0.061,0.266,-0.904
1775529011347,-0.069,0.172,-0.813
1775529011367,-0.057,0.102,-0.742
1775529011387,-0.009,0.099,-0.676
1775529011406,0.007,0.301,-0.756
1775529011426,0.003,0.406,-0.808
1775529011446,-0.038,0.193,-0.825
1775529011465,-0.029,0.026,-0.817
1775529011485,0.026,0.252,-0.840
1775529011505,0.025,0.453,-0.938
1775529011524,0.012,0.380,-1.007
1775529011544,0.008,0.121,-0.947
1775529011564,0.011,0.174,-0.928
1775529011584,0.000,0.366,-0.883
1775529011603,0.034,0.303,-0.856
1775529011623,0.043,0.204,-0.871
1775529011643,0.070,0.298,-0.857
1775529011662,0.085,0.329,-0.873
1775529011682,0.075,0.164,-0.939
1775529011702,0.092,0.427,-1.065
1775529011722,0.085,0.497,-0.997
1775529011741,0.051,0.306,-0.886
1775529011761,0.061,0.310,-0.958
1775529011781,0.105,0.397,-1.070
1775529011800,0.095,0.500,-1.087
1775529011820,0.031,0.355,-0.940
1775529011840,0.044,0.233,-0.937
1775529011859,0.060,0.312,-0.998
1775529011879,0.037,0.462,-0.965
1775529011899,-0.091,0.204,-0.753
1775529011919,-0.111,0.076,-0.674
1775529011938,0.011,0.424,-0.881
1775529011958,0.031,0.522,-1.010
1775529011978,-0.003,0.262,-0.946
1775529011997,0.054,0.527,-1.093
1775529012017,0.099,0.771,-1.199
1775529012037,0.051,0.428,-1.112
1775529012057,0.030,0.392,-1.292
1775529012076,0.068,0.645,-1.489
1775529012096,0.009,0.410,-1.306
1775529012116,-0.062,0.319,-1.082
1775529012135,-0.061,0.484,-1.153
1775529012155,-0.061,0.422,-1.179
1775529012175,-0.032,0.339,-1.105
1775529012195,0.049,0.446,-1.030
1775529012214,0.076,0.517,-0.998
1775529012234,0.006,0.410,-1.006
1775529012254,-0.009,0.366,-0.935
1775529012273,-0.026,0.406,-0.968
1775529012293,-0.024,0.479,-1.020
1775529012313,-0.063,0.413,-1.033
1775529012332,-0.090,0.311,-0.995
1775529012352,-0.059,0.399,-0.990
1775529012372,-0.039,0.515,-1.010
1775529012392,-0.060,0.375,-0.991
1775529012411,-0.061,0.330,-1.020
1775529012431,-0.091,0.398,-0.991
1775529012451,-0.068,0.301,-0.874
1775529012470,-0.010,0.267,-0.941
1775529012490,0.011,0.406,-0.994
1775529012510,-0.050,0.367,-0.888
1775529012530,-0.065,0.171,-0.822
1775529012549,-0.046,0.303,-0.822
1775529012569,-0.048,0.316,-0.837
1775529012589,-0.045,0.241,-0.858
1775529012608,-0.045,0.318,-0.857
1775529012628,-0.052,0.376,-0.868
1775529012648,-0.063,0.189,-0.877
1775529012668,-0.047,0.321,-0.943
1775529012687,-0.072,0.457,-0.968
1775529012707,-0.098,0.237,-0.927
1775529012727,-0.087,0.114,-0.826
1775529012746,-0.064,0.192,-0.799
1775529012766,-0.072,0.357,-0.842
1775529012786,-0.096,0.338,-0.871
1775529012805,-0.045,0.117,-0.887
1775529012825,-0.007,0.031,-0.807
1775529012845,-0.009,0.146,-0.767
1775529012865,-0.016,0.123,-0.687
1775529012884,-0.024,0.229,-0.653
1775529012904,-0.051,0.246,-0.730
1775529012924,-0.051,0.151,-0.759
1775529012943,-0.019,0.284,-0.837
1775529012963,-0.057,0.302,-0.875
1775529012983,-0.070,0.231,-0.902
1775529013003,-0.080,0.253,-0.949
1775529013022,-0.089,0.294,-0.956
1775529013042,-0.125,0.213,-0.935
1775529013062,-0.137,0.097,-0.888
1775529013081,-0.087,0.061,-0.831
1775529013101,-0.027,0.244,-0.792
1775529013121,-0.069,0.357,-0.673
1775529013141,-0.125,0.345,-0.666
1775529013160,-0.114,0.193,-0.869
1775529013180,-0.083,0.071,-1.020
1775529013200,-0.078,0.223,-0.889
1775529013219,-0.124,0.240,-0.688
1775529013239,-0.073,0.261,-0.736
1775529013259,-0.034,0.370,-0.884
1775529013279,-0.046,0.340,-0.860
1775529013298,-0.036,0.285,-0.794
1775529013318,0.061,0.337,-0.889
1775529013338,0.103,0.651,-1.105
1775529013357,0.042,0.658,-1.171
1775529013377,-0.055,0.111,-0.976
1775529013397,-0.085,-0.077,-0.829
1775529013417,0.002,0.386,-0.854
1775529013436,0.015,0.665,-0.882
1775529013456,-0.011,0.423,-0.811
1775529013476,0.000,0.320,-0.874
1775529013495,0.058,0.487,-1.006
1775529013515,0.064,0.620,-1.162
1775529013535,0.036,0.635,-1.239
1775529013555,-0.013,0.414,-1.115
1775529013574,-0.031,0.479,-1.103
1775529013594,0.018,0.474,-1.182
1775529013614,0.053,0.400,-1.112
1775529013633,0.028,0.356,-0.877
1775529013653,0.015,0.368,-0.791
1775529013673,0.041,0.472,-0.881
1775529013693,0.059,0.583,-1.015
1775529013712,0.001,0.439,-0.929
1775529013732,-0.012,0.383,-0.958
1775529013752,0.049,0.524,-1.075
1775529013771,0.046,0.476,-1.060
1775529013791,0.010,0.538,-1.028
1775529013811,-0.009,0.492,-1.008
1775529013831,0.024,0.367,-0.993
1775529013850,0.015,0.498,-0.979
1775529013870,-0.062,0.551,-0.869
1775529013890,-0.060,0.385,-0.809
1775529013909,-0.028,0.478,-0.930
1775529013929,-0.004,0.574,-0.963
1775529013949,-0.072,0.525,-0.894
1775529013968,0.017,0.525,-1.004
1775529013988,-0.010,0.687,-1.080
1775529014008,-0.033,0.555,-1.143
1775529014028,-0.048,0.275,-1.051
1775529014047,-0.003,0.490,-1.105
1775529014067,0.033,0.582,-1.069
1775529014087,-0.027,0.394,-0.908
1775529014106,0.019,0.416,-0.852
1775529014126,0.042,0.487,-0.840
1775529014146,0.028,0.504,-0.924
1775529014166,-0.024,0.479,-0.975
1775529014185,-0.011,0.366,-0.952
1775529014205,0.005,0.343,-0.973
1775529014225,0.018,0.420,-0.891
1775529014244,-0.015,0.467,-0.925
1775529014264,-0.011,0.388,-0.871
1775529014284,0.014,0.444,-0.823
1775529014304,0.016,0.487,-0.937
1775529014323,0.012,0.306,-0.882
1775529014343,0.023,0.409,-0.860
1775529014363,-0.012,0.544,-0.969
1775529014382,-0.063,0.415,-0.972
1775529014402,-0.066,0.163,-0.892
1775529014422,-0.026,0.073,-0.811
1775529014441,-0.055,0.111,-0.709
1775529014461,-0.057,0.008,-0.527
1775529014481,0.006,-0.080,-0.364
1775529014501,0.044,0.222,-0.392
1775529014520,0.079,0.461,-0.616
1775529014540,0.034,0.401,-0.824
1775529014560,-0.035,0.284,-0.915
1775529014579,-0.001,0.357,-0.973
1775529014599,0.018,0.453,-1.048
1775529014619,-0.028,0.464,-1.124
1775529014639,-0.057,0.256,-1.022
1775529014658,-0.046,0.252,-0.955
1775529014678,-0.008,0.383,-1.008
1775529014698,-0.022,0.317,-0.977
1775529014717,0.001,0.337,-0.993
1775529014737,-0.026,0.277,-0.816
1775529014757,-0.010,0.404,-0.862
1775529014777,-0.037,0.297,-0.915
1775529014796,-0.003,0.333,-0.979
1775529014816,0.012,0.356,-1.001
1775529014836,-0.007,0.330,-0.932
1775529014855,-0.002,0.327,-0.985
1775529014875,-0.030,0.260,-0.956
1775529014895,-0.017,0.318,-0.966
1775529014914,-0.021,0.302,-0.901
1775529014934,-0.007,0.297,-0.888
1775529014954,0.016,0.285,-0.947
1775529014974,0.022,0.282,-0.934
1775529014993,0.028,0.222,-0.900
1775529015013,0.053,0.259,-0.915
1775529015033,0.080,0.275,-0.955
1775529015052,0.096,0.206,-0.948
1775529015072,0.088,0.217,-0.952
1775529015092,0.074,0.195,-0.888
1775529015111,0.089,0.171,-0.888
1775529015131,0.043,0.147,-0.914
1775529015151,0.031,0.190,-1.003
1775529015171,0.041,0.241,-1.027
1775529015190,0.028,0.147,-0.981
1775529015210,0.021,0.236,-1.006
1775529015230,-0.082,0.081,-0.881
1775529015249,-0.096,0.024,-0.829
1775529015269,-0.094,0.123,-0.854
1775529015289,-0.095,0.230,-0.964
1775529015309,-0.125,0.142,-0.967
1775529015328,-0.103,0.038,-1.066
1775529015348,-0.026,-0.128,-1.127
1775529015368,0.032,0.040,-1.113
1775529015387,0.021,0.146,-1.035
1775529015407,0.034,0.006,-1.020
1775529015427,0.078,0.022,-1.013
1775529015446,0.081,0.066,-0.970
1775529015466,0.068,0.112,-0.946
1775529015486,0.066,0.030,-0.920
1775529015506,0.129,0.070,-0.949
1775529015525,0.163,0.076,-0.942
1775529015545,0.161,0.157,-0.983
1775529015565,0.127,0.029,-0.999
1775529015584,0.134,0.004,-1.026
1775529015604,0.142,0.051,-1.043
1775529015624,0.130,0.043,-1.034
1775529015643,0.101,-0.041,-0.993
1775529015663,0.112,-0.154,-1.025
1775529015683,0.124,-0.061,-0.990
1775529015703,0.131,-0.108,-0.915
1775529015722,0.195,-0.162,-0.951
1775529015781,0.263,-0.148,-0.998
1775529015801,0.226,-0.209,-1.033
1775529015821,0.169,-0.322,-1.079
1775529015841,0.194,-0.274,-1.111
1775529015860,0.203,-0.341,-1.059
1775529015880,0.192,-0.362,-0.974
1775529015900,0.178,-0.299,-0.851
1775529015919,0.153,-0.327,-0.849
1775529015939,0.184,-0.269,-0.963
1775529015959,0.168,-0.257,-1.013
1775529015978,0.129,-0.309,-1.021
1775529015998,0.058,-0.445,-0.993
1775529016018,0.025,-0.402,-0.994
1775529016038,0.013,-0.281,-1.023
1775529016057,-0.053,-0.332,-0.952
1775529016077,-0.152,-0.443,-0.847
1775529016097,-0.231,-0.443,-0.775
1775529016116,-0.239,-0.279,-0.883
1775529016136,-0.303,-0.459,-0.936
1775529016156,-0.372,-0.604,-0.844
1775529016175,-0.391,-0.549,-0.776
1775529016195,-0.381,-0.468,-0.757
1775529016215,-0.373,-0.495,-0.708
1775529016235,-0.377,-0.526,-0.610
1775529016254,-0.353,-0.524,-0.590
1775529016274,-0.312,-0.539,-0.576
1775529016294,-0.299,-0.584,-0.552
1775529016313,-0.273,-0.488,-0.613
1775529016333,-0.235,-0.430,-0.695
1775529016353,-0.222,-0.493,-0.718
1775529016372,-0.212,-0.587,-0.640
1775529016392,-0.201,-0.612,-0.679
1775529016412,-0.157,-0.408,-0.817
1775529016432,-0.138,-0.410,-0.845
1775529016451,-0.154,-0.607,-0.742
1775529016471,-0.168,-0.503,-0.748
1775529016491,-0.168,-0.405,-0.849
1775529016510,-0.175,-0.499,-0.807
1775529016530,-0.154,-0.514,-0.856
1775529016550,-0.125,-0.448,-1.050
1775529016569,-0.084,-0.526,-1.024
1775529016589,-0.042,-0.496,-0.933
1775529016609,0.051,-0.470,-1.057
1775529016629,0.174,-0.608,-1.085
1775529016648,0.228,-0.599,-0.982
1775529016668,0.280,-0.421,-0.974
1775529016688,0.324,-0.497,-0.956
1775529016707,0.360,-0.566,-0.872
1775529016727,0.404,-0.489,-0.876
1775529016747,0.433,-0.549,-0.801
1775529016766,0.469,-0.591,-0.693
1775529016786,0.482,-0.553,-0.689
1775529016806,0.493,-0.456,-0.734
1775529016826,0.531,-0.513,-0.745
1775529016845,0.524,-0.624,-0.681
1775529016865,0.501,-0.591,-0.614
1775529016885,0.523,-0.512,-0.613
1775529016904,0.530,-0.646,-0.600
1775529016924,0.530,-0.650,-0.535
1775529016944,0.531,-0.523,-0.535
1775529016964,0.517,-0.584,-0.535
1775529016983,0.487,-0.650,-0.511
1775529017003,0.469,-0.613,-0.531
1775529017023,0.486,-0.584,-0.580
1775529017042,0.457,-0.609,-0.595
1775529017062,0.419,-0.603,-0.621
1775529017082,0.398,-0.661,-0.706
1775529017102,0.375,-0.662,-0.767
1775529017121,0.334,-0.645,-0.763
1775529017141,0.272,-0.622,-0.734
1775529017161,0.254,-0.662,-0.750
1775529017180,0.248,-0.694,-0.745
1775529017200,0.257,-0.657,-0.735
1775529017220,0.269,-0.648,-0.714
1775529017239,0.284,-0.653,-0.678
1775529017259,0.314,-0.650,-0.654
1775529017279,0.363,-0.677,-0.624
1775529017299,0.386,-0.653,-0.601
1775529017318,0.409,-0.574,-0.649
1775529017338,0.417,-0.645,-0.675
1775529017358,0.394,-0.641,-0.617
1775529017377,0.358,-0.600,-0.590
1775529017397,0.362,-0.578,-0.625
1775529017417,0.364,-0.621,-0.652
1775529017437,0.360,-0.633,-0.662
1775529017456,0.351,-0.641,-0.653
1775529017476,0.276,-0.642,-0.656
1775529017496,0.293,-0.581,-0.823
1775529017515,0.325,-0.653,-0.849
1775529017535,0.346,-0.694,-0.823
1775529017555,0.362,-0.562,-0.788
1775529017574,0.348,-0.491,-0.791
1775529017594,0.315,-0.493,-0.781
1775529017614,0.264,-0.564,-0.765
1775529017634,0.233,-0.559,-0.747
1775529017653,0.209,-0.612,-0.778
1775529017673,0.220,-0.650,-0.826
1775529017693,0.227,-0.661,-0.826
1775529017712,0.226,-0.625,-0.824
1775529017732,0.212,-0.594,-0.823
1775529017752,0.202,-0.597,-0.801
1775529017772,0.199,-0.594,-0.755
1775529017791,0.208,-0.576,-0.733
1775529017811,0.207,-0.576,-0.753
1775529017831,0.218,-0.601,-0.780
1775529017850,0.230,-0.583,-0.766
1775529017870,0.238,-0.585,-0.750
1775529017890,0.248,-0.581,-0.753
1775529017909,0.251,-0.576,-0.769
1775529017929,0.261,-0.565,-0.780
1775529017949,0.257,-0.566,-0.765
1775529017969,0.254,-0.564,-0.764
1775529017988,0.247,-0.557,-0.771
1775529018008,0.246,-0.567,-0.768
1775529018028,0.247,-0.549,-0.758
1775529018047,0.234,-0.584,-0.766
1775529018067,0.237,-0.551,-0.793
1775529018087,0.236,-0.573,-0.810
1775529018107,0.238,-0.578,-0.811
1775529018126,0.244,-0.550,-0.827
1775529018146,0.250,-0.541,-0.827
1775529018166,0.252,-0.559,-0.825
1775529018185,0.250,-0.536,-0.821
1775529018205,0.249,-0.524,-0.812
1775529018225,0.249,-0.529,-0.810
1775529018244,0.246,-0.536,-0.805
1775529018264,0.243,-0.543,-0.796
1775529018284,0.233,-0.548,-0.803
1775529018304,0.225,-0.541,-0.811
1775529018323,0.225,-0.566,-0.820
1775529018343,0.230,-0.566,-0.799
1775529018363,0.233,-0.542,-0.798
1775529018382,0.234,-0.530,-0.803
1775529018402,0.233,-0.541,-0.813
1775529018422,0.233,-0.540,-0.802
1775529018442,0.233,-0.540,-0.794
1775529018461,0.231,-0.556,-0.786
1775529018481,0.233,-0.530,-0.787
1775529018501,0.231,-0.557,-0.778
1775529018520,0.228,-0.530,-0.802
1775529018540,0.222,-0.541,-0.807
1775529018560,0.221,-0.554,-0.800
1775529018580,0.213,-0.564,-0.811
1775529018599,0.211,-0.540,-0.822
1775529018619,0.201,-0.553,-0.831
1775529018639,0.191,-0.557,-0.826
1775529018658,0.178,-0.553,-0.813
1775529018678,0.167,-0.554,-0.815
1775529018698,0.149,-0.553,-0.829
1775529018718,0.133,-0.563,-0.835
1775529018737,0.121,-0.568,-0.845
1775529018757,0.119,-0.588,-0.858
1775529018777,0.121,-0.586,-0.888
1775529018796,0.128,-0.534,-0.939
1775529018816,0.135,-0.568,-0.935
1775529018836,0.134,-0.595,-0.910
1775529018855,0.138,-0.536,-0.910
1775529018875,0.158,-0.524,-0.883
1775529018895,0.189,-0.605,-0.818
1775529018915,0.220,-0.577,-0.748
1775529018934,0.243,-0.517,-0.704
1775529018954,0.291,-0.553,-0.695
1775529018974,0.341,-0.590,-0.620
1775529018993,0.391,-0.573,-0.571
1775529019013,0.393,-0.594,-0.631
1775529019033,0.410,-0.576,-0.713
1775529019053,0.436,-0.640,-0.704
1775529019072,0.452,-0.703,-0.717
1775529019092,0.452,-0.613,-0.758
1775529019112,0.447,-0.543,-0.785
1775529019131,0.436,-0.579,-0.724
1775529019151,0.405,-0.599,-0.657
1775529019171,0.397,-0.560,-0.617
1775529019190,0.398,-0.568,-0.595
1775529019210,0.415,-0.577,-0.610
1775529019230,0.445,-0.620,-0.633
1775529019250,0.464,-0.656,-0.627
1775529019269,0.469,-0.602,-0.619
1775529019289,0.454,-0.612,-0.638
1775529019309,0.464,-0.661,-0.646
1775529019328,0.481,-0.673,-0.670
1775529019348,0.460,-0.639,-0.643
1775529019368,0.446,-0.637,-0.593
1775529019388,0.455,-0.654,-0.593
1775529019407,0.467,-0.647,-0.601
1775529019427,0.477,-0.637,-0.588
1775529019447,0.471,-0.607,-0.574
1775529019466,0.475,-0.589,-0.596
1775529019486,0.474,-0.650,-0.617
1775529019506,0.468,-0.646,-0.631
1775529019526,0.459,-0.638,-0.613
1775529019545,0.455,-0.599,-0.588
1775529019565,0.450,-0.662,-0.585
1775529019585,0.462,-0.673,-0.568
1775529019604,0.471,-0.676,-0.536
1775529019624,0.483,-0.643,-0.520
1775529019644,0.510,-0.638,-0.547
1775529019663,0.531,-0.648,-0.539
1775529019683,0.542,-0.653,-0.542
1775529019703,0.549,-0.658,-0.541
1775529019723,0.555,-0.653,-0.557
1775529019742,0.555,-0.659,-0.537
1775529019762,0.552,-0.659,-0.515
1775529019782,0.563,-0.669,-0.508
1775529019801,0.547,-0.676,-0.499
1775529019821,0.534,-0.623,-0.494
1775529019841,0.531,-0.668,-0.492
1775529019860,0.544,-0.716,-0.506
1775529019880,0.551,-0.675,-0.521
1775529019900,0.529,-0.653,-0.494
1775529019920,0.517,-0.655,-0.487
1775529019939,0.535,-0.671,-0.530
1775529019959,0.541,-0.729,-0.518
1775529019979,0.540,-0.649,-0.508
1775529019998,0.557,-0.616,-0.540
1775529020018,0.570,-0.668,-0.557
1775529020038,0.575,-0.693,-0.539
1775529020057,0.583,-0.645,-0.527
1775529020077,0.592,-0.642,-0.535
1775529020097,0.614,-0.641,-0.587
1775529020117,0.615,-0.638,-0.564
1775529020136,0.596,-0.685,-0.483
1775529020156,0.582,-0.692,-0.462
1775529020176,0.564,-0.693,-0.393
1775529020195,0.542,-0.702,-0.323
1775529020215,0.561,-0.737,-0.311
1775529020235,0.597,-0.745,-0.286
1775529020255,0.601,-0.755,-0.257
1775529020274,0.608,-0.707,-0.274
1775529020294,0.615,-0.747,-0.290
1775529020314,0.616,-0.758,-0.314
1775529020333,0.616,-0.765,-0.337
1775529020353,0.603,-0.717,-0.327
1775529020373,0.629,-0.703,-0.326
1775529020392,0.637,-0.737,-0.336
1775529020412,0.637,-0.735,-0.328
1775529020432,0.622,-0.717,-0.313
1775529020452,0.614,-0.714,-0.307
1775529020471,0.610,-0.741,-0.327
1775529020491,0.593,-0.754,-0.308
1775529020511,0.571,-0.756,-0.290
1775529020530,0.564,-0.758,-0.298
1775529020550,0.560,-0.785,-0.322
1775529020570,0.561,-0.790,-0.316
1775529020589,0.542,-0.762,-0.281
1775529020609,0.541,-0.756,-0.287
1775529020629,0.564,-0.743,-0.295
1775529020649,0.564,-0.745,-0.285
1775529020668,0.550,-0.744,-0.288
1775529020688,0.571,-0.772,-0.320
1775529020708,0.585,-0.768,-0.317
1775529020727,0.588,-0.749,-0.301
1775529020747,0.590,-0.761,-0.312
1775529020767,0.599,-0.734,-0.300
1775529020786,0.603,-0.721,-0.297
1775529020806,0.596,-0.761,-0.288
1775529020826,0.594,-0.746,-0.303
1775529020846,0.605,-0.743,-0.346
1775529020865,0.615,-0.757,-0.380
1775529020885,0.619,-0.754,-0.395
1775529020905,0.626,-0.757,-0.402
1775529020924,0.636,-0.714,-0.371
1775529020944,0.632,-0.731,-0.315
1775529020964,0.617,-0.717,-0.312
1775529020983,0.605,-0.721,-0.293
1775529021003,0.607,-0.755,-0.277
1775529021023,0.608,-0.739,-0.279
1775529021042,0.607,-0.724,-0.287
1775529021062,0.613,-0.751,-0.287
1775529021082,0.612,-0.751,-0.280
1775529021102,0.619,-0.761,-0.281
1775529021121,0.622,-0.761,-0.268
1775529021141,0.618,-0.746,-0.262
1775529021161,0.624,-0.753,-0.269
1775529021180,0.625,-0.730,-0.262
1775529021200,0.620,-0.750,-0.252
1775529021220,0.628,-0.753,-0.253
1775529021239,0.627,-0.745,-0.253
1775529021259,0.620,-0.755,-0.256
1775529021279,0.621,-0.749,-0.263
1775529021299,0.631,-0.766,-0.276
1775529021318,0.620,-0.719,-0.274
1775529021338,0.613,-0.721,-0.273
1775529021358,0.614,-0.755,-0.273
1775529021377,0.610,-0.730,-0.269
1775529021397,0.596,-0.722,-0.255
1775529021417,0.590,-0.760,-0.260
1775529021436,0.603,-0.815,-0.283
1775529021456,0.614,-0.740,-0.266
1775529021476,0.611,-0.737,-0.284
1775529021496,0.629,-0.748,-0.284
1775529021515,0.644,-0.727,-0.279
1775529021535,0.643,-0.730,-0.271
1775529021555,0.634,-0.722,-0.244
1775529021574,0.629,-0.721,-0.273
1775529021594,0.644,-0.746,-0.300
1775529021614,0.656,-0.757,-0.285
1775529021633,0.656,-0.746,-0.287
1775529021653,0.653,-0.730,-0.283
1775529021673,0.657,-0.719,-0.288
1775529021693,0.652,-0.752,-0.297
1775529021712,0.643,-0.725,-0.288
1775529021732,0.622,-0.703,-0.277
1775529021752,0.627,-0.743,-0.272
1775529021771,0.628,-0.771,-0.283
1775529021791,0.621,-0.725,-0.270
1775529021811,0.601,-0.720,-0.260
1775529021830,0.615,-0.766,-0.277
1775529021850,0.617,-0.740,-0.290
1775529021870,0.610,-0.715,-0.283
1775529021890,0.604,-0.724,-0.263
1775529021909,0.617,-0.735,-0.278
1775529021929,0.636,-0.750,-0.309
1775529021949,0.642,-0.701,-0.301
1775529021968,0.644,-0.696,-0.298
1775529021988,0.638,-0.745,-0.296
1775529022008,0.636,-0.730,-0.294
1775529022027,0.630,-0.715,-0.305
1775529022047,0.608,-0.713,-0.273
1775529022067,0.604,-0.716,-0.269
1775529022087,0.607,-0.744,-0.298
1775529022106,0.616,-0.715,-0.318
1775529022126,0.620,-0.750,-0.310
1775529022146,0.608,-0.745,-0.279
1775529022165,0.603,-0.735,-0.278
1775529022185,0.599,-0.755,-0.275
1775529022205,0.599,-0.741,-0.264
1775529022224,0.611,-0.742,-0.260
1775529022244,0.611,-0.721,-0.259
1775529022264,0.615,-0.732,-0.258
1775529022284,0.606,-0.712,-0.257
1775529022303,0.603,-0.741,-0.260
1775529022323,0.611,-0.758,-0.279
1775529022343,0.618,-0.736,-0.281
1775529022362,0.616,-0.710,-0.278
1775529022382,0.612,-0.730,-0.272
1775529022402,0.609,-0.723,-0.292
1775529022421,0.620,-0.772,-0.296
1775529022441,0.618,-0.771,-0.290
1775529022461,0.632,-0.717,-0.296
1775529022480,0.629,-0.726,-0.279
1775529022500,0.620,-0.721,-0.279
1775529022520,0.619,-0.733,-0.268
1775529022540,0.609,-0.722,-0.252
1775529022559,0.599,-0.727,-0.249
1775529022579,0.605,-0.716,-0.266
1775529022599,0.618,-0.747,-0.285
1775529022618,0.624,-0.747,-0.283
1775529022638,0.615,-0.734,-0.290
1775529022658,0.619,-0.734,-0.280
1775529022677,0.615,-0.739,-0.272
1775529022697,0.599,-0.735,-0.267
1775529022717,0.591,-0.755,-0.270
1775529022737,0.596,-0.754,-0.287
1775529022756,0.610,-0.742,-0.300
1775529022776,0.620,-0.742,-0.298
1775529022796,0.624,-0.707,-0.298
1775529022815,0.629,-0.699,-0.292
1775529022835,0.631,-0.744,-0.281
1775529022855,0.633,-0.699,-0.286
1775529022874,0.617,-0.708,-0.282
1775529022894,0.615,-0.763,-0.278
1775529022914,0.614,-0.731,-0.295
1775529022933,0.618,-0.728,-0.313
1775529022953,0.614,-0.744,-0.295
1775529022973,0.612,-0.727,-0.285
1775529022993,0.612,-0.740,-0.284
1775529023012,0.608,-0.719,-0.280
1775529023032,0.610,-0.722,-0.280
1775529023052,0.599,-0.741,-0.259
1775529023071,0.593,-0.740,-0.251
1775529023091,0.593,-0.729,-0.242
1775529023111,0.599,-0.748,-0.268
1775529023130,0.611,-0.750,-0.280
1775529023150,0.621,-0.762,-0.293
1775529023170,0.630,-0.727,-0.301
1775529023189,0.640,-0.714,-0.310
1775529023209,0.642,-0.733,-0.314
1775529023229,0.644,-0.733,-0.306
1775529023249,0.637,-0.710,-0.287
1775529023268,0.630,-0.705,-0.285
1775529023288,0.630,-0.732,-0.299
1775529023308,0.633,-0.738,-0.313
1775529023327,0.631,-0.720,-0.323
1775529023347,0.627,-0.733,-0.340
1775529023367,0.616,-0.732,-0.331
1775529023386,0.611,-0.750,-0.318
1775529023406,0.611,-0.731,-0.298
1775529023426,0.618,-0.745,-0.296
1775529023445,0.621,-0.707,-0.295
1775529023465,0.605,-0.716,-0.292
1775529023485,0.588,-0.743,-0.295
1775529023505,0.583,-0.762,-0.314
1775529023524,0.601,-0.774,-0.314
1775529023544,0.604,-0.689,-0.310
1775529023564,0.576,-0.738,-0.301
1775529023583,0.543,-0.735,-0.318
1775529023603,0.546,-0.787,-0.353
1775529023623,0.553,-0.831,-0.364
1775529023642,0.566,-0.730,-0.354
1775529023662,0.590,-0.767,-0.346
1775529023682,0.593,-0.712,-0.301
1775529023702,0.565,-0.660,-0.267
1775529023721,0.548,-0.740,-0.268
1775529023741,0.557,-0.845,-0.279
1775529023761,0.565,-0.776,-0.252
1775529023780,0.555,-0.693,-0.224
1775529023800,0.534,-0.803,-0.208
1775529023820,0.561,-0.863,-0.236
1775529023839,0.574,-0.802,-0.223
1775529023859,0.562,-0.753,-0.210
1775529023879,0.583,-0.773,-0.232
1775529023898,0.642,-0.822,-0.276
1775529023918,0.615,-0.754,-0.276
1775529023938,0.549,-0.699,-0.287
1775529023958,0.485,-0.743,-0.246
1775529023977,0.463,-0.868,-0.274
1775529023997,0.462,-0.906,-0.304
1775529024017,0.455,-0.768,-0.355
1775529024036,0.429,-0.764,-0.383
1775529024056,0.411,-0.881,-0.385
1775529024076,0.406,-0.870,-0.373
1775529024095,0.395,-0.838,-0.388
1775529024115,0.379,-0.809,-0.365
1775529024135,0.374,-0.860,-0.344
1775529024155,0.372,-0.868,-0.350
1775529024174,0.358,-0.776,-0.365
1775529024194,0.315,-0.772,-0.363
1775529024214,0.301,-0.853,-0.345
1775529024233,0.278,-0.812,-0.313
1775529024253,0.267,-0.785,-0.313
1775529024273,0.250,-0.785,-0.298
1775529024292,0.239,-0.868,-0.345
1775529024312,0.225,-0.898,-0.461
1775529024332,0.207,-0.903,-0.588
1775529024352,0.205,-0.876,-0.548
1775529024371,0.193,-0.900,-0.519
1775529024391,0.183,-0.875,-0.523
1775529024411,0.192,-0.805,-0.548
1775529024430,0.171,-0.815,-0.520
1775529024450,0.145,-0.831,-0.491
1775529024470,0.144,-0.867,-0.515
1775529024489,0.141,-0.843,-0.540
1775529024509,0.126,-0.828,-0.540
1775529024529,0.093,-0.846,-0.513
1775529024548,0.078,-0.819,-0.518
1775529024568,0.063,-0.831,-0.524
1775529024588,0.043,-0.848,-0.547
1775529024608,0.049,-0.819,-0.604
1775529024627,0.042,-0.860,-0.589
1775529024647,0.029,-0.863,-0.576
1775529024667,0.021,-0.845,-0.567
1775529024686,0.024,-0.816,-0.567
1775529024706,0.035,-0.822,-0.594
1775529024726,0.038,-0.837,-0.576
1775529024745,0.029,-0.842,-0.557
1775529024765,0.032,-0.853,-0.570
1775529024785,0.046,-0.832,-0.577
1775529024805,0.062,-0.824,-0.566
1775529024824,0.067,-0.818,-0.563
1775529024844,0.062,-0.795,-0.557
1775529024864,0.063,-0.827,-0.557
1775529024883,0.070,-0.807,-0.569
1775529024903,0.066,-0.808,-0.563
1775529024923,0.059,-0.826,-0.550
1775529024942,0.058,-0.840,-0.548
1775529024962,0.062,-0.829,-0.554
1775529024982,0.063,-0.826,-0.560
1775529025001,0.059,-0.818,-0.553
1775529025021,0.057,-0.826,-0.547
1775529025041,0.054,-0.821,-0.557
1775529025061,0.054,-0.817,-0.555
1775529025080,0.053,-0.826,-0.551
1775529025100,0.044,-0.834,-0.552
1775529025120,0.048,-0.836,-0.569
1775529025139,0.045,-0.824,-0.569
1775529025159,0.047,-0.830,-0.563
1775529025179,0.040,-0.831,-0.560
1775529025199,0.039,-0.838,-0.566
1775529025218,0.045,-0.807,-0.569
1775529025238,0.046,-0.835,-0.560
1775529025258,0.041,-0.805,-0.558
1775529025277,0.041,-0.818,-0.558
1775529025297,0.039,-0.827,-0.561
1775529025317,0.042,-0.817,-0.577
1775529025336,0.044,-0.807,-0.577
1775529025356,0.041,-0.809,-0.570
1775529025376,0.042,-0.815,-0.576
1775529025396,0.042,-0.824,-0.585
1775529025415,0.049,-0.828,-0.581
1775529025435,0.048,-0.805,-0.579
1775529025455,0.046,-0.800,-0.579
1775529025474,0.045,-0.808,-0.573
1775529025494,0.040,-0.799,-0.572
1775529025514,0.038,-0.784,-0.569
1775529025533,0.032,-0.797,-0.557
1775529025553,0.030,-0.810,-0.556
1775529025573,0.020,-0.821,-0.557
1775529025593,0.014,-0.817,-0.559
1775529025612,0.004,-0.803,-0.556
1775529025632,-0.001,-0.820,-0.559
1775529025652,-0.007,-0.811,-0.574
1775529025671,-0.008,-0.799,-0.576
1775529025691,-0.015,-0.802,-0.567
1775529025711,-0.028,-0.812,-0.563
1775529025730,-0.041,-0.822,-0.575
1775529025750,-0.048,-0.822,-0.582
1775529025770,-0.056,-0.817,-0.584
1775529025790,-0.060,-0.821,-0.589
1775529025809,-0.060,-0.824,-0.589
1775529025829,-0.059,-0.816,-0.589
1775529025849,-0.061,-0.816,-0.580
1775529025868,-0.062,-0.807,-0.579
1775529025888,-0.064,-0.800,-0.582
1775529025908,-0.067,-0.804,-0.583
1775529025927,-0.069,-0.804,-0.582
1775529025947,-0.067,-0.810,-0.589
1775529025967,-0.080,-0.822,-0.600
1775529025987,-0.086,-0.782,-0.609
1775529026006,-0.087,-0.799,-0.605
1775529026026,-0.099,-0.796,-0.614
1775529026046,-0.115,-0.783,-0.614
1775529026065,-0.129,-0.776,-0.601
1775529026085,-0.139,-0.773,-0.604
1775529026105,-0.140,-0.777,-0.605
1775529026124,-0.148,-0.778,-0.609
1775529026144,-0.149,-0.774,-0.616
1775529026164,-0.147,-0.789,-0.619
1775529026183,-0.146,-0.788,-0.607
1775529026203,-0.144,-0.768,-0.617
1775529026223,-0.146,-0.753,-0.621
1775529026243,-0.148,-0.781,-0.627
1775529026262,-0.148,-0.788,-0.627
1775529026282,-0.146,-0.783,-0.632
1775529026302,-0.146,-0.772,-0.626
1775529026321,-0.145,-0.768,-0.621
1775529026341,-0.143,-0.785,-0.618
1775529026361,-0.140,-0.790,-0.615
1775529026380,-0.134,-0.778,-0.616
1775529026400,-0.133,-0.769,-0.606
1775529026420,-0.136,-0.784,-0.606
1775529026440,-0.132,-0.782,-0.609
1775529026459,-0.127,-0.781,-0.619
1775529026479,-0.124,-0.779,-0.612
1775529026499,-0.121,-0.776,-0.608
1775529026518,-0.121,-0.785,-0.610
1775529026538,-0.121,-0.769,-0.607
1775529026558,-0.123,-0.819,-0.612
1775529026577,-0.118,-0.758,-0.620
1775529026597,-0.112,-0.789,-0.625
1775529026617,-0.114,-0.784,-0.614
1775529026637,-0.115,-0.784,-0.607
1775529026656,-0.118,-0.780,-0.608
1775529026676,-0.116,-0.779,-0.604
1775529026696,-0.119,-0.786,-0.601
1775529026715,-0.122,-0.787,-0.594
1775529026735,-0.120,-0.795,-0.601
1775529026755,-0.122,-0.792,-0.597
1775529026774,-0.116,-0.780,-0.603
1775529026794,-0.115,-0.779,-0.604
1775529026814,-0.118,-0.779,-0.604
1775529026834,-0.124,-0.792,-0.595
1775529026853,-0.122,-0.796,-0.598
1775529026873,-0.120,-0.787,-0.603
1775529026893,-0.116,-0.786,-0.602
1775529026912,-0.121,-0.789,-0.594
1775529026932,-0.122,-0.792,-0.586
1775529026952,-0.125,-0.792,-0.581
1775529026971,-0.124,-0.779,-0.582
1775529026991,-0.123,-0.803,-0.583
1775529027011,-0.122,-0.788,-0.584
1775529027031,-0.122,-0.796,-0.595
1775529027050,-0.118,-0.789,-0.598
1775529027070,-0.116,-0.801,-0.601
1775529027090,-0.117,-0.787,-0.599
1775529027109,-0.117,-0.795,-0.594
1775529027129,-0.111,-0.790,-0.596
1775529027149,-0.110,-0.805,-0.598
1775529027168,-0.111,-0.791,-0.599
1775529027188,-0.111,-0.797,-0.606
1775529027208,-0.111,-0.808,-0.592
1775529027228,-0.109,-0.804,-0.594
1775529027247,-0.113,-0.780,-0.597
1775529027267,-0.107,-0.783,-0.592
1775529027287,-0.107,-0.792,-0.586
1775529027306,-0.105,-0.793,-0.582
1775529027326,-0.106,-0.784,-0.592
1775529027346,-0.104,-0.800,-0.591
1775529027365,-0.106,-0.797,-0.591
1775529027385,-0.103,-0.806,-0.593
1775529027405,-0.103,-0.797,-0.588
1775529027424,-0.106,-0.792,-0.595
1775529027444,-0.109,-0.802,-0.594
1775529027464,-0.107,-0.801,-0.600
1775529027484,-0.108,-0.799,-0.602
1775529027503,-0.103,-0.791,-0.588
1775529027523,-0.103,-0.788,-0.580
1775529027543,-0.105,-0.797,-0.586
1775529027562,-0.102,-0.797,-0.593
1775529027582,-0.103,-0.796,-0.592
1775529027602,-0.104,-0.794,-0.588
1775529027622,-0.102,-0.797,-0.588
1775529027641,-0.101,-0.794,-0.583
1775529027661,-0.104,-0.790,-0.583
1775529027681,-0.105,-0.808,-0.590
1775529027700,-0.110,-0.794,-0.589
1775529027720,-0.109,-0.806,-0.590
1775529027740,-0.110,-0.803,-0.580
1775529027759,-0.107,-0.804,-0.580
1775529027779,-0.105,-0.802,-0.582
1775529027799,-0.108,-0.777,-0.599
1775529027819,-0.108,-0.815,-0.586
1775529027838,-0.106,-0.801,-0.591
1775529027858,-0.110,-0.786,-0.592
1775529027878,-0.116,-0.785,-0.582
1775529027897,-0.115,-0.801,-0.591
1775529027917,-0.115,-0.795,-0.582
1775529027937,-0.115,-0.800,-0.585
1775529027957,-0.112,-0.800,-0.586
1775529027976,-0.113,-0.801,-0.592
1775529027996,-0.108,-0.798,-0.587
1775529028016,-0.112,-0.798,-0.579
1775529028035,-0.109,-0.796,-0.592
1775529028055,-0.113,-0.805,-0.589
1775529028075,-0.110,-0.799,-0.589
1775529028094,-0.109,-0.800,-0.588
1775529028114,-0.110,-0.796,-0.583
1775529028134,-0.110,-0.791,-0.585
1775529028154,-0.109,-0.791,-0.584
1775529028173,-0.111,-0.800,-0.587
1775529028193,-0.113,-0.796,-0.587
1775529028213,-0.114,-0.800,-0.585
1775529028232,-0.114,-0.792,-0.587
1775529028252,-0.110,-0.793,-0.591
1775529028272,-0.111,-0.796,-0.589
1775529028292,-0.110,-0.802,-0.590
1775529028311,-0.110,-0.795,-0.593
1775529028331,-0.113,-0.797,-0.594
1775529028351,-0.113,-0.800,-0.595
1775529028370,-0.110,-0.797,-0.597
1775529028390,-0.110,-0.803,-0.590
1775529028410,-0.104,-0.778,-0.587
1775529028429,-0.104,-0.817,-0.588
1775529028449,-0.105,-0.778,-0.600
1775529028469,-0.110,-0.799,-0.607
1775529028489,-0.112,-0.804,-0.591
1775529028508,-0.109,-0.785,-0.602
1775529028528,-0.111,-0.779,-0.591
1775529028548,-0.114,-0.793,-0.589
1775529028567,-0.117,-0.796,-0.588
1775529028587,-0.115,-0.794,-0.590
1775529028607,-0.112,-0.792,-0.595
1775529028626,-0.113,-0.799,-0.596
1775529028646,-0.106,-0.791,-0.595
1775529028666,-0.110,-0.795,-0.594
1775529028686,-0.109,-0.784,-0.598
1775529028705,-0.113,-0.792,-0.600
1775529028725,-0.114,-0.802,-0.600
1775529028745,-0.116,-0.800,-0.596
1775529028764,-0.117,-0.788,-0.594
1775529028784,-0.114,-0.791,-0.593
1775529028804,-0.112,-0.788,-0.594
1775529028824,-0.114,-0.785,-0.591
1775529028843,-0.112,-0.789,-0.587
1775529028863,-0.112,-0.786,-0.591
1775529028883,-0.112,-0.789,-0.597
1775529028902,-0.113,-0.793,-0.599
1775529028922,-0.113,-0.792,-0.603
1775529028942,-0.109,-0.785,-0.607
1775529028961,-0.111,-0.799,-0.605
1775529028981,-0.113,-0.787,-0.603
1775529029001,-0.113,-0.785,-0.605
1775529029021,-0.113,-0.788,-0.608
1775529029040,-0.115,-0.797,-0.604
1775529029060,-0.108,-0.775,-0.595
1775529029080,-0.111,-0.807,-0.596
1775529029099,-0.112,-0.792,-0.603
1775529029119,-0.108,-0.787,-0.614
1775529029139,-0.108,-0.788,-0.601
1775529029158,-0.105,-0.778,-0.591
1775529029178,-0.107,-0.779,-0.599
1775529029198,-0.109,-0.781,-0.598
1775529029218,-0.109,-0.797,-0.605
1775529029237,-0.111,-0.785,-0.597
1775529029257,-0.111,-0.796,-0.602
1775529029277,-0.111,-0.784,-0.599
1775529029296,-0.109,-0.793,-0.598
1775529029316,-0.108,-0.793,-0.601
1775529029336,-0.105,-0.789,-0.611
1775529029356,-0.108,-0.785,-0.608
1775529029375,-0.105,-0.795,-0.601
1775529029395,-0.104,-0.793,-0.602
1775529029415,-0.107,-0.794,-0.604
1775529029434,-0.104,-0.785,-0.598
1775529029454,-0.103,-0.785,-0.595
1775529029474,-0.107,-0.784,-0.595
1775529029493,-0.106,-0.791,-0.598
1775529029513,-0.108,-0.789,-0.591
1775529029533,-0.108,-0.795,-0.594
1775529029553,-0.106,-0.792,-0.598
1775529029572,-0.108,-0.794,-0.600
1775529029592,-0.109,-0.788,-0.599
1775529029612,-0.109,-0.793,-0.599
1775529029631,-0.107,-0.793,-0.596
1775529029651,-0.108,-0.793,-0.603
1775529029671,-0.117,-0.804,-0.591
1775529029690,-0.108,-0.786,-0.588
1775529029710,-0.112,-0.812,-0.589
1775529029730,-0.106,-0.767,-0.594
1775529029750,-0.106,-0.802,-0.600
1775529029769,-0.111,-0.805,-0.590
1775529029789,-0.106,-0.784,-0.604
1775529029809,-0.105,-0.777,-0.597
1775529029828,-0.107,-0.791,-0.592
1775529029848,-0.108,-0.795,-0.589
1775529029868,-0.110,-0.796,-0.593
1775529029887,-0.109,-0.791,-0.595
1775529029907,-0.108,-0.795,-0.590
1775529029927,-0.109,-0.798,-0.587
1775529029947,-0.106,-0.799,-0.591
1775529029966,-0.107,-0.786,-0.596
1775529029986,-0.106,-0.801,-0.597
1775529030006,-0.108,-0.797,-0.589
1775529030025,-0.103,-0.795,-0.599
1775529030045,-0.106,-0.794,-0.592
1775529030065,-0.108,-0.794,-0.591
1775529030084,-0.108,-0.793,-0.588
1775529030104,-0.103,-0.796,-0.592
1775529030124,-0.103,-0.788,-0.595
1775529030144,-0.106,-0.795,-0.596
1775529030163,-0.107,-0.795,-0.600
1775529030183,-0.105,-0.789,-0.600
1775529030203,-0.103,-0.796,-0.600
1775529030222,-0.104,-0.791,-0.595
1775529030242,-0.101,-0.793,-0.598
1775529030262,-0.101,-0.793,-0.597
1775529030282,-0.103,-0.788,-0.595
1775529030301,-0.102,-0.791,-0.596
1775529030321,-0.103,-0.796,-0.596
1775529030341,-0.104,-0.800,-0.594
1775529030360,-0.096,-0.786,-0.589
1775529030380,-0.097,-0.809,-0.584
1775529030400,-0.096,-0.775,-0.595
1775529030419,-0.100,-0.793,-0.604
1775529030439,-0.101,-0.808,-0.599
1775529030459,-0.098,-0.795,-0.604
1775529030479,-0.101,-0.775,-0.597
1775529030498,-0.099,-0.789,-0.595
1775529030518,-0.098,-0.794,-0.599
1775529030538,-0.095,-0.790,-0.599
1775529030557,-0.101,-0.789,-0.596
1775529030577,-0.099,-0.787,-0.597
1775529030597,-0.101,-0.794,-0.594
1775529030616,-0.104,-0.801,-0.590
1775529030636,-0.105,-0.790,-0.592
1775529030656,-0.106,-0.796,-0.602
1775529030676,-0.107,-0.804,-0.601
1775529030695,-0.105,-0.800,-0.598
1775529030715,-0.099,-0.790,-0.595
1775529030735,-0.099,-0.783,-0.592
1775529030754,-0.100,-0.786,-0.591
1775529030774,-0.098,-0.789,-0.590
1775529030794,-0.100,-0.790,-0.605
1775529030814,-0.097,-0.792,-0.603
1775529030833,-0.101,-0.796,-0.596
1775529030853,-0.103,-0.792,-0.601
1775529030873,-0.106,-0.786,-0.603
1775529030892,-0.107,-0.790,-0.606
1775529030912,-0.109,-0.800,-0.595
1775529030932,-0.106,-0.788,-0.597
1775529030951,-0.105,-0.791,-0.606
1775529030971,-0.108,-0.794,-0.602
1775529030991,-0.108,-0.794,-0.599
1775529031011,-0.108,-0.793,-0.597
1775529031030,-0.106,-0.796,-0.593
1775529031050,-0.100,-0.773,-0.590
1775529031070,-0.101,-0.814,-0.593
1775529031089,-0.104,-0.776,-0.604
1775529031109,-0.099,-0.794,-0.612
1775529031129,-0.101,-0.806,-0.601
1775529031148,-0.102,-0.785,-0.607
1775529031168,-0.099,-0.776,-0.600
1775529031188,-0.103,-0.782,-0.592
1775529031208,-0.102,-0.799,-0.595
1775529031227,-0.096,-0.791,-0.590
1775529031247,-0.095,-0.793,-0.592
1775529031267,-0.098,-0.791,-0.600
1775529031286,-0.091,-0.785,-0.608
1775529031306,-0.095,-0.792,-0.603
1775529031326,-0.096,-0.786,-0.601
1775529031345,-0.096,-0.782,-0.607
1775529031365,-0.097,-0.799,-0.602
1775529031385,-0.100,-0.793,-0.597
1775529031405,-0.097,-0.785,-0.598
1775529031424,-0.098,-0.784,-0.599
1775529031444,-0.097,-0.786,-0.603
1775529031464,-0.095,-0.785,-0.600
1775529031483,-0.100,-0.787,-0.604
1775529031503,-0.100,-0.781,-0.602
1775529031523,-0.099,-0.782,-0.597
1775529031542,-0.103,-0.790,-0.601
1775529031562,-0.103,-0.791,-0.610
1775529031582,-0.100,-0.777,-0.610
1775529031602,-0.102,-0.784,-0.608
1775529031621,-0.104,-0.788,-0.613
1775529031641,-0.106,-0.785,-0.615
1775529031661,-0.101,-0.781,-0.614
1775529031680,-0.091,-0.773,-0.614
1775529031700,-0.118,-0.815,-0.620
1775529031720,-0.105,-0.775,-0.619
1775529031740,-0.109,-0.795,-0.618
1775529031759,-0.102,-0.778,-0.609
1775529031779,-0.103,-0.767,-0.614
1775529031799,-0.099,-0.770,-0.611
1775529031818,-0.101,-0.774,-0.611
1775529031838,-0.100,-0.778,-0.615
1775529031858,-0.101,-0.783,-0.619
1775529031877,-0.104,-0.788,-0.620
1775529031897,-0.098,-0.783,-0.618
1775529031917,-0.099,-0.793,-0.615
1775529031936,-0.101,-0.776,-0.616
1775529031956,-0.106,-0.784,-0.610
1775529031976,-0.100,-0.783,-0.600
1775529031996,-0.105,-0.787,-0.605
1775529032015,-0.105,-0.783,-0.605
1775529032035,-0.103,-0.786,-0.603
1775529032055,-0.100,-0.780,-0.599
1775529032074,-0.099,-0.784,-0.603
1775529032094,-0.100,-0.782,-0.607
1775529032114,-0.101,-0.784,-0.604
1775529032133,-0.101,-0.785,-0.602
1775529032153,-0.102,-0.784,-0.608
1775529032173,-0.102,-0.786,-0.609
1775529032193,-0.102,-0.783,-0.612
1775529032212,-0.102,-0.794,-0.615
1775529032232,-0.103,-0.785,-0.611
1775529032252,-0.102,-0.793,-0.607
1775529032271,-0.097,-0.781,-0.598
1775529032291,-0.100,-0.813,-0.603
1775529032311,-0.097,-0.765,-0.612
1775529032330,-0.096,-0.794,-0.611
1775529032350,-0.095,-0.794,-0.601
1775529032370,-0.094,-0.781,-0.609
1775529032390,-0.095,-0.773,-0.601
1775529032409,-0.094,-0.789,-0.598
1775529032429,-0.095,-0.788,-0.600
1775529032449,-0.095,-0.786,-0.600
1775529032468,-0.095,-0.791,-0.599
1775529032488,-0.098,-0.792,-0.598
1775529032508,-0.097,-0.792,-0.598
1775529032527,-0.098,-0.798,-0.598
1775529032547,-0.096,-0.781,-0.601
1775529032567,-0.095,-0.794,-0.603
1775529032587,-0.102,-0.807,-0.606
1775529032606,-0.099,-0.792,-0.617
1775529032626,-0.101,-0.792,-0.612
1775529032646,-0.098,-0.793,-0.598
1775529032665,-0.096,-0.779,-0.587
1775529032685,-0.097,-0.785,-0.584
1775529032705,-0.096,-0.784,-0.592
1775529032724,-0.095,-0.787,-0.593
1775529032744,-0.092,-0.791,-0.595
1775529032764,-0.094,-0.794,-0.603
1775529032783,-0.093,-0.793,-0.611
1775529032803,-0.094,-0.791,-0.612
1775529032823,-0.095,-0.791,-0.609
1775529032843,-0.094,-0.788,-0.607
1775529032862,-0.097,-0.801,-0.599
1775529032882,-0.087,-0.780,-0.595
1775529032902,-0.087,-0.807,-0.588
1775529032921,-0.087,-0.773,-0.599
1775529032941,-0.087,-0.789,-0.611
1775529032961,-0.088,-0.799,-0.603
1775529032980,-0.084,-0.792,-0.609
1775529033000,-0.085,-0.776,-0.607
1775529033020,-0.087,-0.785,-0.599
1775529033040,-0.088,-0.789,-0.597
1775529033059,-0.089,-0.789,-0.592
1775529033079,-0.091,-0.789,-0.594
1775529033099,-0.092,-0.791,-0.600
1775529033118,-0.088,-0.791,-0.601
1775529033138,-0.090,-0.793,-0.600
1775529033158,-0.090,-0.787,-0.599
1775529033177,-0.092,-0.786,-0.606
1775529033197,-0.093,-0.801,-0.602
1775529033217,-0.088,-0.794,-0.603
1775529033237,-0.085,-0.796,-0.608
1775529033256,-0.088,-0.779,-0.602
1775529033276,-0.086,-0.785,-0.596
1775529033296,-0.091,-0.786,-0.594
1775529033315,-0.089,-0.791,-0.605
1775529033335,-0.090,-0.792,-0.606
1775529033355,-0.091,-0.793,-0.607
1775529033374,-0.091,-0.787,-0.604
1775529033394,-0.087,-0.789,-0.600
1775529033414,-0.086,-0.793,-0.600
1775529033434,-0.084,-0.791,-0.603
1775529033453,-0.080,-0.791,-0.604
1775529033473,-0.080,-0.792,-0.604
1775529033493,-0.081,-0.786,-0.600
1775529033512,-0.080,-0.785,-0.598
1775529033532,-0.080,-0.790,-0.602
1775529033552,-0.084,-0.790,-0.601
1775529033571,-0.086,-0.785,-0.604
1775529033591,-0.082,-0.784,-0.597
1775529033611,-0.092,-0.801,-0.598
1775529033630,-0.088,-0.779,-0.599
1775529033650,-0.085,-0.808,-0.605
1775529033670,-0.088,-0.782,-0.608
1775529033690,-0.086,-0.789,-0.631
1775529033709,-0.093,-0.799,-0.627
1775529033729,-0.092,-0.780,-0.621
1775529033749,-0.098,-0.776,-0.620
1775529033768,-0.101,-0.776,-0.608
1775529033788,-0.112,-0.782,-0.603
1775529033808,-0.112,-0.774,-0.605
1775529033827,-0.109,-0.768,-0.621
1775529033847,-0.116,-0.784,-0.634
1775529033867,-0.117,-0.786,-0.650
1775529033887,-0.128,-0.788,-0.639
1775529033906,-0.132,-0.787,-0.637
1775529033926,-0.137,-0.792,-0.651
1775529033946,-0.134,-0.788,-0.652
1775529033965,-0.134,-0.797,-0.637
1775529033985,-0.133,-0.784,-0.628
1775529034005,-0.126,-0.772,-0.622
1775529034024,-0.123,-0.781,-0.603
1775529034044,-0.114,-0.781,-0.606
1775529034064,-0.099,-0.784,-0.610
1775529034084,-0.084,-0.776,-0.615
1775529034103,-0.059,-0.786,-0.639
1775529034123,-0.049,-0.799,-0.622
1775529034143,-0.036,-0.846,-0.606
1775529034162,-0.013,-0.823,-0.602
1775529034182,0.009,-0.813,-0.600
1775529034202,0.024,-0.799,-0.578
1775529034221,0.025,-0.805,-0.568
1775529034241,0.033,-0.811,-0.573
1775529034261,0.041,-0.805,-0.544
1775529034281,0.043,-0.842,-0.539
1775529034300,0.036,-0.810,-0.524
1775529034320,0.032,-0.848,-0.479
1775529034340,0.040,-0.837,-0.464
1775529034359,0.065,-0.805,-0.508
1775529034379,0.077,-0.839,-0.507
1775529034399,0.097,-0.847,-0.511
1775529034418,0.134,-0.806,-0.556
1775529034438,0.187,-0.803,-0.618
1775529034458,0.209,-0.808,-0.615
1775529034478,0.223,-0.827,-0.568
1775529034497,0.239,-0.860,-0.571
1775529034517,0.247,-0.885,-0.520
1775529034537,0.247,-0.884,-0.409
1775529034556,0.258,-0.884,-0.475
1775529034576,0.257,-0.876,-0.505
1775529034596,0.256,-0.863,-0.450
1775529034615,0.237,-0.897,-0.402
1775529034635,0.214,-0.881,-0.371
1775529034655,0.228,-0.911,-0.279
1775529034674,0.231,-0.924,-0.287
1775529034694,0.212,-0.876,-0.299
1775529034714,0.207,-0.921,-0.260
1775529034734,0.202,-0.983,-0.225
1775529034753,0.184,-0.971,-0.206
1775529034773,0.199,-0.878,-0.211
1775529034793,0.229,-0.901,-0.212
1775529034812,0.240,-0.950,-0.252
1775529034832,0.256,-0.871,-0.268
1775529034852,0.281,-0.891,-0.275
1775529034871,0.276,-0.884,-0.276
1775529034891,0.261,-0.920,-0.269
1775529034911,0.270,-0.944,-0.275
1775529034931,0.272,-0.956,-0.251
1775529034950,0.272,-0.918,-0.222
1775529034970,0.272,-0.885,-0.213
1775529034990,0.269,-0.897,-0.225
1775529035009,0.266,-0.912,-0.230
1775529035029,0.269,-0.938,-0.233
1775529035049,0.269,-0.901,-0.214
1775529035068,0.270,-0.907,-0.207
1775529035088,0.272,-0.930,-0.212
1775529035108,0.285,-0.937,-0.211
1775529035127,0.294,-0.925,-0.242
1775529035147,0.306,-0.941,-0.262
1775529035167,0.313,-0.926,-0.265
1775529035187,0.316,-0.927,-0.279
1775529035206,0.321,-0.937,-0.283
1775529035226,0.308,-0.912,-0.270
1775529035246,0.294,-0.891,-0.269
1775529035265,0.283,-0.930,-0.271
1775529035285,0.277,-0.931,-0.277
1775529035305,0.280,-0.915,-0.284
1775529035324,0.282,-0.920,-0.289
1775529035344,0.298,-0.902,-0.298
1775529035364,0.305,-0.911,-0.304
1775529035384,0.301,-0.899,-0.296
1775529035403,0.289,-0.900,-0.295
1775529035423,0.287,-0.883,-0.284
1775529035443,0.277,-0.920,-0.275
1775529035462,0.273,-0.938,-0.285
1775529035482,0.277,-0.921,-0.284
1775529035502,0.287,-0.929,-0.297
1775529035521,0.292,-0.928,-0.306
1775529035541,0.293,-0.922,-0.292
1775529035561,0.300,-0.906,-0.285
1775529035581,0.308,-0.920,-0.281
1775529035600,0.306,-0.896,-0.271
1775529035620,0.301,-0.900,-0.267
1775529035640,0.293,-0.920,-0.270
1775529035659,0.286,-0.911,-0.261
1775529035679,0.284,-0.911,-0.264
1775529035699,0.291,-0.914,-0.275
1775529035718,0.282,-0.911,-0.270
1775529035738,0.282,-0.908,-0.260
1775529035758,0.282,-0.916,-0.279
1775529035778,0.279,-0.937,-0.288
1775529035797,0.282,-0.922,-0.297
1775529035817,0.286,-0.919,-0.297
1775529035837,0.289,-0.926,-0.299
1775529035856,0.297,-0.924,-0.310
1775529035876,0.293,-0.922,-0.300
1775529035896,0.293,-0.906,-0.297
1775529035915,0.297,-0.893,-0.290
1775529035935,0.298,-0.917,-0.290
1775529035955,0.293,-0.919,-0.288
1775529035975,0.296,-0.902,-0.294
1775529035994,0.295,-0.915,-0.289
1775529036014,0.300,-0.905,-0.297
1775529036034,0.295,-0.901,-0.297
1775529036053,0.296,-0.901,-0.296
1775529036073,0.298,-0.907,-0.299
1775529036093,0.289,-0.927,-0.298
1775529036112,0.293,-0.921,-0.303
1775529036132,0.302,-0.903,-0.310
1775529036152,0.305,-0.912,-0.309
1775529036172,0.307,-0.914,-0.308
1775529036191,0.309,-0.908,-0.301
1775529036211,0.315,-0.882,-0.291
1775529036231,0.315,-0.907,-0.286
1775529036250,0.314,-0.901,-0.297
1775529036270,0.319,-0.915,-0.306
1775529036290,0.315,-0.909,-0.302
1775529036309,0.313,-0.912,-0.315
1775529036329,0.309,-0.896,-0.311
1775529036349,0.298,-0.906,-0.295
1775529036368,0.302,-0.905,-0.299
1775529036388,0.300,-0.903,-0.301
1775529036408,0.296,-0.905,-0.294
1775529036428,0.299,-0.901,-0.307
1775529036447,0.303,-0.909,-0.307
1775529036467,0.303,-0.909,-0.301
1775529036487,0.307,-0.899,-0.306
1775529036506,0.308,-0.898,-0.314
1775529036526,0.315,-0.905,-0.311
1775529036546,0.318,-0.915,-0.308
1775529036565,0.318,-0.901,-0.311
1775529036585,0.322,-0.887,-0.318
1775529036605,0.317,-0.906,-0.311
1775529036625,0.315,-0.898,-0.309
1775529036644,0.315,-0.900,-0.315
1775529036664,0.314,-0.902,-0.313
1775529036684,0.313,-0.903,-0.319
1775529036703,0.312,-0.897,-0.311
1775529036723,0.312,-0.893,-0.310
1775529036743,0.312,-0.895,-0.312
1775529036762,0.310,-0.893,-0.309
1775529036782,0.310,-0.905,-0.308
1775529036802,0.316,-0.899,-0.303
1775529036822,0.318,-0.892,-0.299
1775529036841,0.319,-0.884,-0.297
1775529036861,0.313,-0.910,-0.307
1775529036881,0.311,-0.900,-0.317
1775529036900,0.317,-0.910,-0.313
1775529036920,0.318,-0.900,-0.319
1775529036940,0.318,-0.898,-0.326
1775529036959,0.311,-0.893,-0.325
1775529036979,0.313,-0.903,-0.315
1775529036999,0.315,-0.894,-0.313
1775529037019,0.315,-0.896,-0.303
1775529037038,0.308,-0.888,-0.306
1775529037058,0.311,-0.910,-0.313
1775529037078,0.312,-0.901,-0.306
1775529037097,0.318,-0.899,-0.315
1775529037117,0.317,-0.890,-0.312
1775529037137,0.308,-0.910,-0.307
1775529037156,0.308,-0.908,-0.306
1775529037176,0.312,-0.910,-0.316
1775529037196,0.318,-0.896,-0.316
1775529037216,0.317,-0.898,-0.323
1775529037235,0.319,-0.894,-0.324
1775529037255,0.321,-0.905,-0.325
1775529037275,0.320,-0.895,-0.321
