absolute_timestamp,accel_x,accel_y,accel_z
1144463388.707,0.175086,-0.570212,-0.956106
1144463388.717,0.602746,-0.280556,-1.092665
1144463388.727,0.822462,0.654957,-1.065353
1144463388.738,0.948014,1.653097,-1.026336
1144463388.747,1.120648,2.541638,-1.018533
1144463388.757,1.132418,3.430179,-1.006828
1144463388.767,0.967631,3.997749,-0.854663
1144463388.777,0.638058,2.326353,-0.975615
1144463388.787,0.567435,2.017125,-1.006828
1144463388.797,0.516430,2.279382,-0.956106
1144463388.807,0.473271,2.357667,-0.905384
1144463388.817,0.367337,2.158039,-0.893679
1144463388.827,0.210397,1.711811,-0.811744
1144463388.837,0.041687,1.030727,-0.741514
1144463388.847,-0.170181,0.193072,-0.643972
1144463388.857,-0.374203,-0.734612,-0.601053
1144463388.867,-0.562531,-1.721010,-0.589348
1144463388.878,-0.754782,-2.640865,-0.624464
1144463388.887,-0.907798,-3.384577,-0.698595
1144463388.897,-0.954880,-3.889519,-0.776629
1144463388.907,-0.829328,-4.077405,-0.948303
1144463388.917,-0.554684,-3.881691,-1.061451
1144463388.927,-0.158411,-3.368920,-1.209715
1144463388.937,0.257479,-2.554751,-1.276044
1144463388.947,0.692987,-1.576181,-1.268240
1144463388.957,1.038254,-0.452784,-1.233125
1144463388.967,1.308975,0.701928,-1.174600
1144463388.977,1.422756,1.813582,-1.112173
1144463388.987,1.422756,2.796066,-1.041943
1144463388.997,1.305052,3.508464,-0.960008
1144463389.016,0.893085,3.911635,-0.846859
1144463389.028,0.720451,3.492807,-0.796137
1144463389.037,0.488965,2.799981,-0.679087
1144463389.047,0.167239,1.829240,-0.558135
1144463389.057,-0.111329,0.733242,-0.441085
1144463389.067,-0.358509,-0.409727,-0.327936
1144463389.077,-0.574301,-1.521382,-0.273313
1144463389.087,-0.794017,-2.550837,-0.253804
1144463389.097,-0.962727,-3.357177,-0.327936
1144463389.107,-1.025503,-3.885605,-0.444986
1144463389.117,-0.923492,-4.081319,-0.562037
1144463389.126,-0.637077,-3.924748,-0.749317
1144463389.137,-0.236881,-3.455034,-0.885876
1144463389.147,0.210397,-2.707407,-0.967811
1144463389.157,0.630211,-1.728838,-0.987320
1144463389.166,0.971555,-0.648498,-0.924893
1144463389.177,1.222658,0.537528,-0.870269
1144463389.187,1.367827,1.688326,-0.772727
1144463389.197,1.403139,2.706038,-0.698595
1144463389.207,1.336440,3.500636,-0.659579
1144463389.217,1.191270,3.946864,-0.624464
1144463389.227,0.987249,4.025149,-0.608857
1144463389.237,0.751839,3.751150,-0.569840
1144463389.247,0.500736,3.148351,-0.472298
1144463389.257,0.261403,2.314610,-0.359149
1144463389.267,0.045611,1.375184,-0.285018
1144463389.277,-0.205493,0.294843,-0.203082
1144463389.287,-0.472290,-0.926411,-0.144557
1144463389.297,-0.703776,-2.120266,-0.191377
1144463389.307,-0.868563,-3.051864,-0.277214
1144463389.317,-0.919568,-3.654663,-0.382560
1144463389.327,-0.860716,-3.877776,-0.523020
1144463389.336,-0.629230,-3.748605,-0.682989
1144463389.346,-0.256498,-3.345435,-0.835154
1144463389.356,0.222168,-2.703493,-0.940500
1144463389.366,0.689063,-1.814952,-1.010730
1144463389.376,1.093183,-0.750269,-1.018533
1144463389.386,1.403139,0.365300,-1.053648
1144463389.396,1.618931,1.453469,-1.049746
1144463389.406,1.764100,2.475095,-1.006828
1144463389.416,1.795488,3.379293,-0.967811
1144463389.426,1.728789,4.013406,-0.920991
1144463389.436,1.571849,4.357862,-0.850761
1144463389.446,1.328593,4.295234,-0.780531
1144463389.456,1.089259,3.817692,-0.686890
1144463389.466,0.897008,3.019180,-0.624464
1144463389.476,0.740069,2.044525,-0.530823
1144463389.486,0.524277,0.940699,-0.472298
1144463389.497,0.284944,-0.241413,-0.456691
1144463389.506,0.022070,-1.458753,-0.378658
1144463389.516,-0.170181,-2.452980,-0.277214
1144463389.526,-0.295733,-3.091007,-0.167967
1144463389.536,-0.429132,-3.462863,-0.238197
1144463389.546,-0.346739,-3.619434,-0.429380
1144463389.556,-0.005395,-3.521577,-0.577643
1144463389.566,0.398725,-3.145807,-0.776629
1144463389.576,0.846003,-2.441237,-0.831253
1144463389.586,1.210888,-1.439182,-0.920991
1144463389.596,1.426680,-0.495841,-0.917089
1144463389.606,1.564002,0.486643,-0.772727
1144463389.616,1.689554,1.531754,-0.690792
1144463389.626,1.822953,2.388981,-0.643972
1144463389.636,1.932810,3.156179,-0.413773
1144463389.646,2.101520,3.978178,-0.351346
1144463389.656,1.893575,4.134748,-0.316231
1144463389.666,1.728789,4.029063,-0.238197
1144463389.676,1.383522,3.645464,-0.093835
1144463389.686,1.081412,2.972209,0.163675
1144463389.696,0.791074,2.142382,0.304136
1144463389.705,0.492889,0.952442,0.432891
1144463389.716,0.630211,0.776299,1.189817
1144463389.726,0.720451,-0.096585,2.059891
1144463389.736,1.301128,-0.276641,1.423917
1144463389.746,1.775871,-0.640669,1.431721
1144463389.756,1.685630,-0.836383,-0.249902
1144463389.766,0.936243,-0.476270,3.870270
1144463389.778,1.532614,0.580585,-1.631096
1144463389.786,3.761157,-1.012526,-1.966641
1144463389.796,1.505150,-0.828555,-1.092665
1144463389.806,0.308485,1.140327,-0.745416
1144463389.816,0.359490,1.590469,-0.917089
1144463389.826,2.458558,1.152070,-1.826180
1144463389.836,5.267778,0.486643,-0.862466
1144463389.846,2.372241,-1.979352,-0.901483
1144463389.856,-0.405591,2.404638,-0.117245
1144463389.866,0.257479,0.005186,-0.117245
1144463389.876,1.454144,-0.288384,-0.246001
1144463389.886,0.987249,0.576671,0.073937
1144463389.896,0.865620,0.193072,0.054428
1144463389.906,0.967631,0.110872,-0.027507
1144463389.916,0.975478,0.240043,-0.148459
1144463389.926,0.951937,0.193072,-0.203082
1144463389.936,0.912702,0.095215,-0.206984
1144463389.946,0.959784,0.130443,-0.152361
1144463389.956,0.936243,0.161757,-0.144557
1144463389.966,0.924473,0.134358,-0.148459
1144463389.976,0.995096,0.169586,-0.125049
1144463389.986,0.928396,0.212643,-0.187476
1144463389.996,0.936243,0.146100,-0.132852
1144463390.006,0.991172,0.189157,-0.086032
1144463390.016,0.936243,0.173500,-0.105540
1144463390.026,0.928396,0.279186,-0.132852
1144463390.036,0.928396,0.236129,-0.144557
1144463390.046,0.936243,0.122615,-0.089934
1144463390.056,0.967631,0.071729,-0.093835
1144463390.066,0.971555,0.118700,-0.109442
1144463390.076,0.959784,0.118700,-0.089934
1144463390.086,0.983325,0.177415,-0.047015
1144463390.096,0.963708,0.185243,-0.105540
1144463390.105,0.963708,0.083472,-0.101639
1144463390.116,0.955861,0.165672,-0.082130
1144463390.125,0.936243,0.189157,-0.058720
1144463390.136,0.936243,0.157843,-0.058720
1144463390.146,0.948014,0.153929,-0.089934
1144463390.156,0.967631,0.044329,-0.093835
1144463390.166,0.991172,0.122615,-0.121147
1144463390.176,1.030407,0.185243,-0.043114
1144463390.186,1.026484,0.196986,-0.093835
1144463390.196,1.073565,0.208729,-0.109442
1144463390.206,1.006866,0.142186,-0.078229
1144463390.215,1.053948,0.177415,-0.125049
1144463390.226,1.210888,0.091301,-0.191377
1144463390.236,1.042178,0.095215,0.073937
1144463390.247,1.277587,0.341814,-0.101639
1144463390.256,1.218735,-0.049613,-0.343543
1144463390.266,1.269740,-0.253156,-0.753219
1144463390.276,1.246199,0.157843,-0.534725
1144463390.286,1.320745,0.126529,-0.718104
1144463390.296,1.183423,-0.167042,-0.647874
1144463390.306,1.124571,-0.276641,-0.425478
1144463390.316,1.042178,-0.170956,-0.246001
1144463390.326,0.751839,-0.617184,-0.679087
1144463390.335,0.712604,-0.601527,-1.244830
1144463390.345,0.814615,0.095215,-0.948303
1144463390.355,0.536047,0.310500,-1.119977
1144463390.365,0.846003,0.549271,-2.130511
1144463390.375,0.963708,0.541442,-2.181233
1144463390.385,0.571359,0.897642,-1.209715
1144463390.395,0.284944,0.584499,-0.897581
1144463390.405,0.296714,0.330071,-0.565938
1144463390.415,0.457577,0.212643,-0.480101
1144463390.425,0.606670,0.118700,-0.487905
1144463390.435,0.665522,0.173500,-0.429380
1144463390.445,0.732222,0.122615,-0.339641
1144463390.455,0.857773,0.095215,-0.175771
1144463390.465,0.897008,0.142186,0.042723
1144463390.475,0.963708,0.138272,0.198790
1144463390.485,1.010790,0.040415,0.335349
1144463390.495,1.073565,-0.049613,0.354858
1144463390.505,1.159882,-0.006556,0.382169
1144463390.515,1.148112,-0.006556,0.452400
1144463390.525,1.155959,0.013015,0.464105
1144463390.535,1.230505,0.048243,0.499220
1144463390.545,1.277587,0.024758,0.510925
1144463390.555,1.301128,0.083472,0.514826
1144463390.565,1.250123,0.130443,0.546040
1144463390.575,1.148112,0.044329,0.639680
1144463390.585,1.073565,0.040415,0.682598
1144463390.595,0.991172,0.048243,0.721615
1144463390.605,0.865620,-0.120070,0.862076
1144463390.615,0.983325,-0.084842,-0.074327
1144463390.625,1.250123,0.521871,-0.854663
1144463390.635,1.328593,0.333986,-0.807842
1144463390.645,0.940167,0.020844,-0.464495
1144463390.655,0.724375,-0.057442,-0.351346
1144463390.665,0.787151,0.024758,-0.491807
1144463390.675,0.692987,-0.190527,-0.803941
1144463390.685,0.822462,-0.636755,-1.155092
1144463390.695,1.203041,-0.671983,-1.006828
1144463390.705,1.422756,-0.452784,-0.706399
1144463390.716,1.450221,-0.370584,-0.425478
1144463390.725,1.312899,-0.178785,-0.277214
1144463390.735,0.979402,-0.249242,-0.378658
1144463390.745,0.834232,-0.386241,-0.324034
1144463390.755,0.822462,-0.139642,-0.335739
1144463390.765,0.771457,-0.010471,-0.370854
1144463390.775,0.791074,-0.100499,-0.335739
1144463390.785,0.838156,-0.088756,-0.417675
1144463390.795,0.900932,-0.033956,-0.386461
1144463390.805,0.995096,-0.155299,-0.382560
1144463390.815,1.042178,-0.096585,-0.421576
1144463390.825,0.959784,-0.280556,-0.324034
1144463390.835,0.951937,-0.182699,-0.312329
1144463390.845,0.838156,-0.127899,-0.351346
1144463390.855,0.810692,-0.167042,-0.374756
1144463390.865,0.822462,-0.123985,-0.429380
1144463390.876,0.857773,-0.088756,-0.394265
1144463390.885,0.908779,-0.147470,-0.402068
1144463390.895,0.912702,-0.096585,-0.351346
1144463390.905,0.881314,-0.139642,-0.324034
1144463390.915,0.916626,-0.116156,-0.312329
1144463390.925,0.897008,-0.010471,-0.394265
1144463390.935,0.873467,-0.092670,-0.409871
1144463390.945,0.924473,-0.088756,-0.331838
1144463390.955,0.951937,-0.073099,-0.347444
1144463390.965,0.889161,-0.139642,-0.327936
1144463390.975,0.900932,-0.167042,-0.296723
1144463390.985,0.900932,-0.100499,-0.281116
1144463390.996,0.948014,-0.127899,-0.230394
1144463391.004,0.928396,-0.057442,-0.292821
1144463391.015,0.865620,-0.057442,-0.285018
1144463391.025,0.900932,-0.092670,-0.277214
1144463391.035,0.912702,-0.147470,-0.261607
1144463391.045,0.908779,-0.120070,-0.277214
1144463391.055,0.979402,-0.116156,-0.257706
1144463391.065,0.979402,-0.104413,-0.249902
1144463391.075,0.944090,-0.006556,-0.281116
1144463391.085,0.944090,0.020844,-0.300624
1144463391.095,0.912702,0.071729,-0.281116
1144463391.105,0.920549,0.016929,-0.335739
1144463391.115,0.885238,0.001272,-0.355248
1144463391.125,0.897008,-0.123985,-0.320133
1144463391.135,0.955861,-0.139642,-0.285018
1144463391.145,0.959784,-0.088756,-0.214787
1144463391.155,0.967631,-0.065271,-0.218689
1144463391.165,0.955861,-0.026128,-0.222591
1144463391.175,0.912702,-0.061356,-0.273313
1144463391.185,0.904855,-0.073099,-0.386461
1144463391.195,0.908779,-0.061356,-0.331838
1144463391.205,0.912702,-0.065271,-0.296723
1144463391.215,0.944090,-0.073099,-0.277214
1144463391.224,0.900932,-0.049613,-0.300624
1144463391.235,0.932320,-0.049613,-0.304526
1144463391.245,0.932320,-0.049613,-0.265509
1144463391.255,0.916626,-0.096585,-0.257706
1144463391.265,0.936243,-0.041785,-0.261607
1144463391.275,0.912702,-0.045699,-0.324034
1144463391.285,0.932320,-0.018299,-0.285018
1144463391.295,0.932320,-0.030042,-0.238197
1144463391.305,0.944090,-0.092670,-0.246001
1144463391.315,0.948014,-0.096585,-0.175771
1144463391.325,0.940167,-0.084842,-0.249902
1144463391.334,0.936243,-0.057442,-0.242099
1144463391.345,0.955861,-0.033956,-0.230394
1144463391.355,0.936243,-0.077013,-0.265509
1144463391.365,0.928396,-0.018299,-0.242099
1144463391.375,0.932320,-0.057442,-0.273313
1144463391.384,0.936243,-0.120070,-0.222591
1144463391.395,0.940167,-0.061356,-0.179672
1144463391.405,0.955861,-0.077013,-0.160164
1144463391.415,0.940167,-0.123985,-0.175771
1144463391.425,0.936243,-0.139642,-0.218689
1144463391.435,0.940167,-0.084842,-0.234296
1144463391.445,0.940167,-0.033956,-0.206984
1144463391.454,0.948014,-0.022214,-0.195279
1144463391.466,0.940167,-0.030042,-0.203082
1144463391.475,0.948014,-0.057442,-0.183574
1144463391.485,0.924473,-0.092670,-0.222591
1144463391.494,0.948014,-0.018299,-0.214787
1144463391.504,0.963708,-0.022214,-0.222591
1144463391.515,0.955861,0.001272,-0.175771
1144463391.524,0.967631,-0.065271,-0.187476
1144463391.535,0.932320,-0.120070,-0.171869
1144463391.544,0.971555,-0.108328,-0.136754
1144463391.554,0.959784,-0.123985,-0.117245
1144463391.564,0.967631,-0.104413,-0.140655
1144463391.574,0.944090,-0.084842,-0.160164
1144463391.584,0.932320,-0.096585,-0.269411
1144463391.594,0.936243,-0.069185,-0.226492
1144463391.604,0.963708,-0.014385,-0.203082
1144463391.614,0.955861,0.095215,-0.203082
1144463391.624,0.924473,-0.053528,-0.136754
1144463391.634,0.951937,-0.010471,-0.296723
1144463391.644,0.940167,0.075643,-0.246001
1144463391.654,0.897008,-0.065271,-0.285018
1144463391.664,0.987249,0.013015,-0.230394
1144463391.674,0.967631,0.083472,-0.206984
1144463391.684,0.971555,0.005186,-0.128950
1144463391.694,1.006866,0.016929,-0.058720
1144463391.704,0.928396,-0.127899,-0.070425
1144463391.714,0.963708,0.020844,-0.277214
1144463391.724,0.920549,0.185243,-0.265509
1144463391.734,0.908779,0.177415,-0.253804
1144463391.744,0.971555,0.177415,-0.183574
1144463391.754,0.983325,0.106958,-0.062622
1144463391.764,0.924473,0.059986,-0.183574
1144463391.774,0.975478,0.208729,-0.097737
1144463391.784,0.822462,0.063901,-0.144557
1144463391.794,0.916626,0.200900,-0.269411
1144463391.804,0.881314,0.247872,-0.203082
1144463391.814,0.830309,0.290929,-0.343543
1144463391.824,0.944090,0.310500,-0.347444
1144463391.834,0.900932,0.337900,-0.304526
1144463391.844,0.924473,0.333986,-0.167967
1144463391.854,0.853850,-0.022214,-0.031409
1144463391.864,0.920549,0.189157,-0.265509
1144463391.874,0.940167,0.467071,-0.140655
1144463391.884,0.728298,0.361386,-0.277214
1144463391.894,0.920549,0.498385,-0.300624
1144463391.904,0.881314,0.447500,-0.261607
1144463391.914,0.818539,0.283100,-0.152361
1144463391.924,0.955861,0.427928,-0.246001
1144463391.935,0.802845,0.110872,-0.047015
1144463391.944,0.838156,0.686271,-0.320133
1144463391.954,0.787151,0.451414,-0.043114
1144463391.964,0.716528,0.447500,-0.277214
1144463391.974,0.971555,0.470985,-0.171869
1144463391.984,0.830309,0.310500,-0.109442
1144463391.994,0.904855,0.686271,-0.218689
1144463392.004,0.712604,0.592328,-0.121147
1144463392.014,0.759686,0.521871,-0.246001
1144463392.024,0.897008,0.447500,-0.218689
1144463392.034,0.787151,0.357471,-0.132852
1144463392.043,0.846003,0.690185,-0.226492
1144463392.053,0.716528,0.463157,-0.050917
1144463392.064,0.728298,0.701928,-0.175771
1144463392.074,0.767533,0.651042,-0.191377
1144463392.084,0.818539,0.482728,-0.152361
1144463392.094,0.842079,0.553185,-0.191377
1144463392.104,0.826385,0.424014,-0.007998
1144463392.114,0.818539,0.490557,-0.144557
1144463392.124,0.767533,0.611899,-0.043114
1144463392.134,0.692987,0.670614,0.007608
1144463392.144,0.783227,0.674528,-0.089934
1144463392.154,0.838156,0.580585,-0.089934
1144463392.164,0.794998,0.611899,-0.113344
1144463392.173,0.794998,0.588414,-0.132852
1144463392.184,0.771457,0.533614,-0.062622
1144463392.194,0.798921,0.596242,-0.101639
1144463392.204,0.767533,0.592328,-0.019703
1144463392.215,0.732222,0.592328,-0.089934
1144463392.224,0.794998,0.557100,-0.121147
1144463392.234,0.798921,0.474900,-0.062622
1144463392.244,0.814615,0.553185,-0.167967
1144463392.254,0.802845,0.580585,-0.078229
1144463392.264,0.755763,0.588414,-0.093835
1144463392.274,0.771457,0.596242,-0.101639
1144463392.284,0.775380,0.568842,-0.097737
1144463392.293,0.810692,0.478814,-0.101639
1144463392.303,0.838156,0.514043,-0.117245
1144463392.313,0.814615,0.521871,-0.109442
1144463392.323,0.818539,0.521871,-0.058720
1144463392.333,0.787151,0.623642,-0.027507
1144463392.343,0.779304,0.568842,-0.058720
1144463392.353,0.779304,0.537528,-0.093835
1144463392.363,0.791074,0.549271,-0.109442
1144463392.373,0.802845,0.529700,-0.125049
1144463392.383,0.814615,0.482728,0.007608
1144463392.393,0.794998,0.412271,-0.195279
1144463392.404,0.787151,0.627557,-0.089934
1144463392.413,0.846003,0.384871,-0.105540
1144463392.423,0.814615,0.611899,-0.066524
1144463392.433,0.767533,0.596242,-0.043114
1144463392.443,0.767533,0.545357,-0.097737
1144463392.453,0.818539,0.537528,-0.128950
1144463392.463,0.794998,0.478814,-0.152361
1144463392.473,0.826385,0.482728,-0.195279
1144463392.483,0.806768,0.494471,-0.164066
1144463392.493,0.787151,0.533614,-0.128950
1144463392.503,0.802845,0.545357,-0.128950
1144463392.513,0.783227,0.533614,-0.132852
1144463392.523,0.802845,0.521871,-0.164066
1144463392.533,0.830309,0.486643,-0.203082
1144463392.543,0.814615,0.506214,-0.218689
1144463392.553,0.802845,0.525785,-0.214787
1144463392.563,0.806768,0.506214,-0.136754
1144463392.573,0.826385,0.521871,-0.109442
1144463392.583,0.810692,0.529700,-0.093835
1144463392.593,0.826385,0.490557,-0.093835
1144463392.603,0.814615,0.510128,-0.113344
1144463392.613,0.857773,0.447500,-0.160164
1144463392.623,0.853850,0.482728,-0.187476
1144463392.633,0.814615,0.506214,-0.203082
1144463392.643,0.838156,0.412271,-0.113344
1144463392.653,0.842079,0.486643,-0.113344
1144463392.663,0.802845,0.494471,-0.179672
1144463392.673,0.846003,0.392700,-0.230394
1144463392.684,0.861697,0.365300,-0.167967
1144463392.693,0.865620,0.361386,-0.160164
1144463392.703,0.885238,0.416186,-0.148459
1144463392.713,0.822462,0.467071,-0.121147
1144463392.723,0.846003,0.431843,-0.156262
1144463392.733,0.838156,0.377043,-0.144557
1144463392.743,0.881314,0.326157,-0.136754
1144463392.753,0.916626,0.377043,-0.105540
1144463392.763,0.861697,0.337900,-0.097737
1144463392.773,0.932320,0.306586,-0.047015
1144463392.783,0.893085,0.502300,-0.078229
1144463392.793,0.869544,0.416186,-0.089934
1144463392.803,0.869544,0.326157,-0.148459
1144463392.813,0.900932,0.302671,-0.113344
1144463392.823,0.920549,0.283100,-0.160164
1144463392.833,0.924473,0.322243,-0.105540
1144463392.843,0.889161,0.189157,-0.078229
1144463392.853,0.991172,0.263529,-0.089934
1144463392.863,0.900932,0.412271,-0.019703
1144463392.874,0.877391,0.400528,-0.121147
1144463392.882,0.889161,0.189157,-0.175771
1144463392.892,0.944090,0.106958,-0.140655
1144463392.902,0.987249,0.208729,-0.140655
1144463392.912,0.924473,0.150015,-0.093835
1144463392.922,0.955861,0.099129,-0.148459
1144463392.932,0.951937,0.122615,-0.105540
1144463392.942,0.975478,0.236129,-0.113344
1144463392.952,0.897008,0.204815,-0.101639
1144463392.962,0.948014,0.091301,-0.113344
1144463392.972,0.995096,0.048243,-0.144557
1144463392.982,0.967631,-0.045699,-0.121147
1144463392.992,1.014713,0.016929,-0.183574
1144463393.002,0.932320,-0.131813,-0.140655
1144463393.012,1.018637,-0.155299,-0.140655
1144463393.022,0.959784,-0.080928,-0.043114
1144463393.032,0.924473,-0.139642,-0.035310
1144463393.042,0.944090,-0.147470,-0.167967
1144463393.052,0.924473,-0.147470,-0.167967
1144463393.062,0.944090,-0.210099,-0.183574
1144463393.072,0.928396,-0.288384,-0.136754
1144463393.082,0.936243,-0.311870,-0.109442
1144463393.092,0.944090,-0.221842,-0.121147
1144463393.102,0.920549,-0.127899,-0.128950
1144463393.112,0.948014,-0.092670,-0.218689
1144463393.122,0.975478,-0.049613,-0.171869
1144463393.132,0.959784,-0.073099,-0.117245
1144463393.142,0.995096,-0.100499,-0.062622
1144463393.154,0.912702,-0.221842,-0.027507
1144463393.162,0.995096,0.126529,-0.210886
1144463393.172,0.951937,0.157843,-0.214787
1144463393.182,0.916626,-0.002642,-0.249902
1144463393.192,1.006866,-0.010471,-0.206984
1144463393.202,0.999019,0.063901,-0.109442
1144463393.212,0.987249,-0.002642,-0.093835
1144463393.222,1.010790,-0.178785,0.085642
1144463393.232,0.916626,-0.210099,-0.117245
1144463393.242,0.971555,0.341814,-0.261607
1144463393.252,0.846003,0.427928,-0.249902
1144463393.262,0.873467,0.118700,-0.285018
1144463393.272,1.006866,0.059986,-0.238197
1144463393.282,0.983325,0.161757,-0.128950
1144463393.292,0.920549,0.052158,-0.086032
1144463393.302,0.916626,0.071729,-0.164066
1144463393.312,0.897008,0.103043,-0.140655
1144463393.322,0.830309,0.482728,-0.366953
1144463393.332,0.779304,0.443585,-0.277214
1144463393.342,0.842079,0.326157,-0.308428
1144463393.352,0.975478,0.283100,-0.238197
1144463393.362,0.940167,0.302671,-0.179672
1144463393.372,0.924473,0.173500,-0.191377
1144463393.381,0.967631,0.243957,-0.148459
1144463393.392,0.834232,0.189157,-0.148459
1144463393.402,0.763610,0.545357,-0.234296
1144463393.412,0.732222,0.537528,-0.156262
1144463393.422,0.826385,0.388786,-0.288919
1144463393.432,0.979402,0.396614,-0.214787
1144463393.442,0.877391,0.369214,-0.128950
1144463393.452,0.873467,0.290929,-0.195279
1144463393.462,0.861697,0.568842,-0.238197
1144463393.472,0.791074,0.486643,-0.191377
1144463393.482,0.771457,0.592328,-0.167967
1144463393.491,0.767533,0.337900,-0.027507
1144463393.502,0.885238,0.439671,-0.144557
1144463393.512,0.806768,0.694099,-0.164066
1144463393.521,0.685140,0.627557,-0.234296
1144463393.531,0.802845,0.478814,-0.320133
1144463393.541,0.877391,0.435757,-0.210886
1144463393.551,0.818539,0.502300,-0.175771
1144463393.561,0.794998,0.635385,-0.183574
1144463393.571,0.669446,0.705842,-0.167967
1144463393.581,0.645905,0.607985,-0.206984
1144463393.591,0.802845,0.482728,-0.210886
1144463393.601,0.783227,0.596242,-0.273313
1144463393.611,0.802845,0.568842,-0.230394
1144463393.622,0.791074,0.510128,-0.101639
1144463393.631,0.747916,0.611899,-0.160164
1144463393.641,0.783227,0.580585,-0.171869
1144463393.651,0.783227,0.561014,-0.097737
1144463393.661,0.696910,0.666699,-0.113344
1144463393.671,0.720451,0.596242,-0.164066
1144463393.681,0.798921,0.568842,-0.187476
1144463393.691,0.700834,0.678442,-0.222591
1144463393.701,0.763610,0.576671,-0.164066
1144463393.711,0.771457,0.482728,-0.086032
1144463393.721,0.771457,0.670614,-0.148459
1144463393.731,0.759686,0.596242,-0.066524
1144463393.741,0.712604,0.651042,-0.132852
1144463393.751,0.747916,0.580585,-0.195279
1144463393.761,0.771457,0.596242,-0.222591
1144463393.771,0.751839,0.517957,-0.148459
1144463393.781,0.791074,0.588414,-0.171869
1144463393.791,0.740069,0.619728,-0.160164
1144463393.801,0.716528,0.631471,-0.117245
1144463393.811,0.736145,0.596242,-0.164066
1144463393.821,0.767533,0.584499,-0.203082
1144463393.831,0.755763,0.576671,-0.218689
1144463393.841,0.779304,0.541442,-0.234296
1144463393.851,0.775380,0.553185,-0.136754
1144463393.861,0.747916,0.576671,-0.121147
1144463393.871,0.791074,0.615814,-0.043114
1144463393.881,0.692987,0.729328,-0.047015
1144463393.891,0.740069,0.557100,-0.167967
1144463393.901,0.814615,0.549271,-0.156262
1144463393.911,0.759686,0.604071,-0.222591
1144463393.921,0.740069,0.580585,-0.210886
1144463393.931,0.724375,0.561014,-0.167967
1144463393.941,0.743992,0.557100,-0.203082
1144463393.951,0.794998,0.541442,-0.132852
1144463393.961,0.743992,0.635385,-0.105540
1144463393.971,0.755763,0.580585,-0.195279
1144463393.980,0.759686,0.549271,-0.222591
1144463393.991,0.779304,0.557100,-0.214787
1144463394.000,0.759686,0.592328,-0.191377
1144463394.011,0.779304,0.533614,-0.152361
1144463394.021,0.806768,0.561014,-0.125049
1144463394.030,0.755763,0.600157,-0.086032
1144463394.040,0.767533,0.541442,-0.160164
1144463394.050,0.779304,0.557100,-0.199181
1144463394.060,0.747916,0.576671,-0.191377
1144463394.070,0.767533,0.592328,-0.226492
1144463394.080,0.798921,0.514043,-0.210886
1144463394.091,0.834232,0.439671,-0.152361
1144463394.100,0.830309,0.553185,-0.062622
1144463394.110,0.740069,0.658871,-0.093835
1144463394.120,0.736145,0.517957,-0.222591
1144463394.130,0.814615,0.470985,-0.253804
1144463394.140,0.798921,0.568842,-0.246001
1144463394.150,0.791074,0.576671,-0.226492
1144463394.160,0.802845,0.427928,-0.203082
1144463394.170,0.857773,0.373128,-0.160164
1144463394.180,0.865620,0.533614,-0.136754
1144463394.189,0.751839,0.580585,-0.191377
1144463394.200,0.763610,0.486643,-0.257706
1144463394.210,0.806768,0.486643,-0.257706
1144463394.220,0.814615,0.490557,-0.238197
1144463394.230,0.846003,0.353557,-0.179672
1144463394.240,0.912702,0.420100,-0.191377
1144463394.250,0.810692,0.549271,-0.101639
1144463394.260,0.779304,0.459243,-0.203082
1144463394.270,0.838156,0.408357,-0.234296
1144463394.280,0.881314,0.384871,-0.292821
1144463394.290,0.869544,0.498385,-0.242099
1144463394.300,0.822462,0.345729,-0.167967
1144463394.310,0.932320,0.165672,-0.121147
1144463394.320,0.955861,0.392700,-0.070425
1144463394.330,0.830309,0.537528,-0.128950
1144463394.340,0.783227,0.486643,-0.249902
1144463394.350,0.842079,0.353557,-0.222591
1144463394.360,0.944090,0.275272,-0.183574
1144463394.371,0.940167,0.224386,-0.156262
1144463394.379,0.924473,0.204815,-0.128950
1144463394.390,0.900932,0.177415,-0.089934
1144463394.400,0.944090,0.357471,-0.140655
1144463394.410,0.853850,0.502300,-0.171869
1144463394.420,0.830309,0.306586,-0.191377
1144463394.430,0.936243,0.173500,-0.210886
1144463394.440,0.916626,0.247872,-0.179672
1144463394.450,0.924473,0.216557,-0.171869
1144463394.460,0.940167,0.153929,-0.132852
1144463394.470,0.936243,0.146100,-0.175771
1144463394.480,0.955861,0.056072,-0.082130
1144463394.490,0.951937,0.150015,-0.187476
1144463394.500,0.920549,0.200900,-0.171869
1144463394.510,0.932320,0.169586,-0.203082
1144463394.520,0.940167,0.083472,-0.253804
1144463394.530,0.940167,-0.088756,-0.179672
1144463394.540,0.991172,-0.190527,-0.062622
1144463394.550,0.967631,-0.170956,-0.089934
1144463394.560,0.955861,-0.069185,-0.160164
1144463394.570,0.932320,-0.077013,-0.179672
1144463394.580,0.955861,-0.143556,-0.191377
1144463394.590,0.936243,-0.264899,-0.187476
1144463394.600,0.955861,-0.206185,-0.144557
1144463394.610,0.932320,-0.214013,-0.121147
1144463394.620,0.932320,-0.198356,-0.113344
1144463394.629,0.932320,-0.092670,-0.175771
1144463394.639,0.940167,-0.041785,-0.249902
1144463394.649,0.951937,0.028672,-0.226492
1144463394.659,0.928396,-0.088756,-0.246001
1144463394.669,0.955861,-0.006556,-0.203082
1144463394.680,0.963708,-0.022214,-0.144557
1144463394.689,0.983325,-0.123985,-0.140655
1144463394.699,0.959784,-0.151385,-0.074327
1144463394.709,0.955861,-0.116156,-0.117245
1144463394.719,0.959784,-0.049613,-0.183574
1144463394.729,0.948014,0.052158,-0.277214
1144463394.739,0.940167,0.099129,-0.288919
1144463394.749,0.904855,0.063901,-0.214787
1144463394.759,0.975478,-0.014385,-0.136754
1144463394.769,0.999019,0.013015,-0.121147
1144463394.779,0.963708,0.099129,-0.167967
1144463394.789,0.889161,0.040415,-0.148459
1144463394.799,0.900932,0.114786,-0.265509
1144463394.809,0.932320,0.322243,-0.331838
1144463394.820,0.869544,0.169586,-0.246001
1144463394.829,0.912702,0.071729,-0.230394
1144463394.840,1.006866,0.181329,-0.179672
1144463394.849,0.948014,0.165672,-0.175771
1144463394.859,0.951937,0.153929,-0.203082
1144463394.870,0.893085,0.185243,-0.132852
1144463394.879,0.810692,0.357471,-0.210886
1144463394.889,0.920549,0.275272,-0.183574
1144463394.899,0.869544,0.267443,-0.203082
1144463394.909,0.928396,0.431843,-0.187476
1144463394.919,0.853850,0.220472,-0.156262
1144463394.929,0.967631,0.224386,-0.281116
1144463394.939,0.900932,0.498385,-0.285018
1144463394.949,0.763610,0.533614,-0.214787
1144463394.959,0.724375,0.106958,-0.128950
1144463394.969,1.018637,0.380957,-0.214787
1144463394.978,0.873467,0.333986,-0.097737
1144463394.988,0.830309,0.537528,-0.304526
1144463394.999,0.865620,0.498385,-0.246001
1144463395.009,0.724375,0.592328,-0.331838
1144463395.019,0.830309,0.365300,-0.195279
1144463395.029,0.881314,0.377043,-0.238197
1144463395.039,0.897008,0.447500,-0.152361
1144463395.049,0.826385,0.392700,-0.125049
1144463395.059,0.861697,0.267443,-0.054819
1144463395.069,0.802845,0.639299,-0.246001
1144463395.078,0.743992,0.658871,-0.214787
1144463395.089,0.681216,0.588414,-0.203082
1144463395.099,0.893085,0.474900,-0.195279
1144463395.109,0.916626,0.467071,-0.113344
1144463395.119,0.826385,0.506214,-0.093835
1144463395.128,0.834232,0.431843,0.011510
1144463395.138,0.779304,0.467071,-0.113344
1144463395.148,0.755763,0.729328,-0.175771
1144463395.158,0.657675,0.580585,-0.175771
1144463395.168,0.798921,0.517957,-0.234296
1144463395.178,0.897008,0.494471,-0.167967
1144463395.188,0.759686,0.431843,-0.093835
1144463395.198,0.853850,0.611899,-0.148459
1144463395.208,0.747916,0.604071,-0.066524
1144463395.218,0.677293,0.615814,-0.195279
1144463395.228,0.755763,0.647128,-0.246001
1144463395.238,0.759686,0.553185,-0.203082
1144463395.248,0.794998,0.490557,-0.183574
1144463395.258,0.779304,0.604071,-0.160164
1144463395.268,0.747916,0.537528,-0.179672
1144463395.278,0.779304,0.643214,-0.136754
1144463395.288,0.700834,0.670614,-0.113344
1144463395.298,0.740069,0.611899,-0.195279
1144463395.310,0.783227,0.592328,-0.226492
1144463395.318,0.794998,0.470985,-0.156262
1144463395.328,0.787151,0.584499,-0.191377
1144463395.338,0.743992,0.576671,-0.171869
1144463395.348,0.747916,0.588414,-0.183574
1144463395.358,0.728298,0.596242,-0.203082
1144463395.368,0.740069,0.604071,-0.214787
1144463395.378,0.771457,0.529700,-0.222591
1144463395.388,0.794998,0.525785,-0.167967
1144463395.398,0.771457,0.588414,-0.160164
1144463395.408,0.779304,0.545357,-0.105540
1144463395.418,0.787151,0.576671,-0.074327
1144463395.428,0.732222,0.674528,-0.089934
1144463395.438,0.743992,0.580585,-0.152361
1144463395.448,0.787151,0.557100,-0.183574
1144463395.458,0.771457,0.568842,-0.183574
1144463395.468,0.775380,0.564928,-0.156262
1144463395.478,0.767533,0.529700,-0.117245
1144463395.488,0.791074,0.553185,-0.121147
1144463395.498,0.755763,0.635385,-0.101639
1144463395.508,0.712604,0.627557,-0.144557
1144463395.518,0.798921,0.486643,-0.234296
1144463395.528,0.798921,0.545357,-0.195279
1144463395.538,0.775380,0.553185,-0.199181
1144463395.548,0.787151,0.482728,-0.148459
1144463395.558,0.810692,0.533614,-0.078229
1144463395.568,0.759686,0.666699,-0.035310
1144463395.578,0.720451,0.615814,-0.109442
1144463395.587,0.806768,0.470985,-0.191377
1144463395.598,0.802845,0.564928,-0.203082
1144463395.608,0.775380,0.557100,-0.238197
1144463395.618,0.798921,0.490557,-0.187476
1144463395.628,0.794998,0.557100,-0.164066
1144463395.638,0.751839,0.596242,-0.164066
1144463395.647,0.736145,0.588414,-0.214787
1144463395.657,0.783227,0.470985,-0.257706
1144463395.667,0.810692,0.529700,-0.277214
1144463395.677,0.771457,0.549271,-0.238197
1144463395.688,0.794998,0.478814,-0.226492
1144463395.698,0.838156,0.494471,-0.128950
1144463395.707,0.771457,0.600157,-0.128950
1144463395.717,0.755763,0.537528,-0.203082
1144463395.727,0.794998,0.510128,-0.214787
1144463395.737,0.806768,0.525785,-0.226492
1144463395.747,0.806768,0.506214,-0.214787
1144463395.757,0.810692,0.447500,-0.183574
1144463395.767,0.830309,0.490557,-0.160164
1144463395.778,0.806768,0.514043,-0.148459
1144463395.787,0.787151,0.510128,-0.203082
1144463395.797,0.818539,0.474900,-0.183574
1144463395.807,0.853850,0.470985,-0.191377
1144463395.817,0.830309,0.506214,-0.183574
1144463395.827,0.830309,0.424014,-0.195279
1144463395.837,0.865620,0.377043,-0.183574
1144463395.847,0.873467,0.459243,-0.140655
1144463395.857,0.818539,0.506214,-0.093835
1144463395.867,0.779304,0.506214,-0.203082
1144463395.877,0.834232,0.400528,-0.191377
1144463395.887,0.897008,0.345729,-0.206984
1144463395.897,0.908779,0.287014,-0.167967
1144463395.907,0.928396,0.255700,-0.132852
1144463395.917,0.940167,0.330071,-0.101639
1144463395.927,0.865620,0.443585,-0.089934
1144463395.937,0.806768,0.537528,-0.226492
1144463395.947,0.798921,0.388786,-0.230394
1144463395.957,0.916626,0.247872,-0.242099
1144463395.967,0.932320,0.283100,-0.230394
1144463395.977,0.881314,0.181329,-0.144557
1144463395.987,0.955861,0.157843,-0.140655
1144463395.997,0.924473,0.420100,-0.109442
1144463396.007,0.846003,0.427928,-0.203082
1144463396.027,0.881314,0.322243,-0.246001
1144463396.037,0.900932,0.208729,-0.195279
1144463396.047,0.971555,0.087386,-0.171869
1144463396.057,0.951937,0.075643,-0.132852
1144463396.067,0.971555,0.126529,-0.086032
1144463396.077,0.948014,0.165672,-0.078229
1144463396.087,0.928396,0.236129,-0.167967
1144463396.097,0.924473,0.196986,-0.203082
1144463396.107,0.936243,0.173500,-0.210886
1144463396.117,0.936243,0.024758,-0.226492
1144463396.127,0.975478,-0.049613,-0.156262
1144463396.136,0.995096,-0.026128,-0.140655
1144463396.146,0.959784,-0.088756,-0.156262
1144463396.156,0.991172,-0.033956,-0.179672
1144463396.166,0.944090,-0.065271,-0.171869
1144463396.176,0.936243,-0.178785,-0.152361
1144463396.186,0.916626,-0.276641,-0.183574
1144463396.196,0.912702,-0.307956,-0.175771
1144463396.206,0.940167,-0.323613,-0.214787
1144463396.216,0.951937,-0.096585,-0.261607
1144463396.226,0.912702,0.005186,-0.273313
1144463396.236,0.893085,-0.065271,-0.265509
1144463396.248,0.928396,-0.065271,-0.214787
1144463396.256,0.920549,-0.030042,-0.195279
1144463396.266,0.944090,-0.069185,-0.187476
1144463396.276,0.955861,-0.100499,-0.195279
1144463396.286,0.983325,-0.077013,-0.187476
1144463396.296,0.975478,-0.123985,-0.136754
1144463396.306,0.948014,-0.190527,-0.171869
1144463396.316,0.987249,-0.002642,-0.179672
1144463396.326,0.897008,-0.084842,-0.136754
1144463396.336,0.951937,0.079558,-0.308428
1144463396.346,0.936243,0.177415,-0.273313
1144463396.356,0.904855,0.126529,-0.285018
1144463396.366,0.959784,0.013015,-0.277214
1144463396.376,0.983325,0.001272,-0.132852
1144463396.386,0.924473,-0.092670,-0.136754
1144463396.396,1.006866,-0.018299,-0.206984
1144463396.406,0.971555,0.016929,-0.128950
1144463396.416,0.889161,0.091301,-0.246001
1144463396.426,0.944090,0.263529,-0.261607
1144463396.436,0.842079,0.302671,-0.316231
1144463396.446,0.928396,0.177415,-0.230394
1144463396.456,0.912702,0.024758,-0.249902
1144463396.466,0.975478,0.173500,-0.230394
1144463396.476,0.928396,0.153929,-0.093835
1144463396.486,0.873467,0.130443,-0.246001
1144463396.496,0.951937,0.353557,-0.210886
1144463396.506,0.743992,0.470985,-0.277214
1144463396.516,0.779304,0.498385,-0.335739
1144463396.526,0.912702,0.196986,-0.160164
1144463396.536,0.881314,0.099129,-0.160164
1144463396.546,1.053948,0.435757,-0.160164
1144463396.556,0.783227,0.384871,-0.214787
1144463396.566,0.787151,0.455328,-0.390363
1144463396.576,0.904855,0.443585,-0.308428
1144463396.586,0.728298,0.717585,-0.296723
1144463396.596,0.704757,0.596242,-0.183574
1144463396.606,0.838156,0.099129,-0.121147
1144463396.616,1.014713,0.494471,-0.257706
1144463396.626,0.865620,0.420100,-0.043114
1144463396.636,0.767533,0.326157,-0.179672
1144463396.646,0.885238,0.713671,-0.234296
1144463396.656,0.696910,0.615814,-0.183574
1144463396.666,0.755763,0.588414,-0.199181
1144463396.676,0.869544,0.420100,-0.074327
1144463396.686,0.818539,0.455328,-0.125049
1144463396.695,0.838156,0.517957,-0.136754
1144463396.706,0.736145,0.377043,-0.066524
1144463396.716,0.696910,0.803699,-0.242099
1144463396.725,0.775380,0.588414,-0.214787
1144463396.735,0.846003,0.541442,-0.152361
1144463396.745,0.783227,0.658871,-0.082130
1144463396.755,0.783227,0.486643,-0.000195
1144463396.765,0.842079,0.498385,-0.007998
1144463396.775,0.763610,0.725413,-0.089934
1144463396.785,0.677293,0.639299,-0.086032
1144463396.795,0.740069,0.607985,-0.171869
1144463396.805,0.806768,0.561014,-0.113344
1144463396.815,0.755763,0.611899,-0.125049
1144463396.825,0.775380,0.623642,-0.074327
1144463396.835,0.736145,0.588414,-0.043114
1144463396.845,0.720451,0.639299,-0.070425
1144463396.855,0.716528,0.623642,-0.156262
1144463396.867,0.826385,0.537528,-0.167967
1144463396.875,0.755763,0.615814,-0.156262
1144463396.885,0.751839,0.537528,-0.136754
1144463396.895,0.822462,0.564928,-0.062622
1144463396.905,0.720451,0.686271,-0.031409
1144463396.915,0.747916,0.604071,-0.089934
1144463396.925,0.763610,0.604071,-0.113344
1144463396.935,0.755763,0.561014,-0.152361
1144463396.945,0.787151,0.604071,-0.183574
1144463396.955,0.732222,0.592328,-0.140655
1144463396.965,0.751839,0.588414,-0.109442
1144463396.975,0.747916,0.611899,-0.082130
1144463396.985,0.728298,0.639299,-0.089934
1144463396.997,0.740069,0.588414,-0.160164
1144463397.004,0.759686,0.615814,-0.167967
1144463397.015,0.743992,0.596242,-0.179672
1144463397.025,0.751839,0.572757,-0.156262
1144463397.035,0.771457,0.553185,-0.160164
1144463397.045,0.724375,0.623642,-0.144557
1144463397.055,0.720451,0.576671,-0.160164
1144463397.065,0.779304,0.568842,-0.183574
1144463397.075,0.763610,0.584499,-0.156262
1144463397.085,0.787151,0.572757,-0.121147
1144463397.095,0.787151,0.553185,-0.136754
1144463397.105,0.794998,0.502300,-0.066524
1144463397.115,0.783227,0.619728,-0.043114
1144463397.125,0.732222,0.639299,-0.050917
1144463397.135,0.794998,0.553185,-0.156262
1144463397.145,0.775380,0.568842,-0.183574
1144463397.155,0.767533,0.576671,-0.187476
1144463397.165,0.810692,0.521871,-0.191377
1144463397.175,0.818539,0.506214,-0.113344
1144463397.185,0.794998,0.580585,-0.035310
1144463397.195,0.751839,0.604071,-0.054819
1144463397.205,0.736145,0.568842,-0.191377
1144463397.215,0.755763,0.568842,-0.210886
1144463397.225,0.783227,0.549271,-0.203082
1144463397.235,0.806768,0.568842,-0.210886
1144463397.245,0.779304,0.514043,-0.210886
1144463397.255,0.818539,0.424014,-0.148459
1144463397.265,0.814615,0.557100,-0.136754
1144463397.275,0.689063,0.623642,-0.175771
1144463397.284,0.767533,0.541442,-0.269411
1144463397.294,0.791074,0.486643,-0.253804
1144463397.304,0.810692,0.490557,-0.214787
1144463397.314,0.810692,0.486643,-0.199181
1144463397.324,0.842079,0.451414,-0.171869
1144463397.334,0.830309,0.474900,-0.152361
1144463397.344,0.767533,0.459243,-0.203082
1144463397.354,0.846003,0.506214,-0.171869
1144463397.364,0.798921,0.529700,-0.179672
1144463397.374,0.826385,0.478814,-0.222591
1144463397.384,0.846003,0.373128,-0.203082
1144463397.394,0.885238,0.357471,-0.144557
1144463397.404,0.877391,0.514043,-0.144557
1144463397.414,0.767533,0.580585,-0.148459
1144463397.424,0.763610,0.514043,-0.269411
1144463397.434,0.818539,0.463157,-0.257706
1144463397.444,0.834232,0.408357,-0.218689
1144463397.454,0.869544,0.318329,-0.226492
1144463397.465,0.889161,0.287014,-0.187476
1144463397.474,0.924473,0.310500,-0.136754
1144463397.484,0.865620,0.564928,-0.132852
1144463397.494,0.767533,0.533614,-0.136754
1144463397.504,0.857773,0.318329,-0.222591
1144463397.514,0.924473,0.302671,-0.199181
1144463397.524,0.889161,0.408357,-0.152361
1144463397.534,0.877391,0.353557,-0.128950
1144463397.544,0.932320,0.185243,-0.093835
1144463397.554,0.944090,0.353557,-0.109442
1144463397.564,0.865620,0.463157,-0.062622
1144463397.574,0.853850,0.267443,-0.167967
1144463397.584,0.928396,0.330071,-0.199181
1144463397.594,0.853850,0.384871,-0.191377
1144463397.604,0.908779,0.189157,-0.167967
1144463397.614,0.959784,0.161757,-0.132852
1144463397.624,0.936243,0.157843,-0.086032
1144463397.634,0.971555,0.177415,-0.054819
1144463397.644,0.936243,0.283100,-0.121147
1144463397.654,0.889161,0.294843,-0.179672
1144463397.664,0.916626,0.193072,-0.152361
1144463397.674,0.912702,0.196986,-0.164066
1144463397.684,0.951937,0.189157,-0.164066
1144463397.693,0.948014,0.114786,-0.175771
1144463397.704,0.959784,0.048243,-0.167967
1144463397.714,0.983325,0.036501,-0.160164
1144463397.724,0.955861,0.059986,-0.144557
1144463397.734,0.971555,0.103043,-0.128950
1144463397.744,0.916626,0.103043,-0.191377
1144463397.754,0.936243,-0.077013,-0.167967
1144463397.764,0.979402,-0.139642,-0.171869
1144463397.774,0.963708,-0.159213,-0.210886
1144463397.784,0.955861,-0.257070,-0.175771
1144463397.794,0.936243,-0.339270,-0.152361
1144463397.804,0.951937,-0.229670,-0.214787
1144463397.814,0.912702,-0.112242,-0.210886
1144463397.824,0.873467,-0.026128,-0.226492
1144463397.834,0.959784,0.024758,-0.238197
1144463397.844,0.948014,0.001272,-0.195279
1144463397.854,0.936243,-0.030042,-0.203082
1144463397.864,0.944090,-0.096585,-0.214787
1144463397.874,0.955861,-0.127899,-0.179672
1144463397.884,0.963708,-0.096585,-0.164066
1144463397.894,0.959784,-0.131813,-0.167967
1144463397.904,0.924473,-0.202270,-0.136754
1144463397.914,0.971555,0.095215,-0.214787
1144463397.924,0.944090,0.220472,-0.265509
1144463397.935,0.904855,0.114786,-0.277214
1144463397.944,0.944090,-0.006556,-0.277214
1144463397.954,0.979402,-0.065271,-0.136754
1144463397.964,0.963708,-0.182699,-0.105540
1144463397.974,1.022560,-0.037871,-0.101639
1144463397.984,0.869544,0.165672,-0.249902
1144463397.994,0.900932,0.345729,-0.386461
1144463398.004,0.861697,0.157843,-0.234296
1144463398.014,0.928396,0.130443,-0.253804
1144463398.023,0.963708,0.283100,-0.203082
1144463398.033,0.936243,0.142186,-0.164066
1144463398.043,0.987249,0.059986,-0.203082
1144463398.053,0.948014,0.059986,-0.058720
1144463398.063,0.834232,0.181329,-0.226492
1144463398.073,0.936243,0.498385,-0.281116
1144463398.083,0.822462,0.236129,-0.171869
1144463398.093,0.924473,0.326157,-0.246001
1144463398.103,0.916626,0.388786,-0.164066
1144463398.113,0.897008,0.200900,-0.195279
1144463398.123,0.983325,0.165672,-0.210886
1144463398.133,0.900932,0.240043,-0.187476
1144463398.143,0.818539,0.498385,-0.171869
1144463398.153,0.767533,0.298757,-0.105540
1144463398.163,0.897008,0.181329,-0.050917
1144463398.173,0.955861,0.490557,-0.093835
1144463398.183,0.900932,0.686271,-0.097737
1144463398.193,0.724375,0.502300,-0.210886
1144463398.203,0.842079,0.404443,-0.253804
1144463398.213,0.916626,0.353557,-0.226492
1144463398.223,0.842079,0.615814,-0.257706
1144463398.233,0.704757,0.568842,-0.128950
1144463398.243,0.806768,0.224386,-0.113344
1144463398.253,0.983325,0.576671,-0.261607
1144463398.263,0.716528,0.517957,-0.086032
1144463398.273,0.700834,0.572757,-0.277214
1144463398.283,0.857773,0.486643,-0.265509
1144463398.293,0.747916,0.568842,-0.234296
1144463398.303,0.787151,0.627557,-0.230394
1144463398.313,0.865620,0.396614,-0.113344
1144463398.323,0.826385,0.412271,-0.019703
1144463398.333,0.834232,0.662785,-0.043114
1144463398.343,0.724375,0.470985,-0.062622
1144463398.353,0.720451,0.709756,-0.249902
1144463398.363,0.751839,0.592328,-0.203082
1144463398.373,0.732222,0.662785,-0.203082
1144463398.383,0.818539,0.580585,-0.136754
1144463398.393,0.838156,0.396614,-0.007998
1144463398.404,0.830309,0.584499,-0.000195
1144463398.413,0.759686,0.627557,-0.070425
1144463398.423,0.747916,0.615814,-0.140655
1144463398.433,0.743992,0.572757,-0.253804
1144463398.443,0.759686,0.611899,-0.246001
1144463398.453,0.689063,0.635385,-0.214787
1144463398.463,0.822462,0.459243,-0.136754
1144463398.473,0.794998,0.529700,-0.113344
1144463398.483,0.743992,0.592328,-0.039212
1144463398.492,0.740069,0.580585,-0.167967
1144463398.503,0.732222,0.658871,-0.195279
1144463398.513,0.712604,0.600157,-0.246001
1144463398.523,0.783227,0.494471,-0.203082
1144463398.533,0.794998,0.580585,-0.160164
1144463398.543,0.779304,0.541442,-0.132852
1144463398.553,0.767533,0.651042,-0.066524
1144463398.563,0.708681,0.694099,-0.058720
1144463398.573,0.755763,0.584499,-0.121147
1144463398.583,0.791074,0.553185,-0.128950
1144463398.593,0.779304,0.607985,-0.132852
1144463398.603,0.755763,0.588414,-0.167967
1144463398.613,0.779304,0.541442,-0.144557
1144463398.623,0.783227,0.580585,-0.121147
1144463398.633,0.743992,0.631471,-0.039212
1144463398.643,0.724375,0.651042,-0.089934
1144463398.653,0.747916,0.588414,-0.148459
1144463398.663,0.787151,0.514043,-0.191377
1144463398.673,0.806768,0.553185,-0.160164
1144463398.684,0.763610,0.561014,-0.164066
1144463398.693,0.794998,0.506214,-0.113344
1144463398.703,0.798921,0.580585,-0.070425
1144463398.713,0.732222,0.666699,-0.066524
1144463398.723,0.724375,0.611899,-0.144557
1144463398.733,0.779304,0.514043,-0.234296
1144463398.743,0.814615,0.506214,-0.210886
1144463398.753,0.787151,0.557100,-0.136754
1144463398.763,0.806768,0.494471,-0.086032
1144463398.773,0.818539,0.580585,-0.007998
1144463398.783,0.720451,0.678442,-0.062622
1144463398.793,0.771457,0.510128,-0.179672
1144463398.803,0.798921,0.553185,-0.230394
1144463398.813,0.791074,0.568842,-0.195279
1144463398.823,0.794998,0.482728,-0.164066
1144463398.833,0.826385,0.529700,-0.144557
1144463398.843,0.802845,0.553185,-0.078229
1144463398.853,0.743992,0.611899,-0.066524
1144463398.864,0.743992,0.541442,-0.167967
1144463398.873,0.830309,0.506214,-0.226492
1144463398.883,0.794998,0.545357,-0.210886
1144463398.893,0.822462,0.486643,-0.191377
1144463398.902,0.849926,0.427928,-0.125049
1144463398.913,0.853850,0.443585,-0.097737
1144463398.923,0.806768,0.568842,-0.062622
1144463398.933,0.775380,0.572757,-0.117245
1144463398.943,0.787151,0.494471,-0.246001
1144463398.953,0.814615,0.506214,-0.214787
1144463398.963,0.806768,0.525785,-0.249902
1144463398.973,0.818539,0.400528,-0.191377
1144463398.983,0.881314,0.333986,-0.128950
1144463398.993,0.877391,0.510128,-0.070425
1144463399.003,0.818539,0.557100,-0.062622
1144463399.013,0.771457,0.525785,-0.191377
1144463399.023,0.810692,0.408357,-0.191377
1144463399.033,0.904855,0.369214,-0.164066
1144463399.042,0.900932,0.463157,-0.214787
1144463399.052,0.846003,0.306586,-0.156262
1144463399.063,0.932320,0.193072,-0.054819
1144463399.072,0.916626,0.470985,-0.070425
1144463399.082,0.810692,0.631471,-0.144557
1144463399.092,0.747916,0.494471,-0.234296
1144463399.103,0.842079,0.330071,-0.218689
1144463399.112,0.928396,0.279186,-0.179672
1144463399.122,0.924473,0.314414,-0.195279
1144463399.133,0.885238,0.275272,-0.132852
1144463399.142,0.912702,0.275272,-0.089934
1144463399.154,0.877391,0.541442,-0.101639
1144463399.162,0.830309,0.435757,-0.167967
1144463399.172,0.904855,0.267443,-0.210886
1144463399.182,0.908779,0.306586,-0.234296
1144463399.192,0.861697,0.314414,-0.179672
1144463399.202,0.944090,0.208729,-0.191377
1144463399.212,0.944090,0.177415,-0.160164
1144463399.222,0.920549,0.181329,-0.121147
1144463399.232,0.932320,0.412271,-0.156262
1144463399.242,0.853850,0.424014,-0.191377
1144463399.252,0.889161,0.208729,-0.253804
1144463399.262,0.924473,0.157843,-0.226492
1144463399.272,0.920549,0.161757,-0.128950
1144463399.282,0.991172,-0.014385,-0.086032
1144463399.292,1.010790,-0.151385,-0.031409
1144463399.302,0.999019,-0.030042,-0.062622
1144463399.312,0.967631,0.271357,-0.121147
1144463399.322,0.889161,0.216557,-0.222591
1144463399.332,0.900932,0.087386,-0.253804
1144463399.342,0.920549,0.036501,-0.164066
1144463399.352,0.995096,0.032586,-0.148459
1144463399.362,0.951937,-0.041785,-0.175771
1144463399.372,0.967631,-0.057442,-0.214787
1144463399.383,0.944090,-0.041785,-0.183574
1144463399.392,0.967631,0.059986,-0.191377
1144463399.402,0.912702,0.075643,-0.148459
1144463399.412,0.928396,-0.010471,-0.218689
1144463399.422,0.963708,-0.077013,-0.210886
1144463399.432,0.955861,-0.120070,-0.167967
1144463399.442,0.971555,-0.217927,-0.144557
1144463399.452,0.951937,-0.249242,-0.121147
1144463399.462,0.959784,-0.127899,-0.167967
1144463399.472,0.936243,-0.041785,-0.199181
1144463399.482,0.940167,-0.006556,-0.222591
1144463399.492,0.924473,0.036501,-0.218689
1144463399.502,0.940167,0.001272,-0.195279
1144463399.512,0.955861,-0.010471,-0.171869
1144463399.522,0.975478,-0.053528,-0.148459
1144463399.532,0.975478,-0.116156,-0.152361
1144463399.542,0.967631,-0.123985,-0.105540
1144463399.552,0.955861,-0.049613,-0.132852
1144463399.562,0.928396,-0.123985,-0.117245
1144463399.572,0.955861,0.001272,-0.300624
1144463399.582,0.963708,0.365300,-0.339641
1144463399.592,0.822462,0.275272,-0.304526
1144463399.602,0.936243,0.024758,-0.191377
1144463399.612,1.046101,-0.026128,-0.140655
1144463399.623,1.022560,-0.033956,-0.035310
1144463399.632,0.940167,-0.033956,-0.117245
1144463399.642,0.975478,0.040415,-0.191377
1144463399.652,0.842079,0.001272,-0.156262
1144463399.662,0.940167,0.349643,-0.327936
1144463399.672,0.885238,0.451414,-0.234296
1144463399.682,0.834232,0.177415,-0.199181
1144463399.692,1.010790,0.075643,-0.156262
1144463399.702,0.995096,0.165672,-0.066524
1144463399.712,0.928396,0.275272,-0.164066
1144463399.722,0.865620,0.247872,-0.214787
1144463399.732,0.853850,0.337900,-0.164066
1144463399.741,0.877391,0.173500,-0.148459
1144463399.752,0.932320,0.083472,-0.113344
1144463399.762,0.983325,0.470985,-0.167967
1144463399.772,0.834232,0.412271,-0.109442
1144463399.782,0.798921,0.486643,-0.246001
1144463399.792,0.849926,0.474900,-0.242099
1144463399.802,0.818539,0.478814,-0.249902
1144463399.812,0.779304,0.545357,-0.222591
1144463399.822,0.908779,0.243957,-0.086032
1144463399.832,0.940167,0.212643,-0.066524
1144463399.842,0.951937,0.459243,-0.004097
1144463399.852,0.798921,0.251786,-0.011900
1144463399.862,0.830309,0.721499,-0.261607
1144463399.872,0.794998,0.639299,-0.246001
1144463399.882,0.740069,0.572757,-0.230394
1144463399.892,0.861697,0.435757,-0.167967
1144463399.903,0.873467,0.326157,-0.047015
1144463399.912,0.889161,0.416186,-0.015802
1144463399.922,0.846003,0.553185,-0.074327
1144463399.932,0.771457,0.517957,-0.109442
1144463399.942,0.716528,0.592328,-0.113344
1144463399.952,0.728298,0.713671,-0.210886
1144463399.962,0.924473,0.420100,-0.148459
1144463399.972,0.822462,0.537528,-0.101639
1144463399.982,0.791074,0.521871,-0.097737
1144463399.992,0.849926,0.545357,-0.043114
1144463400.001,0.751839,0.463157,-0.039212
1144463400.012,0.791074,0.604071,-0.206984
1144463400.021,0.806768,0.580585,-0.167967
1144463400.031,0.767533,0.553185,-0.148459
1144463400.041,0.751839,0.619728,-0.109442
1144463400.051,0.767533,0.502300,-0.074327
1144463400.061,0.787151,0.686271,-0.050917
1144463400.071,0.712604,0.654957,-0.050917
1144463400.081,0.720451,0.647128,-0.136754
1144463400.092,0.763610,0.580585,-0.144557
1144463400.101,0.818539,0.467071,-0.058720
1144463400.111,0.826385,0.510128,-0.047015
1144463400.121,0.830309,0.604071,-0.054819
1144463400.131,0.747916,0.631471,-0.011900
1144463400.141,0.728298,0.619728,-0.047015
1144463400.151,0.736145,0.588414,-0.070425
1144463400.161,0.783227,0.596242,-0.078229
1144463400.171,0.759686,0.580585,-0.167967
1144463400.181,0.810692,0.494471,-0.109442
1144463400.191,0.826385,0.517957,-0.007998
1144463400.201,0.763610,0.694099,0.046625
1144463400.211,0.712604,0.662785,0.011510
1144463400.221,0.740069,0.576671,-0.136754
1144463400.231,0.794998,0.545357,-0.183574
1144463400.241,0.783227,0.576671,-0.167967
1144463400.251,0.751839,0.568842,-0.160164
1144463400.261,0.810692,0.545357,-0.066524
1144463400.271,0.720451,0.658871,-0.047015
1144463400.281,0.708681,0.639299,-0.058720
1144463400.291,0.728298,0.651042,-0.125049
1144463400.301,0.743992,0.600157,-0.191377
1144463400.311,0.767533,0.592328,-0.160164
1144463400.321,0.747916,0.600157,-0.156262
1144463400.331,0.759686,0.576671,-0.140655
1144463400.341,0.751839,0.545357,-0.093835
1144463400.426,0.747916,0.670614,-0.066524
1144463400.426,0.681216,0.678442,-0.109442
1144463400.426,0.755763,0.557100,-0.171869
1144463400.426,0.798921,0.521871,-0.175771
1144463400.426,0.771457,0.588414,-0.121147
1144463400.426,0.767533,0.580585,-0.082130
1144463400.426,0.779304,0.549271,-0.015802
1144463400.427,0.798921,0.607985,-0.000195
1144463400.431,0.724375,0.647128,-0.027507
1144463400.441,0.743992,0.588414,-0.125049
1144463400.451,0.775380,0.572757,-0.183574
1144463400.461,0.806768,0.537528,-0.179672
1144463400.471,0.810692,0.517957,-0.121147
1144463400.481,0.802845,0.545357,-0.082130
1144463400.490,0.791074,0.553185,0.015412
1144463400.501,0.736145,0.627557,-0.062622
1144463400.511,0.755763,0.545357,-0.128950
1144463400.521,0.814615,0.541442,-0.086032
1144463400.531,0.783227,0.635385,-0.121147
1144463400.541,0.806768,0.510128,-0.089934
1144463400.551,0.830309,0.521871,-0.058720
1144463400.561,0.826385,0.490557,-0.011900
1144463400.571,0.826385,0.549271,-0.000195
1144463400.581,0.743992,0.627557,-0.043114
1144463400.591,0.794998,0.521871,-0.109442
1144463400.601,0.869544,0.447500,-0.132852
1144463400.611,0.846003,0.517957,-0.093835
1144463400.621,0.826385,0.467071,-0.054819
1144463400.631,0.881314,0.380957,-0.004097
1144463400.641,0.889161,0.490557,-0.000195
1144463400.651,0.794998,0.596242,-0.058720
1144463400.661,0.802845,0.506214,-0.105540
1144463400.671,0.846003,0.506214,-0.105540
1144463400.681,0.853850,0.455328,-0.128950
1144463400.691,0.877391,0.310500,-0.086032
1144463400.701,0.924473,0.380957,-0.058720
1144463400.710,0.877391,0.373128,-0.027507
1144463400.720,0.857773,0.416186,-0.074327
1144463400.730,0.889161,0.478814,-0.043114
1144463400.740,0.830309,0.424014,-0.086032
1144463400.750,0.912702,0.435757,-0.140655
1144463400.760,0.861697,0.380957,-0.117245
1144463400.770,0.912702,0.314414,-0.097737
1144463400.780,0.916626,0.283100,-0.015802
1144463400.790,0.904855,0.310500,-0.023605
1144463400.800,0.928396,0.314414,-0.062622
1144463400.810,0.889161,0.388786,-0.089934
1144463400.820,0.861697,0.424014,-0.132852
1144463400.830,0.893085,0.240043,-0.140655
1144463400.841,0.940167,0.196986,-0.093835
1144463400.850,0.916626,0.310500,-0.066524
1144463400.861,0.924473,0.259614,-0.039212
1144463400.870,0.936243,0.283100,-0.089934
1144463400.880,0.900932,0.330071,-0.121147
1144463400.890,0.897008,0.232215,-0.144557
1144463400.900,0.940167,0.236129,-0.136754
1144463400.910,0.924473,0.122615,-0.093835
1144463400.920,0.987249,0.106958,-0.074327
1144463400.930,0.944090,0.240043,-0.062622
1144463400.940,0.912702,0.196986,-0.113344
1144463400.950,0.959784,0.181329,-0.195279
1144463400.960,0.932320,0.153929,-0.222591
1144463400.970,0.940167,-0.030042,-0.152361
1144463400.980,0.999019,-0.080928,-0.058720
1144463400.990,0.975478,-0.022214,-0.054819
1144463401.000,0.999019,0.048243,-0.109442
1144463401.010,0.959784,0.087386,-0.136754
1144463401.020,0.940167,0.177415,-0.179672
1144463401.030,0.944090,0.126529,-0.128950
1144463401.040,0.967631,-0.041785,-0.109442
1144463401.050,0.971555,-0.214013,-0.074327
1144463401.060,0.971555,-0.253156,-0.109442
1144463401.070,0.944090,-0.253156,-0.105540
1144463401.080,0.916626,-0.245327,-0.179672
1144463401.090,0.951937,-0.049613,-0.234296
1144463401.100,0.924473,0.056072,-0.195279
1144463401.110,0.948014,0.001272,-0.210886
1144463401.120,0.908779,0.048243,-0.101639
1144463401.129,0.948014,-0.057442,-0.105540
1144463401.140,1.006866,-0.096585,-0.109442
1144463401.150,0.967631,-0.049613,-0.117245
1144463401.160,0.955861,-0.135728,-0.148459
1144463401.170,0.975478,-0.061356,-0.175771
1144463401.180,0.948014,-0.014385,-0.167967
1144463401.190,0.932320,-0.092670,-0.148459
1144463401.200,0.963708,-0.065271,-0.109442
1144463401.210,0.963708,0.024758,-0.136754
1144463401.220,0.971555,-0.057442,-0.152361
1144463401.230,0.955861,-0.030042,-0.140655
1144463401.240,0.999019,-0.037871,-0.148459
1144463401.250,0.959784,-0.022214,-0.167967
1144463401.260,0.959784,-0.022214,-0.175771
1144463401.270,0.936243,-0.100499,-0.128950
1144463401.280,0.948014,-0.014385,-0.144557
1144463401.290,0.955861,0.063901,-0.086032
1144463401.300,0.920549,0.153929,-0.183574
1144463401.310,0.944090,0.177415,-0.234296
1144463401.320,0.932320,0.032586,-0.148459
1144463401.330,0.971555,0.114786,-0.140655
1144463401.340,0.955861,0.275272,-0.109442
1144463401.350,0.900932,0.134358,-0.140655
1144463401.360,0.975478,0.106958,-0.171869
1144463401.370,0.924473,0.220472,-0.171869
1144463401.379,0.846003,0.279186,-0.277214
1144463401.390,0.948014,0.095215,-0.121147
1144463401.400,0.936243,-0.045699,-0.167967
1144463401.410,1.014713,0.408357,-0.175771
1144463401.420,0.838156,0.478814,-0.058720
1144463401.430,0.893085,0.255700,-0.179672
1144463401.439,0.963708,0.259614,-0.203082
1144463401.450,0.846003,0.424014,-0.187476
1144463401.460,0.775380,0.521871,-0.285018
1144463401.469,0.853850,0.146100,-0.125049
1144463401.480,0.893085,0.126529,-0.148459
1144463401.489,1.042178,0.447500,-0.187476
1144463401.499,0.834232,0.314414,-0.058720
1144463401.509,0.920549,0.365300,-0.113344
1144463401.519,0.967631,0.431843,-0.132852
1144463401.529,0.806768,0.189157,-0.011900
1144463401.539,0.806768,0.588414,-0.144557
1144463401.549,0.814615,0.643214,-0.109442
1144463401.559,0.630211,0.682356,-0.175771
1144463401.569,0.857773,0.263529,-0.027507
1144463401.579,1.006866,0.514043,-0.047015
1144463401.591,0.861697,0.611899,-0.105540
1144463401.599,0.826385,0.459243,-0.109442
1144463401.609,0.877391,0.459243,-0.113344
1144463401.619,0.771457,0.580585,-0.191377
1144463401.629,0.732222,0.514043,-0.152361
1144463401.639,0.747916,0.486643,-0.109442
1144463401.649,0.763610,0.748899,-0.086032
1144463401.659,0.732222,0.529700,-0.078229
1144463401.669,0.818539,0.517957,-0.175771
1144463401.679,0.794998,0.580585,-0.210886
1144463401.689,0.826385,0.521871,-0.206984
1144463401.699,0.779304,0.607985,-0.203082
1144463401.709,0.728298,0.643214,-0.199181
1144463401.719,0.755763,0.451414,-0.066524
1144463401.729,0.771457,0.533614,-0.027507
1144463401.739,0.759686,0.662785,-0.007998
1144463401.749,0.779304,0.631471,-0.004097
1144463401.759,0.759686,0.627557,-0.050917
1144463401.769,0.743992,0.600157,-0.113344
1144463401.779,0.830309,0.588414,-0.117245
1144463401.789,0.806768,0.584499,-0.082130
1144463401.799,0.775380,0.553185,-0.039212
1144463401.809,0.775380,0.604071,-0.039212
1144463401.819,0.736145,0.658871,-0.054819
1144463401.829,0.677293,0.658871,-0.117245
1144463401.839,0.822462,0.517957,-0.140655
1144463401.849,0.794998,0.576671,-0.086032
1144463401.859,0.783227,0.576671,-0.062622
1144463401.869,0.814615,0.541442,0.019313
1144463401.878,0.732222,0.694099,0.034920
1144463401.889,0.724375,0.607985,-0.043114
1144463401.899,0.783227,0.529700,-0.047015
1144463401.909,0.783227,0.588414,-0.101639
1144463401.919,0.767533,0.564928,-0.117245
1144463401.929,0.791074,0.572757,-0.093835
1144463401.939,0.783227,0.537528,-0.050917
1144463401.949,0.818539,0.537528,0.054428
1144463401.959,0.767533,0.694099,0.070035
1144463401.969,0.689063,0.643214,-0.004097
1144463401.978,0.853850,0.478814,-0.097737
1144463401.988,0.791074,0.588414,-0.109442
1144463401.999,0.802845,0.541442,-0.093835
1144463402.009,0.794998,0.521871,-0.093835
1144463402.019,0.810692,0.529700,-0.043114
1144463402.029,0.771457,0.600157,-0.015802
1144463402.039,0.728298,0.670614,-0.027507
1144463402.049,0.771457,0.529700,-0.125049
1144463402.060,0.869544,0.439671,-0.156262
1144463402.069,0.834232,0.553185,-0.125049
1144463402.078,0.787151,0.510128,-0.093835
1144463402.089,0.853850,0.463157,-0.043114
1144463402.099,0.814615,0.647128,0.019313
1144463402.109,0.677293,0.701928,-0.039212
1144463402.119,0.767533,0.482728,-0.214787
1144463402.129,0.861697,0.451414,-0.214787
1144463402.139,0.849926,0.490557,-0.164066
1144463402.149,0.857773,0.447500,-0.101639
1144463402.159,0.853850,0.498385,-0.031409
1144463402.169,0.810692,0.580585,0.015412
1144463402.178,0.747916,0.607985,-0.093835
1144463402.189,0.767533,0.486643,-0.148459
1144463402.199,0.877391,0.474900,-0.156262
1144463402.209,0.861697,0.463157,-0.160164
1144463402.218,0.861697,0.396614,-0.078229
1144463402.229,0.897008,0.416186,-0.062622
1144463402.238,0.846003,0.482728,-0.050917
1144463402.248,0.826385,0.494471,-0.054819
1144463402.258,0.802845,0.514043,-0.160164
1144463402.268,0.830309,0.439671,-0.179672
1144463402.278,0.877391,0.392700,-0.191377
1144463402.288,0.893085,0.365300,-0.125049
1144463402.298,0.900932,0.333986,-0.078229
1144463402.308,0.928396,0.310500,-0.050917
1144463402.318,0.889161,0.443585,-0.082130
1144463402.328,0.802845,0.459243,-0.183574
1144463402.338,0.842079,0.384871,-0.167967
1144463402.348,0.904855,0.455328,-0.171869
1144463402.358,0.869544,0.290929,-0.121147
1144463402.368,0.955861,0.271357,-0.121147
1144463402.378,0.900932,0.337900,-0.101639
1144463402.388,0.865620,0.369214,-0.105540
1144463402.398,0.849926,0.373128,-0.179672
1144463402.408,0.869544,0.353557,-0.199181
1144463402.418,0.908779,0.298757,-0.171869
1144463402.428,0.912702,0.251786,-0.183574
1144463402.438,0.940167,0.048243,-0.132852
1144463402.448,1.006866,0.177415,-0.132852
1144463402.458,0.920549,0.396614,-0.109442
1144463402.468,0.861697,0.384871,-0.187476
1144463402.478,0.861697,0.255700,-0.257706
1144463402.488,0.881314,0.193072,-0.210886
1144463402.498,0.955861,0.208729,-0.187476
1144463402.508,0.940167,0.189157,-0.203082
1144463402.518,0.893085,0.075643,-0.167967
1144463402.529,0.975478,0.169586,-0.222591
1144463402.538,0.897008,0.181329,-0.210886
1144463402.548,0.932320,0.177415,-0.269411
1144463402.558,0.924473,0.079558,-0.203082
1144463402.568,0.963708,0.056072,-0.144557
1144463402.578,0.987249,0.032586,-0.144557
1144463402.587,0.955861,-0.069185,-0.121147
1144463402.598,0.963708,-0.163127,-0.136754
1144463402.608,0.991172,-0.147470,-0.113344
1144463402.618,0.991172,-0.041785,-0.121147
1144463402.627,0.924473,-0.010471,-0.195279
1144463402.638,0.936243,-0.084842,-0.203082
1144463402.648,0.912702,-0.151385,-0.249902
1144463402.658,0.920549,-0.182699,-0.222591
1144463402.668,0.951937,-0.135728,-0.195279
1144463402.678,0.948014,-0.186613,-0.203082
1144463402.688,0.936243,-0.131813,-0.226492
1144463402.698,0.916626,-0.033956,-0.249902
1144463402.708,0.912702,-0.018299,-0.222591
1144463402.718,0.908779,-0.010471,-0.246001
1144463402.728,0.959784,0.032586,-0.242099
1144463402.738,0.948014,0.013015,-0.171869
1144463402.747,0.975478,-0.077013,-0.214787
1144463402.758,0.955861,-0.065271,-0.191377
1144463402.768,0.979402,-0.069185,-0.136754
1144463402.778,0.983325,-0.092670,-0.183574
1144463402.788,0.963708,-0.100499,-0.136754
1144463402.798,0.936243,-0.131813,-0.144557
1144463402.808,0.932320,-0.022214,-0.261607
1144463402.817,0.955861,0.181329,-0.269411
1144463402.827,0.881314,0.220472,-0.269411
1144463402.837,0.908779,0.059986,-0.261607
1144463402.847,0.955861,0.016929,-0.187476
1144463402.858,0.999019,0.028672,-0.148459
1144463402.867,0.971555,-0.096585,-0.125049
1144463402.877,0.955861,-0.151385,-0.105540
1144463402.887,0.948014,0.185243,-0.269411
1144463402.898,0.889161,0.412271,-0.339641
1144463402.907,0.806768,0.283100,-0.285018
1144463402.917,0.889161,0.157843,-0.253804
1144463402.927,0.948014,0.220472,-0.167967
1144463402.937,0.940167,0.079558,-0.093835
1144463402.947,1.002943,-0.030042,-0.101639
1144463402.957,0.920549,-0.065271,-0.109442
1144463402.967,0.928396,0.596242,-0.253804
1144463402.977,0.794998,0.744985,-0.167967
1144463402.987,0.791074,0.322243,-0.203082
1144463402.998,0.940167,0.255700,-0.164066
1144463403.007,0.955861,0.330071,-0.136754
1144463403.017,0.959784,0.212643,-0.183574
1144463403.027,0.959784,0.126529,-0.074327
1144463403.037,0.904855,0.103043,-0.097737
1144463403.047,0.877391,0.631471,-0.156262
1144463403.057,0.724375,0.482728,-0.086032
1144463403.067,0.861697,0.427928,-0.128950
1144463403.077,0.889161,0.596242,-0.121147
1144463403.087,0.783227,0.443585,-0.191377
1144463403.097,0.959784,0.251786,-0.175771
1144463403.107,0.924473,0.306586,-0.140655
1144463403.117,0.779304,0.623642,-0.152361
1144463403.127,0.747916,0.514043,-0.070425
1144463403.137,0.814615,0.404443,-0.043114
1144463403.147,0.822462,0.553185,-0.093835
1144463403.157,0.842079,0.514043,-0.109442
1144463403.177,0.798921,0.557100,-0.136754
1144463403.187,0.834232,0.533614,-0.191377
1144463403.197,0.830309,0.561014,-0.132852
1144463403.207,0.747916,0.553185,-0.086032
1144463403.217,0.865620,0.533614,-0.054819
1144463403.227,0.791074,0.459243,0.089543
1144463403.237,0.767533,0.776299,-0.019703
1144463403.247,0.740069,0.588414,-0.086032
1144463403.257,0.657675,0.709756,-0.171869
1144463403.267,0.826385,0.502300,-0.136754
1144463403.278,0.904855,0.521871,-0.039212
1144463403.287,0.798921,0.588414,-0.011900
1144463403.297,0.842079,0.451414,0.042723
1144463403.307,0.806768,0.502300,0.077838
1144463403.317,0.755763,0.658871,-0.043114
1144463403.327,0.736145,0.498385,-0.015802
1144463403.337,0.771457,0.682356,-0.121147
1144463403.347,0.751839,0.604071,-0.156262
1144463403.357,0.787151,0.557100,-0.082130
1144463403.367,0.798921,0.529700,-0.070425
1144463403.377,0.818539,0.490557,0.023215
1144463403.386,0.728298,0.729328,0.062232
1144463403.397,0.665522,0.670614,-0.035310
1144463403.407,0.794998,0.541442,-0.164066
1144463403.417,0.865620,0.459243,-0.109442
1144463403.427,0.830309,0.588414,-0.078229
1144463403.437,0.794998,0.564928,-0.047015
1144463403.447,0.751839,0.549271,-0.015802
1144463403.456,0.794998,0.604071,0.011510
1144463403.467,0.689063,0.733242,-0.015802
1144463403.476,0.771457,0.545357,-0.109442
1144463403.486,0.865620,0.490557,-0.160164
1144463403.496,0.802845,0.580585,-0.117245
1144463403.506,0.775380,0.553185,-0.101639
1144463403.516,0.814615,0.510128,-0.015802
1144463403.526,0.779304,0.639299,0.050527
1144463403.536,0.708681,0.678442,-0.019703
1144463403.546,0.787151,0.557100,-0.121147
1144463403.556,0.818539,0.533614,-0.101639
1144463403.566,0.783227,0.588414,-0.109442
1144463403.576,0.787151,0.545357,-0.128950
1144463403.586,0.806768,0.521871,-0.070425
1144463403.596,0.802845,0.576671,-0.015802
1144463403.606,0.759686,0.639299,0.027117
1144463403.616,0.704757,0.643214,-0.101639
1144463403.626,0.806768,0.517957,-0.164066
1144463403.636,0.857773,0.521871,-0.148459
1144463403.646,0.783227,0.553185,-0.140655
1144463403.656,0.834232,0.478814,-0.089934
1144463403.666,0.822462,0.517957,-0.047015
1144463403.676,0.775380,0.635385,-0.019703
1144463403.686,0.700834,0.596242,-0.113344
1144463403.696,0.806768,0.486643,-0.187476
1144463403.714,0.838156,0.512085,-0.136754
1144463403.724,0.846003,0.502300,-0.066524
1144463403.734,0.840118,0.529700,-0.017753
1144463403.744,0.804806,0.549271,0.007608
1144463403.754,0.761648,0.600157,-0.087983
1144463403.764,0.781265,0.541442,-0.130901
1144463403.774,0.838156,0.488600,-0.169918
1144463403.784,0.836194,0.500343,-0.150410
1144463403.794,0.840118,0.447500,-0.117245
1144463403.804,0.891123,0.394657,-0.050917
1144463403.814,0.885238,0.461200,-0.043114
1144463403.824,0.822462,0.474900,-0.050917
1144463403.834,0.783227,0.566885,-0.144557
1144463403.844,0.789112,0.594285,-0.144557
1144463403.854,0.859735,0.441628,-0.142606
1144463403.864,0.887200,0.392700,-0.136754
1144463403.874,0.885238,0.349643,-0.119196
1144463403.884,0.898970,0.347686,-0.076278
1144463403.894,0.914664,0.357471,-0.045064
1144463403.904,0.871506,0.455328,-0.113344
1144463403.914,0.814615,0.508171,-0.175771
1144463403.924,0.849926,0.445543,-0.138705
1144463403.935,0.883276,0.418143,-0.164066
1144463403.944,0.887200,0.337900,-0.175771
1144463403.954,0.893085,0.287014,-0.148459
1144463403.964,0.916626,0.232215,-0.078229
1144463403.974,0.908779,0.406400,-0.107491
1144463403.984,0.816577,0.469028,-0.205033
1144463403.994,0.875429,0.361386,-0.160164
1144463404.004,0.918588,0.285057,-0.148459
1144463404.014,0.910741,0.308543,-0.179672
1144463404.024,0.895047,0.251786,-0.142606
1144463404.034,0.932320,0.290929,-0.113344
1144463404.044,0.898970,0.410314,-0.105540
1144463404.054,0.851888,0.390743,-0.171869
1144463404.064,0.885238,0.277229,-0.218689
1144463404.074,0.924473,0.179372,-0.193328
1144463404.084,0.965669,0.114786,-0.160164
1144463404.094,0.975478,0.112829,-0.111393
1144463404.104,0.953899,0.224386,-0.136754
1144463404.114,0.910741,0.275272,-0.101639
1144463404.124,0.908779,0.196986,-0.140655
1144463404.134,0.948014,0.093258,-0.142606
1144463404.144,0.977440,0.091301,-0.125049
1144463404.154,0.963708,0.106958,-0.111393
1144463404.164,0.949975,0.097172,-0.138705
1144463404.174,0.944090,0.171543,-0.191377
1144463404.184,0.906817,0.187200,-0.228443
1144463404.194,0.920549,0.081515,-0.216738
1144463404.204,0.963708,0.046286,-0.197230
1144463404.276,0.951937,-0.080928,-0.144557
1144463404.277,0.999019,-0.157256,-0.078229
1144463404.277,0.969593,0.038458,-0.119196
1144463404.278,0.963708,0.146100,-0.160164
1144463404.278,0.951937,0.075643,-0.205033
1144463404.278,0.932320,-0.110285,-0.267460
1144463404.279,0.948014,-0.217927,-0.177721
1144463404.283,0.942129,-0.362756,-0.103590
1144463404.293,0.934282,-0.482141,-0.078229
1144463404.303,0.949975,-0.141599,-0.181623
1144463404.313,0.948014,0.148058,-0.247952
1144463404.323,0.906817,0.079558,-0.269411
1144463404.333,0.922511,-0.035913,-0.271362
1144463404.343,0.928396,0.056072,-0.228443
1144463404.353,0.932320,-0.010471,-0.181623
1144463404.363,0.959784,-0.147470,-0.195279
1144463404.373,0.959784,-0.174870,-0.187476
1144463404.383,0.942129,-0.139642,-0.162115
1144463404.393,0.953899,-0.141599,-0.166016
1144463404.404,0.975478,-0.112242,-0.164066
1144463404.413,0.969593,-0.004599,-0.144557
1144463404.423,0.957823,0.003229,-0.160164
1144463404.433,0.944090,0.009101,-0.177721
1144463404.443,0.949975,0.101086,-0.242099
1144463404.453,0.934282,0.046286,-0.199181
1144463404.463,0.949975,-0.020256,-0.156262
1144463404.473,0.965669,0.013015,-0.189426
1144463404.483,0.942129,-0.012428,-0.113344
1144463404.493,0.942129,0.150015,-0.224542
1144463404.503,0.922511,0.353557,-0.267460
1144463404.513,0.842079,0.316371,-0.199181
1144463404.523,0.902894,0.195029,-0.238197
1144463404.533,0.967631,0.144143,-0.166016
1144463404.543,0.936243,-0.037871,-0.043114
1144463404.553,0.977440,0.167629,-0.210886
1144463404.563,0.914664,0.396614,-0.208935
1144463404.573,0.824424,0.490557,-0.162115
1144463404.583,0.847965,0.469028,-0.214787
1144463404.593,0.895047,0.384871,-0.164066
1144463404.603,0.938205,0.169586,-0.136754
1144463404.613,1.016675,0.056072,-0.064573
1144463404.623,1.020598,0.001272,-0.004097
1144463404.633,0.898970,0.508171,-0.078229
1144463404.643,0.704757,0.578628,-0.117245
1144463404.653,0.800883,0.480771,-0.132852
1144463404.663,0.906817,0.539485,-0.113344
1144463404.673,0.889161,0.363343,-0.068474
1144463404.685,0.951937,0.257657,-0.047015
1144463404.693,0.999019,0.441628,-0.060671
1144463404.703,0.826385,0.449457,-0.048966
1144463404.713,0.749877,0.561014,-0.166016
1144463404.723,0.716528,0.559057,-0.125049
1144463404.733,0.742030,0.549271,-0.134803
1144463404.743,0.932320,0.557100,-0.164066
1144463404.753,0.832271,0.465114,-0.103590
1144463404.763,0.812653,0.496428,-0.041163
1144463404.773,0.881314,0.547314,-0.029458
1144463404.783,0.789112,0.537528,-0.074327
1144463404.793,0.726337,0.684314,-0.195279
1144463404.803,0.732222,0.611899,-0.216738
1144463404.813,0.838156,0.469028,-0.132852
1144463404.823,0.814615,0.494471,-0.060671
1144463404.833,0.836194,0.545357,-0.013851
1144463404.843,0.787151,0.606028,-0.019703
1144463404.853,0.673369,0.647128,-0.097737
1144463404.864,0.720451,0.674528,-0.148459
1144463404.873,0.724375,0.674528,-0.220640
1144463404.883,0.781265,0.537528,-0.242099
1144463404.893,0.836194,0.490557,-0.205033
1144463404.903,0.798921,0.480771,-0.125049
1144463404.913,0.793036,0.647128,-0.050917
1144463404.923,0.675331,0.715628,-0.045064
1144463404.933,0.610593,0.719542,-0.056769
1144463404.943,0.724375,0.637342,-0.144557
1144463404.953,0.859735,0.529700,-0.125049
1144463404.963,0.767533,0.588414,-0.093835
1144463404.973,0.753801,0.623642,-0.064573
1144463404.983,0.757724,0.635385,-0.052868
1144463404.993,0.687102,0.672571,-0.017753
1144463405.003,0.706719,0.672571,-0.021654
1144463405.013,0.796959,0.625599,-0.089934
1144463405.023,0.794998,0.576671,-0.103590
1144463405.033,0.779304,0.582542,-0.084081
1144463405.043,0.773418,0.586457,-0.058720
1144463405.053,0.755763,0.649085,-0.019703
1144463405.063,0.681216,0.707799,-0.015802
1144463405.073,0.702796,0.647128,-0.089934
1144463405.083,0.783227,0.547314,-0.127000
1144463405.093,0.804806,0.576671,-0.175771
1144463405.103,0.765571,0.590371,-0.166016
1144463405.113,0.793036,0.504257,-0.128950
1144463405.123,0.796959,0.596242,-0.019703
1144463405.133,0.698872,0.698014,0.009559
1144463405.143,0.714566,0.656914,-0.074327
1144463405.154,0.787151,0.564928,-0.158213
1144463405.163,0.826385,0.545357,-0.160164
1144463405.173,0.775380,0.588414,-0.142606
1144463405.183,0.783227,0.539485,-0.101639
1144463405.193,0.826385,0.476857,-0.078229
1144463405.203,0.812653,0.566885,-0.023605
1144463405.213,0.704757,0.725413,0.011510
1144463405.223,0.732222,0.604071,-0.078229
1144463405.233,0.853850,0.469028,-0.166016
1144463405.243,0.816577,0.539485,-0.160164
1144463405.253,0.761648,0.586457,-0.162115
1144463405.263,0.791074,0.512085,-0.127000
1144463405.273,0.822462,0.504257,-0.115295
1144463405.283,0.775380,0.586457,-0.117245
1144463405.292,0.765571,0.574714,-0.113344
1144463405.302,0.808730,0.496428,-0.148459
1144463405.312,0.820500,0.539485,-0.160164
1144463405.322,0.802845,0.547314,-0.134803
1144463405.332,0.816577,0.496428,-0.086032
1144463405.342,0.836194,0.514043,-0.078229
1144463405.352,0.798921,0.553185,-0.052868
1144463405.362,0.783227,0.580585,-0.082130
1144463405.372,0.793036,0.598199,-0.109442
1144463405.382,0.826385,0.480771,-0.179672
1144463405.392,0.830309,0.472943,-0.169918
1144463405.402,0.855812,0.429885,-0.107491
1144463405.412,0.891123,0.394657,-0.062622
1144463405.422,0.857773,0.490557,-0.033359
1144463405.432,0.828347,0.541442,-0.072376
1144463405.442,0.818539,0.490557,-0.158213
1144463405.452,0.836194,0.439671,-0.154311
1144463405.462,0.849926,0.424014,-0.181623
1144463405.472,0.879353,0.414228,-0.158213
1144463405.482,0.885238,0.332029,-0.113344
1144463405.492,0.924473,0.365300,-0.064573
1144463405.502,0.847965,0.519914,-0.107491
1144463405.512,0.791074,0.472943,-0.169918
1144463405.522,0.873467,0.359428,-0.140655
1144463405.532,0.906817,0.341814,-0.166016
1144463405.542,0.908779,0.343771,-0.119196
1144463405.552,0.897008,0.441628,-0.156262
1144463405.562,0.867582,0.400528,-0.132852
1144463405.572,0.883276,0.394657,-0.130901
1144463405.582,0.853850,0.443585,-0.128950
1144463405.592,0.849926,0.404443,-0.162115
1144463405.602,0.869544,0.306586,-0.152361
1144463405.612,0.920549,0.249829,-0.154311
1144463405.623,0.942129,0.265486,-0.158213
1144463405.632,0.910741,0.347686,-0.144557
1144463405.642,0.895047,0.343771,-0.130901
1144463405.652,0.893085,0.384871,-0.195279
1144463405.662,0.836194,0.429885,-0.222591
1144463405.672,0.857773,0.273314,-0.183574
1144463405.682,0.963708,0.059986,-0.115295
1144463405.692,1.006866,0.120658,-0.093835
1144463405.702,0.936243,0.279186,-0.082130
1144463405.712,0.910741,0.322243,-0.148459
1144463405.722,0.902894,0.294843,-0.195279
1144463405.732,0.908779,0.230257,-0.177721
1144463405.742,0.926435,0.238086,-0.183574
1144463405.751,0.893085,0.159800,-0.158213
1144463405.762,0.965669,0.046286,-0.148459
1144463405.772,1.008828,0.056072,-0.138705
1144463405.782,0.963708,0.106958,-0.148459
1144463405.792,0.944090,0.159800,-0.146508
1144463405.802,0.928396,0.200900,-0.175771
1144463405.812,0.908779,0.118700,-0.179672
1144463405.822,0.949975,0.005186,-0.181623
1144463405.832,0.983325,-0.010471,-0.183574
1144463405.842,0.965669,-0.084842,-0.132852
1144463405.852,0.989210,-0.145513,-0.125049
1144463405.862,0.981363,-0.100499,-0.146508
1144463405.872,0.949975,-0.061356,-0.197230
1144463405.882,0.940167,-0.100499,-0.208935
1144463405.892,0.914664,-0.174870,-0.197230
1144463405.903,0.916626,-0.237499,-0.177721
1144463405.912,0.912702,-0.257070,-0.160164
1144463405.922,0.957823,-0.147470,-0.212837
1144463405.932,0.961746,-0.049613,-0.210886
1144463405.942,0.928396,-0.045699,-0.208935
1144463405.952,0.942129,-0.026128,-0.244050
1144463405.962,0.922511,0.046286,-0.224542
1144463405.972,0.934282,0.022801,-0.220640
1144463405.982,0.946052,-0.030042,-0.173820
1144463405.992,0.955861,-0.047656,-0.171869
1144463406.001,0.971555,-0.051571,-0.160164
1144463406.012,0.975478,-0.059399,-0.154311
1144463406.022,0.989210,-0.037871,-0.171869
1144463406.031,0.953899,-0.118113,-0.115295
1144463406.041,1.000981,-0.028085,-0.154311
1144463406.051,0.949975,0.144143,-0.162115
1144463406.061,0.916626,0.079558,-0.214787
1144463406.071,0.936243,0.018886,-0.193328
1144463406.081,0.895047,0.122615,-0.234296
1144463406.092,0.928396,0.146100,-0.261607
1144463406.101,0.953899,0.114786,-0.191377
1144463406.111,0.944090,0.075643,-0.191377
1144463406.121,0.948014,0.034544,-0.166016
1144463406.131,0.908779,-0.033956,-0.107491
1144463406.141,0.969593,0.240043,-0.218689
1144463406.151,0.867582,0.408357,-0.199181
1144463406.161,0.806768,0.343771,-0.261607
1144463406.171,0.851888,0.351600,-0.337690
1144463406.181,0.898970,0.355514,-0.177721
1144463406.191,0.942129,0.210686,-0.095786
1144463406.201,0.967631,0.245914,-0.093835
1144463406.211,0.920549,0.257657,-0.070425
1144463406.221,0.910741,0.150015,-0.121147
1144463406.231,0.926435,0.333986,-0.164066
1144463406.241,0.761648,0.420100,-0.177721
1144463406.251,0.859735,0.566885,-0.230394
1144463406.261,0.908779,0.412271,-0.101639
1144463406.271,0.887200,0.380957,-0.048966
1144463406.281,0.889161,0.482728,-0.006048
1144463406.291,0.869544,0.414228,-0.066524
1144463406.301,0.908779,0.310500,-0.127000
1144463406.311,0.883276,0.504257,-0.154311
1144463406.321,0.793036,0.478814,-0.136754
1144463406.331,0.810692,0.529700,-0.132852
1144463406.341,0.840118,0.435757,-0.050917
1144463406.351,0.855812,0.470985,-0.021654
1144463406.361,0.816577,0.625599,-0.119196
1144463406.372,0.706719,0.647128,-0.164066
1144463406.380,0.718489,0.696056,-0.283067
1144463406.391,0.751839,0.568842,-0.269411
1144463406.401,0.846003,0.422057,-0.144557
1144463406.411,0.865620,0.425971,-0.068474
1144463406.421,0.846003,0.476857,-0.013851
1144463406.431,0.789112,0.703885,-0.027507
1144463406.441,0.636096,0.741071,-0.039212
1144463406.451,0.638058,0.717585,-0.142606
1144463406.461,0.793036,0.566885,-0.230394
1144463406.471,0.887200,0.496428,-0.146508
1144463406.481,0.802845,0.570800,-0.109442
1144463406.491,0.769495,0.629514,-0.031409
1144463406.501,0.722413,0.645171,-0.004097
1144463406.511,0.718489,0.662785,-0.033359
1144463406.521,0.691025,0.717585,-0.125049
1144463406.531,0.720451,0.639299,-0.183574
1144463406.541,0.838156,0.492514,-0.156262
1144463406.551,0.814615,0.529700,-0.113344
1144463406.561,0.779304,0.607985,-0.060671
1144463406.571,0.781265,0.568842,-0.035310
1144463406.581,0.759686,0.564928,-0.035310
1144463406.591,0.745954,0.652999,-0.086032
1144463406.601,0.714566,0.641257,-0.099688
1144463406.611,0.736145,0.615814,-0.130901
1144463406.621,0.769495,0.494471,-0.166016
1144463406.631,0.861697,0.498385,-0.084081
1144463406.641,0.834232,0.572757,-0.011900
1144463406.651,0.743992,0.645171,0.032969
1144463406.661,0.720451,0.668656,0.001756
1144463406.671,0.749877,0.621685,-0.064573
1144463406.681,0.798921,0.562971,-0.084081
1144463406.691,0.814615,0.549271,-0.086032
1144463406.700,0.796959,0.586457,-0.125049
1144463406.711,0.789112,0.568842,-0.058720
1144463406.721,0.781265,0.562971,-0.000195
1144463406.731,0.745954,0.654957,0.029067
1144463406.741,0.740069,0.621685,-0.031409
1144463406.751,0.824424,0.533614,-0.093835
1144463406.761,0.814615,0.535571,-0.086032
1144463406.771,0.777342,0.580585,-0.084081
1144463406.781,0.798921,0.512085,-0.050917
1144463406.791,0.824424,0.537528,-0.000195
1144463406.801,0.789112,0.639299,0.021264
1144463406.811,0.740069,0.621685,-0.029458
1144463406.821,0.779304,0.561014,-0.095786
1144463406.831,0.816577,0.506214,-0.132852
1144463406.842,0.820500,0.508171,-0.142606
1144463406.851,0.796959,0.561014,-0.097737
1144463406.862,0.800883,0.564928,-0.027507
1144463406.871,0.794998,0.596242,-0.033359
1144463406.881,0.751839,0.611899,-0.093835
1144463406.891,0.791074,0.539485,-0.107491
1144463406.901,0.812653,0.537528,-0.152361
1144463406.911,0.812653,0.553185,-0.138705
1144463406.921,0.796959,0.529700,-0.130901
1144463406.931,0.820500,0.490557,-0.101639
1144463406.941,0.787151,0.611899,-0.097737
1144463406.951,0.732222,0.607985,-0.113344
1144463406.961,0.802845,0.480771,-0.205033
1144463406.971,0.849926,0.496428,-0.195279
1144463406.981,0.806768,0.519914,-0.171869
1144463406.991,0.834232,0.439671,-0.121147
1144463407.000,0.869544,0.461200,-0.082130
1144463407.011,0.793036,0.568842,-0.072376
1144463407.021,0.787151,0.566885,-0.099688
1144463407.031,0.798921,0.545357,-0.154311
1144463407.040,0.824424,0.480771,-0.173820
1144463407.051,0.840118,0.476857,-0.166016
1144463407.060,0.859735,0.433800,-0.107491
1144463407.070,0.881314,0.406400,-0.089934
1144463407.080,0.879353,0.414228,-0.056769
1144463407.090,0.851888,0.453371,-0.056769
1144463407.100,0.816577,0.506214,-0.103590
1144463407.110,0.836194,0.516000,-0.150410
1144463407.122,0.842079,0.418143,-0.179672
1144463407.130,0.869544,0.382914,-0.167967
1144463407.140,0.889161,0.343771,-0.132852
1144463407.150,0.906817,0.343771,-0.076278
1144463407.160,0.908779,0.345729,-0.052868
1144463407.170,0.900932,0.380957,-0.091885
1144463407.180,0.853850,0.459243,-0.150410
1144463407.190,0.836194,0.439671,-0.173820
1144463407.200,0.879353,0.388786,-0.167967
1144463407.210,0.898970,0.347686,-0.152361
1144463407.220,0.904855,0.337900,-0.148459
1144463407.230,0.893085,0.353557,-0.128950
1144463407.240,0.891123,0.298757,-0.138705
1144463407.250,0.891123,0.335943,-0.171869
1144463407.260,0.879353,0.377043,-0.191377
1144463407.270,0.887200,0.302671,-0.191377
1144463407.280,0.893085,0.255700,-0.195279
1144463407.290,0.902894,0.279186,-0.181623
1144463407.300,0.906817,0.290929,-0.144557
1144463407.310,0.891123,0.353557,-0.164066
1144463407.320,0.879353,0.384871,-0.193328
1144463407.330,0.883276,0.257657,-0.203082
1144463407.340,0.944090,0.134358,-0.183574
1144463407.350,0.948014,0.151972,-0.166016
1144463407.360,0.932320,0.114786,-0.134803
1144463407.370,0.981363,0.136315,-0.130901
1144463407.380,0.955861,0.226343,-0.111393
1144463407.389,0.936243,0.198943,-0.132852
1144463407.400,0.924473,0.175457,-0.195279
1144463407.410,0.918588,0.056072,-0.142606
1144463407.420,0.969593,0.058029,-0.134803
1144463407.430,0.940167,0.200900,-0.140655
1144463407.440,0.928396,0.079558,-0.220640
1144463407.450,0.979402,-0.037871,-0.156262
1144463407.460,0.965669,-0.026128,-0.138705
1144463407.470,0.973516,0.110872,-0.162115
1144463407.480,0.934282,0.220472,-0.179672
1144463407.490,0.918588,0.114786,-0.205033
1144463407.500,0.951937,0.063901,-0.244050
1144463407.510,0.957823,0.005186,-0.164066
1144463407.520,0.967631,-0.123985,-0.128950
1144463407.530,0.975478,-0.225756,-0.128950
1144463407.540,0.948014,-0.170956,-0.146508
1144463407.550,0.938205,-0.106370,-0.218689
1144463407.560,0.928396,-0.037871,-0.246001
1144463407.570,0.922511,0.044329,-0.257706
1144463407.580,0.928396,-0.028085,-0.230394
1144463407.591,0.934282,-0.092670,-0.195279
1144463407.600,0.942129,-0.049613,-0.171869
1144463407.610,0.957823,0.001272,-0.206984
1144463407.620,0.948014,-0.024171,-0.224542
1144463407.630,0.942129,-0.022214,-0.218689
1144463407.640,0.940167,-0.031999,-0.214787
1144463407.650,0.944090,-0.014385,-0.197230
1144463407.660,0.951937,0.001272,-0.175771
1144463407.670,0.953899,-0.012428,-0.167967
1144463407.680,0.965669,-0.024171,-0.177721
1144463407.690,0.957823,0.007144,-0.201131
1144463407.700,0.946052,0.028672,-0.201131
1144463407.710,0.942129,0.014972,-0.218689
1144463407.720,0.936243,-0.010471,-0.216738
1144463407.730,0.961746,0.009101,-0.199181
1144463407.740,0.940167,0.009101,-0.181623
1144463407.750,0.946052,-0.024171,-0.173820
1144463407.760,0.946052,-0.020256,-0.164066
1144463407.770,0.959784,0.016929,-0.187476
1144463407.779,0.955861,0.114786,-0.195279
1144463407.789,0.936243,0.050201,-0.218689
1144463407.799,0.953899,0.005186,-0.197230
1144463407.809,0.949975,0.046286,-0.140655
1144463407.820,0.963708,0.020844,-0.119196
1144463407.829,0.971555,0.026715,-0.127000
1144463407.839,0.944090,0.095215,-0.150410
1144463407.849,0.944090,0.206772,-0.222591
1144463407.859,0.895047,0.122615,-0.214787
1144463407.869,0.955861,0.112829,-0.197230
1144463407.880,0.963708,0.165672,-0.138705
1144463407.889,0.953899,0.144143,-0.138705
1144463407.899,0.965669,0.138272,-0.142606
1144463407.909,0.944090,0.155886,-0.142606
1144463407.919,0.910741,0.175457,-0.205033
1144463407.929,0.906817,0.108915,-0.158213
1144463407.939,0.951937,0.059986,-0.132852
1144463407.949,0.967631,0.314414,-0.167967
1144463407.959,0.889161,0.353557,-0.150410
1144463407.969,0.924473,0.220472,-0.160164
1144463407.979,0.963708,0.214600,-0.156262
1144463407.989,0.948014,0.228300,-0.123098
1144463407.999,0.946052,0.236129,-0.132852
1144463408.009,0.900932,0.290929,-0.130901
1144463408.019,0.877391,0.279186,-0.158213
1144463408.029,0.897008,0.167629,-0.123098
1144463408.039,0.965669,0.275272,-0.160164
1144463408.049,0.902894,0.337900,-0.181623
1144463408.060,0.873467,0.226343,-0.171869
1144463408.069,0.942129,0.298757,-0.152361
1144463408.078,0.898970,0.347686,-0.150410
1144463408.089,0.865620,0.422057,-0.111393
1144463408.099,0.851888,0.416186,-0.099688
1144463408.109,0.861697,0.322243,-0.121147
1144463408.119,0.934282,0.351600,-0.119196
1144463408.129,0.893085,0.253743,-0.119196
1144463408.139,0.957823,0.328114,-0.125049
1144463408.149,0.918588,0.457285,-0.087983
1144463408.158,0.855812,0.422057,-0.068474
1144463408.169,0.883276,0.437714,-0.060671
1144463408.178,0.895047,0.427928,-0.033359
1144463408.189,0.910741,0.355514,-0.050917
1144463408.199,0.914664,0.418143,-0.091885
1144463408.209,0.865620,0.416186,-0.099688
1144463408.219,0.859735,0.435757,-0.144557
1144463408.229,0.867582,0.404443,-0.099688
1144463408.239,0.881314,0.326157,-0.074327
1144463408.248,0.904855,0.402486,-0.111393
1144463408.259,0.842079,0.441628,-0.084081
1144463408.269,0.830309,0.429885,-0.105540
1144463408.278,0.853850,0.467071,-0.146508
1144463408.289,0.851888,0.392700,-0.128950
1144463408.299,0.859735,0.406400,-0.119196
1144463408.309,0.879353,0.469028,-0.103590
1144463408.319,0.867582,0.398571,-0.052868
1144463408.329,0.902894,0.386828,-0.031409
1144463408.339,0.865620,0.570800,-0.023605
1144463408.349,0.849926,0.490557,-0.041163
1144463408.358,0.855812,0.459243,-0.084081
1144463408.369,0.873467,0.461200,-0.091885
1144463408.378,0.897008,0.449457,-0.074327
1144463408.389,0.846003,0.447500,-0.089934
1144463408.399,0.857773,0.433800,-0.097737
1144463408.408,0.853850,0.422057,-0.099688
1144463408.419,0.855812,0.455328,-0.091885
1144463408.429,0.847965,0.504257,-0.119196
1144463408.439,0.838156,0.453371,-0.156262
1144463408.449,0.873467,0.377043,-0.130901
1144463408.459,0.875429,0.394657,-0.105540
1144463408.469,0.885238,0.347686,-0.070425
1144463408.478,0.902894,0.472943,-0.013851
1144463408.489,0.842079,0.500343,-0.035310
1144463408.499,0.867582,0.412271,-0.062622
1144463408.509,0.863659,0.455328,-0.097737
1144463408.519,0.863659,0.425971,-0.082130
1144463408.529,0.898970,0.365300,-0.078229
1144463408.539,0.881314,0.484685,-0.103590
1144463408.548,0.810692,0.492514,-0.119196
1144463408.559,0.853850,0.398571,-0.121147
1144463408.568,0.891123,0.371171,-0.072376
1144463408.578,0.885238,0.367257,-0.070425
1144463408.589,0.900932,0.429885,-0.066524
1144463408.598,0.828347,0.533614,-0.054819
1144463408.608,0.814615,0.459243,-0.115295
1144463408.618,0.891123,0.363343,-0.162115
1144463408.628,0.885238,0.449457,-0.128950
1144463408.638,0.867582,0.431843,-0.101639
1144463408.648,0.891123,0.333986,-0.078229
1144463408.658,0.902894,0.386828,-0.047015
1144463408.668,0.865620,0.504257,-0.052868
1144463408.678,0.826385,0.459243,-0.117245
1144463408.688,0.881314,0.382914,-0.121147
1144463408.698,0.904855,0.349643,-0.117245
1144463408.708,0.912702,0.363343,-0.091885
1144463408.718,0.900932,0.326157,-0.076278
1144463408.728,0.924473,0.302671,-0.048966
1144463408.738,0.895047,0.420100,-0.047015
1144463408.748,0.849926,0.445543,-0.089934
1144463408.758,0.873467,0.365300,-0.093835
1144463408.768,0.924473,0.300714,-0.101639
1144463408.778,0.940167,0.281143,-0.076278
1144463408.788,0.944090,0.281143,-0.045064
1144463408.798,0.926435,0.320286,-0.017753
1144463408.810,0.906817,0.353557,-0.076278
1144463408.819,0.885238,0.414228,-0.121147
1144463408.828,0.883276,0.341814,-0.148459
1144463408.838,0.924473,0.302671,-0.134803
1144463408.848,0.916626,0.251786,-0.130901
1144463408.859,0.975478,0.185243,-0.086032
1144463408.868,0.946052,0.328114,-0.048966
1144463408.878,0.902894,0.379000,-0.060671
1144463408.888,0.920549,0.288972,-0.093835
1144463408.898,0.922511,0.267443,-0.097737
1144463408.908,0.938205,0.224386,-0.089934
1144463408.918,0.961746,0.195029,-0.084081
1144463408.928,0.948014,0.195029,-0.080179
1144463408.938,0.946052,0.159800,-0.087983
1144463408.948,0.948014,0.191115,-0.087983
1144463408.958,0.924473,0.204815,-0.089934
1144463408.968,0.948014,0.216557,-0.107491
1144463408.978,0.926435,0.236129,-0.140655
1144463408.988,0.934282,0.155886,-0.127000
1144463408.998,0.967631,0.061943,-0.123098
1144463409.008,0.963708,0.087386,-0.089934
1144463409.018,0.967631,0.059986,-0.084081
1144463409.028,0.979402,0.016929,-0.082130
1144463409.038,0.973516,0.091301,-0.087983
1144463409.048,0.951937,0.247872,-0.072376
1144463409.058,0.924473,0.200900,-0.177721
1144463409.068,0.928396,0.079558,-0.206984
1144463409.078,0.948014,-0.000685,-0.154311
1144463409.087,0.987249,-0.045699,-0.127000
1144463409.098,0.989210,-0.008514,-0.148459
1144463409.108,0.959784,0.075643,-0.156262
1144463409.118,0.955861,-0.008514,-0.136754
1144463409.128,0.944090,-0.037871,-0.136754
1144463409.138,0.953899,-0.102456,-0.121147
1144463409.148,0.951937,-0.204227,-0.091885
1144463409.158,0.969593,-0.192485,-0.169918
1144463409.168,0.971555,-0.080928,-0.173820
1144463409.178,0.942129,-0.033956,-0.162115
1144463409.188,0.944090,-0.094628,-0.160164
1144463409.198,0.959784,-0.020256,-0.138705
1144463409.208,0.944090,0.028672,-0.138705
1144463409.217,0.936243,-0.024171,-0.150410
1144463409.228,0.977440,-0.043742,-0.144557
1144463409.238,0.979402,0.018886,-0.117245
1144463409.248,0.971555,-0.030042,-0.140655
1144463409.258,0.967631,-0.028085,-0.138705
1144463409.268,0.961746,0.014972,-0.142606
1144463409.279,0.951937,-0.012428,-0.158213
1144463409.288,0.961746,-0.031999,-0.132852
1144463409.298,0.965669,-0.030042,-0.132852
1144463409.308,0.963708,-0.006556,-0.140655
1144463409.318,0.961746,-0.000685,-0.144557
1144463409.328,0.949975,-0.031999,-0.166016
1144463409.338,0.959784,-0.059399,-0.166016
1144463409.348,0.963708,-0.049613,-0.160164
1144463409.358,0.959784,-0.057442,-0.142606
1144463409.367,0.953899,0.013015,-0.148459
1144463409.377,0.951937,0.046286,-0.142606
1144463409.388,0.951937,0.024758,-0.150410
1144463409.398,0.957823,0.069772,-0.138705
1144463409.407,0.951937,0.061943,-0.146508
1144463409.417,0.969593,0.009101,-0.150410
1144463409.427,0.969593,0.040415,-0.142606
1144463409.437,0.955861,0.034544,-0.130901
1144463409.447,0.963708,-0.004599,-0.115295
1144463409.457,0.965669,0.054115,-0.119196
1144463409.467,0.948014,0.093258,-0.121147
1144463409.477,0.948014,0.175457,-0.154311
1144463409.487,0.932320,0.144143,-0.164066
1144463409.497,0.948014,0.046286,-0.181623
1144463409.507,0.973516,0.050201,-0.146508
1144463409.517,0.955861,0.050201,-0.099688
1144463409.527,0.991172,0.050201,-0.107491
1144463409.537,0.963708,0.132400,-0.117245
1144463409.547,0.926435,0.124572,-0.140655
1144463409.557,0.936243,0.044329,-0.138705
1144463409.567,0.961746,0.273314,-0.142606
1144463409.577,0.895047,0.316371,-0.144557
1144463409.587,0.912702,0.193072,-0.166016
1144463409.597,0.946052,0.138272,-0.152361
1144463409.607,0.955861,0.106958,-0.103590
1144463409.617,0.971555,0.151972,-0.142606
1144463409.627,0.940167,0.200900,-0.109442
1144463409.637,0.922511,0.136315,-0.119196
1144463409.647,0.946052,0.302671,-0.146508
1144463409.657,0.869544,0.312457,-0.119196
1144463409.667,0.926435,0.134358,-0.111393
1144463409.677,0.985287,0.302671,-0.113344
1144463409.687,0.906817,0.363343,-0.087983
1144463409.697,0.871506,0.300714,-0.191377
1144463409.707,0.902894,0.339857,-0.158213
1144463409.717,0.928396,0.173500,-0.064573
1144463409.727,0.997057,0.161757,-0.068474
1144463409.737,0.944090,0.429885,-0.052868
1144463409.748,0.861697,0.390743,-0.078229
1144463409.757,0.926435,0.288972,-0.084081
1144463409.767,0.916626,0.269400,-0.080179
1144463409.777,0.924473,0.320286,-0.107491
1144463409.787,0.898970,0.433800,-0.130901
1144463409.797,0.849926,0.418143,-0.185525
1144463409.807,0.871506,0.324200,-0.160164
1144463409.817,0.918588,0.316371,-0.113344
1144463409.827,0.942129,0.251786,-0.097737
1144463409.837,0.930358,0.347686,-0.045064
1144463409.847,0.861697,0.285057,-0.035310
1144463409.857,0.849926,0.476857,-0.166016
1144463409.867,0.810692,0.361386,-0.068474
1144463409.877,0.944090,0.349643,-0.047015
1144463409.887,0.898970,0.600157,-0.029458
1144463409.897,0.810692,0.457285,-0.070425
1144463409.907,0.881314,0.279186,-0.134803
1144463409.917,0.924473,0.427928,-0.144557
1144463409.927,0.869544,0.498385,-0.064573
1144463409.937,0.789112,0.613857,-0.091885
1144463409.947,0.820500,0.564928,-0.091885
1144463409.957,0.857773,0.386828,-0.091885
1144463409.967,0.883276,0.418143,-0.070425
1144463409.977,0.889161,0.470985,-0.031409
1144463409.987,0.863659,0.449457,-0.017753
1144463409.997,0.861697,0.461200,-0.105540
1144463410.006,0.889161,0.459243,-0.062622
1144463410.016,0.873467,0.459243,-0.054819
1144463410.028,0.897008,0.404443,-0.027507
1144463410.037,0.883276,0.484685,-0.009949
1144463410.047,0.863659,0.470985,-0.041163
1144463410.057,0.855812,0.406400,-0.121147
1144463410.067,0.826385,0.508171,-0.162115
1144463410.077,0.855812,0.461200,-0.138705
1144463410.087,0.875429,0.379000,-0.148459
1144463410.097,0.877391,0.363343,-0.146508
1144463410.107,0.873467,0.365300,-0.103590
1144463410.117,0.914664,0.324200,-0.052868
1144463410.127,0.885238,0.521871,-0.031409
1144463410.137,0.832271,0.543400,-0.054819
1144463410.147,0.867582,0.398571,-0.127000
1144463410.157,0.897008,0.304629,-0.142606
1144463410.167,0.910741,0.294843,-0.132852
1144463410.177,0.934282,0.243957,-0.087983
1144463410.187,0.957823,0.257657,-0.101639
1144463410.197,0.930358,0.279186,-0.050917
1144463410.207,0.916626,0.418143,-0.037261
1144463410.217,0.855812,0.498385,-0.074327
1144463410.227,0.851888,0.341814,-0.136754
1144463410.237,0.938205,0.218515,-0.162115
1144463410.247,0.940167,0.216557,-0.144557
1144463410.257,0.961746,0.173500,-0.111393
1144463410.267,0.979402,0.112829,-0.111393
1144463410.277,0.934282,0.167629,-0.099688
1144463410.287,0.922511,0.198943,-0.080179
1144463410.297,0.918588,0.349643,-0.113344
1144463410.307,0.879353,0.349643,-0.134803
1144463410.317,0.910741,0.210686,-0.171869
1144463410.327,0.924473,0.142186,-0.187476
1144463410.337,0.938205,0.058029,-0.142606
1144463410.346,1.000981,0.016929,-0.119196
1144463410.357,0.971555,0.144143,-0.109442
1144463410.367,0.946052,0.167629,-0.111393
1144463410.376,0.969593,0.034544,-0.099688
1144463410.386,0.969593,0.212643,-0.115295
1144463410.397,0.902894,0.185243,-0.099688
1144463410.406,0.959784,0.005186,-0.125049
1144463410.417,0.963708,-0.022214,-0.142606
1144463410.427,0.983325,0.026715,-0.127000
1144463410.437,0.995096,-0.020256,-0.156262
1144463410.446,0.959784,0.058029,-0.191377
1144463410.456,0.922511,0.063901,-0.175771
1144463410.466,0.944090,0.085429,-0.146508
1144463410.476,0.920549,0.052158,-0.175771
1144463410.486,0.955861,-0.055485,-0.142606
1144463410.498,0.989210,-0.094628,-0.134803
1144463410.506,0.967631,-0.098542,-0.113344
1144463410.516,0.977440,-0.078971,-0.140655
1144463410.526,0.965669,0.016929,-0.154311
1144463410.536,0.955861,0.193072,-0.150410
1144463410.546,0.926435,0.101086,-0.181623
1144463410.556,0.942129,0.009101,-0.222591
1144463410.566,0.944090,-0.022214,-0.181623
1144463410.576,0.989210,-0.077013,-0.150410
1144463410.586,0.985287,-0.065271,-0.146508
1144463410.596,0.963708,-0.094628,-0.125049
1144463410.606,0.955861,-0.080928,-0.160164
1144463410.616,0.944090,-0.020256,-0.177721
1144463410.626,0.949975,0.079558,-0.234296
1144463410.636,0.942129,0.056072,-0.234296
1144463410.646,0.953899,-0.016342,-0.222591
1144463410.656,0.961746,-0.067228,-0.164066
1144463410.666,0.951937,-0.073099,-0.171869
1144463410.676,0.946052,-0.100499,-0.146508
1144463410.686,0.957823,-0.086799,-0.173820
1144463410.696,0.930358,-0.031999,-0.210886
1144463410.706,0.920549,-0.006556,-0.267460
1144463410.716,0.926435,-0.012428,-0.281116
1144463410.726,0.906817,-0.069185,-0.265509
1144463410.736,0.924473,-0.112242,-0.244050
1144463410.746,0.948014,-0.059399,-0.191377
1144463410.756,0.944090,-0.061356,-0.191377
1144463410.766,0.944090,-0.090713,-0.203082
1144463410.775,0.948014,-0.041785,-0.236247
1144463410.786,0.934282,-0.033956,-0.230394
1144463410.796,0.938205,-0.039828,-0.238197
1144463410.806,0.940167,-0.026128,-0.230394
1144463410.816,0.942129,-0.035913,-0.214787
1144463410.826,0.940167,-0.075056,-0.214787
1144463410.836,0.963708,-0.028085,-0.191377
1144463410.846,0.932320,-0.022214,-0.218689
1144463410.857,0.940167,-0.049613,-0.222591
1144463410.866,0.942129,-0.063313,-0.226492
1144463410.876,0.938205,-0.024171,-0.240148
1144463410.886,0.934282,-0.002642,-0.255755
1144463410.896,0.932320,-0.043742,-0.238197
1144463410.906,0.949975,-0.012428,-0.226492
1144463410.916,0.936243,0.005186,-0.228443
1144463410.926,0.940167,-0.024171,-0.228443
1144463410.936,0.948014,-0.014385,-0.226492
1144463410.946,0.930358,-0.053528,-0.228443
1144463410.956,0.948014,-0.043742,-0.234296
1144463410.967,0.953899,0.052158,-0.226492
1144463410.976,0.944090,0.036501,-0.206984
1144463410.986,0.942129,0.013015,-0.187476
1144463410.996,0.938205,0.052158,-0.208935
1144463411.006,0.926435,0.054115,-0.224542
1144463411.016,0.924473,0.036501,-0.234296
1144463411.026,0.938205,0.061943,-0.255755
1144463411.036,0.928396,0.093258,-0.259657
1144463411.046,0.922511,0.026715,-0.222591
1144463411.056,0.949975,0.040415,-0.208935
1144463411.066,0.940167,0.106958,-0.226492
1144463411.076,0.928396,0.128486,-0.187476
1144463411.086,0.938205,0.128486,-0.205033
1144463411.096,0.932320,0.161757,-0.206984
1144463411.106,0.930358,0.134358,-0.171869
1144463411.116,0.949975,0.106958,-0.183574
1144463411.126,0.957823,0.144143,-0.164066
1144463411.136,0.942129,0.087386,-0.123098
1144463411.146,0.963708,0.114786,-0.179672
1144463411.156,0.922511,0.253743,-0.169918
1144463411.166,0.897008,0.251786,-0.173820
1144463411.176,0.920549,0.208729,-0.210886
1144463411.186,0.922511,0.204815,-0.195279
1144463411.196,0.930358,0.118700,-0.183574
1144463411.206,0.973516,0.165672,-0.152361
1144463411.216,0.936243,0.232215,-0.091885
1144463411.226,0.914664,0.179372,-0.144557
1144463411.236,0.938205,0.257657,-0.169918
1144463411.247,0.871506,0.245914,-0.146508
1144463411.256,0.859735,0.427928,-0.224542
1144463411.266,0.847965,0.488600,-0.203082
1144463411.276,0.883276,0.155886,-0.156262
1144463411.286,1.014713,0.048243,-0.148459
1144463411.296,0.971555,0.349643,-0.043114
1144463411.306,0.902894,0.351600,-0.015802
1144463411.316,0.944090,0.279186,-0.058720
1144463411.326,0.891123,0.425971,-0.039212
1144463411.336,0.838156,0.361386,-0.052868
1144463411.346,0.914664,0.457285,-0.087983
1144463411.355,0.885238,0.459243,-0.080179
1144463411.366,0.893085,0.302671,-0.074327
1144463411.376,0.951937,0.322243,-0.052868
1144463411.386,0.918588,0.379000,-0.013851
1144463411.396,0.863659,0.422057,-0.052868
1144463411.406,0.867582,0.484685,-0.134803
1144463411.416,0.877391,0.398571,-0.089934
1144463411.426,0.867582,0.402486,-0.095786
1144463411.436,0.877391,0.445543,-0.066524
1144463411.446,0.865620,0.382914,-0.078229
1144463411.456,0.877391,0.435757,-0.080179
1144463411.465,0.863659,0.469028,-0.074327
1144463411.476,0.847965,0.443585,-0.068474
1144463411.486,0.846003,0.455328,-0.113344
1144463411.495,0.883276,0.392700,-0.078229
1144463411.505,0.885238,0.351600,-0.070425
1144463411.516,0.897008,0.418143,-0.072376
1144463411.525,0.861697,0.408357,-0.017753
1144463411.535,0.777342,0.535571,-0.095786
1144463411.545,0.806768,0.561014,-0.128950
1144463411.555,0.849926,0.410314,-0.050917
1144463411.565,0.883276,0.484685,-0.021654
1144463411.575,0.865620,0.472943,0.009559
1144463411.585,0.877391,0.476857,0.038822
1144463411.595,0.877391,0.535571,0.048576
1144463411.605,0.832271,0.529700,0.021264
1144463411.615,0.779304,0.598199,-0.062622
1144463411.625,0.873467,0.435757,-0.043114
1144463411.635,0.898970,0.382914,0.060281
1144463411.645,0.897008,0.486643,0.038822
1144463411.655,0.844041,0.519914,0.050527
1144463411.665,0.844041,0.498385,0.005657
1144463411.675,0.824424,0.531657,-0.017753
1144463411.685,0.855812,0.488600,-0.031409
1144463411.695,0.867582,0.457285,-0.025556
1144463411.705,0.847965,0.453371,-0.015802
1144463411.717,0.877391,0.469028,-0.043114
1144463411.725,0.847965,0.467071,-0.037261
1144463411.735,0.853850,0.467071,-0.000195
1144463411.745,0.812653,0.541442,-0.023605
1144463411.755,0.844041,0.451414,-0.043114
1144463411.765,0.873467,0.443585,-0.047015
1144463411.775,0.859735,0.463157,-0.076278
1144463411.785,0.887200,0.408357,-0.011900
1144463411.795,0.900932,0.465114,0.087593
1144463411.805,0.851888,0.572757,0.101249
1144463411.815,0.834232,0.457285,-0.058720
1144463411.825,0.863659,0.382914,-0.107491
1144463411.835,0.863659,0.424014,-0.164066
1144463411.845,0.873467,0.447500,-0.142606
1144463411.855,0.847965,0.455328,-0.119196
1144463411.865,0.844041,0.437714,-0.074327
1144463411.875,0.867582,0.465114,-0.078229
1144463411.885,0.806768,0.521871,-0.089934
1144463411.895,0.796959,0.453371,-0.160164
1144463411.905,0.877391,0.404443,-0.148459
1144463411.915,0.902894,0.418143,-0.138705
1144463411.925,0.873467,0.441628,-0.142606
1144463411.935,0.871506,0.398571,-0.142606
1144463411.945,0.847965,0.402486,-0.128950
1144463411.955,0.842079,0.467071,-0.134803
1144463411.965,0.853850,0.470985,-0.140655
1144463411.975,0.836194,0.410314,-0.171869
1144463411.985,0.877391,0.371171,-0.160164
1144463411.995,0.908779,0.328114,-0.125049
1144463412.005,0.930358,0.277229,-0.099688
1144463412.015,0.932320,0.379000,-0.045064
1144463412.025,0.879353,0.422057,-0.045064
1144463412.035,0.863659,0.394657,-0.113344
1144463412.045,0.844041,0.416186,-0.169918
1144463412.055,0.902894,0.351600,-0.158213
1144463412.065,0.918588,0.300714,-0.125049
1144463412.075,0.928396,0.249829,-0.117245
1144463412.085,0.932320,0.222429,-0.113344
1144463412.095,0.928396,0.253743,-0.095786
1144463412.105,0.898970,0.408357,-0.084081
1144463412.115,0.889161,0.412271,-0.101639
1144463412.124,0.889161,0.279186,-0.169918
1144463412.135,0.936243,0.198943,-0.152361
1144463412.145,0.944090,0.218515,-0.107491
1144463412.155,0.944090,0.245914,-0.086032
1144463412.165,0.938205,0.247872,-0.080179
1144463412.175,0.944090,0.242000,-0.117245
1144463412.186,0.926435,0.322243,-0.121147
1144463412.195,0.887200,0.351600,-0.152361
1144463412.205,0.893085,0.238086,-0.179672
1144463412.215,0.942129,0.136315,-0.158213
1144463412.225,0.967631,0.179372,-0.140655
1144463412.235,0.936243,0.208729,-0.136754
1144463412.244,0.955861,0.095215,-0.134803
1144463412.255,0.942129,0.232215,-0.167967
1144463412.265,0.863659,0.283100,-0.206984
1144463412.275,0.904855,0.218515,-0.240148
1144463412.285,0.902894,0.238086,-0.269411
1144463412.295,0.912702,0.122615,-0.222591
1144463412.305,0.967631,0.016929,-0.214787
1144463412.315,0.948014,0.073686,-0.195279
1144463412.325,0.940167,0.142186,-0.179672
1144463412.335,0.936243,0.075643,-0.160164
1144463412.345,0.961746,0.071729,-0.138705
1144463412.355,0.959784,0.214600,-0.175771
1144463412.364,0.928396,0.134358,-0.206984
1144463412.375,0.951937,-0.031999,-0.187476
1144463412.385,0.987249,-0.139642,-0.130901
1144463412.395,1.028445,-0.157256,-0.060671
1144463412.405,1.002943,-0.075056,-0.035310
1144463412.415,0.973516,-0.014385,-0.111393
1144463412.425,0.955861,0.142186,-0.203082
1144463412.435,0.922511,0.112829,-0.263558
1144463412.445,0.922511,-0.045699,-0.253804
1144463412.454,0.928396,-0.225756,-0.228443
1144463412.466,0.926435,-0.347098,-0.144557
1144463412.474,0.914664,-0.448870,-0.132852
1144463412.484,0.944090,-0.325570,-0.195279
1144463412.494,0.948014,-0.035913,-0.240148
1144463412.504,0.922511,0.009101,-0.246001
1144463412.514,0.914664,-0.049613,-0.275263
1144463412.524,0.906817,-0.012428,-0.216738
1144463412.534,0.928396,-0.020256,-0.179672
1144463412.544,0.957823,-0.086799,-0.183574
1144463412.554,0.969593,-0.073099,-0.175771
1144463412.564,0.981363,-0.035913,-0.183574
1144463412.574,0.959784,-0.047656,-0.193328
1144463412.584,0.953899,-0.055485,-0.201131
1144463412.594,0.944090,-0.059399,-0.187476
1144463412.604,0.965669,-0.077013,-0.179672
1144463412.614,0.955861,-0.071142,-0.164066
1144463412.624,0.944090,-0.082885,-0.166016
1144463412.634,0.948014,-0.080928,-0.189426
1144463412.644,0.948014,-0.043742,-0.191377
1144463412.654,0.936243,-0.002642,-0.212837
1144463412.664,0.944090,-0.004599,-0.224542
1144463412.674,0.940167,-0.030042,-0.210886
1144463412.684,0.949975,-0.053528,-0.203082
1144463412.694,0.936243,-0.086799,-0.167967
1144463412.704,0.957823,-0.059399,-0.173820
1144463412.714,0.961746,-0.024171,-0.144557
1144463412.724,0.942129,-0.061356,-0.140655
1144463412.734,0.977440,-0.000685,-0.185525
1144463412.744,0.938205,0.073686,-0.199181
1144463412.754,0.928396,0.136315,-0.220640
1144463412.764,0.930358,0.101086,-0.228443
1144463412.774,0.940167,-0.002642,-0.189426
1144463412.784,0.967631,0.001272,-0.177721
1144463412.794,0.965669,0.052158,-0.160164
1144463412.804,0.946052,-0.010471,-0.142606
1144463412.814,0.963708,0.061943,-0.205033
1144463412.824,0.936243,0.151972,-0.183574
1144463412.834,0.912702,0.081515,-0.162115
1144463412.844,0.955861,0.198943,-0.191377
1144463412.855,0.938205,0.200900,-0.169918
1144463412.864,0.944090,0.106958,-0.101639
1144463412.874,0.975478,0.075643,-0.089934
1144463412.884,0.973516,0.016929,-0.080179
1144463412.894,0.987249,0.153929,-0.125049
1144463412.904,0.897008,0.281143,-0.158213
1144463412.914,0.902894,0.214600,-0.189426
1144463412.924,0.928396,0.198943,-0.206984
1144463412.935,0.932320,0.122615,-0.113344
1144463412.944,0.993134,0.222429,-0.084081
1144463412.954,0.936243,0.367257,-0.109442
1144463412.964,0.912702,0.281143,-0.109442
1144463412.974,0.949975,0.249829,-0.091885
1144463412.984,0.902894,0.332029,-0.130901
1144463412.994,0.916626,0.285057,-0.142606
1144463413.004,0.916626,0.208729,-0.158213
1144463413.014,0.936243,0.087386,-0.140655
1144463413.024,0.963708,0.146100,-0.119196
1144463413.034,0.910741,0.435757,-0.175771
1144463413.044,0.846003,0.396614,-0.173820
1144463413.054,0.906817,0.339857,-0.206984
1144463413.064,0.891123,0.404443,-0.185525
1144463413.074,0.849926,0.406400,-0.169918
1144463413.084,0.916626,0.251786,-0.125049
1144463413.094,0.955861,0.124572,-0.103590
1144463413.104,0.971555,0.285057,-0.164066
1144463413.114,0.897008,0.439671,-0.097737
1144463413.124,0.865620,0.339857,-0.115295
1144463413.134,0.916626,0.332029,-0.136754
1144463413.144,0.906817,0.416186,-0.111393
1144463413.154,0.863659,0.384871,-0.107491
1144463413.164,0.924473,0.287014,-0.115295
1144463413.174,0.926435,0.285057,-0.115295
1144463413.184,0.926435,0.343771,-0.099688
1144463413.194,0.893085,0.314414,-0.105540
1144463413.204,0.869544,0.316371,-0.203082
1144463413.214,0.902894,0.351600,-0.210886
1144463413.224,0.885238,0.355514,-0.201131
1144463413.234,0.873467,0.410314,-0.179672
1144463413.244,0.898970,0.281143,-0.173820
1144463413.254,0.900932,0.290929,-0.162115
1144463413.264,0.863659,0.373128,-0.138705
1144463413.273,0.853850,0.330071,-0.197230
1144463413.283,0.893085,0.267443,-0.189426
1144463413.293,0.873467,0.298757,-0.195279
1144463413.303,0.883276,0.367257,-0.203082
1144463413.313,0.887200,0.371171,-0.154311
1144463413.323,0.855812,0.355514,-0.146508
1144463413.333,0.887200,0.377043,-0.166016
1144463413.343,0.887200,0.379000,-0.175771
1144463413.353,0.895047,0.380957,-0.148459
1144463413.363,0.885238,0.375086,-0.144557
1144463413.373,0.898970,0.400528,-0.117245
1144463413.383,0.869544,0.369214,-0.089934
1144463413.393,0.875429,0.314414,-0.117245
1144463413.404,0.898970,0.470985,-0.134803
1144463413.413,0.853850,0.437714,-0.136754
1144463413.423,0.871506,0.386828,-0.177721
1144463413.433,0.883276,0.388786,-0.164066
1144463413.443,0.857773,0.400528,-0.138705
1144463413.453,0.836194,0.443585,-0.154311
1144463413.463,0.849926,0.398571,-0.160164
1144463413.473,0.853850,0.335943,-0.160164
1144463413.483,0.883276,0.443585,-0.205033
1144463413.493,0.865620,0.459243,-0.210886
1144463413.503,0.846003,0.400528,-0.187476
1144463413.513,0.869544,0.406400,-0.173820
1144463413.523,0.883276,0.410314,-0.152361
1144463413.533,0.861697,0.441628,-0.115295
1144463413.543,0.830309,0.447500,-0.142606
1144463413.553,0.879353,0.390743,-0.132852
1144463413.563,0.895047,0.306586,-0.109442
1144463413.573,0.904855,0.447500,-0.125049
1144463413.583,0.861697,0.488600,-0.074327
1144463413.593,0.857773,0.437714,-0.121147
1144463413.603,0.877391,0.402486,-0.132852
1144463413.613,0.883276,0.390743,-0.099688
1144463413.623,0.895047,0.424014,-0.103590
1144463413.633,0.875429,0.472943,-0.099688
1144463413.643,0.865620,0.433800,-0.121147
1144463413.653,0.889161,0.316371,-0.127000
1144463413.663,0.904855,0.253743,-0.142606
1144463413.673,0.910741,0.375086,-0.130901
1144463413.685,0.873467,0.441628,-0.101639
1144463413.693,0.855812,0.439671,-0.125049
1144463413.703,0.879353,0.380957,-0.177721
1144463413.713,0.910741,0.369214,-0.136754
1144463413.723,0.871506,0.429885,-0.150410
1144463413.733,0.855812,0.388786,-0.169918
1144463413.743,0.879353,0.290929,-0.212837
1144463413.753,0.898970,0.249829,-0.197230
1144463413.763,0.900932,0.326157,-0.210886
1144463413.773,0.891123,0.408357,-0.167967
1144463413.783,0.895047,0.261572,-0.156262
1144463413.793,0.942129,0.277229,-0.130901
1144463413.803,0.885238,0.461200,-0.121147
1144463413.813,0.840118,0.429885,-0.166016
1144463413.823,0.861697,0.353557,-0.257706
1144463413.833,0.893085,0.316371,-0.224542
1144463413.843,0.910741,0.285057,-0.197230
1144463413.853,0.928396,0.226343,-0.199181
1144463413.863,0.932320,0.134358,-0.185525
1144463413.873,0.926435,0.144143,-0.187476
1144463413.883,0.932320,0.279186,-0.158213
1144463413.893,0.900932,0.406400,-0.150410
1144463413.903,0.857773,0.404443,-0.197230
1144463413.913,0.857773,0.283100,-0.259657
1144463413.923,0.916626,0.142186,-0.238197
1144463413.933,0.957823,0.087386,-0.185525
1144463413.943,0.957823,0.144143,-0.171869
1144463413.953,0.955861,0.196986,-0.142606
1144463413.963,0.942129,0.345729,-0.146508
1144463413.973,0.889161,0.445543,-0.160164
1144463413.983,0.855812,0.337900,-0.238197
1144463413.993,0.867582,0.155886,-0.255755
1144463414.003,0.961746,-0.002642,-0.189426
1144463414.013,1.026484,-0.082885,-0.142606
1144463414.023,1.004904,0.173500,-0.166016
1144463414.033,0.908779,0.257657,-0.185525
1144463414.043,0.902894,0.146100,-0.240148
1144463414.053,0.908779,0.173500,-0.230394
1144463414.063,0.914664,0.224386,-0.191377
1144463414.073,0.930358,0.105000,-0.210886
1144463414.083,0.957823,0.009101,-0.183574
1144463414.093,0.971555,0.073686,-0.203082
1144463414.103,0.936243,0.101086,-0.218689
1144463414.113,0.936243,0.022801,-0.206984
1144463414.123,0.951937,0.110872,-0.230394
1144463414.133,0.924473,0.177415,-0.181623
1144463414.143,0.942129,-0.008514,-0.175771
1144463414.154,0.979402,-0.155299,-0.156262
1144463414.163,1.006866,-0.129856,-0.109442
1144463414.173,0.999019,-0.110285,-0.109442
1144463414.183,0.955861,-0.184656,-0.136754
1144463414.193,0.940167,-0.233584,-0.160164
1144463414.203,0.938205,-0.170956,-0.179672
1144463414.213,0.924473,-0.067228,-0.185525
1144463414.223,0.914664,-0.061356,-0.220640
1144463414.233,0.936243,-0.075056,-0.261607
1144463414.243,0.932320,-0.063313,-0.238197
1144463414.253,0.924473,-0.110285,-0.212837
1144463414.263,0.944090,-0.104413,-0.189426
1144463414.273,0.938205,-0.053528,-0.173820
1144463414.283,0.940167,-0.075056,-0.206984
1144463414.293,0.953899,-0.059399,-0.197230
1144463414.303,0.957823,-0.016342,-0.189426
1144463414.313,0.949975,-0.031999,-0.193328
1144463414.323,0.951937,-0.020256,-0.191377
1144463414.333,0.949975,-0.010471,-0.189426
1144463414.343,0.942129,-0.024171,-0.183574
1144463414.353,0.949975,-0.055485,-0.197230
1144463414.362,0.949975,0.014972,-0.224542
1144463414.373,0.924473,0.030629,-0.210886
1144463414.383,0.944090,0.014972,-0.208935
1144463414.393,0.949975,-0.000685,-0.195279
1144463414.403,0.959784,-0.037871,-0.175771
1144463414.413,0.975478,-0.026128,-0.164066
1144463414.423,0.957823,-0.039828,-0.148459
1144463414.434,0.951937,-0.084842,-0.169918
1144463414.443,0.949975,0.036501,-0.191377
1144463414.453,0.902894,0.040415,-0.179672
1144463414.463,0.944090,0.126529,-0.259657
1144463414.473,0.914664,0.173500,-0.253804
1144463414.483,0.918588,0.130443,-0.205033
1144463414.492,0.951937,0.148058,-0.195279
1144463414.503,0.936243,0.122615,-0.169918
1144463414.513,0.953899,0.099129,-0.150410
1144463414.523,0.934282,0.114786,-0.195279
1144463414.533,0.922511,0.195029,-0.244050
1144463414.543,0.893085,0.257657,-0.255755
1144463414.553,0.863659,0.261572,-0.257706
1144463414.563,0.889161,0.128486,-0.224542
1144463414.573,0.942129,0.148058,-0.195279
1144463414.583,0.920549,0.245914,-0.166016
1144463414.593,0.893085,0.339857,-0.171869
1144463414.603,0.875429,0.424014,-0.230394
1144463414.613,0.836194,0.263529,-0.210886
1144463414.623,0.912702,0.195029,-0.232345
1144463414.632,0.932320,0.441628,-0.181623
1144463414.642,0.824424,0.504257,-0.164066
1144463414.652,0.838156,0.365300,-0.191377
1144463414.662,0.867582,0.361386,-0.169918
1144463414.672,0.863659,0.441628,-0.175771
1144463414.682,0.851888,0.510128,-0.212837
1144463414.692,0.849926,0.465114,-0.214787
1144463414.702,0.877391,0.363343,-0.187476
1144463414.712,0.877391,0.298757,-0.177721
1144463414.722,0.895047,0.226343,-0.101639
1144463414.732,0.948014,0.418143,-0.123098
1144463414.742,0.808730,0.543400,-0.089934
1144463414.752,0.775380,0.531657,-0.128950
1144463414.762,0.832271,0.447500,-0.169918
1144463414.772,0.853850,0.412271,-0.175771
1144463414.782,0.863659,0.504257,-0.162115
1144463414.792,0.826385,0.427928,-0.113344
1144463414.802,0.867582,0.451414,-0.136754
1144463414.812,0.824424,0.502300,-0.154311
1144463414.822,0.804806,0.443585,-0.109442
1144463414.832,0.806768,0.553185,-0.130901
1144463414.842,0.781265,0.615814,-0.156262
1144463414.853,0.820500,0.492514,-0.146508
1144463414.862,0.832271,0.504257,-0.128950
1144463414.872,0.806768,0.549271,-0.134803
1144463414.882,0.781265,0.531657,-0.130901
1144463414.892,0.789112,0.557100,-0.152361
1144463414.904,0.816577,0.531657,-0.177721
1144463414.912,0.808730,0.492514,-0.166016
1144463414.922,0.816577,0.541442,-0.130901
1144463414.932,0.787151,0.588414,-0.095786
1144463414.942,0.789112,0.549271,-0.134803
1144463414.952,0.796959,0.527742,-0.146508
1144463414.962,0.808730,0.516000,-0.150410
1144463414.972,0.818539,0.510128,-0.130901
1144463414.982,0.806768,0.535571,-0.140655
1144463414.992,0.796959,0.529700,-0.128950
1144463415.002,0.796959,0.516000,-0.121147
1144463415.012,0.798921,0.559057,-0.142606
1144463415.022,0.771457,0.564928,-0.152361
1144463415.032,0.789112,0.531657,-0.181623
1144463415.042,0.808730,0.500343,-0.183574
1144463415.052,0.828347,0.447500,-0.169918
1144463415.062,0.828347,0.539485,-0.119196
1144463415.072,0.779304,0.576671,-0.105540
1144463415.082,0.789112,0.539485,-0.101639
1144463415.092,0.814615,0.533614,-0.132852
1144463415.102,0.796959,0.535571,-0.136754
1144463415.112,0.793036,0.543400,-0.162115
1144463415.122,0.818539,0.506214,-0.167967
1144463415.132,0.834232,0.478814,-0.117245
1144463415.142,0.824424,0.525785,-0.111393
1144463415.152,0.796959,0.570800,-0.082130
1144463415.162,0.812653,0.523828,-0.072376
1144463415.172,0.842079,0.490557,-0.101639
1144463415.182,0.810692,0.490557,-0.152361
1144463415.192,0.816577,0.529700,-0.130901
1144463415.202,0.851888,0.494471,-0.132852
1144463415.212,0.832271,0.465114,-0.097737
1144463415.222,0.838156,0.514043,-0.058720
1144463415.232,0.810692,0.535571,-0.078229
1144463415.242,0.828347,0.459243,-0.080179
1144463415.252,0.802845,0.545357,-0.127000
1144463415.262,0.800883,0.545357,-0.150410
1144463415.272,0.857773,0.433800,-0.154311
1144463415.282,0.863659,0.443585,-0.109442
1144463415.292,0.816577,0.564928,-0.070425
1144463415.302,0.793036,0.508171,-0.068474
1144463415.312,0.836194,0.457285,-0.132852
1144463415.322,0.861697,0.457285,-0.136754
1144463415.332,0.867582,0.461200,-0.142606
1144463415.342,0.869544,0.449457,-0.128950
1144463415.352,0.844041,0.498385,-0.091885
1144463415.361,0.812653,0.531657,-0.058720
1144463415.373,0.814615,0.543400,-0.060671
1144463415.382,0.804806,0.523828,-0.066524
1144463415.392,0.836194,0.478814,-0.140655
1144463415.402,0.875429,0.424014,-0.138705
1144463415.412,0.863659,0.406400,-0.162115
1144463415.422,0.863659,0.414228,-0.140655
1144463415.432,0.865620,0.420100,-0.138705
1144463415.442,0.853850,0.449457,-0.082130
1144463415.452,0.834232,0.482728,-0.074327
1144463415.461,0.851888,0.445543,-0.117245
1144463415.471,0.857773,0.439671,-0.146508
1144463415.481,0.847965,0.425971,-0.179672
1144463415.491,0.867582,0.404443,-0.197230
1144463415.501,0.887200,0.367257,-0.148459
1144463415.511,0.906817,0.335943,-0.101639
1144463415.521,0.895047,0.365300,-0.060671
1144463415.531,0.893085,0.416186,-0.041163
1144463415.542,0.881314,0.447500,-0.070425
1144463415.551,0.879353,0.416186,-0.095786
1144463415.561,0.881314,0.388786,-0.130901
1144463415.571,0.873467,0.359428,-0.142606
1144463415.581,0.904855,0.290929,-0.140655
1144463415.591,0.910741,0.287014,-0.082130
1144463415.601,0.906817,0.412271,-0.068474
1144463415.611,0.881314,0.400528,-0.121147
1144463415.621,0.908779,0.298757,-0.144557
1144463415.631,0.898970,0.296800,-0.142606
1144463415.641,0.908779,0.285057,-0.167967
1144463415.651,0.926435,0.288972,-0.146508
1144463415.661,0.918588,0.269400,-0.128950
1144463415.671,0.926435,0.259614,-0.107491
1144463415.681,0.912702,0.351600,-0.132852
1144463415.691,0.889161,0.365300,-0.156262
1144463415.701,0.879353,0.369214,-0.166016
1144463415.711,0.895047,0.292886,-0.164066
1144463415.721,0.942129,0.191115,-0.138705
1144463415.731,0.965669,0.099129,-0.109442
1144463415.741,0.975478,0.079558,-0.078229
1144463415.751,0.975478,0.099129,-0.062622
1144463415.761,0.977440,0.065858,-0.082130
1144463415.771,0.981363,0.069772,-0.095786
1144463415.781,0.953899,0.108915,-0.125049
1144463415.791,0.944090,0.020844,-0.130901
1144463415.801,0.951937,-0.102456,-0.127000
1144463415.811,0.959784,-0.190527,-0.087983
1144463415.821,0.979402,-0.223799,-0.113344
1144463415.831,0.957823,-0.202270,-0.166016
1144463415.842,0.944090,-0.102456,-0.212837
1144463415.850,0.918588,0.026715,-0.240148
1144463415.861,0.893085,0.103043,-0.216738
1144463415.871,0.918588,0.040415,-0.216738
1144463415.881,0.977440,-0.037871,-0.162115
1144463415.891,0.975478,-0.002642,-0.128950
1144463415.901,0.973516,0.007144,-0.119196
1144463415.911,0.961746,-0.018299,-0.142606
1144463415.921,0.967631,-0.041785,-0.127000
1144463415.931,0.971555,0.014972,-0.140655
1144463415.941,0.969593,0.114786,-0.160164
1144463415.951,0.940167,0.122615,-0.187476
1144463415.961,0.932320,0.052158,-0.210886
1144463415.970,0.951937,0.044329,-0.177721
1144463415.980,0.965669,0.022801,-0.138705
1144463415.990,0.965669,-0.024171,-0.142606
1144463416.000,0.961746,0.009101,-0.148459
1144463416.010,0.949975,0.026715,-0.164066
1144463416.020,0.951937,0.044329,-0.162115
1144463416.030,0.953899,0.081515,-0.154311
1144463416.040,0.955861,0.079558,-0.136754
1144463416.050,0.953899,0.034544,-0.134803
1144463416.060,0.965669,0.009101,-0.142606
1144463416.070,0.963708,-0.000685,-0.150410
1144463416.080,0.969593,0.016929,-0.154311
1144463416.090,0.961746,0.028672,-0.160164
1144463416.100,0.951937,0.036501,-0.158213
1144463416.110,0.949975,0.099129,-0.154311
1144463416.120,0.949975,0.108915,-0.154311
1144463416.130,0.949975,0.050201,-0.166016
1144463416.140,0.957823,0.048243,-0.173820
1144463416.150,0.955861,0.040415,-0.156262
1144463416.160,0.961746,0.003229,-0.158213
1144463416.170,0.957823,0.005186,-0.146508
1144463416.180,0.957823,0.026715,-0.152361
1144463416.190,0.953899,0.028672,-0.156262
1144463416.200,0.955861,0.044329,-0.156262
1144463416.210,0.953899,0.058029,-0.150410
1144463416.220,0.959784,0.040415,-0.160164
1144463416.230,0.953899,0.022801,-0.166016
1144463416.240,0.957823,0.032586,-0.166016
1144463416.250,0.959784,0.022801,-0.169918
1144463416.260,0.961746,0.020844,-0.150410
1144463416.270,0.955861,0.026715,-0.154311
1144463416.280,0.951937,0.028672,-0.167967
1144463416.290,0.961746,0.032586,-0.158213
1144463416.300,0.957823,0.013015,-0.154311
1144463416.311,0.961746,0.011058,-0.154311
1144463416.320,0.957823,0.038458,-0.158213
1144463416.330,0.946052,0.032586,-0.175771
1144463416.340,0.951937,0.024758,-0.169918
1144463416.350,0.961746,0.014972,-0.162115
1144463416.360,0.951937,0.014972,-0.169918
1144463416.370,0.940167,0.054115,-0.181623
1144463416.380,0.949975,0.024758,-0.156262
1144463416.390,0.957823,0.030629,-0.193328
1144463416.400,0.946052,0.067815,-0.191377
1144463416.410,0.948014,0.038458,-0.167967
1144463416.420,0.948014,0.038458,-0.191377
1144463416.430,0.951937,0.052158,-0.164066
1144463416.440,0.953899,0.024758,-0.142606
1144463416.450,0.967631,0.058029,-0.160164
1144463416.460,0.957823,0.083472,-0.150410
1144463416.470,0.946052,0.061943,-0.173820
1144463416.479,0.955861,0.105000,-0.162115
