time,seconds_elapsed,z,y,x
1773148986460031000,0.079031005859375,-0.8736572265625,-0.2460174560546875,0.0010986328125
1773148986470068000,0.08906787109375,-0.843414306640625,-0.239654541015625,-0.02734375
1773148986480105200,0.099105224609375,-0.8047332763671875,-0.2259674072265625,-0.036956787109375
1773148986490142200,0.10914208984375,-0.84014892578125,-0.2158050537109375,-0.0136260986328125
1773148986500179000,0.119178955078125,-0.9119873046875,-0.212554931640625,0.0106048583984375
1773148986510215200,0.129215087890625,-0.954833984375,-0.2036590576171875,0.0067901611328125
1773148986520252000,0.139251953125,-0.940216064453125,-0.198638916015625,0.0095062255859375
1773148986530289200,0.1492890625,-0.9264373779296875,-0.2107696533203125,0.01678466796875
1773148986540326100,0.159326171875,-0.9052276611328125,-0.2367095947265625,0.0887451171875
1773148986550363100,0.169363037109375,-0.9054718017578125,-0.1987457275390625,0.098846435546875
1773148986560400100,0.179400146484375,-0.8895416259765625,-0.169219970703125,0.2433319091796875
1773148986570437000,0.18943701171875,-0.95037841796875,-0.2303619384765625,0.15814208984375
1773148986580474000,0.19947412109375,-1.0718536376953125,-0.1398773193359375,0.088531494140625
1773148986590511000,0.209510986328125,-1.0874176025390625,0.01226806640625,0.0750885009765625
1773148986600548000,0.219548095703125,-1.02130126953125,0.0211181640625,0.073944091796875
1773148986610585000,0.229585205078125,-1.0771026611328125,-0.1163482666015625,0.01800537109375
1773148986620621800,0.239621826171875,-1.12744140625,-0.153656005859375,-0.00335693359375
1773148986630658800,0.249658935546875,-1.117950439453125,-0.087158203125,-0.0049896240234375
1773148986640696000,0.259696044921875,-1.10882568359375,-0.055999755859375,-0.0095672607421875
1773148986650733000,0.269733154296875,-1.1134185791015625,-0.0751953125,0.029144287109375
1773148986660770000,0.27977001953125,-1.0350189208984375,-0.1226654052734375,0.0785064697265625
1773148986670806800,0.289806884765625,-1.00762939453125,-0.1557769775390625,0.0972442626953125
1773148986680842800,0.2998427734375,-1.053863525390625,-0.1127166748046875,0.128814697265625
1773148986690880000,0.3098798828125,-1.1013336181640625,-0.0588226318359375,0.2146453857421875
1773148986700917000,0.3199169921875,-1.1371002197265625,-0.034027099609375,0.27423095703125
1773148986710954000,0.3299541015625,-1.1535491943359375,-0.00006103515625,0.279937744140625
1773148986720991000,0.339990966796875,-1.212310791015625,0.05413818359375,0.2964019775390625
1773148986731028000,0.350028076171875,-1.26007080078125,0.0493621826171875,0.3370819091796875
1773148986741065000,0.36006494140625,-1.2751617431640625,-0.0504608154296875,0.35546875
1773148986751102000,0.37010205078125,-1.270263671875,-0.1071929931640625,0.3653717041015625
1773148986761139000,0.380138916015625,-1.1994476318359375,-0.038116455078125,0.30816650390625
1773148986771176000,0.390176025390625,-1.07879638671875,0.002105712890625,0.25006103515625
1773148986781213000,0.400212890625,-0.986175537109375,-0.024505615234375,0.131683349609375
1773148986791250000,0.41025,-0.9350433349609375,-0.03375244140625,-0.021728515625
1773148986801287000,0.420286865234375,-0.9074554443359375,-0.0610504150390625,-0.03271484375
1773148986811324000,0.430323974609375,-0.9088592529296875,-0.0881805419921875,0.03533935546875
1773148986821361200,0.440361083984375,-0.920196533203125,-0.0945587158203125,0.1222381591796875
1773148986831398000,0.45039794921875,-0.943603515625,-0.098052978515625,0.19677734375
1773148986841435000,0.460434814453125,-0.98388671875,-0.1142120361328125,0.192169189453125
1773148986851472000,0.470471923828125,-1.035919189453125,-0.1060028076171875,0.12506103515625
1773148986861507800,0.4805078125,-1.0762786865234375,-0.064239501953125,0.07122802734375
1773148986871545000,0.490545166015625,-1.044677734375,-0.0323028564453125,0.028350830078125
1773148986881582000,0.50058203125,-0.9376220703125,-0.022430419921875,0.0036163330078125
1773148986891619000,0.510619140625,-0.8677978515625,-0.044036865234375,0.020782470703125
1773148986901655800,0.52065576171875,-0.9266357421875,-0.0820770263671875,0.0453338623046875
1773148986911692800,0.53069287109375,-1.102752685546875,-0.0732421875,0.1332550048828125
1773148986921730000,0.54072998046875,-1.1776885986328125,-0.038543701171875,0.1614227294921875
1773148986931767000,0.55076708984375,-1.0421142578125,-0.021392822265625,0.022735595703125
1773148986941804000,0.560803955078125,-0.9033966064453125,0.015960693359375,-0.11932373046875
1773148986951840800,0.5708408203125,-0.86956787109375,-0.029541015625,-0.17919921875
1773148986961878000,0.5808779296875,-0.88983154296875,-0.111602783203125,-0.1499786376953125
1773148986971915000,0.5909150390625,-0.89599609375,-0.1508331298828125,-0.119354248046875
1773148986981952000,0.600951904296875,-0.934295654296875,-0.1772613525390625,-0.1226043701171875
1773148986991989000,0.610989013671875,-0.93829345703125,-0.155364990234375,-0.11114501953125
1773148987002026000,0.62102587890625,-0.9107666015625,-0.104278564453125,-0.0885467529296875
1773148987012063000,0.63106298828125,-0.905792236328125,-0.091064453125,-0.0544891357421875
1773148987022100000,0.641099853515625,-0.9123992919921875,-0.12274169921875,-0.01812744140625
1773148987032137000,0.651136962890625,-0.909637451171875,-0.182464599609375,0.0082244873046875
1773148987042174000,0.661174072265625,-0.9073944091796875,-0.21527099609375,0.029083251953125
1773148987052210000,0.6712099609375,-0.8762054443359375,-0.195159912109375,0.03656005859375
1773148987062247000,0.681246826171875,-0.8262481689453125,-0.1639404296875,0.0101776123046875
1773148987072284000,0.691283935546875,-0.835235595703125,-0.1614227294921875,0.024078369140625
1773148987082321000,0.70132080078125,-0.8960723876953125,-0.197052001953125,0.095977783203125
1773148987092358000,0.71135791015625,-0.947113037109375,-0.208282470703125,0.1745147705078125
1773148987102395100,0.72139501953125,-0.928741455078125,-0.1891021728515625,0.21630859375
1773148987112432000,0.73143212890625,-0.9010162353515625,-0.1329498291015625,0.155792236328125
1773148987122468900,0.74146875,-0.891998291015625,-0.1177978515625,0.1328277587890625
1773148987132505900,0.751505859375,-0.8503570556640625,-0.1673736572265625,0.159881591796875
1773148987142543000,0.761543212890625,-0.8729248046875,-0.1960601806640625,0.1341400146484375
1773148987152580000,0.771580078125,-0.9237823486328125,-0.160980224609375,0.103363037109375
1773148987162617000,0.7816171875,-0.93560791015625,-0.134979248046875,0.1153106689453125
1773148987172653800,0.79165380859375,-0.923858642578125,-0.1103363037109375,0.162689208984375
1773148987182690800,0.80169091796875,-0.8931732177734375,-0.1263275146484375,0.2592926025390625
1773148987192728000,0.81172802734375,-0.8968353271484375,-0.1463165283203125,0.3262176513671875
1773148987202765000,0.82176513671875,-0.858489990234375,-0.0980072021484375,0.3697967529296875
1773148987212802000,0.831802001953125,-0.7542724609375,-0.0510101318359375,0.3962554931640625
1773148987222838800,0.8418388671875,-0.8333587646484375,-0.0671844482421875,0.33203125
1773148987232876000,0.8518759765625,-0.82049560546875,-0.0260467529296875,0.3035125732421875
1773148987242913000,0.8619130859375,-0.81878662109375,-0.0145416259765625,0.3540802001953125
1773148987252950000,0.871949951171875,-0.881011962890625,-0.1317901611328125,0.398284912109375
1773148987262987000,0.881987060546875,-0.77471923828125,-0.12493896484375,0.4330902099609375
1773148987273024000,0.89202392578125,-0.78912353515625,-0.059661865234375,0.456207275390625
1773148987283060000,0.90206005859375,-0.8118438720703125,-0.042816162109375,0.4427490234375
1773148987293097000,0.912096923828125,-0.831329345703125,0.0186920166015625,0.4035186767578125
1773148987303134000,0.922134033203125,-0.66351318359375,0.0495758056640625,0.4237823486328125
1773148987313171000,0.9321708984375,-0.56060791015625,-0.0053863525390625,0.5340423583984375
1773148987323208000,0.9422080078125,-0.52880859375,-0.0191650390625,0.6036376953125
1773148987333245000,0.952244873046875,-0.647186279296875,0.017059326171875,0.63763427734375
1773148987343282000,0.962281982421875,-0.685089111328125,0.035797119140625,0.656585693359375
1773148987353319000,0.97231884765625,-0.46087646484375,-0.024627685546875,0.535919189453125
1773148987363356000,0.98235595703125,-0.39886474609375,-0.11151123046875,0.5122222900390625
1773148987373393200,0.99239306640625,-0.6225433349609375,0.032562255859375,0.4805908203125
1773148987383430000,1.002429931640625,-0.6581268310546875,0.0853118896484375,0.38043212890625
1773148987393467000,1.012466796875,-0.6536712646484375,0.03607177734375,0.33074951171875
1773148987403503900,1.02250390625,-0.6199798583984375,0.0302276611328125,0.21240234375
1773148987413541000,1.032541015625,-0.660614013671875,0.0467681884765625,0.076629638671875
1773148987423578000,1.042578125,-0.6901397705078125,0.0439910888671875,-0.035003662109375
1773148987433614800,1.05261474609375,-0.7173309326171875,0.1226348876953125,-0.0900726318359375
1773148987443651800,1.06265185546875,-0.6923370361328125,0.1738739013671875,-0.122344970703125
1773148987453688800,1.072688720703125,-0.7248382568359375,0.1663360595703125,-0.132598876953125
1773148987463726000,1.08272607421875,-0.7313079833984375,0.178924560546875,-0.116119384765625
1773148987473763000,1.09276318359375,-0.6553802490234375,0.202850341796875,-0.15155029296875
1773148987483799800,1.1027998046875,-0.602386474609375,0.2674407958984375,-0.1817169189453125
1773148987493836800,1.1128369140625,-0.5976715087890625,0.387298583984375,-0.1938934326171875
1773148987503874000,1.1228740234375,-0.596954345703125,0.4972381591796875,-0.1883697509765625
1773148987513911000,1.1329111328125,-0.5945281982421875,0.602294921875,-0.1371612548828125
1773148987523948000,1.142947998046875,-0.5914764404296875,0.6990966796875,-0.0475616455078125
1773148987533985000,1.152985107421875,-0.5977020263671875,0.76171875,0.002166748046875
1773148987544021000,1.16302099609375,-0.5930938720703125,0.82696533203125,0.0081024169921875
1773148987554058000,1.17305810546875,-0.64422607421875,0.898193359375,0.050628662109375
1773148987564095000,1.183094970703125,-0.626068115234375,1.018798828125,0.0697021484375
1773148987574132000,1.193132080078125,-0.6150054931640625,1.178924560546875,0.1248931884765625
1773148987584169000,1.2031689453125,-0.6655120849609375,1.287841796875,0.191680908203125
1773148987594206000,1.2132060546875,-0.709869384765625,1.379180908203125,0.262237548828125
1773148987604242700,1.22324267578125,-0.7009429931640625,1.4679718017578125,0.3563079833984375
1773148987614279700,1.23327978515625,-0.6076507568359375,1.492462158203125,0.4524383544921875
1773148987624316700,1.243316650390625,-0.5717926025390625,1.464599609375,0.556732177734375
1773148987634353700,1.253353759765625,-0.5572967529296875,1.486236572265625,0.606170654296875
1773148987644391000,1.263390869140625,-0.5479583740234375,1.6194915771484375,0.5997161865234375
1773148987654427600,1.273427734375,-0.5604095458984375,1.694091796875,0.633331298828125
1773148987664464600,1.283464599609375,-0.5703887939453125,1.6885833740234375,0.6721649169921875
1773148987674501600,1.293501708984375,-0.611541748046875,1.7544708251953125,0.69061279296875
1773148987684538600,1.30353857421875,-0.5990142822265625,1.8060455322265625,0.7054290771484375
1773148987694575900,1.313575927734375,-0.5939483642578125,1.8488922119140625,0.740753173828125
1773148987704612600,1.323612548828125,-0.6278228759765625,1.8631744384765625,0.7916717529296875
1773148987714649600,1.333649658203125,-0.6440277099609375,1.840911865234375,0.8838653564453125
1773148987724686600,1.3436865234375,-0.5947113037109375,1.7750701904296875,1.0211334228515625
1773148987734723800,1.353723876953125,-0.547515869140625,1.7196807861328125,1.12078857421875
1773148987744760800,1.3637607421875,-0.537628173828125,1.7339324951171875,1.177581787109375
1773148987754797800,1.3737978515625,-0.539031982421875,1.7628936767578125,1.171142578125
1773148987764834600,1.38383447265625,-0.53753662109375,1.7131805419921875,1.2165374755859375
1773148987774871800,1.393871826171875,-0.5617523193359375,1.6231231689453125,1.216461181640625
1773148987784908800,1.40390869140625,-0.6033172607421875,1.55047607421875,1.1954193115234375
1773148987794945800,1.41394580078125,-0.6415252685546875,1.4576568603515625,1.18267822265625
1773148987804982800,1.423982666015625,-0.683837890625,1.352264404296875,1.1953125
1773148987815019500,1.43401953125,-0.6860809326171875,1.237457275390625,1.212738037109375
1773148987825056800,1.444056884765625,-0.628448486328125,1.1622772216796875,1.0419158935546875
1773148987835093800,1.45409375,-0.7489013671875,1.0387115478515625,0.321746826171875
1773148987845130800,1.464130859375,-0.96246337890625,0.7103424072265625,-0.21771240234375
1773148987855167700,1.474167724609375,-0.892303466796875,0.458984375,-0.3698883056640625
1773148987865203700,1.48420361328125,-0.7005462646484375,0.4053955078125,-0.19158935546875
1773148987875240700,1.49424072265625,-0.569091796875,0.3688201904296875,-0.0728302001953125
1773148987885277700,1.504277587890625,-0.6202850341796875,0.388275146484375,0.0350189208984375
1773148987895314700,1.514314697265625,-0.5226287841796875,0.48358154296875,0.1029510498046875
1773148987905351700,1.5243515625,-0.3961029052734375,0.5486907958984375,0.3014068603515625
1773148987915389000,1.534388916015625,-0.189239501953125,0.64825439453125,0.4942626953125
1773148987925425700,1.54442578125,0.0681915283203125,0.7116241455078125,0.6399688720703125
1773148987935462700,1.554462646484375,0.28387451171875,0.73785400390625,0.6999664306640625
1773148987945499600,1.564499755859375,0.4007110595703125,0.752349853515625,0.822784423828125
1773148987955536600,1.57453662109375,0.4590911865234375,0.755157470703125,0.8625335693359375
1773148987965574000,1.584573974609375,0.4701080322265625,0.754150390625,0.8265533447265625
1773148987975610600,1.594610595703125,0.4715728759765625,0.7018280029296875,0.766754150390625
1773148987985647600,1.604647705078125,0.40753173828125,0.63824462890625,0.795654296875
1773148987995684600,1.6146845703125,0.3397064208984375,0.572784423828125,0.8155059814453125
1773148988005721900,1.624721923828125,0.4405975341796875,0.5690155029296875,0.7610626220703125
1773148988015758800,1.6347587890625,0.47308349609375,0.5604248046875,0.7051239013671875
1773148988025795600,1.644795654296875,0.4819488525390625,0.5995635986328125,0.4846649169921875
1773148988035832600,1.65483251953125,0.37615966796875,0.71636962890625,-0.0321807861328125
1773148988045869800,1.664869873046875,0.156219482421875,0.399322509765625,0.113433837890625
1773148988055906800,1.67490673828125,0.1187591552734375,0.5337066650390625,0.18670654296875
1773148988065943800,1.68494384765625,0.0706024169921875,0.499969482421875,0.35430908203125
1773148988075980500,1.69498046875,0.2619171142578125,0.548309326171875,0.48590087890625
1773148988086017500,1.705017578125,0.3785247802734375,0.4000701904296875,0.9142913818359375
1773148988096054800,1.7150546875,0.3880615234375,0.432586669921875,1.228271484375
1773148988106091800,1.725091796875,0.536651611328125,0.546630859375,0.99786376953125
1773148988116128800,1.735128662109375,0.384796142578125,0.587982177734375,0.6612396240234375
1773148988126165500,1.74516552734375,0.2518768310546875,0.505584716796875,0.439300537109375
1773148988136202800,1.75520263671875,0.1578216552734375,0.495513916015625,0.315521240234375
1773148988146239700,1.76523974609375,0.098388671875,0.33990478515625,0.3389129638671875
1773148988156276700,1.77527685546875,0.217010498046875,0.25360107421875,0.46246337890625
1773148988166313700,1.785313720703125,0.3635406494140625,0.3719635009765625,0.4761962890625
1773148988176350700,1.795350830078125,0.477935791015625,0.46466064453125,0.4560699462890625
1773148988186387700,1.8053876953125,0.403106689453125,0.5449676513671875,0.4434814453125
1773148988196424700,1.8154248046875,0.197479248046875,0.7013702392578125,0.4699554443359375
1773148988206461700,1.825461669921875,0.0359039306640625,0.935577392578125,0.4182281494140625
1773148988216498700,1.835498779296875,-0.075958251953125,0.986572265625,0.3795166015625
1773148988226535700,1.84553564453125,-0.1962738037109375,1.1159210205078125,0.359344482421875
1773148988236572700,1.85557275390625,-0.2328948974609375,1.02838134765625,0.3929901123046875
1773148988246609700,1.865609619140625,-0.3114471435546875,0.9335174560546875,0.4552154541015625
1773148988256645600,1.875645751953125,-0.187255859375,0.79937744140625,0.4281463623046875
1773148988266682600,1.8856826171875,-0.05242919921875,0.64447021484375,0.4297943115234375
1773148988276719900,1.895719970703125,0.0476226806640625,0.7549896240234375,0.54498291015625
1773148988286756900,1.9057568359375,0.1798553466796875,0.7809600830078125,0.531494140625
1773148988296793600,1.915793701171875,0.2167816162109375,0.743408203125,0.569732666015625
1773148988306830600,1.92583056640625,0.126983642578125,0.7357940673828125,0.6598358154296875
1773148988316867800,1.935867919921875,0.0109100341796875,0.73291015625,0.7622833251953125
1773148988326904800,1.94590478515625,0.1376190185546875,0.7404327392578125,0.8486480712890625
1773148988336941800,1.95594189453125,0.1776123046875,0.736785888671875,0.872314453125
1773148988346978600,1.965978515625,0.0599365234375,0.8013763427734375,0.85430908203125
1773148988357015600,1.976015625,0.139495849609375,0.837554931640625,0.77960205078125
1773148988367052800,1.986052734375,-0.0469512939453125,1.2088470458984375,0.825897216796875
1773148988377089800,1.99608984375,-0.132537841796875,1.112518310546875,0.775665283203125
1773148988387126800,2.006126708984375,-0.1649932861328125,0.8239593505859375,0.6881866455078125
1773148988397163500,2.01616357421875,-0.2907867431640625,0.725250244140625,0.703826904296875
1773148988407200800,2.02620068359375,-0.294830322265625,0.9002227783203125,0.817901611328125
1773148988417237800,2.03623779296875,-0.1333160400390625,0.9035186767578125,0.875030517578125
1773148988427274800,2.046274658203125,-0.009002685546875,0.7764129638671875,0.8999481201171875
1773148988437311700,2.056311767578125,-0.10235595703125,0.7293243408203125,0.8488922119140625
1773148988447348700,2.0663486328125,-0.231842041015625,0.710479736328125,0.77294921875
1773148988457385700,2.0763857421875,-0.28582763671875,0.7154998779296875,0.7326202392578125
1773148988467422700,2.086422607421875,-0.190032958984375,0.67877197265625,0.709381103515625
1773148988477459700,2.096459716796875,-0.16058349609375,0.6392822265625,0.683837890625
1773148988487496700,2.10649658203125,-0.2503204345703125,0.642913818359375,0.7155303955078125
1773148988497533700,2.11653369140625,-0.367095947265625,0.6546173095703125,0.778656005859375
1773148988507570700,2.12657080078125,-0.43670654296875,0.7005157470703125,0.746490478515625
1773148988517607700,2.136607666015625,-0.3777313232421875,0.6865386962890625,0.6571044921875
1773148988527644700,2.146644775390625,-0.339752197265625,0.6656494140625,0.5626220703125
1773148988537682000,2.156681884765625,-0.30322265625,0.631439208984375,0.5106658935546875
1773148988547718700,2.16671875,-0.1934967041015625,0.5623931884765625,0.518890380859375
1773148988557755600,2.176755615234375,-0.1698455810546875,0.5633392333984375,0.5979766845703125
1773148988567792600,2.186792724609375,-0.0735015869140625,0.5537109375,0.577484130859375
1773148988577829600,2.19682958984375,-0.02825927734375,0.558990478515625,0.731231689453125
1773148988587867000,2.206866943359375,0.0321044921875,0.630096435546875,0.9173126220703125
1773148988597903600,2.216903564453125,0.02227783203125,0.8585357666015625,0.987396240234375
1773148988607940900,2.22694091796875,-0.008453369140625,1.0863037109375,1.0402984619140625
1773148988617977900,2.236977783203125,-0.060150146484375,1.3579864501953125,1.0612640380859375
1773148988628014800,2.247014892578125,-0.0235748291015625,1.4970855712890625,1.0448455810546875
1773148988638052000,2.257052001953125,-0.0753631591796875,1.3503875732421875,1.064422607421875
1773148988648088800,2.2670888671875,-0.1877593994140625,1.32012939453125,0.96942138671875
1773148988658125800,2.277125732421875,-0.0807647705078125,1.3848114013671875,0.750457763671875
1773148988668162800,2.287162841796875,0.026336669921875,1.3849334716796875,0.6167755126953125
1773148988678199800,2.29719970703125,0.123046875,1.3105316162109375,0.4909210205078125
1773148988688237000,2.307237060546875,0.147308349609375,1.24554443359375,0.3650054931640625
1773148988698273800,2.317273681640625,0.0863494873046875,1.2607269287109375,0.260162353515625
1773148988708310800,2.327310791015625,-0.1303558349609375,1.4180145263671875,0.1420440673828125
1773148988718347800,2.33734765625,-0.861480712890625,1.8640289306640625,-0.0418243408203125
1773148988728385000,2.347385009765625,-1.3903961181640625,2.0908355712890625,-0.1119232177734375
1773148988738421000,2.3574208984375,-1.0023345947265625,1.67681884765625,0.0187835693359375
1773148988748458000,2.3674580078125,-0.3782806396484375,1.3038787841796875,0.1400909423828125
1773148988758495000,2.377494873046875,-0.241455078125,1.0795135498046875,0.171875
1773148988768531700,2.38753173828125,-0.1333465576171875,0.89678955078125,0.1933746337890625
1773148988778569000,2.39756884765625,-0.0215911865234375,0.78759765625,0.2263946533203125
1773148988788606000,2.40760595703125,0.05364990234375,0.7022857666015625,0.2665557861328125
1773148988798643000,2.417642822265625,0.1559906005859375,0.649139404296875,0.3340301513671875
1773148988808680000,2.427679931640625,0.2378692626953125,0.6490020751953125,0.40185546875
1773148988818716700,2.437716552734375,0.314971923828125,0.644195556640625,0.4728240966796875
1773148988828754000,2.44775390625,0.3856353759765625,0.630584716796875,0.543212890625
1773148988838791000,2.457791015625,0.3611602783203125,0.6226043701171875,0.600555419921875
1773148988848828000,2.467827880859375,0.2549591064453125,0.6023406982421875,0.626800537109375
1773148988858865000,2.477864990234375,0.121002197265625,0.594757080078125,0.627838134765625
1773148988868902000,2.48790185546875,0.0207672119140625,0.6673736572265625,0.5854644775390625
1773148988878939000,2.49793896484375,-0.0596160888671875,0.7711944580078125,0.4770050048828125
1773148988888976000,2.507975830078125,-0.10699462890625,0.8373260498046875,0.3835906982421875
1773148988899012900,2.518012939453125,-0.15142822265625,0.8811492919921875,0.3359222412109375
1773148988909050000,2.528050048828125,-0.2297821044921875,0.9060821533203125,0.312713623046875
1773148988919086800,2.5380869140625,-0.26763916015625,0.8637237548828125,0.296875
1773148988929123800,2.548123779296875,-0.194610595703125,0.7906951904296875,0.2743377685546875
1773148988939160800,2.558160888671875,-0.1337738037109375,0.709136962890625,0.250274658203125
1773148988949197800,2.56819775390625,-0.1823272705078125,0.6248016357421875,0.263397216796875
1773148988959235000,2.578235107421875,-0.2481842041015625,0.5544586181640625,0.32421875
1773148988969271800,2.588271728515625,-0.192718505859375,0.5442352294921875,0.4096221923828125
1773148988979308800,2.598308837890625,-0.1103515625,0.6014404296875,0.4700927734375
1773148988989345800,2.608345703125,-0.005340576171875,0.6877593994140625,0.494415283203125
1773148988999383000,2.618383056640625,0.0739593505859375,0.756256103515625,0.5006256103515625
1773148989009420000,2.628419921875,0.104339599609375,0.8346710205078125,0.48016357421875
1773148989019456800,2.638456787109375,0.0912322998046875,0.8386383056640625,0.5049285888671875
1773148989029493800,2.64849365234375,-0.01104736328125,0.8045501708984375,0.6006927490234375
1773148989039531000,2.658531005859375,-0.07281494140625,0.773712158203125,0.6743621826171875
1773148989049568000,2.668568115234375,-0.094207763671875,0.827301025390625,0.68438720703125
1773148989059605000,2.67860498046875,-0.11187744140625,0.96832275390625,0.5501556396484375
1773148989069641700,2.688641845703125,-0.127044677734375,0.9790496826171875,0.4300537109375
1773148989079678700,2.6986787109375,-0.171630859375,0.88409423828125,0.350799560546875
1773148989089716000,2.708716064453125,-0.18463134765625,0.8037109375,0.3158416748046875
1773148989099753000,2.7187529296875,-0.1793212890625,0.7821197509765625,0.3211669921875
1773148989109790000,2.7287900390625,-0.1894378662109375,0.841949462890625,0.361907958984375
1773148989119826700,2.73882666015625,-0.2345733642578125,0.937591552734375,0.4476470947265625
1773148989129864000,2.748864013671875,-0.2946319580078125,1.048583984375,0.5496063232421875
1773148989139901000,2.75890087890625,-0.33477783203125,1.1310577392578125,0.6570281982421875
1773148989149938000,2.76893798828125,-0.392791748046875,1.2010040283203125,0.753631591796875
1773148989159975000,2.778974853515625,-0.391845703125,1.1932830810546875,0.7646636962890625
1773148989170012000,2.789011962890625,-0.4994354248046875,1.145233154296875,0.760772705078125
1773148989180049000,2.799048828125,-0.566192626953125,1.065826416015625,0.7127838134765625
1773148989190086000,2.8090859375,-0.543060302734375,1.042694091796875,0.6103515625
1773148989200123000,2.819122802734375,-0.5275421142578125,1.2225494384765625,0.499542236328125
1773148989210159900,2.829159912109375,-0.5726165771484375,1.457611083984375,0.4712677001953125
1773148989220196900,2.83919677734375,0.183685302734375,1.452239990234375,0.281951904296875
1773148989230233900,2.84923388671875,0.22601318359375,1.00396728515625,0.119537353515625
1773148989240270800,2.859270751953125,0.1238861083984375,0.73797607421875,0.040313720703125
1773148989250307800,2.869307861328125,-0.092010498046875,0.8908233642578125,-0.0052032470703125
1773148989260345000,2.879344970703125,-0.122802734375,1.054168701171875,-0.068145751953125
1773148989270381800,2.8893818359375,0.0880126953125,1.160125732421875,-0.158233642578125
1773148989280418800,2.899418701171875,0.329925537109375,1.294586181640625,-0.25299072265625
1773148989290455800,2.909455810546875,0.4638824462890625,1.551116943359375,-0.334991455078125
1773148989300492800,2.919492919921875,0.368499755859375,1.722137451171875,-0.377410888671875
1773148989310530000,2.929530029296875,0.2994232177734375,1.57269287109375,-0.3750762939453125
1773148989320566800,2.93956689453125,0.1864166259765625,1.3076629638671875,-0.4358367919921875
1773148989330603800,2.949603759765625,0.1054840087890625,1.0850830078125,-0.532623291015625
1773148989340640800,2.959640869140625,0.182098388671875,0.8802947998046875,-0.5015869140625
1773148989350678000,2.969677978515625,0.31256103515625,0.6229400634765625,-0.4437713623046875
1773148989360715000,2.979715087890625,0.1113739013671875,0.39520263671875,-0.3907470703125
1773148989370751700,2.989751708984375,0.04901123046875,0.345001220703125,-0.3436279296875
1773148989380788700,2.999788818359375,0.029296875,0.344390869140625,-0.3587493896484375
1773148989390826000,3.009825927734375,0.1058502197265625,0.384521484375,-0.391021728515625
1773148989400863000,3.019863037109375,0.1581268310546875,0.3807220458984375,-0.3737030029296875
1773148989410900000,3.02989990234375,0.2294464111328125,0.42510986328125,-0.4150848388671875
1773148989420936700,3.039936767578125,0.29833984375,0.5533294677734375,-0.5181884765625
1773148989430973700,3.0499736328125,0.3170928955078125,0.758544921875,-0.5960540771484375
1773148989441011000,3.060010986328125,0.3193359375,0.88018798828125,-0.6124725341796875
1773148989451048000,3.0700478515625,0.325347900390625,0.9181671142578125,-0.5609893798828125
1773148989461085000,3.0800849609375,0.3664398193359375,0.96478271484375,-0.4942169189453125
1773148989471121700,3.09012158203125,0.413421630859375,1.0498199462890625,-0.442718505859375
1773148989481159000,3.100158935546875,0.447784423828125,1.182159423828125,-0.4188995361328125
1773148989491196000,3.11019580078125,0.4562225341796875,1.2830810546875,-0.395721435546875
1773148989501233000,3.12023291015625,0.40106201171875,1.2916107177734375,-0.36322021484375
1773148989511270000,3.130269775390625,0.247772216796875,1.1141204833984375,-0.232452392578125
1773148989521307000,3.140306884765625,0.0920257568359375,1.091552734375,-0.161102294921875
1773148989531344000,3.15034375,-0.0445709228515625,1.181427001953125,-0.1270904541015625
1773148989541380900,3.160380859375,0.010650634765625,1.1399078369140625,-0.0641937255859375
1773148989551417900,3.17041796875,0.071502685546875,1.0338287353515625,0.0058441162109375
1773148989561454800,3.180454833984375,0.1018829345703125,0.9617919921875,0.0755767822265625
1773148989571491800,3.190491943359375,0.1192474365234375,0.92938232421875,0.1704559326171875
1773148989581528800,3.20052880859375,0.07244873046875,0.9040679931640625,0.2349090576171875
1773148989591565800,3.21056591796875,-0.0439910888671875,0.881439208984375,0.2269439697265625
1773148989601602600,3.2206025390625,-0.0877685546875,0.893463134765625,0.17791748046875
1773148989611639800,3.230639892578125,-0.1227874755859375,0.934783935546875,0.1331024169921875
1773148989621676800,3.2406767578125,-0.15765380859375,1.0146942138671875,0.1072845458984375
1773148989631713500,3.250713623046875,-0.1619873046875,1.0928192138671875,0.092376708984375
1773148989641750500,3.26075048828125,-0.12408447265625,1.1328277587890625,0.08917236328125
1773148989651787500,3.27078759765625,-0.0638275146484375,1.1417388916015625,0.0867156982421875
1773148989661824800,3.28082470703125,-0.007904052734375,1.135650634765625,0.083770751953125
1773148989671861800,3.29086181640625,0.0384368896484375,1.1220550537109375,0.0843353271484375
1773148989681898500,3.3008984375,0.0833282470703125,1.0857696533203125,0.0851898193359375
1773148989691935500,3.310935546875,0.111541748046875,1.0029296875,0.065948486328125
1773148989701972700,3.32097265625,0.142181396484375,0.93890380859375,0.041229248046875
1773148989712009700,3.331009765625,0.1868743896484375,0.92498779296875,0.01324462890625
1773148989722046700,3.341046630859375,0.224700927734375,0.9326629638671875,-0.0030670166015625
1773148989732083500,3.35108349609375,0.24761962890625,0.949615478515625,-0.01251220703125
1773148989742120700,3.36112060546875,0.2540130615234375,0.9576416015625,-0.020904541015625
1773148989752157700,3.37115771484375,0.247283935546875,0.95977783203125,-0.03680419921875
1773148989762194700,3.381194580078125,0.227630615234375,0.960296630859375,-0.0525970458984375
1773148989772231700,3.391231689453125,0.1968841552734375,0.97650146484375,-0.062530517578125
1773148989782268400,3.401268310546875,0.16387939453125,1.0095672607421875,-0.0666351318359375
1773148989792305700,3.4113056640625,0.1226959228515625,1.0463409423828125,-0.0694580078125
1773148989802342700,3.4213427734375,0.0766143798828125,1.06536865234375,-0.0674896240234375
1773148989812379600,3.431379638671875,0.0415802001953125,1.0634307861328125,-0.0536651611328125
1773148989822416600,3.441416748046875,0.0186767578125,1.0560760498046875,-0.01507568359375
1773148989832453600,3.45145361328125,0.0080718994140625,1.054962158203125,0.0415496826171875
1773148989842490600,3.46149072265625,0.0108642578125,1.06134033203125,0.0953216552734375
1773148989852527600,3.471527587890625,0.022613525390625,1.0601348876953125,0.1412200927734375
1773148989862564600,3.481564697265625,0.041717529296875,1.0396728515625,0.17919921875
1773148989872601900,3.491601806640625,0.0618743896484375,0.9978790283203125,0.199310302734375
1773148989882638600,3.501638671875,0.0831756591796875,0.96234130859375,0.199310302734375
1773148989892675600,3.511675537109375,0.108184814453125,0.9471893310546875,0.1826171875
1773148989902712600,3.521712646484375,0.135589599609375,0.9571685791015625,0.152191162109375
1773148989912749600,3.53174951171875,0.1581573486328125,0.9743194580078125,0.11419677734375
1773148989922786800,3.541786865234375,0.1766357421875,0.9836578369140625,0.0777130126953125
1773148989932823600,3.551823486328125,0.1975860595703125,1.007843017578125,0.052703857421875
1773148989942860500,3.561860595703125,0.218170166015625,1.03338623046875,0.0186614990234375
1773148989952897500,3.5718974609375,0.2346343994140625,1.0447998046875,-0.021148681640625
1773148989962934800,3.581934814453125,0.241729736328125,1.0533599853515625,-0.063232421875
1773148989972971800,3.5919716796875,0.23638916015625,1.05633544921875,-0.0989990234375
1773148989983008500,3.602008544921875,0.213592529296875,1.0467071533203125,-0.1230621337890625
1773148989993045500,3.61204541015625,0.16815185546875,1.0544891357421875,-0.1308746337890625
1773148990003082500,3.62208251953125,0.1218414306640625,1.08807373046875,-0.136871337890625
1773148990013119700,3.63211962890625,0.0803070068359375,1.1435394287109375,-0.1409149169921875
1773148990023156700,3.64215673828125,0.043609619140625,1.18463134765625,-0.14288330078125
1773148990033193500,3.652193359375,0.0092926025390625,1.204925537109375,-0.1504058837890625
1773148990043230500,3.66223046875,-0.0097198486328125,1.1982421875,-0.1493072509765625
1773148990053267700,3.672267822265625,-0.0243072509765625,1.176422119140625,-0.146942138671875
1773148990063304700,3.6823046875,-0.0339813232421875,1.1255340576171875,-0.156219482421875
1773148990073341700,3.692341796875,-0.0476531982421875,1.043792724609375,-0.178558349609375
1773148990083378400,3.70237841796875,-0.0617523193359375,0.9657745361328125,-0.196807861328125
1773148990093415700,3.712415771484375,-0.0731048583984375,0.9358062744140625,-0.2082977294921875
1773148990103452700,3.72245263671875,-0.049835205078125,0.9516754150390625,-0.215911865234375
1773148990113489700,3.73248974609375,0.0125732421875,1.0039825439453125,-0.2137298583984375
1773148990123526700,3.742526611328125,0.09161376953125,1.03143310546875,-0.2147064208984375
1773148990133563400,3.7525634765625,0.1602325439453125,1.027618408203125,-0.2277984619140625
1773148990143600600,3.7626005859375,0.20611572265625,1.022735595703125,-0.239776611328125
1773148990153637600,3.7726376953125,0.2243499755859375,1.0139312744140625,-0.251495361328125
1773148990163674600,3.782674560546875,0.2200164794921875,0.9941558837890625,-0.2458953857421875
1773148990173711600,3.792711669921875,0.18853759765625,0.976531982421875,-0.2255859375
1773148990183748600,3.80274853515625,0.149932861328125,0.9978179931640625,-0.178009033203125
1773148990193785600,3.81278564453125,0.115142822265625,1.02081298828125,-0.10552978515625
1773148990203822600,3.822822509765625,0.08465576171875,1.03778076171875,-0.0455474853515625
1773148990213859600,3.832859619140625,0.0514068603515625,1.03790283203125,-0.013153076171875
1773148990223896800,3.842896728515625,0.022308349609375,1.0316925048828125,-0.0039825439453125
1773148990233933600,3.85293359375,-0.0004425048828125,1.0230255126953125,-0.00244140625
1773148990243970600,3.862970458984375,-0.017578125,0.997894287109375,-0.0061492919921875
1773148990254007600,3.873007568359375,-0.013580322265625,0.96466064453125,-0.016815185546875
1773148990264044500,3.88304443359375,0.0015869140625,0.9327392578125,-0.02630615234375
1773148990274081800,3.893081787109375,0.015472412109375,0.907623291015625,-0.03253173828125
1773148990284118500,3.903118408203125,0.02374267578125,0.90155029296875,-0.0428466796875
1773148990294155500,3.913155517578125,0.0193634033203125,0.905242919921875,-0.0579986572265625
1773148990304192500,3.923192626953125,0.003662109375,0.9111785888671875,-0.079833984375
1773148990314229800,3.933229736328125,-0.018218994140625,0.9172515869140625,-0.100341796875
1773148990324266800,3.943266845703125,-0.0428924560546875,0.9257354736328125,-0.1224517822265625
1773148990334303700,3.9533037109375,-0.0675048828125,0.9361572265625,-0.1451568603515625
1773148990344340500,3.963340576171875,-0.0849761962890625,0.9438629150390625,-0.1667938232421875
1773148990354377700,3.973377685546875,-0.095458984375,0.9442901611328125,-0.17822265625
1773148990364412700,3.98341259765625,-0.0973968505859375,0.9389801025390625,-0.18182373046875
1773148990374449700,3.99344970703125,-0.094879150390625,0.9365692138671875,-0.1836090087890625
1773148990384486700,4.003486572265625,-0.0927886962890625,0.937835693359375,-0.1756439208984375
1773148990394523600,4.013523681640625,-0.0845947265625,0.9425506591796875,-0.164581298828125
1773148990404560600,4.023560546875,-0.0660858154296875,0.95086669921875,-0.1544189453125
1773148990414597600,4.03359765625,-0.045135498046875,0.961517333984375,-0.1552276611328125
1773148990424634600,4.043634521484375,-0.0305023193359375,0.970489501953125,-0.16705322265625
1773148990434671600,4.053671630859375,-0.0272979736328125,0.9691162109375,-0.1685943603515625
1773148990444708600,4.06370849609375,-0.032135009765625,0.9638214111328125,-0.1728668212890625
1773148990454745600,4.07374560546875,-0.045166015625,0.9585723876953125,-0.180389404296875
1773148990464782600,4.083782470703125,-0.059539794921875,0.950286865234375,-0.2027130126953125
1773148990474819600,4.093819580078125,-0.07562255859375,0.9439849853515625,-0.2214202880859375
1773148990484856600,4.103856689453125,-0.081787109375,0.9486236572265625,-0.2357330322265625
1773148990494893600,4.1138935546875,-0.0881500244140625,0.9766082763671875,-0.2490234375
1773148990504930800,4.123930908203125,-0.10498046875,1.0085296630859375,-0.2645111083984375
1773148990514967600,4.133967529296875,-0.13311767578125,0.997833251953125,-0.2732696533203125
1773148990525004500,4.144004638671875,-0.1555023193359375,0.97515869140625,-0.2363128662109375
1773148990535041500,4.15404150390625,-0.1483001708984375,0.9900665283203125,-0.1417236328125
1773148990545078500,4.16407861328125,-0.1343536376953125,1.0509185791015625,-0.0621337890625
1773148990555115800,4.17411572265625,-0.0738372802734375,1.0963134765625,-0.032196044921875
1773148990565152800,4.18415283203125,-0.00201416015625,1.0533599853515625,-0.079132080078125
1773148990575189500,4.194189453125,0.0220489501953125,0.987701416015625,-0.1208648681640625
1773148990585226500,4.2042265625,0.0182647705078125,0.9361419677734375,-0.112579345703125
1773148990595263700,4.214263671875,0.0113372802734375,0.90020751953125,-0.104888916015625
1773148990605300500,4.224300537109375,-0.011627197265625,0.8965301513671875,-0.1620330810546875
1773148990615337500,4.23433740234375,-0.0331878662109375,0.9387664794921875,-0.2353515625
1773148990625374200,4.244374267578125,-0.0354156494140625,0.98681640625,-0.2689208984375
1773148990635411500,4.254411376953125,-0.0265350341796875,1.0211029052734375,-0.25970458984375
1773148990645448400,4.264448486328125,-0.016571044921875,1.0455322265625,-0.2146148681640625
1773148990655485400,4.2744853515625,-0.0110321044921875,1.072418212890625,-0.14544677734375
1773148990665522400,4.2845224609375,-0.0077056884765625,1.0886077880859375,-0.06060791015625
1773148990675559200,4.29455908203125,-0.0146484375,1.08123779296875,0.0193939208984375
1773148990685596400,4.304596435546875,-0.032684326171875,1.046356201171875,0.0824432373046875
1773148990695633400,4.31463330078125,-0.05780029296875,0.98651123046875,0.1196441650390625
1773148990705670400,4.32467041015625,-0.071258544921875,0.9274749755859375,0.116363525390625
1773148990715707400,4.334707275390625,-0.0684661865234375,0.902099609375,0.0686187744140625
1773148990725744400,4.344744384765625,-0.0412750244140625,0.9107818603515625,0.004547119140625
1773148990735781400,4.354781494140625,-0.00750732421875,0.9343414306640625,-0.0577392578125
1773148990745818400,4.364818359375,0.0116424560546875,0.9598236083984375,-0.0993194580078125
1773148990755855400,4.37485546875,0.0105438232421875,0.9899444580078125,-0.1181488037109375
1773148990765892400,4.384892333984375,-0.0036773681640625,1.01177978515625,-0.12298583984375
1773148990775929300,4.394929443359375,-0.0205535888671875,1.0152435302734375,-0.1171875
1773148990785966300,4.40496630859375,-0.0232391357421875,1.003570556640625,-0.1112060546875
1773148990796003300,4.41500341796875,-0.0123291015625,0.9849395751953125,-0.105072021484375
1773148990806040300,4.425040283203125,-0.0002593994140625,0.968048095703125,-0.0983734130859375
1773148990816077600,4.43507763671875,0.0106048583984375,0.9535980224609375,-0.0946502685546875
1773148990826114300,4.4451142578125,0.02423095703125,0.939849853515625,-0.0869903564453125
1773148990836151300,4.4551513671875,0.0362548828125,0.9364776611328125,-0.076507568359375
1773148990846188300,4.465188232421875,0.041717529296875,0.950592041015625,-0.0703125
1773148990856225500,4.4752255859375,0.0326995849609375,0.9773406982421875,-0.07257080078125
1773148990866262500,4.485262451171875,0.0102081298828125,1.0108642578125,-0.0839080810546875
1773148990876299300,4.49529931640625,-0.015869140625,1.0370330810546875,-0.1027984619140625
1773148990886336300,4.505336181640625,-0.0489501953125,1.048828125,-0.11492919921875
1773148990896373200,4.515373291015625,-0.0762786865234375,1.0486602783203125,-0.1192626953125
1773148990906410500,4.525410400390625,-0.091461181640625,1.042816162109375,-0.1141510009765625
1773148990916448300,4.5354482421875,-0.08642578125,1.036712646484375,-0.10235595703125
1773148990926484200,4.545484130859375,-0.06024169921875,1.0319061279296875,-0.0879974365234375
1773148990936522500,4.5555224609375,-0.024383544921875,1.025787353515625,-0.07720947265625
1773148990946559500,4.5655595703125,0.01666259765625,1.021026611328125,-0.0716552734375
1773148990956596500,4.575596435546875,0.0534515380859375,1.0105743408203125,-0.0725860595703125
1773148990966633200,4.58563330078125,0.080810546875,0.9979400634765625,-0.0750732421875
1773148990976670200,4.595670166015625,0.09893798828125,0.98834228515625,-0.0753631591796875
1773148990986707500,4.60570751953125,0.107330322265625,0.98822021484375,-0.0746002197265625
1773148990996744400,4.615744384765625,0.10162353515625,0.992645263671875,-0.0777130126953125
1773148991006781400,4.625781494140625,0.0840606689453125,0.9950714111328125,-0.0825042724609375
1773148991016818200,4.635818115234375,0.05828857421875,0.993408203125,-0.0896453857421875
1773148991026855400,4.64585546875,0.030975341796875,0.9903717041015625,-0.0992889404296875
1773148991036892400,4.655892333984375,0.0120086669921875,0.990997314453125,-0.1126251220703125
1773148991046929400,4.665929443359375,0.00311279296875,0.994537353515625,-0.126953125
1773148991056966400,4.67596630859375,-0.001007080078125,0.994232177734375,-0.1394805908203125
1773148991067003400,4.68600341796875,0.0027008056640625,0.989501953125,-0.14825439453125
1773148991077040400,4.696040283203125,0.0129547119140625,0.9818115234375,-0.152496337890625
1773148991087077400,4.706077392578125,0.027313232421875,0.9747161865234375,-0.1487579345703125
1773148991097114400,4.7161142578125,0.038116455078125,0.9732208251953125,-0.1380157470703125
1773148991107151400,4.7261513671875,0.0453033447265625,0.9764404296875,-0.1227264404296875
1773148991117188400,4.736188232421875,0.044952392578125,0.9865570068359375,-0.1044464111328125
1773148991127225300,4.746225341796875,0.0422821044921875,0.9948883056640625,-0.0894927978515625
1773148991137262300,4.756262451171875,0.041046142578125,0.99365234375,-0.07958984375
1773148991147299300,4.76629931640625,0.0385589599609375,0.9893798828125,-0.0716094970703125
1773148991157336600,4.776336669921875,0.0375213623046875,0.9872589111328125,-0.064453125
1773148991167373300,4.786373291015625,0.042144775390625,0.9853515625,-0.05963134765625
1773148991177410300,4.796410400390625,0.0537261962890625,0.984405517578125,-0.058563232421875
1773148991187447300,4.806447265625,0.0653839111328125,0.9806976318359375,-0.06231689453125
1773148991197484500,4.816484619140625,0.0748443603515625,0.9841156005859375,-0.06634521484375
1773148991207521500,4.826521484375,0.079803466796875,0.996673583984375,-0.0689544677734375
1773148991217558300,4.836558349609375,0.081207275390625,1.006927490234375,-0.0716552734375
1773148991227595300,4.84659521484375,0.07861328125,1.003692626953125,-0.073089599609375
1773148991237632300,4.85663232421875,0.0707550048828125,0.99249267578125,-0.0740966796875
1773148991247669500,4.86666943359375,0.06439208984375,0.9786529541015625,-0.0758514404296875
1773148991257706500,4.87670654296875,0.061126708984375,0.9616546630859375,-0.0774688720703125
1773148991267743200,4.8867431640625,0.063079833984375,0.951873779296875,-0.080322265625
1773148991277780200,4.8967802734375,0.072021484375,0.9509735107421875,-0.0870819091796875
1773148991287817500,4.9068173828125,0.0843658447265625,0.9571533203125,-0.0912322998046875
1773148991297854500,4.9168544921875,0.095428466796875,0.9696044921875,-0.093902587890625
1773148991307891500,4.926891357421875,0.1072998046875,0.9775848388671875,-0.0937347412109375
1773148991317928200,4.93692822265625,0.1179962158203125,0.9825439453125,-0.0921630859375
1773148991327965400,4.94696533203125,0.12548828125,0.9817047119140625,-0.0895843505859375
1773148991338002400,4.95700244140625,0.13067626953125,0.9759674072265625,-0.090606689453125
1773148991348039400,4.967039306640625,0.1339111328125,0.974212646484375,-0.0953826904296875
1773148991358076400,4.977076416015625,0.1361846923828125,0.980377197265625,-0.103118896484375
1773148991368113200,4.987113037109375,0.134490966796875,0.986053466796875,-0.11126708984375
1773148991378150400,4.997150390625,0.1280059814453125,0.9846038818359375,-0.1157989501953125
1773148991388187400,5.0071875,0.1187744140625,0.9755401611328125,-0.1168670654296875
1773148991398224400,5.017224365234375,0.109344482421875,0.9703521728515625,-0.1161346435546875
1773148991408261400,5.027261474609375,0.103057861328125,0.9742584228515625,-0.1134796142578125
1773148991418298400,5.03729833984375,0.102020263671875,0.9793548583984375,-0.112518310546875
1773148991428335400,5.04733544921875,0.1002197265625,0.981719970703125,-0.107513427734375
1773148991438372400,5.057372314453125,0.0969085693359375,0.9862213134765625,-0.0948028564453125
1773148991448409300,5.067409423828125,0.0917205810546875,0.9939117431640625,-0.07891845703125
1773148991458446300,5.0774462890625,0.084564208984375,1.002716064453125,-0.064208984375
1773148991468483300,5.0874833984375,0.077667236328125,1.0183563232421875,-0.0517578125
1773148991478520300,5.097520263671875,0.074371337890625,1.0340576171875,-0.0433197021484375
1773148991488557300,5.107557373046875,0.0735015869140625,1.0439910888671875,-0.037567138671875
1773148991498594300,5.11759423828125,0.0750274658203125,1.0516357421875,-0.031097412109375
1773148991508632300,5.12763232421875,0.07586669921875,1.056396484375,-0.026214599609375
1773148991518669300,5.13766943359375,0.0803680419921875,1.0677490234375,-0.0238037109375
1773148991528706300,5.147706298828125,0.08612060546875,1.07464599609375,-0.0367889404296875
1773148991538743600,5.15774365234375,0.0929107666015625,1.0932769775390625,-0.04180908203125
1773148991548780500,5.167780517578125,0.0955047607421875,1.098388671875,-0.0410919189453125
1773148991558817300,5.1778173828125,0.097564697265625,1.0938873291015625,-0.04278564453125
1773148991568854300,5.187854248046875,0.095367431640625,1.0731658935546875,-0.0437469482421875
1773148991578891300,5.197891357421875,0.0878753662109375,1.037841796875,-0.0439453125
1773148991588928500,5.207928466796875,0.0849609375,1.00347900390625,-0.0460968017578125
1773148991598965500,5.217965576171875,0.0876007080078125,0.9864501953125,-0.0447845458984375
1773148991609002800,5.228002685546875,0.0927276611328125,0.989959716796875,-0.0376434326171875
1773148991619039700,5.238039794921875,0.100494384765625,1.0029754638671875,-0.02886962890625
1773148991629077000,5.248076904296875,0.10888671875,1.0067138671875,-0.022430419921875
1773148991639114000,5.258114013671875,0.115753173828125,0.990631103515625,-0.0157470703125
1773148991649151000,5.26815087890625,0.1212615966796875,0.95989990234375,-0.0112457275390625
1773148991659187700,5.278187744140625,0.1318817138671875,0.9445343017578125,-0.00885009765625
1773148991669225000,5.288224853515625,0.1426239013671875,0.935089111328125,-0.0098876953125
1773148991679262000,5.298261962890625,0.157196044921875,0.9350433349609375,-0.0117950439453125
1773148991689299000,5.308298828125,0.1692047119140625,0.939453125,-0.014251708984375
1773148991699336000,5.3183359375,0.177764892578125,0.9348297119140625,-0.017730712890625
1773148991709373000,5.328373046875,0.1851806640625,0.93963623046875,-0.02020263671875
1773148991719410000,5.338409912109375,0.1875152587890625,0.9432525634765625,-0.0218353271484375
1773148991729447000,5.348447021484375,0.1862945556640625,0.94317626953125,-0.0188446044921875
1773148991739484000,5.35848388671875,0.18353271484375,0.949371337890625,-0.016082763671875
1773148991749521000,5.36852099609375,0.17681884765625,0.957611083984375,-0.010345458984375
1773148991759558000,5.378557861328125,0.1635284423828125,0.96234130859375,-0.00048828125
1773148991769595000,5.388594970703125,0.1537017822265625,0.9724578857421875,0.0100250244140625
1773148991779631900,5.3986318359375,0.1474761962890625,0.9895477294921875,0.01873779296875
1773148991789668900,5.4086689453125,0.1445159912109375,1.0129852294921875,0.0269775390625
1773148991799705900,5.418705810546875,0.141021728515625,1.030670166015625,0.0304718017578125
1773148991809742800,5.428742919921875,0.1392974853515625,1.0358428955078125,0.0294189453125
1773148991819779800,5.43877978515625,0.1347198486328125,1.0365447998046875,0.0271453857421875
1773148991829816800,5.44881689453125,0.13153076171875,1.0383453369140625,0.0216827392578125
1773148991839853800,5.458853759765625,0.1291656494140625,1.0508575439453125,0.0096435546875
1773148991849891000,5.46889111328125,0.128509521484375,1.067779541015625,-0.0042877197265625
1773148991859927800,5.478927734375,0.1244964599609375,1.0787353515625,-0.0233306884765625
1773148991869964800,5.48896484375,0.114898681640625,1.0747833251953125,-0.04058837890625
1773148991880001800,5.499001708984375,0.10369873046875,1.0539093017578125,-0.05609130859375
1773148991890039000,5.5090390625,0.0887908935546875,1.02679443359375,-0.0707244873046875
1773148991900076000,5.519075927734375,0.074310302734375,1.0075531005859375,-0.0821380615234375
1773148991910112800,5.52911279296875,0.0589141845703125,1.00323486328125,-0.0901947021484375
1773148991920149800,5.539149658203125,0.046905517578125,1.007110595703125,-0.092132568359375
1773148991930188000,5.54918798828125,0.0345611572265625,1.0093841552734375,-0.0849456787109375
1773148991940224800,5.559224853515625,0.0226287841796875,1.004638671875,-0.0641021728515625
1773148991950261800,5.56926171875,0.0163421630859375,0.9933013916015625,-0.0341644287109375
1773148991960298800,5.579298828125,0.019561767578125,0.981292724609375,-0.0075531005859375
1773148991970336000,5.5893359375,0.028106689453125,0.9743499755859375,0.01220703125
1773148991980373000,5.599373046875,0.043243408203125,0.9713134765625,0.027496337890625
1773148991990409700,5.60940966796875,0.062225341796875,0.978729248046875,0.039306640625
1773148992000446700,5.61944677734375,0.0823822021484375,0.9839019775390625,0.0457763671875
1773148992010484000,5.62948388671875,0.1007537841796875,0.9808197021484375,0.0443267822265625
1773148992020521000,5.63952099609375,0.1200714111328125,0.9741363525390625,0.0367889404296875
1773148992030558000,5.649557861328125,0.13525390625,0.9714813232421875,0.0254364013671875
1773148992040595000,5.659594970703125,0.14599609375,0.9748382568359375,0.015625
1773148992050632000,5.6696318359375,0.153778076171875,0.98089599609375,0.0102081298828125
1773148992060669000,5.6796689453125,0.157928466796875,0.988433837890625,0.0129547119140625
1773148992070706000,5.689705810546875,0.1583709716796875,0.99127197265625,0.023345947265625
1773148992080743000,5.699742919921875,0.1497955322265625,0.98907470703125,0.0391845703125
1773148992090780000,5.70977978515625,0.13775634765625,0.9860076904296875,0.053466796875
1773148992100817000,5.71981689453125,0.128021240234375,0.990875244140625,0.065185546875
1773148992110854000,5.72985400390625,0.1205291748046875,0.9993896484375,0.0702667236328125
1773148992120891000,5.739890869140625,0.113677978515625,1.0043182373046875,0.07098388671875
1773148992130927900,5.749927978515625,0.1079864501953125,1.01300048828125,0.0758209228515625
1773148992140964900,5.75996484375,0.10150146484375,1.016326904296875,0.0846099853515625
1773148992151001900,5.770001953125,0.09588623046875,1.01275634765625,0.0934600830078125
1773148992161038800,5.780038818359375,0.0899505615234375,1.0131378173828125,0.100067138671875
1773148992171075800,5.790075927734375,0.0850982666015625,1.0167236328125,0.1049041748046875
1773148992181112800,5.80011279296875,0.0838775634765625,1.016204833984375,0.10369873046875
1773148992191149800,5.81014990234375,0.08123779296875,1.0048370361328125,0.0984344482421875
1773148992201186800,5.820186767578125,0.08319091796875,0.9967193603515625,0.09228515625
1773148992211223800,5.830223876953125,0.087982177734375,0.9993438720703125,0.0850982666015625
1773148992221260800,5.8402607421875,0.0912628173828125,1.00567626953125,0.0738677978515625
1773148992231298000,5.850298095703125,0.0976409912109375,1.0120849609375,0.0613861083984375
1773148992241335000,5.8603349609375,0.1015472412109375,1.0137481689453125,0.0522918701171875
1773148992251371800,5.870371826171875,0.102508544921875,1.0100860595703125,0.0467376708984375
1773148992261408800,5.88040869140625,0.0999908447265625,1.0040740966796875,0.04595947265625
1773148992271446000,5.890446044921875,0.0977935791015625,0.9971923828125,0.0452880859375
1773148992281483000,5.90048291015625,0.0953369140625,0.9913177490234375,0.044342041015625
1773148992291520000,5.91052001953125,0.093658447265625,0.9912872314453125,0.0438385009765625
1773148992301556700,5.920556640625,0.095458984375,0.993804931640625,0.0416717529296875
1773148992311593700,5.93059375,0.0982208251953125,0.998779296875,0.0379180908203125
1773148992321632000,5.940632080078125,0.1036834716796875,1.00408935546875,0.032806396484375
1773148992331668700,5.950668701171875,0.108123779296875,1.0013580322265625,0.0259857177734375
1773148992341705700,5.960705810546875,0.109466552734375,0.9962158203125,0.01922607421875
1773148992351743000,5.970742919921875,0.108367919921875,0.9926605224609375,0.013427734375
1773148992361780000,5.980780029296875,0.1079559326171875,0.9933013916015625,0.0067596435546875
1773148992371817000,5.99081689453125,0.1074676513671875,0.9991455078125,-0.0025634765625
1773148992381853700,6.000853759765625,0.1046905517578125,1.003631591796875,-0.0117645263671875
1773148992391890700,6.010890625,0.103485107421875,1.0067901611328125,-0.0219268798828125
1773148992401928000,6.020927978515625,0.102081298828125,1.0084075927734375,-0.0305938720703125
1773148992411965000,6.03096484375,0.0999603271484375,1.0110321044921875,-0.03729248046875
1773148992422002000,6.041001953125,0.0979156494140625,1.0139923095703125,-0.04168701171875
1773148992432039000,6.051038818359375,0.094573974609375,1.012115478515625,-0.041900634765625
1773148992442076000,6.061075927734375,0.0933990478515625,1.0032196044921875,-0.045074462890625
1773148992452113000,6.07111279296875,0.091949462890625,0.99298095703125,-0.0478515625
1773148992462150000,6.08114990234375,0.0933990478515625,0.9859161376953125,-0.048614501953125
1773148992472187000,6.091186767578125,0.0938568115234375,0.98272705078125,-0.049346923828125
1773148992482223900,6.101223876953125,0.101104736328125,0.9875030517578125,-0.0517120361328125
1773148992492260900,6.1112607421875,0.1097412109375,0.989471435546875,-0.053863525390625
1773148992502297900,6.1212978515625,0.1208648681640625,0.9840850830078125,-0.0552978515625
1773148992512334800,6.1313349609375,0.130523681640625,0.9639739990234375,-0.05517578125
1773148992522371800,6.141371826171875,0.14019775390625,0.9462738037109375,-0.0589752197265625
1773148992532408800,6.151408935546875,0.1532135009765625,0.9390869140625,-0.0666961669921875
1773148992542445800,6.16144580078125,0.1713409423828125,0.9391632080078125,-0.07965087890625
1773148992552482800,6.17148291015625,0.190704345703125,0.945526123046875,-0.09539794921875
1773148992562519800,6.181519775390625,0.20458984375,0.954864501953125,-0.1114501953125
1773148992572557000,6.19155712890625,0.2110595703125,0.963958740234375,-0.1263427734375
1773148992582593800,6.20159375,0.204315185546875,0.97149658203125,-0.1409454345703125
1773148992592630800,6.211630859375,0.1867523193359375,0.9703521728515625,-0.1568603515625
1773148992602667800,6.221667724609375,0.1595001220703125,0.959930419921875,-0.1724700927734375
1773148992612704300,6.231704345703125,0.1216583251953125,0.943145751953125,-0.1880645751953125
1773148992622741200,6.2417412109375,0.0819091796875,0.94268798828125,-0.193756103515625
1773148992632778200,6.2517783203125,0.0332794189453125,0.960235595703125,-0.18817138671875
1773148992642815200,6.261815185546875,-0.0360107421875,0.9884033203125,-0.1834716796875
1773148992652853200,6.271853271484375,-0.1314239501953125,1.022125244140625,-0.1768798828125
1773148992662890200,6.28189013671875,-0.2225494384765625,1.0559234619140625,-0.155975341796875
1773148992672927200,6.29192724609375,-0.2715911865234375,1.0789337158203125,-0.117584228515625
1773148992682964200,6.301964111328125,-0.2746124267578125,1.0869598388671875,-0.0659637451171875
1773148992693001200,6.312001220703125,-0.236968994140625,1.090545654296875,-0.0074462890625
1773148992703038200,6.3220380859375,-0.1791534423828125,1.0943450927734375,0.050750732421875
1773148992713075200,6.3320751953125,-0.11212158203125,1.0852508544921875,0.1001434326171875
1773148992723112200,6.3421123046875,-0.049560546875,1.0611724853515625,0.1314544677734375
1773148992733149200,6.352149169921875,0.0030059814453125,1.0315399169921875,0.1501007080078125
1773148992743186200,6.362186279296875,0.0406951904296875,1.0010223388671875,0.1643524169921875
1773148992753223200,6.37222314453125,0.0551910400390625,0.9769439697265625,0.1621856689453125
1773148992763260200,6.38226025390625,0.0454559326171875,0.9632720947265625,0.1373443603515625
1773148992773297400,6.39229736328125,0.0181884765625,0.960723876953125,0.101898193359375
1773148992783334100,6.402334228515625,-0.024871826171875,0.9709930419921875,0.0697479248046875
1773148992793371100,6.41237109375,-0.082122802734375,0.9908447265625,0.046783447265625
1773148992803408100,6.422408203125,-0.14154052734375,1.007720947265625,0.03466796875
1773148992813445400,6.4324453125,-0.1844024658203125,1.0195770263671875,0.0360260009765625
1773148992823482400,6.442482421875,-0.1930999755859375,1.016326904296875,0.05218505859375
1773148992833519000,6.45251904296875,-0.166473388671875,1.00433349609375,0.072265625
1773148992843556000,6.46255615234375,-0.1147918701171875,0.9967193603515625,0.0855560302734375
1773148992853593000,6.472593017578125,-0.0544281005859375,0.9876556396484375,0.08831787109375
1773148992863630300,6.48263037109375,-0.0006866455078125,0.9812469482421875,0.0821380615234375
1773148992873667300,6.492667236328125,0.0316925048828125,0.979583740234375,0.0658721923828125
1773148992883704000,6.5027041015625,0.046478271484375,0.978973388671875,0.041595458984375
1773148992893741000,6.512740966796875,0.04266357421875,0.98480224609375,0.0134124755859375
1773148992903778300,6.5227783203125,0.0268402099609375,0.994049072265625,-0.016021728515625
1773148992913815300,6.532815185546875,-0.000640869140625,1.00006103515625,-0.0387420654296875
1773148992923852300,6.542852294921875,-0.0323944091796875,1.0041351318359375,-0.0542755126953125
1773148992933889000,6.552888916015625,-0.0611572265625,1.00439453125,-0.0635223388671875
1773148992943926300,6.56292626953125,-0.0788421630859375,1.0020294189453125,-0.0704345703125
1773148992953963300,6.57296337890625,-0.0816192626953125,0.998931884765625,-0.0741119384765625
1773148992964000300,6.583000244140625,-0.0673980712890625,0.998626708984375,-0.076202392578125
1773148992974037200,6.593037353515625,-0.045501708984375,1.0056915283203125,-0.0788421630859375
1773148992984075300,6.6030751953125,-0.022705078125,1.0152587890625,-0.080108642578125
1773148992994112300,6.6131123046875,-0.00927734375,1.0166015625,-0.076904296875
1773148993004149200,6.623149169921875,-0.00555419921875,1.008941650390625,-0.07025146484375
1773148993014186200,6.633186279296875,-0.0059661865234375,1.00372314453125,-0.0660247802734375
1773148993024223200,6.64322314453125,-0.012786865234375,1.006103515625,-0.0634765625
1773148993034260200,6.65326025390625,-0.020843505859375,1.010955810546875,-0.0611114501953125
1773148993044297200,6.663297119140625,-0.023773193359375,1.009368896484375,-0.0528564453125
1773148993054334200,6.673334228515625,-0.019622802734375,1.001953125,-0.042022705078125
1773148993064371200,6.68337109375,-0.010101318359375,0.994903564453125,-0.0334320068359375
1773148993074408200,6.693408203125,0.003204345703125,0.992706298828125,-0.0339508056640625
1773148993084445200,6.703445068359375,0.0168609619140625,0.9922027587890625,-0.044769287109375
1773148993094482200,6.713482177734375,0.0266876220703125,0.9893035888671875,-0.0579833984375
1773148993104519200,6.723519287109375,0.0350189208984375,0.9854278564453125,-0.0695343017578125
1773148993114556400,6.733556396484375,0.040069580078125,0.981231689453125,-0.074066162109375
1773148993124593200,6.74359326171875,0.038665771484375,0.980316162109375,-0.0713348388671875
1773148993134630100,6.753630126953125,0.0343017578125,0.984466552734375,-0.06536865234375
1773148993144667100,6.763667236328125,0.0269622802734375,0.99237060546875,-0.0612335205078125
1773148993154704400,6.773704345703125,0.0178070068359375,1.000030517578125,-0.0585174560546875
1773148993164741400,6.783741455078125,0.011077880859375,1.0099945068359375,-0.0632171630859375
1773148993174778000,6.793778076171875,0.0078887939453125,1.0206451416015625,-0.07232666015625
1773148993184815000,6.803815185546875,0.0041351318359375,1.024627685546875,-0.0798797607421875
1773148993194852000,6.81385205078125,0.0027923583984375,1.01690673828125,-0.078460693359375
1773148993204889300,6.823889404296875,0.0027313232421875,1.0026702880859375,-0.070159912109375
1773148993214926300,6.83392626953125,0.0072021484375,0.9925537109375,-0.0565948486328125
1773148993224963000,6.843963134765625,0.01171875,0.9922943115234375,-0.047119140625
1773148993235000000,6.854,0.0189971923828125,0.99517822265625,-0.04229736328125
1773148993245037300,6.864037353515625,0.025299072265625,0.996551513671875,-0.041229248046875
1773148993255074300,6.87407421875,0.0305938720703125,0.9980926513671875,-0.0416259765625
1773148993265111300,6.884111328125,0.03631591796875,1.0037841796875,-0.041351318359375
1773148993275148000,6.89414794921875,0.0409698486328125,1.014251708984375,-0.0429534912109375
1773148993285186300,6.904186279296875,0.04248046875,1.0186920166015625,-0.04571533203125
1773148993295223300,6.914223388671875,0.0400238037109375,1.014251708984375,-0.0487518310546875
1773148993305260300,6.92426025390625,0.0311737060546875,1.00347900390625,-0.0532073974609375
1773148993315297000,6.934297119140625,0.017913818359375,0.993133544921875,-0.055816650390625
1773148993325334300,6.944334228515625,0.006134033203125,0.9883575439453125,-0.0558929443359375
1773148993335371300,6.954371337890625,0.0022430419921875,0.986541748046875,-0.0530548095703125
1773148993345408300,6.964408203125,0.00653076171875,0.989715576171875,-0.0501251220703125
1773148993355445200,6.9744453125,0.0166473388671875,1.0000152587890625,-0.0524139404296875
1773148993365482200,6.984482177734375,0.0256805419921875,1.00982666015625,-0.05706787109375
1773148993375519200,6.994519287109375,0.0287933349609375,1.0129241943359375,-0.0606231689453125
1773148993385556200,7.00455615234375,0.0253753662109375,1.0081939697265625,-0.060943603515625
1773148993395593200,7.01459326171875,0.0184478759765625,1.0006866455078125,-0.0563201904296875
1773148993405630200,7.024630126953125,0.016571044921875,0.9956817626953125,-0.0486602783203125
1773148993415667200,7.034667236328125,0.019683837890625,0.99212646484375,-0.042724609375
1773148993425704200,7.0447041015625,0.0292205810546875,0.990997314453125,-0.043548583984375
1773148993435741200,7.0547412109375,0.0372772216796875,0.990478515625,-0.0470428466796875
1773148993445778200,7.064778076171875,0.0420684814453125,0.9925994873046875,-0.0533905029296875
1773148993455815400,7.0748154296875,0.043243408203125,0.994659423828125,-0.060455322265625
1773148993465852200,7.08485205078125,0.041412353515625,0.99859619140625,-0.06524658203125
1773148993475889200,7.09488916015625,0.037353515625,1.0081787109375,-0.072357177734375
1773148993485926100,7.104926025390625,0.0324249267578125,1.0194091796875,-0.080322265625
1773148993495963100,7.114963134765625,0.0233917236328125,1.019378662109375,-0.083099365234375
1773148993506000400,7.12500048828125,0.01190185546875,1.0100555419921875,-0.0789947509765625
1773148993516037000,7.135037109375,0.0038909912109375,1.0062103271484375,-0.0728302001953125
1773148993526074000,7.14507421875,0.0045013427734375,1.0045623779296875,-0.06640625
1773148993536111000,7.155111083984375,0.0131988525390625,1.0035858154296875,-0.0655670166015625
1773148993546148400,7.1651484375,0.029022216796875,1.0019989013671875,-0.070648193359375
1773148993556185300,7.175185302734375,0.0420379638671875,0.99639892578125,-0.0738067626953125
1773148993566222000,7.18522216796875,0.0469818115234375,0.9866180419921875,-0.069305419921875
1773148993576260400,7.19526025390625,0.0463714599609375,0.9745330810546875,-0.0577392578125
1773148993586297300,7.20529736328125,0.0413360595703125,0.971282958984375,-0.0442352294921875
1773148993596334300,7.215334228515625,0.0366973876953125,0.9721527099609375,-0.0276031494140625
1773148993606371000,7.22537109375,0.0344696044921875,0.9774322509765625,-0.0130767822265625
1773148993616408600,7.23540869140625,0.036376953125,0.9852294921875,-0.0044403076171875
1773148993626445600,7.245445556640625,0.0374298095703125,0.9935302734375,0.0009765625
1773148993636482600,7.255482666015625,0.036773681640625,0.9978179931640625,-0.0001068115234375
1773148993646519600,7.26551953125,0.033538818359375,0.995269775390625,-0.002410888671875
1773148993656556500,7.275556640625,0.0254364013671875,0.993743896484375,-0.00579833984375
1773148993666593500,7.285593505859375,0.0158538818359375,0.994232177734375,-0.0078582763671875
1773148993676630500,7.295630615234375,0.006866455078125,0.99456787109375,-0.0107574462890625
1773148993686667800,7.305667724609375,0.0040283203125,0.9994964599609375,-0.0185546875
1773148993696704500,7.31570458984375,0.003692626953125,1.0069427490234375,-0.0298614501953125
1773148993706741500,7.325741455078125,0.0041351318359375,1.0113067626953125,-0.0419921875
1773148993716778500,7.335778564453125,0.0023345947265625,1.011138916015625,-0.048553466796875
1773148993726815700,7.345815673828125,0.00164794921875,1.0084991455078125,-0.050201416015625
1773148993736852700,7.355852783203125,0.002044677734375,1.006500244140625,-0.0509796142578125
1773148993746889500,7.365889404296875,0.0030670166015625,1.0108184814453125,-0.052947998046875
1773148993756926500,7.375926513671875,0.0050506591796875,1.0158843994140625,-0.057708740234375
1773148993766963500,7.38596337890625,0.0048065185546875,1.0171661376953125,-0.06512451171875
1773148993777000700,7.396000732421875,0.00555419921875,1.009429931640625,-0.06982421875
1773148993787037700,7.40603759765625,0.007171630859375,1.000640869140625,-0.06927490234375
1773148993797074400,7.416074462890625,0.00811767578125,0.9941558837890625,-0.05865478515625
1773148993807111400,7.426111328125,0.009521484375,0.9935150146484375,-0.0471649169921875
1773148993817148700,7.436148681640625,0.0135345458984375,0.9956207275390625,-0.0380859375
1773148993827185700,7.446185546875,0.0208282470703125,0.999481201171875,-0.03338623046875
1773148993837222700,7.45622265625,0.0299072265625,1.00421142578125,-0.0323944091796875
1773148993847260400,7.466260498046875,0.0361785888671875,1.0057525634765625,-0.03271484375
1773148993857297700,7.476297607421875,0.040313720703125,1.0059051513671875,-0.0324554443359375
1773148993867334700,7.486334716796875,0.04193115234375,1.0023040771484375,-0.0354156494140625
1773148993877371600,7.49637158203125,0.0404815673828125,1.0009613037109375,-0.0386505126953125
1773148993887408400,7.506408447265625,0.0386199951171875,1.001800537109375,-0.041961669921875
1773148993897445600,7.516445556640625,0.03448486328125,1.005096435546875,-0.0420989990234375
1773148993907482600,7.526482666015625,0.0311126708984375,1.006988525390625,-0.04132080078125
1773148993917519600,7.53651953125,0.027679443359375,1.0065155029296875,-0.038421630859375
1773148993927556600,7.546556640625,0.025543212890625,1.001190185546875,-0.034759521484375
1773148993937593600,7.556593505859375,0.01953125,0.996002197265625,-0.0313720703125
1773148993947630600,7.566630615234375,0.016510009765625,0.9926605224609375,-0.0276336669921875
1773148993957667600,7.57666748046875,0.0158233642578125,0.9974365234375,-0.02764892578125
1773148993967704600,7.58670458984375,0.01617431640625,1.006866455078125,-0.03106689453125
1773148993977741600,7.596741455078125,0.0163421630859375,1.0166168212890625,-0.0375823974609375
1773148993987778600,7.606778564453125,0.016998291015625,1.0277099609375,-0.045623779296875
1773148993997815600,7.616815673828125,0.0192108154296875,1.0430755615234375,-0.05181884765625
1773148994007852500,7.6268525390625,0.0195465087890625,1.0583648681640625,-0.053375244140625
1773148994017889500,7.6368896484375,0.0200042724609375,1.0664520263671875,-0.0498504638671875
1773148994027926800,7.6469267578125,0.017425537109375,1.0647125244140625,-0.0466461181640625
1773148994037963500,7.656963623046875,0.0125885009765625,1.060272216796875,-0.04437255859375
1773148994048000500,7.66700048828125,0.005218505859375,1.0611572265625,-0.040283203125
1773148994058037500,7.67703759765625,-0.005523681640625,1.067657470703125,-0.031585693359375
1773148994068074800,7.68707470703125,-0.021240234375,1.0801849365234375,-0.0195465087890625
1773148994078111700,7.69711181640625,-0.04217529296875,1.099884033203125,-0.007659912109375
1773148994088148500,7.7071484375,-0.0675506591796875,1.111114501953125,0.00323486328125
1773148994098185500,7.717185546875,-0.08819580078125,1.111083984375,0.018218994140625
1773148994108223700,7.7272236328125,-0.106353759765625,1.1121826171875,0.0472412109375
1773148994118260700,7.7372607421875,-0.1347503662109375,1.090423583984375,0.0793914794921875
1773148994128297500,7.74729736328125,-0.1949615478515625,1.0479888916015625,0.1049957275390625
1773148994138334500,7.75733447265625,-0.3064117431640625,0.9997711181640625,0.1367645263671875
1773148994148371700,7.767371826171875,-0.477630615234375,0.95452880859375,0.18853759765625
1773148994158408700,7.77740869140625,-0.6841583251953125,0.912506103515625,0.228240966796875
1773148994168445700,7.78744580078125,-0.8027496337890625,0.88238525390625,0.23675537109375
1773148994178482400,7.797482421875,-0.644927978515625,0.8957977294921875,0.2322235107421875
1773148994188519400,7.80751953125,-0.3254852294921875,0.8960723876953125,0.2442169189453125
1773148994198556700,7.817556640625,-0.2022705078125,0.9354095458984375,0.2505950927734375
1773148994208593700,7.82759375,-0.2104644775390625,1.0780487060546875,0.252716064453125
1773148994218630700,7.837630615234375,-0.18157958984375,1.1115875244140625,-0.0121917724609375
1773148994228667400,7.84766748046875,-0.109100341796875,1.068817138671875,-0.1683349609375
1773148994238704600,7.85770458984375,-0.0340118408203125,0.9428863525390625,-0.1788787841796875
1773148994248741600,7.86774169921875,0.012115478515625,0.785797119140625,-0.1436309814453125
1773148994258778600,7.877778564453125,0.0959320068359375,0.6796875,-0.133697509765625
1773148994268815600,7.887815673828125,0.1865081787109375,0.62005615234375,-0.147735595703125
1773148994278852600,7.8978525390625,0.2058258056640625,0.59320068359375,-0.1454315185546875
1773148994288889600,7.9078896484375,0.1907806396484375,0.5829315185546875,-0.136444091796875
1773148994298926600,7.917926513671875,0.17022705078125,0.5689697265625,-0.12548828125
1773148994308963600,7.927963623046875,0.1395263671875,0.551788330078125,-0.095123291015625
1773148994319000600,7.93800048828125,0.1133880615234375,0.545623779296875,-0.02947998046875
1773148994329037600,7.94803759765625,0.082366943359375,0.546539306640625,0.065093994140625
1773148994339074600,7.958074462890625,0.0355072021484375,0.554901123046875,0.1519622802734375
1773148994349112600,7.968112548828125,-0.0179595947265625,0.56707763671875,0.2368011474609375
1773148994359149600,7.978149658203125,-0.1190643310546875,0.584716796875,0.311065673828125
1773148994369186600,7.9881865234375,-0.3474578857421875,0.64666748046875,0.410919189453125
1773148994379223600,7.9982236328125,-0.7900390625,0.7863311767578125,0.5296630859375
1773148994389260500,8.008260498046875,-1.1842498779296875,0.9388885498046875,0.536834716796875
1773148994399297500,8.018297607421875,-1.2137298583984375,1.0037994384765625,0.4636993408203125
1773148994409334800,8.028334716796875,-0.988677978515625,0.989990234375,0.43634033203125
1773148994419371500,8.03837158203125,-0.7138824462890625,0.95623779296875,0.425384521484375
1773148994429408500,8.048408447265626,-0.475555419921875,0.9530181884765625,0.4427337646484375
1773148994439445500,8.058445556640624,-0.3494720458984375,1.0192718505859375,0.4991607666015625
1773148994449482800,8.068482666015624,-0.309600830078125,1.0889129638671875,0.6015167236328125
1773148994459519700,8.078519775390625,-0.37457275390625,1.18658447265625,0.589935302734375
1773148994469556500,8.088556396484375,-0.4865264892578125,1.2205810546875,0.4417724609375
1773148994479593500,8.098593505859375,-0.541229248046875,1.1624755859375,0.380279541015625
1773148994489630700,8.108630615234375,-0.5395050048828125,1.0783843994140625,0.395355224609375
1773148994499667700,8.118667724609375,-0.486419677734375,1.036834716796875,0.4014129638671875
1773148994509704700,8.12870458984375,-0.399078369140625,1.08721923828125,0.39129638671875
1773148994519741400,8.138741455078126,-0.3136444091796875,1.19024658203125,0.3756561279296875
1773148994529778400,8.1487783203125,-0.2606201171875,1.2564849853515625,0.348968505859375
1773148994539815700,8.158815673828125,-0.3118743896484375,1.2067413330078125,0.33160400390625
1773148994549852700,8.168852783203125,-0.447906494140625,1.0998992919921875,0.3254547119140625
1773148994559889700,8.1788896484375,-0.5765838623046875,1.0362548828125,0.349945068359375
1773148994569926400,8.188926513671875,-0.6016998291015625,1.0576324462890625,0.4427490234375
1773148994579963600,8.198963623046875,-0.5162200927734375,1.11810302734375,0.579803466796875
1773148994590000600,8.209000732421876,-0.4191131591796875,1.1592254638671875,0.662994384765625
1773148994600038700,8.21903857421875,-0.40338134765625,1.173980712890625,0.7013397216796875
1773148994610075400,8.229075439453124,-0.4693603515625,1.1815338134765625,0.649566650390625
1773148994620112400,8.2391123046875,-0.56402587890625,1.156158447265625,0.4797210693359375
1773148994630149600,8.249149658203125,-0.6133575439453125,1.094879150390625,0.346038818359375
1773148994640186600,8.2591865234375,-0.591949462890625,1.013702392578125,0.3016357421875
1773148994650223600,8.2692236328125,-0.4869384765625,0.924835205078125,0.2567291259765625
1773148994660260400,8.27926025390625,-0.362396240234375,0.817962646484375,0.2178802490234375
1773148994670297600,8.289297607421876,-0.32635498046875,0.716644287109375,0.1919708251953125
1773148994680334600,8.29933447265625,-0.3817291259765625,0.6408538818359375,0.117584228515625
1773148994690371600,8.30937158203125,-0.5225830078125,0.5806121826171875,-0.005157470703125
1773148994700408600,8.31940869140625,-0.6350555419921875,0.51507568359375,-0.13189697265625
1773148994710445300,8.3294453125,-0.5679168701171875,0.4608001708984375,-0.224639892578125
1773148994720482600,8.339482666015625,-0.329620361328125,0.4393157958984375,-0.2505950927734375
1773148994730519600,8.34951953125,-0.0458526611328125,0.4422760009765625,-0.2061920166015625
1773148994740556500,8.359556640625,0.142120361328125,0.4391021728515625,-0.1515045166015625
1773148994750593500,8.369593505859376,0.2205963134765625,0.47076416015625,-0.114166259765625
1773148994760630500,8.379630615234374,0.24346923828125,0.59375,-0.115966796875
1773148994770667500,8.38966748046875,0.2274169921875,0.82318115234375,-0.0481719970703125
1773148994780704500,8.39970458984375,0.1539459228515625,1.132904052734375,0.0685577392578125
1773148994790741500,8.409741455078125,-0.0258026123046875,1.457122802734375,0.1655426025390625
1773148994800778500,8.419778564453125,-0.2500152587890625,1.658416748046875,0.26593017578125
1773148994810815500,8.4298154296875,-0.386474609375,1.6349945068359375,0.3375701904296875
1773148994820853500,8.439853515625,-0.3843841552734375,1.398284912109375,0.3647613525390625
1773148994830890500,8.449890380859374,-0.3243560791015625,1.1546173095703125,0.3556671142578125
1773148994840927500,8.459927490234374,-0.183746337890625,1.0164337158203125,0.2603759765625
1773148994850964500,8.469964599609375,0.00689697265625,0.9888458251953125,0.1299591064453125
1773148994861001500,8.48000146484375,0.111480712890625,0.955322265625,0.0561981201171875
1773148994871038500,8.49003857421875,0.09625244140625,0.9228515625,0.0491943359375
1773148994881075700,8.50007568359375,0.035125732421875,0.92333984375,0.0718994140625
1773148994891112400,8.510112548828126,-0.0564727783203125,0.9527130126953125,0.09124755859375
1773148994901149400,8.5201494140625,-0.1243896484375,0.984100341796875,0.1124267578125
1773148994911186400,8.5301865234375,-0.115478515625,0.9994354248046875,0.1370086669921875
1773148994921223400,8.540223388671874,-0.079833984375,0.9891357421875,0.1575164794921875
1773148994931260700,8.5502607421875,-0.093536376953125,0.956146240234375,0.1753082275390625
1773148994941297400,8.56029736328125,-0.148468017578125,0.9307708740234375,0.188873291015625
1773148994951334400,8.57033447265625,-0.1971282958984375,0.9278411865234375,0.190185546875
1773148994961371400,8.580371337890625,-0.2136688232421875,0.946380615234375,0.188446044921875
1773148994971408600,8.59040869140625,-0.1635589599609375,0.982757568359375,0.1899566650390625
1773148994981445600,8.600445556640626,-0.0924224853515625,1.0120849609375,0.192779541015625
1773148994991482600,8.610482666015624,-0.081146240234375,1.0167694091796875,0.197479248046875
1773148995001519400,8.620519287109374,-0.1024017333984375,1.010955810546875,0.20184326171875
1773148995011556600,8.630556640625,-0.1207427978515625,0.9916534423828125,0.2171783447265625
1773148995021594600,8.6405947265625,-0.10791015625,0.9709014892578125,0.227447509765625
1773148995031631400,8.65063134765625,-0.099456787109375,0.9537811279296875,0.21826171875
1773148995041668400,8.66066845703125,-0.10992431640625,0.978240966796875,0.204376220703125
1773148995051705600,8.67070556640625,-0.133575439453125,1.0296173095703125,0.1932830810546875
1773148995061742600,8.68074267578125,-0.1677093505859375,1.0642547607421875,0.1743621826171875
1773148995071779600,8.690779541015624,-0.179718017578125,1.054595947265625,0.166961669921875
1773148995081816300,8.70081640625,-0.1600799560546875,1.0358428955078125,0.1657867431640625
1773148995091853600,8.710853515625,-0.116302490234375,1.0175628662109375,0.1631011962890625
1773148995101890600,8.720890625,-0.07269287109375,0.9999847412109375,0.145660400390625
1773148995111927600,8.730927490234375,-0.0734710693359375,0.96026611328125,0.1338958740234375
1773148995121964500,8.740964599609375,-0.109375,0.925750732421875,0.1336212158203125
1773148995132001300,8.751001220703126,-0.1361541748046875,0.892364501953125,0.1609344482421875
1773148995142038500,8.76103857421875,-0.12139892578125,0.8753204345703125,0.1588592529296875
1773148995152075500,8.771075439453124,-0.079925537109375,0.8787384033203125,0.1290740966796875
1773148995162112500,8.781112548828125,-0.0420379638671875,0.8755340576171875,0.1166229248046875
1773148995172149500,8.7911494140625,-0.0166473388671875,0.8846435546875,0.1256256103515625
1773148995182186500,8.8011865234375,-0.0283050537109375,0.907745361328125,0.1263427734375
1773148995192223500,8.811223388671875,-0.0498809814453125,0.9417724609375,0.117889404296875
1773148995202260500,8.821260498046875,-0.060272216796875,0.979583740234375,0.0890045166015625
1773148995212298500,8.831298583984376,-0.0653076171875,1.003143310546875,0.0531768798828125
1773148995222335500,8.84133544921875,-0.083892822265625,1.0092315673828125,0.0427703857421875
1773148995232372500,8.85137255859375,-0.101593017578125,0.98980712890625,0.04473876953125
1773148995242409500,8.861409423828125,-0.0969085693359375,0.979278564453125,0.0225372314453125
1773148995252446500,8.871446533203125,-0.0765533447265625,0.9860382080078125,-0.02374267578125
1773148995262483700,8.881483642578125,-0.065704345703125,1.0024566650390625,-0.086517333984375
1773148995272520400,8.8915205078125,-0.0808868408203125,1.0070037841796875,-0.13592529296875
1773148995282557400,8.901557373046876,-0.0961151123046875,0.9879608154296875,-0.176666259765625
1773148995292594400,8.911594482421876,-0.108734130859375,0.9828033447265625,-0.208953857421875
1773148995302631700,8.921631591796874,-0.102813720703125,1.005096435546875,-0.210113525390625
1773148995312668700,8.931668701171875,-0.081817626953125,1.0422210693359375,-0.1814422607421875
1773148995322705400,8.941705322265625,-0.052703857421875,1.08538818359375,-0.1319580078125
1773148995332742400,8.951742431640625,-0.0493927001953125,1.1459197998046875,-0.0835113525390625
1773148995342779400,8.961779296875,-0.0757904052734375,1.2034912109375,-0.02740478515625
1773148995352816600,8.971816650390625,-0.111328125,1.244110107421875,-0.006103515625
1773148995362853600,8.981853515625,-0.1194305419921875,1.2573089599609375,0.01568603515625
1773148995372890400,8.991890380859376,-0.126922607421875,1.22576904296875,0.0287322998046875
1773148995382927400,9.00192724609375,-0.1370697021484375,1.1745147705078125,0.0395965576171875
1773148995392964600,9.011964599609374,-0.138214111328125,1.133697509765625,0.019775390625
1773148995403002600,9.022002685546875,-0.1241455078125,1.116058349609375,-0.0326690673828125
1773148995413039400,9.032039306640625,-0.0858612060546875,1.094024658203125,-0.0869140625
1773148995423076400,9.042076416015625,-0.05010986328125,1.048370361328125,-0.1209564208984375
1773148995433113600,9.052113525390626,-0.0512237548828125,0.98388671875,-0.1425933837890625
1773148995443150600,9.062150634765626,-0.04925537109375,0.9060211181640625,-0.159332275390625
1773148995453187600,9.0721875,-0.0344696044921875,0.857574462890625,-0.183685302734375
1773148995463224300,9.082224365234374,-0.0102081298828125,0.848846435546875,-0.2184906005859375
1773148995473261600,9.092261474609375,0.0066070556640625,0.847747802734375,-0.249969482421875
1773148995483298600,9.102298583984375,0.0160064697265625,0.86358642578125,-0.28094482421875
1773148995493335600,9.11233544921875,0.0196533203125,0.90087890625,-0.298736572265625
1773148995503372500,9.12237255859375,0.0313873291015625,0.9492034912109375,-0.2974090576171875
1773148995513409500,9.132409423828125,0.0557403564453125,1.000762939453125,-0.278778076171875
1773148995523446500,9.142446533203126,0.0643310546875,1.0511932373046875,-0.245452880859375
1773148995533483500,9.1524833984375,0.0476837158203125,1.1034088134765625,-0.202728271484375
1773148995543520500,9.1625205078125,0.033355712890625,1.1506805419921875,-0.1539154052734375
1773148995553557500,9.1725576171875,0.0230255126953125,1.1753997802734375,-0.0964813232421875
1773148995563594500,9.182594482421875,0.00848388671875,1.1822357177734375,-0.038818359375
1773148995573631500,9.192631591796875,-0.007904052734375,1.177459716796875,0.004730224609375
1773148995583669500,9.20266943359375,-0.0312957763671875,1.15789794921875,0.03973388671875
1773148995593706500,9.21270654296875,-0.05987548828125,1.1282958984375,0.068939208984375
1773148995603743500,9.222743408203126,-0.0885009765625,1.09454345703125,0.08953857421875
1773148995613781200,9.23278125,-0.10638427734375,1.0574493408203125,0.10186767578125
1773148995623818200,9.242818359375,-0.12420654296875,1.0239410400390625,0.101837158203125
1773148995633855200,9.252855224609375,-0.1521148681640625,0.992706298828125,0.08367919921875
1773148995643892200,9.262892333984375,-0.1737060546875,0.962982177734375,0.0439453125
1773148995653929200,9.27292919921875,-0.168701171875,0.9232635498046875,-0.0046844482421875
1773148995663966200,9.28296630859375,-0.1407928466796875,0.8781890869140625,-0.05010986328125
1773148995674003200,9.293003173828126,-0.1038665771484375,0.854766845703125,-0.0927886962890625
1773148995684040200,9.303040283203124,-0.06683349609375,0.86248779296875,-0.1300506591796875
1773148995694077200,9.3130771484375,-0.02215576171875,0.89447021484375,-0.1524810791015625
1773148995704114200,9.3231142578125,0.01068115234375,0.9381103515625,-0.1512298583984375
1773148995714151200,9.333151123046875,0.0153656005859375,0.9841766357421875,-0.1354522705078125
1773148995724188400,9.3431884765625,0.0067901611328125,1.026580810546875,-0.1126708984375
1773148995734225200,9.35322509765625,0.0130157470703125,1.053680419921875,-0.0749359130859375
1773148995744262100,9.36326220703125,0.0301971435546875,1.0667266845703125,-0.0206756591796875
1773148995754299100,9.373299072265626,0.0343170166015625,1.0843353271484375,0.0442352294921875
1773148995764337400,9.38333740234375,0.0226593017578125,1.108734130859375,0.1072845458984375
1773148995774374100,9.3933740234375,-0.0012664794921875,1.13604736328125,0.1595458984375
1773148995784411100,9.4034111328125,-0.03570556640625,1.15020751953125,0.1930694580078125
1773148995794448100,9.4134482421875,-0.0756988525390625,1.12420654296875,0.2020111083984375
1773148995804485400,9.4234853515625,-0.1132049560546875,1.0671234130859375,0.18548583984375
1773148995814522400,9.4335224609375,-0.1351318359375,1.0125732421875,0.1573638916015625
1773148995824559000,9.44355908203125,-0.131378173828125,1.0125732421875,0.1304473876953125
1773148995834596000,9.45359619140625,-0.1127166748046875,1.0445404052734375,0.10174560546875
1773148995844633000,9.463633056640624,-0.0972900390625,1.0634307861328125,0.070526123046875
1773148995854670300,9.47367041015625,-0.0844879150390625,1.048797607421875,0.034576416015625
1773148995864707300,9.483707275390625,-0.062957763671875,1.0231475830078125,-0.0036468505859375
1773148995874744000,9.493744140625,-0.031829833984375,1.003692626953125,-0.03265380859375
1773148995884781000,9.503781005859375,-0.0073089599609375,0.9948577880859375,-0.0448455810546875
1773148995894818300,9.513818359375,0.002655029296875,1.000457763671875,-0.0540008544921875
1773148995904855300,9.523855224609376,0.0041046142578125,1.0129852294921875,-0.0530242919921875
1773148995914892300,9.533892333984374,0.000579833984375,1.020721435546875,-0.0482635498046875
1773148995924929000,9.543928955078124,-0.005279541015625,1.0228118896484375,-0.0390625
1773148995934966300,9.55396630859375,-0.0177154541015625,1.0278472900390625,-0.0212860107421875
1773148995945004300,9.56400439453125,-0.0244903564453125,1.0464630126953125,0.002716064453125
1773148995955041300,9.574041259765625,-0.0211334228515625,1.07574462890625,0.0354461669921875
1773148995965078000,9.584078125,-0.0289154052734375,1.1069488525390625,0.0795745849609375
1773148995975115300,9.594115234375,-0.0339813232421875,1.1195068359375,0.11627197265625
1773148995985152300,9.60415234375,-0.049346923828125,1.1320953369140625,0.143402099609375
1773148995995189200,9.614189208984374,-0.054901123046875,1.12860107421875,0.1485595703125
1773148996005226200,9.624226318359375,-0.07061767578125,1.111480712890625,0.1240234375
1773148996015263200,9.63426318359375,-0.0960235595703125,1.0858154296875,0.0754241943359375
1773148996025300200,9.64430029296875,-0.110626220703125,1.07122802734375,0.0259552001953125
1773148996035337200,9.654337158203125,-0.1016387939453125,1.0634765625,-0.0169830322265625
1773148996045374200,9.664374267578125,-0.0897979736328125,1.0621795654296875,-0.059783935546875
1773148996055411200,9.6744111328125,-0.0742950439453125,1.0521697998046875,-0.1026763916015625
1773148996065448200,9.6844482421875,-0.0565643310546875,1.0428619384765625,-0.1414794921875
1773148996075485200,9.694485107421874,-0.04486083984375,1.036651611328125,-0.1689453125
1773148996085522200,9.704522216796875,-0.0399322509765625,1.0380096435546875,-0.1864013671875
1773148996095559200,9.71455908203125,-0.0350189208984375,1.0390167236328125,-0.1991119384765625
1773148996105596400,9.724596435546875,-0.0275726318359375,1.0429229736328125,-0.199676513671875
1773148996115634200,9.73463427734375,-0.0271759033203125,1.031463623046875,-0.18011474609375
1773148996125671200,9.744671142578126,-0.0294647216796875,1.0110015869140625,-0.149658203125
1773148996135708400,9.75470849609375,-0.0320587158203125,0.9906463623046875,-0.118927001953125
1773148996145745200,9.7647451171875,-0.0336456298828125,0.9766387939453125,-0.1001739501953125
1773148996155782100,9.7747822265625,-0.038330078125,0.9738616943359375,-0.097503662109375
1773148996165819100,9.784819091796875,-0.044158935546875,0.9898529052734375,-0.0972900390625
1773148996175856000,9.794856201171875,-0.0433807373046875,1.0023651123046875,-0.0993804931640625
1773148996185893400,9.804893310546875,-0.0368499755859375,0.9916534423828125,-0.0989227294921875
1773148996195930400,9.814930419921875,-0.0359954833984375,0.9751739501953125,-0.0962677001953125
1773148996205967000,9.824967041015626,-0.02996826171875,0.9749908447265625,-0.104522705078125
1773148996216004000,9.835004150390626,0.0037841796875,0.9805145263671875,-0.1210174560546875
1773148996226041300,9.845041259765624,0.0402374267578125,0.97216796875,-0.1445770263671875
1773148996236078300,9.855078369140625,0.049346923828125,0.958740234375,-0.162322998046875
1773148996246115300,9.865115234375,0.0375823974609375,0.9560546875,-0.19207763671875
1773148996256152000,9.875152099609375,0.0377197265625,0.9935455322265625,-0.2024078369140625
1773148996266189000,9.88518896484375,0.0712127685546875,1.0229034423828125,-0.177337646484375
1773148996276226300,9.895226318359375,0.082427978515625,1.0253753662109375,-0.1684417724609375
1773148996286263300,9.90526318359375,0.0824127197265625,1.024078369140625,-0.1705474853515625
1773148996296301000,9.915301025390624,0.07177734375,1.031768798828125,-0.167144775390625
1773148996306338300,9.92533837890625,0.05889892578125,1.032989501953125,-0.131439208984375
1773148996316375300,9.935375244140625,0.037750244140625,0.9822540283203125,-0.0812530517578125
1773148996326412300,9.945412353515625,0.0128173828125,0.90704345703125,-0.0338897705078125
1773148996336449000,9.955448974609375,0.0035552978515625,0.8481597900390625,0.0281829833984375
1773148996346486300,9.965486328125,0.0026092529296875,0.806915283203125,0.1013641357421875
1773148996356523300,9.975523193359376,-0.00946044921875,0.7697296142578125,0.1398162841796875
1773148996366560300,9.985560302734376,-0.0171966552734375,0.743133544921875,0.1691436767578125
1773148996376597200,9.99559716796875,-0.0111541748046875,0.7525787353515625,0.20751953125
1773148996386634000,10.005634033203124,0.00640869140625,0.79705810546875,0.245513916015625
1773148996396671200,10.015671142578125,0.0216064453125,0.8355560302734375,0.2703094482421875
1773148996406708200,10.025708251953125,0.039886474609375,0.874053955078125,0.281005859375
1773148996416745200,10.0357451171875,0.056121826171875,0.9281005859375,0.2870941162109375
1773148996426782200,10.0457822265625,0.0670928955078125,0.9887542724609375,0.2645721435546875
1773148996436819200,10.055819091796875,0.071868896484375,1.0297393798828125,0.2139129638671875
1773148996446856200,10.065856201171876,0.0711212158203125,1.0014190673828125,0.122802734375
1773148996456893200,10.07589306640625,0.0666351318359375,0.9497222900390625,0.025634765625
1773148996466930200,10.08593017578125,0.06744384765625,0.9374847412109375,-0.0242919921875
1773148996476968200,10.09596826171875,0.0709075927734375,0.9575958251953125,-0.0489654541015625
1773148996487005200,10.106005126953125,0.067047119140625,0.98797607421875,-0.0788421630859375
1773148996497042200,10.116042236328125,0.0534210205078125,1.0217742919921875,-0.10595703125
1773148996507079200,10.1260791015625,0.03411865234375,1.0521697998046875,-0.111175537109375
1773148996517116400,10.136116455078126,0.020172119140625,1.0643768310546875,-0.1070709228515625
1773148996527153200,10.146153076171874,0.009674072265625,1.061798095703125,-0.1017608642578125
1773148996537190100,10.156190185546874,0.0052032470703125,1.0804290771484375,-0.0757598876953125
1773148996547227100,10.16622705078125,0.0055999755859375,1.1185455322265625,-0.024169921875
1773148996557264400,10.176264404296875,0.009429931640625,1.120361328125,0.0336761474609375
1773148996567301400,10.18630126953125,0.017974853515625,1.0667724609375,0.084381103515625
1773148996577338000,10.196338134765625,0.0273590087890625,1.0028228759765625,0.1172637939453125
1773148996587375000,10.206375,0.0381011962890625,0.9538726806640625,0.13568115234375
1773148996597412000,10.216412109375,0.0543365478515625,0.9402618408203125,0.1620635986328125
1773148996607449300,10.226449462890624,0.0625762939453125,0.9416656494140625,0.1789093017578125
1773148996617485300,10.2364853515625,0.0492095947265625,0.9332275390625,0.1558685302734375
1773148996627522600,10.2465224609375,0.015869140625,0.899688720703125,0.0836944580078125
1773148996637559300,10.256559326171875,0.0058441162109375,0.900543212890625,0.0396728515625
1773148996647596300,10.26659619140625,0.0230712890625,0.93914794921875,0.0247344970703125
1773148996657634600,10.276634521484375,0.0468902587890625,0.9956207275390625,0.0086669921875
1773148996667671600,10.286671630859376,0.0672454833984375,1.0274200439453125,-0.0086212158203125
1773148996677708300,10.296708251953126,0.0810394287109375,1.029083251953125,-0.0141754150390625
1773148996687745300,10.306745361328124,0.0904083251953125,1.0212860107421875,-0.01324462890625
1773148996697782300,10.3167822265625,0.106658935546875,1.0297698974609375,-0.0124359130859375
1773148996707819500,10.326819580078125,0.1254425048828125,1.0455169677734375,-0.01922607421875
1773148996717856500,10.3368564453125,0.1416015625,1.0544586181640625,-0.040496826171875
1773148996727893200,10.346893310546875,0.14501953125,1.0637969970703125,-0.063629150390625
1773148996737930200,10.35693017578125,0.1338043212890625,1.06787109375,-0.0790863037109375
1773148996747967500,10.366967529296875,0.113067626953125,1.052978515625,-0.0884857177734375
1773148996758004500,10.37700439453125,0.0912017822265625,1.019683837890625,-0.0992279052734375
1773148996768041500,10.38704150390625,0.06939697265625,0.9862213134765625,-0.108612060546875
1773148996778078200,10.397078125,0.052490234375,0.96929931640625,-0.1016693115234375
1773148996788115500,10.407115478515625,0.0357208251953125,0.9652252197265625,-0.0701904296875
1773148996798152400,10.41715234375,0.014068603515625,0.912628173828125,-0.057159423828125
1773148996808189400,10.427189453125,0.002197265625,0.9093170166015625,-0.03436279296875
1773148996818226400,10.437226318359375,-0.006256103515625,0.9579620361328125,-0.003082275390625
1773148996828263200,10.44726318359375,-0.0217742919921875,0.9997100830078125,0.0198822021484375
1773148996838301400,10.457301513671876,-0.0264892578125,1.007293701171875,0.022796630859375
1773148996848338400,10.46733837890625,-0.0032958984375,1.0045013427734375,0.0067138671875
1773148996858375400,10.47737548828125,0.044830322265625,1.0232696533203125,-0.017669677734375
1773148996868412400,10.487412353515625,0.0911865234375,1.04339599609375,-0.0399932861328125
1773148996878449400,10.497449462890625,0.1209259033203125,1.0526123046875,-0.055633544921875
1773148996888486400,10.507486328125,0.139404296875,1.0478668212890625,-0.05267333984375
1773148996898523400,10.5175234375,0.1538848876953125,1.027435302734375,-0.0555419921875
1773148996908560400,10.527560302734376,0.1658782958984375,0.997161865234375,-0.0625152587890625
1773148996918597400,10.537597412109376,0.167144775390625,0.974365234375,-0.0737457275390625
1773148996928634400,10.54763427734375,0.1542205810546875,0.965087890625,-0.086669921875
1773148996938671400,10.55767138671875,0.1334991455078125,0.9609527587890625,-0.0958251953125
1773148996948708400,10.567708251953125,0.103271484375,0.9566802978515625,-0.10174560546875
1773148996958745600,10.57774560546875,0.072998046875,0.95849609375,-0.10302734375
1773148996968782300,10.5877822265625,0.044921875,0.975067138671875,-0.090057373046875
1773148996978819300,10.5978193359375,0.0133819580078125,0.9927520751953125,-0.080169677734375
1773148996988856300,10.607856201171876,-0.0162506103515625,0.9917755126953125,-0.079986572265625
1773148996998893600,10.6178935546875,-0.034515380859375,0.9817047119140625,-0.073516845703125
1773148997008930600,10.6279306640625,-0.0429229736328125,0.98529052734375,-0.0554046630859375
1773148997018968300,10.63796826171875,-0.03961181640625,0.9979705810546875,-0.0292816162109375
1773148997029005300,10.64800537109375,-0.0330657958984375,1.007293701171875,0.00390625
1773148997039042600,10.65804248046875,-0.0217132568359375,1.0001983642578125,0.0319061279296875
1773148997049079300,10.668079345703125,-0.00531005859375,0.99322509765625,0.0558013916015625
1773148997059116300,10.6781162109375,0.0160064697265625,0.9884033203125,0.076934814453125
1773148997069153300,10.6881533203125,0.034942626953125,0.9845428466796875,0.09417724609375
1773148997079190500,10.6981904296875,0.044464111328125,0.988037109375,0.0829925537109375
1773148997089227500,10.7082275390625,0.04412841796875,1.0126953125,0.0530853271484375
1773148997099264300,10.71826416015625,0.0254669189453125,1.03436279296875,0.039581298828125
1773148997109301200,10.72830126953125,-0.0056610107421875,1.033538818359375,0.0257720947265625
1773148997119338200,10.738338134765625,-0.0698699951171875,1.0331268310546875,0.0029296875
1773148997129375500,10.74837548828125,-0.167816162109375,1.0839996337890625,-0.0738677978515625
1773148997139412500,10.75841259765625,-0.2981109619140625,1.153350830078125,-0.16754150390625
1773148997149449500,10.768449462890626,-0.468536376953125,1.198974609375,-0.243011474609375
1773148997159486200,10.778486328125,-0.6054229736328125,1.21484375,-0.2894744873046875
1773148997169523500,10.7885234375,-0.659088134765625,1.1795196533203125,-0.2490997314453125
1773148997179560400,10.798560546875,-0.5905303955078125,1.1068878173828125,-0.1431427001953125
1773148997189597400,10.808597412109375,-0.47869873046875,1.039154052734375,-0.051971435546875
1773148997199634400,10.818634521484375,-0.4413299560546875,1.055511474609375,-0.0375823974609375
1773148997209672400,10.82867236328125,-0.4580230712890625,1.104736328125,-0.08087158203125
1773148997219709400,10.83870947265625,-0.484771728515625,1.09906005859375,-0.0735931396484375
1773148997229746400,10.848746337890624,-0.480438232421875,1.0259857177734375,-0.001556396484375
1773148997239783200,10.858783203125,-0.40960693359375,0.915924072265625,0.095794677734375
1773148997249820400,10.8688203125,-0.3405914306640625,0.803619384765625,0.1791839599609375
1773148997259857400,10.878857421875,-0.28729248046875,0.7200927734375,0.213043212890625
1773148997269894400,10.888894287109375,-0.26055908203125,0.662322998046875,0.213623046875
1773148997279931400,10.898931396484375,-0.28826904296875,0.6345977783203125,0.18634033203125
1773148997289968400,10.908968505859375,-0.3075408935546875,0.6797332763671875,0.1639556884765625
1773148997300005400,10.91900537109375,-0.263336181640625,0.7457122802734375,0.1975250244140625
1773148997310042400,10.92904248046875,-0.1871337890625,0.77630615234375,0.25091552734375
1773148997320079400,10.939079345703124,-0.141632080078125,0.7910308837890625,0.268798828125
1773148997330116400,10.949116455078125,-0.1429443359375,0.8291473388671875,0.2599639892578125
1773148997340153300,10.9591533203125,-0.1707000732421875,0.907501220703125,0.2294464111328125
1773148997350190300,10.9691904296875,-0.1783447265625,0.9789886474609375,0.206298828125
1773148997360227300,10.979227294921875,-0.1683807373046875,1.0140228271484375,0.1792755126953125
1773148997370264300,10.989264404296875,-0.1603851318359375,1.019195556640625,0.119049072265625
1773148997380301600,10.999301513671876,-0.201629638671875,1.0281982421875,0.037139892578125
1773148997390339300,11.00933935546875,-0.3024749755859375,1.027313232421875,-0.052703857421875
1773148997400376300,11.019376220703125,-0.445159912109375,0.9665985107421875,-0.1662445068359375
1773148997410413300,11.029413330078125,-0.61248779296875,0.844940185546875,-0.26904296875
1773148997420450600,11.039450439453125,-0.7030487060546875,0.7065582275390625,-0.3268280029296875
1773148997430487300,11.0494873046875,-0.67437744140625,0.6113739013671875,-0.3690032958984375
1773148997440524300,11.059524169921875,-0.5325469970703125,0.5836181640625,-0.3847198486328125
1773148997450561300,11.069561279296876,-0.3199310302734375,0.6477813720703125,-0.3715972900390625
1773148997460598500,11.0795986328125,-0.115264892578125,0.76275634765625,-0.35565185546875
1773148997470635500,11.089635498046874,0.007781982421875,0.8525543212890625,-0.350189208984375
1773148997480672300,11.09967236328125,0.0557861328125,0.896240234375,-0.3191986083984375
1773148997490709200,11.109709228515625,0.057861328125,0.9066314697265625,-0.252349853515625
1773148997500746500,11.11974658203125,0.00885009765625,0.8719024658203125,-0.17596435546875
1773148997510783500,11.129783447265625,-0.087188720703125,0.8304595947265625,-0.1273193359375
1773148997520820500,11.139820556640625,-0.206939697265625,0.8054962158203125,-0.1069793701171875
1773148997530857200,11.149857177734376,-0.332275390625,0.8014373779296875,-0.0972747802734375
1773148997540894200,11.159894287109376,-0.4276580810546875,0.8166046142578125,-0.095245361328125
1773148997550931500,11.169931396484374,-0.46478271484375,0.842620849609375,-0.111419677734375
1773148997560968400,11.179968505859375,-0.4361572265625,0.8807373046875,-0.1374053955078125
1773148997571005400,11.19000537109375,-0.367919921875,0.9384002685546875,-0.144805908203125
1773148997581042200,11.200042236328125,-0.326171875,0.9983367919921875,-0.118438720703125
1773148997591080400,11.21008056640625,-0.326080322265625,1.0499114990234375,-0.0688934326171875
1773148997601117400,11.220117431640626,-0.35235595703125,1.1220550537109375,-0.0308074951171875
1773148997611158500,11.230158447265625,-0.4045562744140625,1.2368927001953125,0.001007080078125
1773148997621195500,11.240195556640625,-0.4252471923828125,1.388885498046875,0.0463409423828125
1773148997631232500,11.250232421875,-0.4049072265625,1.5249176025390625,0.14111328125
1773148997641269800,11.260269775390626,-0.3639068603515625,1.5722198486328125,0.2579498291015625
1773148997651306800,11.270306640625,-0.3377685546875,1.52001953125,0.35595703125
1773148997661343500,11.280343505859374,-0.311676025390625,1.35882568359375,0.347198486328125
1773148997671380500,11.29038037109375,-0.3043365478515625,1.0897979736328125,0.2201385498046875
1773148997681417700,11.300417724609375,-0.3313140869140625,0.9192047119140625,0.090423583984375
1773148997691454700,11.310454833984375,-0.3309478759765625,0.8595733642578125,-0.029052734375
1773148997701491700,11.32049169921875,-0.3082122802734375,0.8332672119140625,-0.1302032470703125
1773148997711528400,11.330528564453125,-0.254180908203125,0.8115692138671875,-0.20928955078125
1773148997721565400,11.3405654296875,-0.1590118408203125,0.7983245849609375,-0.274139404296875
1773148997731602700,11.350602783203126,-0.05755615234375,0.8145599365234375,-0.3231201171875
1773148997741639700,11.3606396484375,0.0256195068359375,0.845306396484375,-0.3604278564453125
1773148997751676700,11.3706767578125,0.051849365234375,0.8878936767578125,-0.3361663818359375
1773148997761713400,11.38071337890625,-0.02191162109375,0.9015960693359375,-0.3135223388671875
1773148997771750700,11.390750732421875,-0.1001739501953125,0.9311676025390625,-0.2303619384765625
1773148997781787600,11.40078759765625,-0.1478271484375,0.9725494384765625,-0.1203765869140625
1773148997791825400,11.410825439453125,-0.1736907958984375,0.9944610595703125,-0.04193115234375
1773148997801862400,11.4208623046875,-0.1769866943359375,1.0116119384765625,-0.0153045654296875
1773148997811899600,11.430899658203124,-0.1706390380859375,1.032012939453125,-0.024139404296875
1773148997821936600,11.4409365234375,-0.1499481201171875,1.0503997802734375,-0.0333099365234375
1773148997831973600,11.4509736328125,-0.1116943359375,1.08160400390625,-0.0453643798828125
1773148997842010600,11.4610107421875,-0.0758514404296875,1.1116790771484375,-0.072967529296875
1773148997852047600,11.471047607421875,-0.067962646484375,1.0977630615234375,-0.1057891845703125
1773148997862084600,11.481084716796875,-0.098876953125,1.0514984130859375,-0.1208038330078125
1773148997872121600,11.49112158203125,-0.142242431640625,0.9995269775390625,-0.1060028076171875
1773148997882158600,11.50115869140625,-0.175933837890625,0.956756591796875,-0.082550048828125
1773148997892195600,11.511195556640626,-0.2036285400390625,0.9279937744140625,-0.073516845703125
1773148997902232600,11.521232666015624,-0.234039306640625,0.9162445068359375,-0.072662353515625
1773148997912269600,11.53126953125,-0.2524261474609375,0.9139862060546875,-0.07000732421875
1773148997922306600,11.541306640625,-0.22607421875,0.91375732421875,-0.05621337890625
1773148997932343600,11.551343505859375,-0.149169921875,0.914398193359375,-0.0365447998046875
1773148997942380500,11.561380615234375,-0.07305908203125,0.9245147705078125,-0.0266571044921875
1773148997952417500,11.57141748046875,-0.029937744140625,0.9542083740234375,-0.0359954833984375
1773148997962454500,11.58145458984375,-0.022979736328125,1.002655029296875,-0.058135986328125
1773148997972491500,11.591491455078126,-0.0337371826171875,1.033935546875,-0.062835693359375
1773148997982528800,11.60152880859375,-0.0500030517578125,1.0173187255859375,-0.0483245849609375
1773148997992565500,11.6115654296875,-0.07275390625,0.975982666015625,-0.0432281494140625
1773148998002603500,11.621603515625,-0.112335205078125,0.9536895751953125,-0.0670318603515625
1773148998012640500,11.631640625,-0.156951904296875,0.9705963134765625,-0.0967864990234375
1773148998022677800,11.641677734375,-0.1952667236328125,1.0066680908203125,-0.10650634765625
1773148998032714500,11.651714599609376,-0.21405029296875,1.0374908447265625,-0.0914764404296875
1773148998042751500,11.66175146484375,-0.1953277587890625,1.04071044921875,-0.063690185546875
1773148998052788500,11.67178857421875,-0.1647186279296875,1.0278167724609375,-0.0476837158203125
1773148998062825700,11.68182568359375,-0.148193359375,1.0257415771484375,-0.041168212890625
1773148998072862700,11.69186279296875,-0.1431884765625,1.055267333984375,-0.034210205078125
1773148998082899500,11.7018994140625,-0.1302490234375,1.1022796630859375,-0.022979736328125
1773148998092936400,11.7119365234375,-0.10430908203125,1.1234283447265625,-0.00341796875
1773148998102973700,11.7219736328125,-0.07965087890625,1.0945587158203125,0.008453369140625
1773148998113010700,11.7320107421875,-0.0683135986328125,1.0550994873046875,0.001190185546875
1773148998123047700,11.742047607421876,-0.06317138671875,1.038848876953125,-0.0228271484375
1773148998133084400,11.75208447265625,-0.07012939453125,1.011566162109375,-0.0587310791015625
1773148998143121400,11.762121337890624,-0.0854949951171875,0.9887847900390625,-0.0926971435546875
1773148998153158700,11.77215869140625,-0.083343505859375,0.959197998046875,-0.1106719970703125
1773148998163195600,11.782195556640625,-0.057647705078125,0.94989013671875,-0.12017822265625
1773148998173232600,11.792232666015625,-0.0261077880859375,0.9729461669921875,-0.121307373046875
1773148998183269400,11.802269287109375,0.006805419921875,1.011077880859375,-0.120758056640625
1773148998193306600,11.812306640625,0.0478363037109375,1.081268310546875,-0.1209259033203125
1773148998203343600,11.822343505859376,0.1097869873046875,1.1450958251953125,-0.1229248046875
1773148998213381600,11.832381591796874,0.1775665283203125,1.1648406982421875,-0.1263885498046875
1773148998223418400,11.84241845703125,0.2708282470703125,1.1452484130859375,-0.0833282470703125
1773148998233455600,11.85245556640625,0.356536865234375,1.0940704345703125,-0.02081298828125
1773148998243492600,11.86249267578125,0.4233245849609375,1.0052642822265625,-0.0274810791015625
1773148998253529600,11.872529541015625,0.439727783203125,0.93096923828125,-0.0490264892578125
1773148998263566600,11.882566650390626,0.38238525390625,0.869873046875,-0.0568389892578125
1773148998273603600,11.892603515625,0.299957275390625,0.820953369140625,-0.0534515380859375
1773148998283640600,11.902640625,0.2144012451171875,0.7942962646484375,-0.054718017578125
1773148998293677600,11.912677490234374,0.115447998046875,0.79730224609375,-0.07550048828125
1773148998303714600,11.922714599609375,0.013885498046875,0.8531341552734375,-0.0992889404296875
1773148998313751800,11.932751708984375,-0.053863525390625,0.9401702880859375,-0.1155853271484375
1773148998323788500,11.94278857421875,-0.0708160400390625,0.9927978515625,-0.0981903076171875
1773148998333825500,11.952825439453125,-0.0585174560546875,1.0117950439453125,-0.039154052734375
1773148998343862500,11.962862548828125,-0.025115966796875,1.0299224853515625,0.0512542724609375
1773148998353899500,11.9728994140625,0.028961181640625,1.0442657470703125,0.1370849609375
1773148998363936800,11.982936767578124,0.07977294921875,1.0540313720703125,0.2079620361328125
1773148998373973500,11.992973388671874,0.11517333984375,1.050079345703125,0.252960205078125
1773148998384010500,12.003010498046875,0.1239013671875,1.033660888671875,0.2797088623046875
1773148998394047500,12.013047607421875,0.0966033935546875,1.019073486328125,0.29022216796875
1773148998404084700,12.023084716796875,0.0546417236328125,1.011474609375,0.283111572265625
1773148998414121700,12.033121826171875,0.00714111328125,1.01470947265625,0.261962890625
1773148998424159500,12.043159423828126,-0.051727294921875,1.0490570068359375,0.2323455810546875
1773148998434196500,12.053196533203124,-0.1211090087890625,1.10418701171875,0.2050628662109375
1773148998444233700,12.063233642578124,-0.2056732177734375,1.1509552001953125,0.1960296630859375
1773148998454270700,12.073270751953125,-0.2830352783203125,1.1495208740234375,0.188079833984375
1773148998464307500,12.083307373046875,-0.3259124755859375,1.0806884765625,0.160308837890625
1773148998474344400,12.093344482421875,-0.318756103515625,1.0128021240234375,0.087615966796875
1773148998484381700,12.103381591796875,-0.271209716796875,0.9778900146484375,-0.010589599609375
1773148998494418700,12.113418701171875,-0.2246551513671875,0.9636993408203125,-0.098541259765625
1773148998504455700,12.12345556640625,-0.1889495849609375,0.9589691162109375,-0.167572021484375
1773148998514492400,12.133492431640626,-0.1351776123046875,0.9428863525390625,-0.217193603515625
1773148998524529700,12.14352978515625,-0.08038330078125,0.9092559814453125,-0.2479400634765625
1773148998534566700,12.153566650390625,-0.05963134765625,0.866607666015625,-0.2726898193359375
1773148998544603600,12.163603759765625,-0.082366943359375,0.84521484375,-0.2956695556640625
1773148998554640600,12.173640625,-0.1295013427734375,0.862823486328125,-0.29461669921875
1773148998564677400,12.183677490234375,-0.146148681640625,0.9200439453125,-0.2698211669921875
1773148998574714600,12.193714599609375,-0.1426239013671875,0.97283935546875,-0.2311553955078125
1773148998584751600,12.203751708984376,-0.1255035400390625,1.00537109375,-0.2179107666015625
1773148998594788600,12.21378857421875,-0.1037445068359375,1.0139617919921875,-0.1972198486328125
1773148998604825600,12.22382568359375,-0.1074981689453125,1.003662109375,-0.2100830078125
1773148998614858500,12.2338583984375,-0.1135101318359375,0.9754180908203125,-0.224700927734375
1773148998624895500,12.2438955078125,-0.1400909423828125,0.95916748046875,-0.2410125732421875
1773148998634933500,12.25393359375,-0.1970062255859375,0.960357666015625,-0.239044189453125
1773148998644970500,12.263970458984375,-0.25299072265625,0.956146240234375,-0.2151031494140625
1773148998655007500,12.274007568359375,-0.29217529296875,0.945587158203125,-0.170013427734375
1773148998665044500,12.28404443359375,-0.3300323486328125,0.9389801025390625,-0.1124267578125
1773148998675081500,12.29408154296875,-0.3574371337890625,0.9536590576171875,-0.0555877685546875
1773148998685119500,12.304119384765626,-0.353546142578125,1.0026702880859375,-0.01470947265625
1773148998695156500,12.314156494140626,-0.3054962158203125,1.066619873046875,0.0092926025390625
1773148998705193500,12.324193359375,-0.221099853515625,1.10614013671875,0.015899658203125
1773148998715230500,12.33423046875,-0.1077423095703125,1.109588623046875,0.0044403076171875
1773148998725267500,12.344267333984375,-0.01080322265625,1.0693206787109375,-0.033294677734375
1773148998735304400,12.354304443359375,0.0449676513671875,1.0006866455078125,-0.095428466796875
1773148998745341400,12.364341552734375,0.0474700927734375,0.9196319580078125,-0.1873779296875
1773148998755378400,12.37437841796875,0.0196533203125,0.8852386474609375,-0.28094482421875
1773148998765415400,12.38441552734375,-0.0271453857421875,0.8865509033203125,-0.3558197021484375
1773148998775452400,12.394452392578126,-0.0872650146484375,0.899444580078125,-0.3870849609375
1773148998785490400,12.404490478515624,-0.1553192138671875,0.926361083984375,-0.3901824951171875
1773148998795527400,12.41452734375,-0.204681396484375,0.9473876953125,-0.3468017578125
1773148998805564400,12.424564453125,-0.22552490234375,0.9779510498046875,-0.28277587890625
1773148998815601400,12.434601318359375,-0.22784423828125,1.0183563232421875,-0.218231201171875
1773148998825638700,12.444638671875,-0.229949951171875,1.0529327392578125,-0.1663818359375
1773148998835675400,12.45467529296875,-0.23529052734375,1.0791015625,-0.1329345703125
1773148998845712400,12.46471240234375,-0.2351837158203125,1.0826416015625,-0.1098175048828125
1773148998855749400,12.474749267578124,-0.21533203125,1.055511474609375,-0.094024658203125
1773148998865786600,12.48478662109375,-0.16351318359375,1.01318359375,-0.093658447265625
1773148998875823600,12.49482373046875,-0.100860595703125,0.981231689453125,-0.11968994140625
1773148998885860400,12.5048603515625,-0.0595245361328125,0.960906982421875,-0.1500396728515625
1773148998895897300,12.5148974609375,-0.043548583984375,0.9481048583984375,-0.172271728515625
1773148998905934600,12.5249345703125,-0.0413665771484375,0.9390716552734375,-0.186309814453125
1773148998915971600,12.5349716796875,-0.0411376953125,0.929718017578125,-0.191497802734375
1773148998926008600,12.545008544921876,-0.0446319580078125,0.9295196533203125,-0.2007598876953125
1773148998936045300,12.55504541015625,-0.0613861083984375,0.946136474609375,-0.2173309326171875
1773148998946082300,12.565082275390624,-0.0959320068359375,0.96722412109375,-0.2163848876953125
1773148998956119600,12.57511962890625,-0.1321868896484375,0.9716644287109375,-0.1840362548828125
1773148998966156500,12.585156494140625,-0.1486358642578125,0.9679718017578125,-0.1490020751953125
1773148998976193500,12.595193603515625,-0.1536712646484375,0.9779052734375,-0.137908935546875
1773148998986231600,12.6052314453125,-0.1632843017578125,1.0062713623046875,-0.1387939453125
1773148998996268500,12.6152685546875,-0.1842498779296875,1.0335845947265625,-0.134521484375
1773148999006305500,12.625305419921874,-0.1986236572265625,1.040435791015625,-0.1221923828125
1773148999016342500,12.635342529296874,-0.1893768310546875,1.0287933349609375,-0.10943603515625
1773148999026379300,12.645379150390625,-0.1714324951171875,1.013519287109375,-0.1136627197265625
1773148999036416500,12.65541650390625,-0.1594085693359375,0.9982147216796875,-0.1295166015625
1773148999046453500,12.66545361328125,-0.1567535400390625,0.979339599609375,-0.146575927734375
1773148999056490500,12.675490478515625,-0.1626129150390625,0.958251953125,-0.1605377197265625
1773148999066527500,12.685527587890626,-0.1689910888671875,0.9339599609375,-0.1739654541015625
1773148999076564500,12.695564453125,-0.17645263671875,0.907867431640625,-0.1870880126953125
1773148999086601500,12.7056015625,-0.193328857421875,0.891021728515625,-0.2065887451171875
1773148999096638500,12.715638427734374,-0.2050628662109375,0.8892974853515625,-0.23291015625
1773148999106675500,12.725675537109375,-0.2049407958984375,0.885009765625,-0.242431640625
1773148999116712400,12.73571240234375,-0.2050628662109375,0.8757476806640625,-0.23388671875
1773148999126749400,12.74574951171875,-0.2231597900390625,0.87921142578125,-0.2323150634765625
1773148999136786400,12.755786376953125,-0.25103759765625,0.893310546875,-0.2349090576171875
1773148999146823400,12.765823486328125,-0.26800537109375,0.9043426513671875,-0.192138671875
1773148999156860400,12.7758603515625,-0.2772216796875,0.9132080078125,-0.1148223876953125
1773148999166897400,12.7858974609375,-0.2446136474609375,0.9189605712890625,-0.041259765625
1773148999176934400,12.795934326171874,-0.1496124267578125,0.8784637451171875,0.0523223876953125
1773148999186972400,12.805972412109375,-0.10064697265625,0.8063812255859375,0.1415252685546875
1773148999197009700,12.816009765625,-0.1256561279296875,0.69580078125,0.185943603515625
1773148999207046400,12.82604638671875,-0.1748046875,0.5994873046875,0.2008819580078125
1773148999217083400,12.83608349609375,-0.2004547119140625,0.530303955078125,0.1984710693359375
1773148999227120400,12.846120361328126,-0.19683837890625,0.5023193359375,0.2077789306640625
1773148999237157600,12.85615771484375,-0.1812591552734375,0.5253143310546875,0.21759033203125
1773148999247194600,12.866194580078124,-0.1497344970703125,0.640899658203125,0.238494873046875
1773148999257231400,12.8762314453125,-0.0699005126953125,0.8307037353515625,0.267486572265625
1773148999267268400,12.886268310546875,0.0102386474609375,1.01690673828125,0.2842254638671875
1773148999277305300,12.896305419921875,-0.0113983154296875,1.1207733154296875,0.2513275146484375
1773148999287342600,12.906342529296875,-0.095123291015625,1.1754150390625,0.147125244140625
1773148999297379600,12.916379638671875,-0.020263671875,1.115081787109375,0.1044921875
1773148999307416300,12.926416259765626,0.117462158203125,0.9191436767578125,0.1584320068359375
1773148999317453300,12.936453369140626,0.0848846435546875,0.73089599609375,0.128936767578125
1773148999327490600,12.946490478515624,-0.066009521484375,0.5984649658203125,0.00042724609375
1773148999337527600,12.956527587890625,-0.260833740234375,0.5178985595703125,-0.074859619140625
1773148999347564500,12.966564453125,-0.3480377197265625,0.4958648681640625,-0.099334716796875
1773148999357601300,12.976601318359375,-0.4025421142578125,0.534454345703125,-0.11029052734375
1773148999367638300,12.98663818359375,-0.5300445556640625,0.5735931396484375,-0.0842742919921875
1773148999377675500,12.996675537109375,-0.470458984375,0.6669769287109375,0.0161895751953125
1773148999387712500,13.00671240234375,-0.2630157470703125,0.8670196533203125,0.1151123046875
1773148999397750300,13.016750244140624,-0.206573486328125,1.052886962890625,0.1641998291015625
1773148999407787500,13.02678759765625,-0.366363525390625,1.1680145263671875,0.271453857421875
1773148999417824500,13.036824462890625,-0.60504150390625,1.233062744140625,0.4116973876953125
1773148999427861500,13.046861572265625,-0.6304168701171875,1.286468505859375,0.4834747314453125
1773148999437898500,13.0568984375,-0.4196929931640625,1.2815093994140625,0.425994873046875
1773148999447935500,13.066935546875,-0.2375030517578125,1.219482421875,0.270477294921875
1773148999457972500,13.076972412109376,-0.3348388671875,1.1236419677734375,0.1139984130859375
1773148999468009500,13.087009521484376,-0.6105194091796875,1.0693359375,0.0363006591796875
1773148999478046500,13.09704638671875,-0.6750640869140625,0.9893341064453125,-0.0127105712890625
1773148999488083500,13.10708349609375,-0.4827880859375,0.877044677734375,0.013763427734375
1773148999498120400,13.117120361328125,-0.3198089599609375,0.803863525390625,0.0816192626953125
1773148999508157400,13.127157470703125,-0.386199951171875,0.7802886962890625,0.1305389404296875
