time,seconds_elapsed,z,y,x
1773148986478848000,0.097847900390625,-0.05733877792954445,-0.02529827132821083,-0.6911150813102722
1773148986488885200,0.10788525390625,-0.06359267979860306,0.1500471830368042,-0.9655695557594299
1773148986498922000,0.117921875,0.033826231956481934,0.3952336609363556,-1.1776282787322998
1773148986508959000,0.127958984375,0.20547175407409668,0.6414911150932312,-1.3340647220611572
1773148986518996000,0.137995849609375,0.33241555094718933,0.7760154008865356,-1.4934654235839844
1773148986529033200,0.148033203125,0.41509631276130676,0.7712193131446838,-1.6235582828521729
1773148986539070200,0.1580703125,0.5090739727020264,0.748393177986145,-1.6941466331481934
1773148986549107200,0.168107177734375,0.5608434677124023,0.7576271891593933,-1.7487331628799438
1773148986559144000,0.17814404296875,0.7696393728256226,0.9981744885444641,-1.6851693391799927
1773148986569181200,0.18818115234375,1.1075173616409302,1.0574465990066528,-1.579498291015625
1773148986579218200,0.19821826171875,1.2900844812393188,0.8136255741119385,-1.3808387517929077
1773148986589255200,0.208255126953125,1.2534977197647095,0.6480384469032288,-1.081194281578064
1773148986599291100,0.218291015625,1.1941779851913452,0.38699132204055786,-0.7267655730247498
1773148986609328000,0.228328125,1.2373802661895752,0.038096435368061066,-0.4044826328754425
1773148986619364900,0.23836474609375,1.139724850654602,-0.21365122497081757,-0.129506453871727
1773148986629401900,0.24840185546875,0.875747561454773,-0.16238510608673096,0.043315645307302475
1773148986639438800,0.25843896484375,0.4392077624797821,0.045014411211013794,0.09009469300508499
1773148986649476000,0.26847607421875,-0.04892224818468094,0.26580992341041565,0.04899999499320984
1773148986659513000,0.27851318359375,-0.46576669812202454,0.47602027654647827,-0.07561103254556656
1773148986669549800,0.2885498046875,-0.7311358451843262,0.5532111525535583,-0.2262338250875473
1773148986679586800,0.2985869140625,-0.8287380933761597,0.5486744046211243,-0.33515244722366333
1773148986689624000,0.3086240234375,-0.7623457908630371,0.6053011417388916,-0.32817068696022034
1773148986699661000,0.3186611328125,-0.5881105065345764,0.6506843566894531,-0.23401525616645813
1773148986709698000,0.328697998046875,-0.43248018622398376,0.4703502655029297,-0.12227620929479599
1773148986719734800,0.33873486328125,-0.36203354597091675,0.013389086350798607,0.08360221236944199
1773148986729771800,0.348771728515625,-0.2754717469215393,-0.47675424814224243,0.35865774750709534
1773148986739809000,0.35880908203125,-0.05198264122009277,-0.8938884139060974,0.6598599553108215
1773148986749846000,0.368845947265625,0.23000776767730713,-1.1554251909255981,0.9332275390625
1773148986759882000,0.378882080078125,0.45536109805107117,-1.2693554162979126,1.0416828393936157
1773148986769919000,0.3889189453125,0.5856069922447205,-1.233518123626709,0.96944260597229
1773148986779956000,0.3989560546875,0.5107812881469727,-1.2265260219573975,0.6977330446243286
1773148986789993000,0.408992919921875,0.2612716555595398,-1.062940239906311,0.3784327805042267
1773148986800030000,0.419030029296875,-0.03133087977766991,-0.7573646306991577,0.1556107997894287
1773148986810067000,0.42906689453125,-0.21502454578876495,-0.4442426264286041,0.029032083228230476
1773148986820104000,0.43910400390625,-0.2140902727842331,-0.2284557819366455,-0.02187025360763073
1773148986830141200,0.44914111328125,-0.08623111248016357,-0.18282891809940338,-0.03178546950221062
1773148986840178000,0.459177978515625,0.02987954020500183,-0.2974596619606018,-0.0049292235635221004
1773148986850215000,0.46921484375,0.01849905401468277,-0.4824864864349365,0.12161567062139511
1773148986860252000,0.479251953125,-0.11051163822412491,-0.5984008312225342,0.35168176889419556
1773148986870289000,0.489288818359375,-0.352807879447937,-0.5214389562606812,0.6631698608398438
1773148986880326100,0.499326171875,-0.5486869215965271,-0.3837929368019104,1.0124591588974
1773148986890363000,0.50936279296875,-0.6544056534767151,-0.42720407247543335,1.2902010679244995
1773148986900399900,0.51939990234375,-0.5685811042785645,-0.9042993187904358,1.3898881673812866
1773148986910436900,0.529436767578125,-0.31647753715515137,-1.637681484222412,1.223087191581726
1773148986920474000,0.53947412109375,0.04303494840860367,-2.0194694995880127,1.0476528406143188
1773148986930511000,0.549510986328125,0.27708765864372253,-1.5114216804504395,0.983729362487793
1773148986940547800,0.5595478515625,0.49880602955818176,-0.5802362561225891,0.9463117122650146
1773148986950583800,0.569583740234375,0.7015663981437683,0.1335982233285904,0.8405594825744629
1773148986960620800,0.579620849609375,0.863861620426178,0.5896679759025574,0.6509289145469666
1773148986970658000,0.589657958984375,0.9914076328277588,0.9099064469337463,0.42336663603782654
1773148986980695000,0.599695068359375,1.008225679397583,1.1360712051391602,0.18466751277446747
1773148986990732000,0.60973193359375,0.8647353053092957,1.3561869859695435,-0.015667976811528206
1773148987000769000,0.61976904296875,0.5682186484336853,1.519147515296936,-0.1732921302318573
1773148987010806000,0.629805908203125,0.24063384532928467,1.5856496095657349,-0.28830981254577637
1773148987020843000,0.639843017578125,0.010861724615097046,1.584658145904541,-0.33668777346611023
1773148987030880000,0.6498798828125,-0.09171205759048462,1.5664359331130981,-0.35466545820236206
1773148987040917000,0.6599169921875,-0.12968957424163818,1.5986952781677246,-0.4115433394908905
1773148987050954000,0.6699541015625,-0.17807547748088837,1.708187222480774,-0.5394455790519714
1773148987060991000,0.679990966796875,-0.2730241119861603,1.786067008972168,-0.7118905186653137
1773148987071028000,0.690028076171875,-0.3934594392776489,1.718681812286377,-0.8471303582191467
1773148987081065000,0.70006494140625,-0.519830584526062,1.4879546165466309,-0.8611229658126831
1773148987091102000,0.71010205078125,-0.631317138671875,1.3234103918075562,-0.7541227340698242
1773148987101139000,0.720138916015625,-0.612669050693512,1.5031116008758545,-0.62799072265625
1773148987111176000,0.730176025390625,-0.5287688374519348,1.846225619316101,-0.6179255843162537
1773148987121213000,0.740212890625,-0.4878745675086975,2.2727394104003906,-0.6876905560493469
1773148987131250000,0.75025,-0.509342610836029,2.5302536487579346,-0.7679872512817383
1773148987141287000,0.760286865234375,-0.5843067765235901,2.42903733253479,-0.8633270859718323
1773148987151324200,0.77032421875,-0.7506534457206726,2.2118051052093506,-0.9306795001029968
1773148987161360100,0.780360107421875,-0.9371933341026306,2.0788347721099854,-0.9362940788269043
1773148987171396900,0.79039697265625,-1.0986980199813843,2.18912935256958,-0.8985347151756287
1773148987181433900,0.800433837890625,-1.1692478656768799,2.306706428527832,-0.8589020371437073
1773148987191470800,0.810470947265625,-1.0583444833755493,2.2604432106018066,-0.912656307220459
1773148987201508000,0.820508056640625,-0.9618583917617798,2.34086537361145,-0.8779422640800476
1773148987211545000,0.830545166015625,-0.8120465278625488,2.3345940113067627,-0.8370672464370728
1773148987221581800,0.840581787109375,-0.5709887742996216,2.303722381591797,-0.8801488280296326
1773148987231618800,0.850618896484375,-0.4954788386821747,2.60113263130188,-0.8706229329109192
1773148987241656000,0.860656005859375,-0.4307709336280823,2.9636194705963135,-0.7577738761901855
1773148987251693000,0.870693115234375,-0.3954595625400543,3.470539093017578,-0.6345001459121704
1773148987261730000,0.88072998046875,-0.5250813961029053,3.859590768814087,-0.5029485821723938
1773148987271766800,0.890766845703125,-0.7636409997940063,3.8773934841156006,-0.3113176226615906
1773148987281804000,0.900803955078125,-1.0128077268600464,3.508594036102295,-0.07063231617212296
1773148987291841000,0.910841064453125,-1.2829997539520264,3.2858169078826904,0.01285458356142044
1773148987301878000,0.9208779296875,-1.4362986087799072,3.4137229919433594,-0.1668098419904709
1773148987311915000,0.9309150390625,-1.427180290222168,3.664716958999634,-0.5574209690093994
1773148987321951700,0.94095166015625,-1.2392828464508057,3.3215057849884033,-0.7675474286079407
1773148987331989000,0.950989013671875,-0.9969521760940552,1.2406655550003052,-0.5128960013389587
1773148987342026000,0.96102587890625,-0.8933646082878113,-0.7527696490287781,-0.708892822265625
1773148987352063000,0.97106298828125,-0.698151707649231,-1.2887606620788574,-1.2754064798355103
1773148987362100000,0.981099853515625,-0.47099387645721436,-1.5142688751220703,-1.6029449701309204
1773148987372137000,0.991136962890625,-0.3553658127784729,-1.3381060361862183,-1.4583743810653687
1773148987382174000,1.001174072265625,-0.19955509901046753,-0.5147935152053833,-1.2629776000976562
1773148987392211000,1.0112109375,-0.08818542957305908,0.31004050374031067,-1.0811606645584106
1773148987402247000,1.021246826171875,-0.11642463505268097,0.6856203675270081,-0.998765766620636
1773148987412284000,1.031283935546875,-0.25412631034851074,0.5816758275032043,-0.9743850827217102
1773148987422321200,1.041321044921875,-0.4295780658721924,0.17641864717006683,-1.0067006349563599
1773148987432358100,1.051358154296875,-0.6247353553771973,-0.3400242328643799,-1.0694431066513062
1773148987442395000,1.061394775390625,-0.6763781309127808,-0.8154246211051941,-1.1542868614196777
1773148987452432000,1.071431884765625,-0.71483314037323,-1.4979504346847534,-1.2007150650024414
1773148987462468900,1.08146875,-0.7788053154945374,-2.1427290439605713,-1.3057202100753784
1773148987472506000,1.091506103515625,-0.8600951433181763,-2.5292458534240723,-1.515045166015625
1773148987482543000,1.101543212890625,-1.0245219469070435,-2.8196189403533936,-1.8268595933914185
1773148987492579800,1.111579833984375,-1.2762738466262817,-2.833326816558838,-2.139042854309082
1773148987502616800,1.121616943359375,-1.583747386932373,-2.577065944671631,-2.3990907669067383
1773148987512654000,1.131654052734375,-1.9083781242370605,-2.047574996948242,-2.6047303676605225
1773148987522691000,1.141691162109375,-2.1247129440307617,-1.4783037900924683,-2.739629030227661
1773148987532728000,1.15172802734375,-2.2192530632019043,-1.022648572921753,-2.8409159183502197
1773148987542764800,1.161764892578125,-2.277376413345337,-0.929538905620575,-2.992446184158325
1773148987552801800,1.1718017578125,-2.282858371734619,-1.157325267791748,-3.1557323932647705
1773148987562839000,1.181839111328125,-2.2897679805755615,-1.4105302095413208,-3.3014726638793945
1773148987572876000,1.1918759765625,-2.3538010120391846,-1.6253759860992432,-3.4590606689453125
1773148987582913000,1.2019130859375,-2.4360389709472656,-1.8686902523040771,-3.5786075592041016
1773148987592949800,1.21194970703125,-2.5212650299072266,-2.1050682067871094,-3.6370551586151123
1773148987602986800,1.22198681640625,-2.6026363372802734,-2.1348876953125,-3.6496024131774902
1773148987613023700,1.232023681640625,-2.597356081008911,-1.8375548124313354,-3.6865861415863037
1773148987623060700,1.242060791015625,-2.4694366455078125,-1.4040124416351318,-3.838205099105835
1773148987633097700,1.25209765625,-2.2232768535614014,-0.8510563373565674,-4.033423900604248
1773148987643134700,1.262134765625,-1.9431650638580322,-0.41574692726135254,-4.247990131378174
1773148987653171700,1.272171630859375,-1.6299448013305664,-0.3536337614059448,-4.445389747619629
1773148987663208700,1.282208740234375,-1.3886902332305908,-0.632353663444519,-4.644350528717041
1773148987673245700,1.29224560546875,-1.1461901664733887,-1.0300966501235962,-4.857819080352783
1773148987683282700,1.30228271484375,-0.8526315689086914,-1.2942463159561157,-5.02188777923584
1773148987693319700,1.312319580078125,-0.5770391225814819,-1.4017282724380493,-5.141965389251709
1773148987703356700,1.322356689453125,-0.3066088557243347,-1.3308353424072266,-5.135984420776367
1773148987713392600,1.332392578125,-0.08463277667760849,-0.9844406843185425,-4.993964672088623
1773148987723429600,1.3424296875,0.22056308388710022,-0.2607911229133606,-4.799321174621582
1773148987733466600,1.352466552734375,0.7050418853759766,0.4305095672607422,-4.613679885864258
1773148987743504000,1.36250390625,1.2391104698181152,1.1256451606750488,-4.573703765869141
1773148987753540900,1.372540771484375,1.7913719415664673,1.7556394338607788,-4.535979270935059
1773148987763577600,1.38257763671875,2.3191702365875244,2.214949369430542,-4.400121688842773
1773148987773614600,1.392614501953125,2.654902696609497,2.599242687225342,-4.2431559562683105
1773148987783651800,1.40265185546875,2.9176509380340576,2.9378390312194824,-4.06016206741333
1773148987793688800,1.412688720703125,3.175241708755493,3.127633810043335,-3.7883460521698
1773148987803725800,1.422725830078125,3.5611495971679688,3.0082032680511475,-3.379384994506836
1773148987813762600,1.432762451171875,3.982567071914673,2.6159846782684326,-2.910475969314575
1773148987823799600,1.442799560546875,3.778416872024536,2.8581762313842773,-2.176034927368164
1773148987833836800,1.4528369140625,2.538097620010376,3.792201042175293,-1.0589524507522583
1773148987843873800,1.462873779296875,1.1330832242965698,4.445995807647705,-0.2092425376176834
1773148987853910800,1.472910888671875,0.19237805902957916,4.609200477600098,0.10278274118900299
1773148987863947500,1.482947509765625,0.02073002979159355,4.2726030349731445,0.11924413591623306
1773148987873984800,1.49298486328125,0.3318231999874115,3.2888472080230713,0.23435236513614655
1773148987884021800,1.503021728515625,0.7414608001708984,1.8822141885757446,0.5656895637512207
1773148987894058800,1.513058837890625,1.203779935836792,0.5593608617782593,1.049342155456543
1773148987904095700,1.523095703125,1.708052158355713,-0.5945618748664856,1.3822933435440063
1773148987914132700,1.5331328125,2.1106181144714355,-1.2898820638656616,1.4056782722473145
1773148987924169700,1.543169677734375,2.2668111324310303,-1.3414208889007568,1.144485592842102
1773148987934206700,1.553206787109375,2.295579433441162,-0.773772120475769,0.7610904574394226
1773148987944243700,1.56324365234375,2.2520384788513184,0.030497683212161064,0.4713173508644104
1773148987954280700,1.57328076171875,2.097421646118164,0.8506754040718079,0.33204975724220276
1773148987964317700,1.583317626953125,1.9413268566131592,1.3779815435409546,0.18274135887622833
1773148987974354700,1.593354736328125,1.8669426441192627,1.5811400413513184,0.06225808337330818
1773148987984391700,1.6033916015625,2.068465232849121,1.485774040222168,0.061110399663448334
1773148987994428700,1.6134287109375,2.2866578102111816,1.1512451171875,0.05380348488688469
1773148988004466000,1.6234658203125,2.4266467094421387,0.7853124141693115,-0.025735290721058846
1773148988014502700,1.633502685546875,2.478083372116089,0.446651816368103,-0.1583511233329773
1773148988024539600,1.64353955078125,1.9581621885299683,0.28261521458625793,-0.20307078957557678
1773148988034576600,1.65357666015625,1.4163737297058105,0.2844594717025757,-0.061143480241298676
1773148988044612600,1.663612548828125,1.2876639366149902,0.12844038009643555,0.1306375414133072
1773148988054649900,1.67364990234375,1.2261888980865479,-0.06293703615665436,0.44272860884666443
1773148988064686800,1.683686767578125,1.3214619159698486,-0.5210988521575928,0.6883530020713806
1773148988074723800,1.693723876953125,1.5379893779754639,-0.41380414366722107,0.7712202072143555
1773148988084760600,1.703760498046875,2.325080156326294,-0.29992926120758057,0.5502219200134277
1773148988094797600,1.713797607421875,2.8293397426605225,-0.43077436089515686,0.07692278176546097
1773148988104834800,1.723834716796875,2.93025279045105,-0.73819500207901,-0.4562452435493469
1773148988114871800,1.733871826171875,2.7501797676086426,-1.1458932161331177,-0.7091971039772034
1773148988124908800,1.74390869140625,2.494896411895752,-1.5345525741577148,-0.7249993681907654
1773148988134945500,1.753945556640625,2.0500195026397705,-1.917495608329773,-0.4887135922908783
1773148988144982800,1.763982666015625,1.7008734941482544,-2.2133450508117676,-0.1968001127243042
1773148988155019800,1.774019775390625,1.2861788272857666,-2.2968382835388184,0.00630773464217782
1773148988165056800,1.784056884765625,0.9234069585800171,-2.004255771636963,0.036072950810194016
1773148988175093800,1.79409375,0.6433055400848389,-1.5198633670806885,0.04657432809472084
1773148988185130800,1.804130859375,0.4972975254058838,-1.25624418258667,0.13363240659236908
1773148988195167700,1.814167724609375,0.5393139719963074,-1.301013708114624,0.28363707661628723
1773148988205204700,1.824204833984375,0.6849230527877808,-1.4434669017791748,0.4214245080947876
1773148988215241700,1.83424169921875,0.7681587934494019,-1.598242163658142,0.3481244742870331
1773148988225278700,1.84427880859375,0.7308371067047119,-1.5773088932037354,0.1006222516298294
1773148988235315700,1.854315673828125,0.5356361865997314,-1.6534487009048462,-0.15502655506134033
1773148988245352700,1.864352783203125,0.1613103747367859,-1.8726297616958618,-0.2447318136692047
1773148988255389700,1.8743896484375,-0.438978910446167,-1.869266152381897,-0.17870111763477325
1773148988265426700,1.8844267578125,-1.105448842048645,-2.0071606636047363,0.13879626989364624
1773148988275464000,1.8944638671875,-1.627711296081543,-1.9938271045684814,0.5865750908851624
1773148988285500700,1.904500732421875,-2.1910996437072754,-1.7945353984832764,0.7837764620780945
1773148988295537700,1.91453759765625,-2.6301445960998535,-1.2212646007537842,0.7913967967033386
1773148988305574700,1.92457470703125,-2.8860373497009277,-1.0900211334228516,0.7577669620513916
1773148988315611600,1.934611572265625,-2.931419610977173,-0.9445647597312927,0.7647655010223389
1773148988325649000,1.94464892578125,-2.7868170738220215,-0.19491982460021973,0.8938519358634949
1773148988335685600,1.954685546875,-2.5904507637023926,0.1228802353143692,1.0059154033660889
1773148988345722600,1.96472265625,-2.15986704826355,0.3239183723926544,0.7485958337783813
1773148988355759600,1.974759521484375,-2.1204676628112793,0.583619236946106,0.643786609172821
1773148988365796900,1.984796875,-2.482074499130249,0.6331481337547302,0.6536429524421692
1773148988375833900,1.994833740234375,-2.5958266258239746,0.7068125009536743,0.6345286965370178
1773148988385870600,2.00487060546875,-2.362626075744629,0.5207894444465637,0.6472140550613403
1773148988395907600,2.014907470703125,-2.2758090496063232,0.05635707452893257,0.6391944885253906
1773148988405944800,2.02494482421875,-2.4732000827789307,-0.06318136304616928,0.5399904251098633
1773148988415981800,2.03498193359375,-2.5925865173339844,0.430556982755661,0.41762828826904297
1773148988426018800,2.045018798828125,-2.571089029312134,0.9797346591949463,0.24667613208293915
1773148988436055600,2.0550556640625,-2.5085885524749756,1.1342853307724,0.04617312178015709
1773148988446092500,2.065092529296875,-2.4749693870544434,0.7487378716468811,-0.14600148797035217
1773148988456129800,2.0751298828125,-2.4269275665283203,0.32628515362739563,-0.35491958260536194
1773148988466166800,2.085166748046875,-2.3405117988586426,0.1125820204615593,-0.5718743801116943
1773148988476203800,2.095203857421875,-2.2612762451171875,-0.16877534985542297,-0.7743225693702698
1773148988486239700,2.10523974609375,-2.180072069168091,-0.6136335730552673,-0.9350500702857971
1773148988496276700,2.11527685546875,-2.1413700580596924,-1.1549873352050781,-1.043082594871521
1773148988506313700,2.125313720703125,-2.1958014965057373,-1.3286288976669312,-1.066537857055664
1773148988516350700,2.135350830078125,-2.2265818119049072,-0.9239547252655029,-0.9583984613418579
1773148988526387700,2.1453876953125,-2.244908571243286,-0.34552809596061707,-0.7916110157966614
1773148988536424700,2.1554248046875,-2.2207610607147217,0.1512712985277176,-0.7022744417190552
1773148988546461700,2.165461669921875,-2.0397462844848633,0.5522619485855103,-0.7388771176338196
1773148988556498700,2.175498779296875,-1.8917776346206665,0.7420574426651001,-0.9256730675697327
1773148988566535700,2.18553564453125,-1.6990500688552856,1.112579345703125,-1.1138362884521484
1773148988576572700,2.19557275390625,-1.0073446035385132,1.8980251550674438,-1.0711349248886108
1773148988586609700,2.205609619140625,0.09256318211555481,3.1565189361572266,-0.7342095375061035
1773148988596647000,2.21564697265625,1.2593035697937012,4.562654972076416,-0.2349621206521988
1773148988606684000,2.225683837890625,2.309356689453125,5.656248092651367,0.33781668543815613
1773148988616721000,2.235720947265625,3.0472095012664795,6.181705951690674,0.9151636362075806
1773148988626758000,2.2457578125,3.5650179386138916,6.125770092010498,1.5531227588653564
1773148988636795000,2.255794921875,3.9376132488250732,5.0660858154296875,2.134625196456909
1773148988646831900,2.265831787109375,4.017249584197998,3.88547682762146,2.765355348587036
1773148988656868900,2.275868896484375,3.9353837966918945,2.9861061573028564,3.4812815189361572
1773148988666905900,2.28590576171875,3.803105354309082,2.4383225440979004,3.9111437797546387
1773148988676942800,2.29594287109375,3.6547627449035645,2.1805403232574463,3.9418892860412598
1773148988686979800,2.305979736328125,3.408503532409668,1.8494375944137573,3.67012095451355
1773148988697016800,2.316016845703125,3.025930404663086,1.45419442653656,3.2866439819335938
1773148988707053800,2.3260537109375,2.3325412273406982,1.4265472888946533,3.2564339637756348
1773148988717090800,2.3360908203125,1.5017437934875488,1.3537191152572632,2.9429242610931396
1773148988727127800,2.3461279296875,1.0049506425857544,0.19259630143642426,1.3815158605575562
1773148988737165000,2.3561650390625,0.6195008754730225,-0.6418543457984924,0.42621544003486633
1773148988747201800,2.366201904296875,0.2348981648683548,-1.3534841537475586,-0.11384756118059158
1773148988757238800,2.37623876953125,-0.023130184039473534,-2.058727502822876,-0.5174328088760376
1773148988767275800,2.38627587890625,-0.16992498934268951,-2.6404051780700684,-0.8638691902160645
1773148988777313000,2.39631298828125,-0.22514963150024414,-3.0594730377197266,-1.164849877357483
1773148988787350000,2.40635009765625,-0.19420050084590912,-3.1968445777893066,-1.3764313459396362
1773148988797387000,2.416386962890625,-0.1039544939994812,-2.8673322200775146,-1.3910326957702637
1773148988807423700,2.426423828125,0.05644410848617554,-2.188870906829834,-1.205175518989563
1773148988817460700,2.436460693359375,0.2485773265361786,-1.1626651287078857,-0.7758134007453918
1773148988827498000,2.446498046875,0.4333477318286896,-0.11060696840286255,-0.22930264472961426
1773148988837535000,2.456534912109375,0.598859429359436,0.6101272106170654,0.23628555238246918
1773148988847572000,2.466572021484375,0.7632430791854858,0.8250634670257568,0.5132172703742981
1773148988857608700,2.476608642578125,0.8778032064437866,0.7594799399375916,0.6379461884498596
1773148988867646000,2.48664599609375,0.9036065936088562,0.6744616031646729,0.6856110692024231
1773148988877683000,2.496682861328125,0.8254207372665405,0.6740610599517822,0.6428025960922241
1773148988887720000,2.506719970703125,0.6809751987457275,0.6935256123542786,0.47034838795661926
1773148988897757000,2.5167568359375,0.5118131041526794,0.6460086703300476,0.12558406591415405
1773148988907794000,2.5267939453125,0.3147653639316559,0.3705289959907532,-0.3436349630355835
1773148988917831000,2.536830810546875,0.11089268326759338,-0.056260671466588974,-0.7778798341751099
1773148988927868000,2.546867919921875,-0.07166926562786102,-0.4283044636249542,-1.043347954750061
1773148988937905000,2.55690478515625,-0.22070056200027466,-0.7515986561775208,-1.1669707298278809
1773148988947942000,2.56694189453125,-0.3541134297847748,-1.3413652181625366,-1.3473809957504272
1773148988957979000,2.576978759765625,-0.5333438515663147,-1.927314281463623,-1.5485529899597168
1773148988968016000,2.587015869140625,-0.8040608167648315,-2.440190553665161,-1.7424739599227905
1773148988978052900,2.597052978515625,-1.1861735582351685,-2.7211666107177734,-1.8978294134140015
1773148988988089900,2.60708984375,-1.677293062210083,-2.745999336242676,-1.9789786338806152
1773148988998127000,2.617127197265625,-2.216059446334839,-2.536287784576416,-1.9320833683013916
1773148989008163800,2.627163818359375,-2.7378273010253906,-2.140739679336548,-1.717529535293579
1773148989018200800,2.637200927734375,-3.227557420730591,-1.7422065734863281,-1.423903465270996
1773148989028237800,2.64723779296875,-3.6878910064697266,-1.4677813053131104,-1.1684372425079346
1773148989038274800,2.65727490234375,-4.070471286773682,-1.259573221206665,-0.9708806872367859
1773148989048312000,2.66731201171875,-4.313447952270508,-1.0162707567214966,-0.793292760848999
1773148989058348800,2.677348876953125,-4.276989459991455,-0.7894964814186096,-0.5935223698616028
1773148989068385800,2.6873857421875,-3.9209094047546387,-0.5940074920654297,-0.3707070052623749
1773148989078422800,2.6974228515625,-3.3022823333740234,-0.5224997997283936,-0.21810734272003174
1773148989088460000,2.7074599609375,-2.558608055114746,-0.3867179751396179,-0.1194864958524704
1773148989098496000,2.71749609375,-1.817930817604065,-0.2347036898136139,-0.12397125363349915
1773148989108533000,2.727532958984375,-1.1878327131271362,0.004606656730175018,-0.2241535484790802
1773148989118569700,2.73756982421875,-0.7300034165382385,0.1435757279396057,-0.4837595224380493
1773148989128606700,2.747606689453125,-0.42655783891677856,0.23844043910503387,-0.7290257215499878
1773148989138644000,2.75764404296875,-0.39485424757003784,0.11986532062292099,-0.8997713923454285
1773148989148681000,2.767680908203125,-0.667569100856781,-0.011401309631764889,-0.8648194074630737
1773148989158718000,2.777718017578125,-1.0869908332824707,-0.2558339536190033,-0.6781318187713623
1773148989168755000,2.7877548828125,-1.5133821964263916,-0.8391064405441284,-0.5207586884498596
1773148989178792000,2.7977919921875,-1.861095905303955,-1.5238287448883057,-0.4017244577407837
1773148989188829000,2.807828857421875,-2.2029764652252197,-2.3029699325561523,-0.40500563383102417
1773148989198866000,2.817865966796875,-2.807957172393799,-3.2914984226226807,-0.6720501184463501
1773148989208903000,2.82790283203125,-3.5580313205718994,-3.335535764694214,-0.7129821181297302
1773148989218940000,2.83793994140625,-3.68924880027771,-2.2938718795776367,-0.29651692509651184
1773148989228977000,2.847976806640625,-3.0689516067504883,-1.8190888166427612,0.12694165110588074
1773148989239014000,2.858013916015625,-2.3785839080810547,-1.9230769872665405,0.43312662839889526
1773148989249051000,2.86805078125,-1.9231202602386475,-2.709392547607422,0.4482954144477844
1773148989259088000,2.878087890625,-1.5783823728561401,-3.3056068420410156,0.49823474884033203
1773148989269124900,2.888124755859375,-1.1847172975540161,-3.302212715148926,0.743157684803009
1773148989279161900,2.898161865234375,-0.8710880875587463,-2.747534990310669,1.0140008926391602
1773148989289198800,2.90819873046875,-0.7917299270629883,-2.0937116146087646,1.1291471719741821
1773148989299235800,2.91823583984375,-0.8404601812362671,-1.6228861808776855,0.9994654059410095
1773148989309272800,2.92827294921875,-0.7219509482383728,-1.2859899997711182,0.735689640045166
1773148989319309800,2.938309814453125,-0.2634446620941162,-1.128799319267273,0.37339693307876587
1773148989329346800,2.948346923828125,0.20306409895420074,-0.7135155200958252,0.019314510747790337
1773148989339383800,2.9583837890625,0.5138909220695496,0.4673420786857605,-0.08161823451519012
1773148989349420800,2.9684208984375,0.7771996855735779,1.5256038904190063,-0.18530841171741486
1773148989359458000,2.9784580078125,1.0079429149627686,1.9735641479492188,-0.19559380412101746
1773148989369495000,2.9884951171875,1.1395015716552734,1.8175301551818848,-0.06668567657470703
1773148989379531800,2.99853173828125,1.0501354932785034,1.394616961479187,0.06377379596233368
1773148989389568800,3.00856884765625,0.791710376739502,0.971418023109436,0.07691013813018799
1773148989399606000,3.01860595703125,0.41380754113197327,0.5600107312202454,-0.04568447917699814
1773148989409643000,3.02864306640625,-0.1116001084446907,0.2535054087638855,-0.3014453947544098
1773148989419680000,3.038679931640625,-0.659951388835907,-0.01283704861998558,-0.5939214825630188
1773148989429716700,3.048716796875,-1.0869220495224,-0.2787676453590393,-0.783022403717041
1773148989439753700,3.058753662109375,-1.3259685039520264,-0.5482829809188843,-0.8792738914489746
1773148989449791000,3.068791015625,-1.3368868827819824,-0.7153773307800293,-0.870769739151001
1773148989459828000,3.078827880859375,-1.1548001766204834,-0.7161179780960083,-0.7783556580543518
1773148989469865000,3.088864990234375,-0.8809045553207397,-0.5802673697471619,-0.674574077129364
1773148989479901700,3.098901611328125,-0.6293359994888306,-0.35424304008483887,-0.6215398907661438
1773148989489939000,3.10893896484375,-0.4410063922405243,-0.07363761961460114,-0.672828733921051
1773148989499976000,3.118975830078125,-0.168255016207695,0.0920400321483612,-0.7231518030166626
1773148989510013000,3.129012939453125,0.2512264549732208,0.12729357182979584,-0.7708186507225037
1773148989520050000,3.1390498046875,0.45088815689086914,0.016794221475720406,-1.4016351699829102
1773148989530087000,3.1490869140625,0.4712866246700287,0.21462200582027435,-2.4771761894226074
1773148989540124000,3.1591240234375,0.5228095054626465,0.6741123795509338,-3.316011428833008
1773148989550161000,3.169160888671875,0.6980769634246826,1.2682936191558838,-3.6245830059051514
1773148989560198000,3.179197998046875,0.926759660243988,2.162504196166992,-3.370014190673828
1773148989570235000,3.18923486328125,1.1952381134033203,3.3645551204681396,-2.5827524662017822
1773148989580271900,3.19927197265625,1.4673268795013428,4.2136921882629395,-1.4664874076843262
1773148989590308900,3.209308837890625,1.7052818536758423,4.307969093322754,-0.368527889251709
1773148989600345900,3.219345947265625,1.8432340621948242,3.781660318374634,0.4516628682613373
1773148989610382600,3.229382568359375,1.8510031700134277,2.898219347000122,0.835203230381012
1773148989620419800,3.239419921875,1.6633200645446777,1.93753182888031,0.8096358180046082
1773148989630456600,3.24945654296875,1.321007251739502,1.006056547164917,0.5402762293815613
1773148989640493600,3.25949365234375,0.9321748614311218,0.19630375504493713,0.2737619876861572
1773148989650530600,3.269530517578125,0.5285191535949707,-0.48474255204200745,0.11839956790208817
1773148989660567600,3.279567626953125,0.1150532215833664,-1.0482743978500366,0.03806452080607414
1773148989670604800,3.289604736328125,-0.2972836196422577,-1.4731545448303223,-0.02347409538924694
1773148989680641500,3.2996416015625,-0.6012547016143799,-1.7143608331680298,-0.11509988456964493
1773148989690678500,3.309678466796875,-0.6500001549720764,-1.7805176973342896,-0.26006007194519043
1773148989700715500,3.319715576171875,-0.5605365633964539,-1.639365553855896,-0.4127926230430603
1773148989710752800,3.329752685546875,-0.4584335684776306,-1.3207050561904907,-0.5205485224723816
1773148989720789800,3.339789794921875,-0.3780681788921356,-0.9025275111198425,-0.5579425096511841
1773148989730826500,3.349826416015625,-0.3281627893447876,-0.4477161169052124,-0.5049450993537903
1773148989740863500,3.359863525390625,-0.2935773730278015,0.00363002996891737,-0.40653303265571594
1773148989750900700,3.369900634765625,-0.24435272812843323,0.444764107465744,-0.324042409658432
1773148989760937700,3.379937744140625,-0.16982363164424896,0.8585247993469238,-0.3207307755947113
1773148989770974700,3.389974609375,-0.10840325057506561,1.233968734741211,-0.40454572439193726
1773148989781011500,3.400011474609375,-0.09495721012353897,1.5278408527374268,-0.537477433681488
1773148989791048400,3.41004833984375,-0.13100573420524597,1.67708420753479,-0.6320824027061462
1773148989801085700,3.420085693359375,-0.20730875432491302,1.6309661865234375,-0.6159348487854004
1773148989811122700,3.430122802734375,-0.3135600686073303,1.411325454711914,-0.46835818886756897
1773148989821159700,3.44015966796875,-0.3954901099205017,1.0543955564498901,-0.2496015876531601
1773148989831196700,3.45019677734375,-0.4459640681743622,0.6626289486885071,-0.06599752604961395
1773148989841233700,3.460233642578125,-0.4714997708797455,0.3298507332801819,0.016053395345807076
1773148989851270700,3.470270751953125,-0.4828472137451172,0.0904596596956253,0.005325390957295895
1773148989861307600,3.4803076171875,-0.4575173258781433,-0.09416212141513824,-0.017559418454766273
1773148989871344600,3.4903447265625,-0.3936697542667389,-0.27387651801109314,0.01609036512672901
1773148989881381600,3.500381591796875,-0.2846492826938629,-0.4425033628940582,0.09151401370763779
1773148989891418600,3.510418701171875,-0.16122998297214508,-0.5520358681678772,0.1671319603919983
1773148989901455600,3.52045556640625,-0.043994173407554626,-0.5709954500198364,0.20301778614521027
1773148989911492600,3.53049267578125,0.07297774404287338,-0.5017823576927185,0.19732382893562317
1773148989921529600,3.540529541015625,0.1373508721590042,-0.36230459809303284,0.16414989531040192
1773148989931566600,3.550566650390625,0.14495301246643066,-0.15087918937206268,0.13786150515079498
1773148989941603600,3.560603515625,0.18213340640068054,0.121441550552845,0.12369001656770706
1773148989951640600,3.570640625,0.25833970308303833,0.44279059767723083,0.1105414479970932
1773148989961677600,3.580677490234375,0.3403940796852112,0.7906417846679688,0.11400329321622849
1773148989971714800,3.59071484375,0.41342905163764954,1.1110889911651611,0.13628605008125305
1773148989981751800,3.600751708984375,0.4887813329696655,1.3316562175750732,0.19711211323738098
1773148989991788500,3.61078857421875,0.5551697015762329,1.4010337591171265,0.2787654399871826
1773148990001825500,3.620825439453125,0.5908376574516296,1.3770420551300049,0.3547382354736328
1773148990011862500,3.630862548828125,0.6158215999603271,1.295499563217163,0.41812679171562195
1773148990021899800,3.640899658203125,0.6588582396507263,1.1788318157196045,0.4850541353225708
1773148990031936800,3.650936767578125,0.6788327693939209,1.0416185855865479,0.579568088054657
1773148990041973500,3.660973388671875,0.642951488494873,0.883940577507019,0.722425639629364
1773148990052010500,3.671010498046875,0.5501559972763062,0.726096510887146,0.9040594100952148
1773148990062047700,3.6810478515625,0.4433097243309021,0.6357296109199524,1.1080186367034912
1773148990072084700,3.691084716796875,0.3777560889720917,0.639555037021637,1.2876362800598145
1773148990082121700,3.701121826171875,0.3644962012767792,0.6948752403259277,1.4292548894882202
1773148990092158500,3.711158447265625,0.37061023712158203,0.6722292304039001,1.535814881324768
1773148990102195700,3.72119580078125,0.3501712679862976,0.5107511281967163,1.6139456033706665
1773148990112232700,3.731232666015625,0.27364566922187805,0.331363707780838,1.6385464668273926
1773148990122269700,3.741269775390625,0.16999252140522003,0.2405768185853958,1.5965771675109863
1773148990132306700,3.751306640625,0.08091661334037781,0.26356080174446106,1.4874927997589111
1773148990142343400,3.761343505859375,0.014663824811577797,0.3681434094905853,1.350703239440918
1773148990152380700,3.771380615234375,-0.012429067865014076,0.5203981995582581,1.205270528793335
1773148990162417700,3.781417724609375,-0.0019559208303689957,0.6855624318122864,1.077593207359314
1773148990172454700,3.79145458984375,0.010885589756071568,0.833270788192749,0.9788586497306824
1773148990182491600,3.80149169921875,-0.015140417963266373,0.9557112455368042,0.9169630408287048
1773148990192528600,3.811528564453125,-0.05835242569446564,1.0107697248458862,0.8727279305458069
1773148990202565600,3.821565673828125,-0.08043855428695679,0.9789309501647949,0.8478814363479614
1773148990212602600,3.8316025390625,-0.07947159558534622,0.8565614819526672,0.8253811597824097
1773148990222639600,3.8416396484375,-0.05610261857509613,0.6934700608253479,0.7916013598442078
1773148990232676900,3.8516767578125,-0.04457029327750206,0.5231163501739502,0.7372192740440369
1773148990242713600,3.861713623046875,-0.03849855065345764,0.3882408142089844,0.6730834245681763
1773148990252750600,3.87175048828125,-0.029713623225688934,0.3188013434410095,0.5988034009933472
1773148990262787600,3.88178759765625,-0.01325901597738266,0.3128097653388977,0.5241605639457703
1773148990272824600,3.891824462890625,0.008332820609211922,0.3532492220401764,0.457078218460083
1773148990282861800,3.90186181640625,0.02661675214767456,0.42978715896606445,0.3955591917037964
1773148990292898600,3.911898681640625,0.05121367424726486,0.5078392028808594,0.33151331543922424
1773148990302935600,3.921935546875,0.08399878442287445,0.5794116258621216,0.26731517910957336
1773148990312972500,3.93197265625,0.11989380419254303,0.6170628666877747,0.19699141383171082
1773148990323009800,3.942009765625,0.14163371920585632,0.6058600544929504,0.12568074464797974
1773148990333046800,3.952046875,0.14139175415039062,0.5360831618309021,0.06668313592672348
1773148990343083500,3.96208349609375,0.1266695261001587,0.42311370372772217,0.014390634372830391
1773148990353120500,3.97212060546875,0.09393138438463211,0.28562405705451965,-0.024999184533953667
1773148990363157800,3.98215771484375,0.05967994034290314,0.14127275347709656,-0.06506937742233276
1773148990373194800,3.99219482421875,0.0342080295085907,-0.012379785999655724,-0.10887959599494934
1773148990383231700,4.002231689453125,0.014291846193373203,-0.16898617148399353,-0.15152719616889954
1773148990393268500,4.0122685546875,0.00644749216735363,-0.2977552115917206,-0.18658974766731262
1773148990403305500,4.022305419921875,-0.009641729295253754,-0.38218408823013306,-0.22211125493049622
1773148990413342700,4.0323427734375,-0.026764940470457077,-0.4218021333217621,-0.25486427545547485
1773148990423379700,4.042379638671875,-0.052624769508838654,-0.4144347608089447,-0.29423272609710693
1773148990433416700,4.052416748046875,-0.0597296804189682,-0.36553654074668884,-0.35178661346435547
1773148990443453400,4.062453369140625,-0.06140347942709923,-0.29390445351600647,-0.4241441488265991
1773148990453490700,4.07249072265625,-0.09178779274225235,-0.22769369184970856,-0.5115216970443726
1773148990463527700,4.082527587890625,-0.06098620221018791,-0.15272703766822815,-0.5735427141189575
1773148990473564700,4.092564697265625,-0.003868408501148224,-0.10467816889286041,-0.5911762714385986
1773148990483601700,4.1026015625,0.023859625682234764,-0.05579078942537308,-0.5601507425308228
1773148990493638400,4.112638427734375,0.016073424369096756,0.013647204264998436,-0.4705648422241211
1773148990503675600,4.122675537109375,0.0012342901900410652,0.12152706831693649,-0.28462719917297363
1773148990513712600,4.132712646484375,-0.03366848826408386,0.31838855147361755,-0.03723869472742081
1773148990523749600,4.14274951171875,-0.061659377068281174,0.5704143643379211,0.18877020478248596
1773148990533786600,4.15278662109375,-0.08251708745956421,0.7857040166854858,0.29914820194244385
1773148990543823600,4.16282373046875,-0.09753492474555969,0.899121105670929,0.26630422472953796
1773148990553860600,4.172860595703125,-0.11362682282924652,0.8713105916976929,0.13045066595077515
1773148990563897600,4.182897705078125,-0.13210277259349823,0.6759461164474487,-0.006922912783920765
1773148990573934600,4.1929345703125,-0.1909191608428955,0.37301990389823914,-0.13600029051303864
1773148990583971800,4.202971923828125,-0.28151723742485046,0.03872689604759216,-0.28211143612861633
1773148990594008600,4.213008544921875,-0.3534819483757019,-0.28040003776550293,-0.4410049319267273
1773148990604046600,4.223046630859375,-0.34161993861198425,-0.5532520413398743,-0.5716378092765808
1773148990614083300,4.233083251953125,-0.3162553906440735,-0.691943347454071,-0.6287024617195129
1773148990624120600,4.24312060546875,-0.3306606709957123,-0.6946059465408325,-0.6153451204299927
1773148990634157300,4.2531572265625,-0.36075320839881897,-0.6208251118659973,-0.5608035326004028
1773148990644194300,4.2631943359375,-0.4195081293582916,-0.49472177028656006,-0.510059118270874
1773148990654231300,4.273231201171875,-0.5093230605125427,-0.3238639831542969,-0.4644985795021057
1773148990664268500,4.2832685546875,-0.6001557111740112,-0.12769979238510132,-0.4327281415462494
1773148990674305500,4.293305419921875,-0.6679030656814575,0.05125908926129341,-0.4165213704109192
1773148990684342300,4.30334228515625,-0.648800253868103,0.1369982212781906,-0.4142632782459259
1773148990694379300,4.313379150390625,-0.5279519557952881,0.10662031918764114,-0.4304254949092865
1773148990704416300,4.323416259765625,-0.36599984765052795,0.006058023311197758,-0.4248136878013611
1773148990714453500,4.33345361328125,-0.25777754187583923,-0.085895836353302,-0.37922394275665283
1773148990724490500,4.343490478515625,-0.19992569088935852,-0.07900144904851913,-0.31338074803352356
1773148990734527200,4.35352734375,-0.16015318036079407,0.012193088419735432,-0.26666343212127686
1773148990744564200,4.363564208984375,-0.12414271384477615,0.13015274703502655,-0.2709255516529083
1773148990754601500,4.3736015625,-0.1061370000243187,0.22620192170143127,-0.3014853298664093
1773148990764638500,4.383638427734375,-0.09249095618724823,0.24078619480133057,-0.3311462700366974
1773148990774675500,4.393675537109375,-0.08124984055757523,0.17590558528900146,-0.337969571352005
1773148990784712200,4.403712158203125,-0.07923728972673416,0.06476202607154846,-0.31582698225975037
1773148990794749400,4.41374951171875,-0.07477936148643494,-0.05432397499680519,-0.28537681698799133
1773148990804786400,4.423786376953125,-0.07142217457294464,-0.15122894942760468,-0.27464666962623596
1773148990814823400,4.433823486328125,-0.06914524734020233,-0.20206816494464874,-0.29256290197372437
1773148990824860400,4.4438603515625,-0.05255987495183945,-0.20578354597091675,-0.32270774245262146
1773148990834897200,4.453897216796875,-0.018356209620833397,-0.15573807060718536,-0.35534441471099854
1773148990844934400,4.463934326171875,0.024075135588645935,-0.059878647327423096,-0.37257611751556396
1773148990854971400,4.473971435546875,0.061722755432128906,0.061118196696043015,-0.37786605954170227
1773148990865008400,4.48400830078125,0.07397489249706268,0.17209237813949585,-0.36893489956855774
1773148990875045400,4.49404541015625,0.06744910776615143,0.25432634353637695,-0.34100037813186646
1773148990885082400,4.504082275390625,0.04796355962753296,0.27722498774528503,-0.3038138747215271
1773148990895119400,4.514119384765625,0.01936369203031063,0.23928777873516083,-0.2442103773355484
1773148990905156400,4.52415625,-0.009577679447829723,0.1464497148990631,-0.1685323864221573
1773148990915194400,4.5341943359375,-0.03583994880318642,0.016427427530288696,-0.08187666535377502
1773148990925230300,4.544230224609375,-0.0468694344162941,-0.11049723625183105,-0.001618843642063439
1773148990935268400,4.554268310546875,-0.04372481256723404,-0.2058553844690323,0.04095310717821121
1773148990945305300,4.564305419921875,-0.04249123856425285,-0.248240664601326,0.048927146941423416
1773148990955342300,4.57434228515625,-0.030839577317237854,-0.23982489109039307,0.027073126286268234
1773148990965379600,4.584379638671875,-0.008135063573718071,-0.19799062609672546,-0.006592158228158951
1773148990975416300,4.594416259765625,0.01783190853893757,-0.12580975890159607,-0.05137958005070686
1773148990985453300,4.604453369140625,0.042723678052425385,-0.032997529953718185,-0.0911799892783165
1773148990995490300,4.614490234375,0.07476053386926651,0.0711514800786972,-0.1279420405626297
1773148991005527600,4.624527587890625,0.1052076518535614,0.16993504762649536,-0.16198097169399261
1773148991015564500,4.634564453125,0.1356094926595688,0.23553048074245453,-0.18028560280799866
1773148991025601300,4.644601318359375,0.15577149391174316,0.259233683347702,-0.1805998533964157
1773148991035638300,4.65463818359375,0.16438087821006775,0.24803893268108368,-0.1539352536201477
1773148991045675300,4.66467529296875,0.15692320466041565,0.1957365721464157,-0.1131979376077652
1773148991055712500,4.67471240234375,0.1337004452943802,0.13037310540676117,-0.08124885708093643
1773148991065749500,4.68474951171875,0.11203484982252121,0.06580530107021332,-0.06351061165332794
1773148991075786200,4.6947861328125,0.09503002464771271,0.019482988864183426,-0.06202822923660278
1773148991085823200,4.7048232421875,0.08630497753620148,-0.002806603442877531,-0.07854941487312317
1773148991095860500,4.714860595703125,0.0849163830280304,-0.009524043649435043,-0.09494110196828842
1773148991105897500,4.7248974609375,0.08423887938261032,0.002794140949845314,-0.1051468700170517
1773148991115934500,4.7349345703125,0.082172691822052,0.012711365707218647,-0.11157456040382385
1773148991125971200,4.74497119140625,0.08081314712762833,0.02545805461704731,-0.1088741198182106
1773148991136008400,4.755008544921875,0.08274160325527191,0.03508414328098297,-0.10635297000408173
1773148991146045400,4.76504541015625,0.08612701296806335,0.03166437894105911,-0.10577186942100525
1773148991156082400,4.77508251953125,0.0895116850733757,0.016456041485071182,-0.1024310439825058
1773148991166119400,4.785119384765625,0.09552218019962311,-0.004287320654839277,-0.0877210795879364
1773148991176156200,4.79515625,0.10023144632577896,-0.03237967565655708,-0.07407078146934509
1773148991186193400,4.805193359375,0.09972544014453888,-0.05647409334778786,-0.06657318025827408
1773148991196230400,4.81523046875,0.09467513859272003,-0.08025902509689331,-0.08156407624483109
1773148991206267400,4.825267333984375,0.08503422886133194,-0.09842950850725174,-0.1113014668226242
1773148991216304400,4.835304443359375,0.06842143088579178,-0.11482028663158417,-0.14816462993621826
1773148991226341400,4.84534130859375,0.0583200603723526,-0.13511011004447937,-0.1930607259273529
1773148991236378400,4.85537841796875,0.05103134363889694,-0.15642696619033813,-0.22889858484268188
1773148991246415400,4.865415283203125,0.04919802397489548,-0.176442489027977,-0.24176032841205597
1773148991256452400,4.875452392578125,0.04915865138173103,-0.19993677735328674,-0.23412896692752838
1773148991266489300,4.8854892578125,0.040317755192518234,-0.23353229463100433,-0.20806406438350677
1773148991276526300,4.8955263671875,0.030825361609458923,-0.27438345551490784,-0.17484408617019653
1773148991286563300,4.905563232421875,0.004545019939541817,-0.3219517767429352,-0.15672899782657623
1773148991296600300,4.915600341796875,-0.018132861703634262,-0.3707294166088104,-0.1633187234401703
1773148991306637300,4.92563720703125,-0.037757426500320435,-0.42139339447021484,-0.1865350902080536
1773148991316674600,4.935674560546875,-0.05748109892010689,-0.45846226811408997,-0.23461993038654327
1773148991326711300,4.945711181640625,-0.0683651715517044,-0.48232391476631165,-0.2885175049304962
1773148991336748300,4.955748291015625,-0.06945623457431793,-0.4922190010547638,-0.3521379828453064
1773148991346785300,4.965785400390625,-0.06809082627296448,-0.4802553057670593,-0.4049175977706909
1773148991356822500,4.975822509765625,-0.06855666637420654,-0.44521620869636536,-0.4459277391433716
1773148991366859500,4.985859619140625,-0.07675494253635406,-0.4163406193256378,-0.4685313105583191
1773148991376896300,4.995896240234375,-0.08471205830574036,-0.3925081789493561,-0.47943559288978577
1773148991386933200,5.005933349609375,-0.09009085595607758,-0.37686848640441895,-0.47343069314956665
1773148991396970200,5.01597021484375,-0.09472182393074036,-0.37425848841667175,-0.46088355779647827
1773148991407007500,5.026007568359375,-0.09131670743227005,-0.37003660202026367,-0.4390070140361786
1773148991417044500,5.03604443359375,-0.09309899806976318,-0.35198357701301575,-0.4244637191295624
1773148991427081500,5.04608154296875,-0.09324121475219727,-0.3272199034690857,-0.4043046534061432
1773148991437118200,5.0561181640625,-0.09559454023838043,-0.2876352071762085,-0.3833615779876709
1773148991447155500,5.066155517578125,-0.08617547154426575,-0.24836184084415436,-0.3490973711013794
1773148991457192400,5.0761923828125,-0.05556119605898857,-0.208854079246521,-0.301880806684494
1773148991467229400,5.0862294921875,-0.02689332887530327,-0.17246916890144348,-0.24287419021129608
1773148991477266400,5.096266357421875,-0.0011846600100398064,-0.13979357481002808,-0.17445456981658936
1773148991487303400,5.106303466796875,0.021617058664560318,-0.11007482558488846,-0.10526404529809952
1773148991497340400,5.11634033203125,0.04538903757929802,-0.08562105894088745,-0.03266625851392746
1773148991507378400,5.12637841796875,0.07062089443206787,-0.06045632064342499,0.02959844470024109
1773148991517415200,5.136415283203125,0.11136862635612488,-0.038362257182598114,0.08643404394388199
1773148991527452400,5.146452392578125,0.1626746952533722,-0.0046090902760624886,0.13345001637935638
1773148991537489400,5.156489501953125,0.1939821094274521,0.03310319408774376,0.17383986711502075
1773148991547526400,5.1665263671875,0.20460999011993408,0.07786107808351517,0.19308573007583618
1773148991557563400,5.1765634765625,0.1840960681438446,0.11999819427728653,0.20510023832321167
1773148991567600400,5.186600341796875,0.15409156680107117,0.13976657390594482,0.21742402017116547
1773148991577637400,5.196637451171875,0.13578687608242035,0.11198493093252182,0.24436360597610474
1773148991587674400,5.20667431640625,0.13355034589767456,0.0375911220908165,0.28013068437576294
1773148991597711400,5.21671142578125,0.12552137672901154,-0.08204410970211029,0.3146775960922241
1773148991607748900,5.226748779296875,0.10715222358703613,-0.2482365518808365,0.3277004361152649
1773148991617785900,5.236785888671875,0.07745012640953064,-0.4236239790916443,0.3219781219959259
1773148991627822800,5.24682275390625,0.03315030038356781,-0.5886254906654358,0.2888449430465698
1773148991637859800,5.25685986328125,0.004593357443809509,-0.7275584936141968,0.24244844913482666
1773148991647896800,5.266896728515625,-0.008562125265598297,-0.8334764242172241,0.19456295669078827
1773148991657933800,5.276933837890625,-0.003906365483999252,-0.9096694588661194,0.15586735308170319
1773148991667970800,5.286970703125,0.0008606929332017899,-0.9414606690406799,0.1296277642250061
1773148991678007800,5.2970078125,0.0006833048537373543,-0.919044554233551,0.1051635593175888
1773148991688044800,5.307044921875,-0.0036520548164844513,-0.8501624464988708,0.09047728776931763
1773148991698082000,5.31708203125,-0.0004206644371151924,-0.7489384412765503,0.07335541397333145
1773148991708119000,5.327119140625,-0.0035086004063487053,-0.6299965977668762,0.06283380091190338
1773148991718155800,5.33715576171875,0.008562487550079823,-0.5268680453300476,0.05296779423952103
1773148991728192800,5.34719287109375,0.02350734919309616,-0.4481010437011719,0.04010259360074997
1773148991738230000,5.35722998046875,0.026469159871339798,-0.4011123776435852,0.03352475166320801
1773148991748267000,5.36726708984375,0.02599272131919861,-0.38636165857315063,0.02686498314142227
1773148991758304000,5.377303955078125,0.029692893847823143,-0.39308449625968933,0.017744315788149834
1773148991768340700,5.3873408203125,0.03346925973892212,-0.4157698452472687,-0.012564054690301418
1773148991778377700,5.397377685546875,0.04847106337547302,-0.4218122363090515,-0.04465382546186447
1773148991788415000,5.4074150390625,0.06431207805871964,-0.41364166140556335,-0.08605186641216278
1773148991798452000,5.417451904296875,0.08382395654916763,-0.38740572333335876,-0.11255192756652832
1773148991808489000,5.427489013671875,0.1035957932472229,-0.351150780916214,-0.11411440372467041
1773148991818525700,5.437525634765625,0.13406261801719666,-0.3244403302669525,-0.0998702198266983
1773148991828563000,5.44756298828125,0.17096976935863495,-0.28668472170829773,-0.08245208114385605
1773148991838600000,5.457599853515625,0.21054983139038086,-0.23342855274677277,-0.0852283239364624
1773148991848637000,5.467636962890625,0.2534906566143036,-0.1475898027420044,-0.1124945655465126
1773148991858674000,5.477673828125,0.290306955575943,-0.05483166500926018,-0.14615179598331451
1773148991868711000,5.4877109375,0.3121850788593292,0.033517636358737946,-0.17726923525333405
1773148991878748000,5.497747802734375,0.3175511062145233,0.10521769523620605,-0.17784321308135986
1773148991888785000,5.507784912109375,0.30817893147468567,0.15619538724422455,-0.15062464773654938
1773148991898822000,5.51782177734375,0.3047863245010376,0.18157051503658295,-0.10168745368719101
1773148991908859000,5.52785888671875,0.28931230306625366,0.18571865558624268,-0.04503936320543289
1773148991918895900,5.537895751953125,0.25401607155799866,0.17932537198066711,0.018378833308815956
1773148991928934000,5.547933837890625,0.20857402682304382,0.15006841719150543,0.07680752128362656
1773148991938971000,5.557970947265625,0.17611007392406464,0.08240002393722534,0.11986689269542694
1773148991949008000,5.5680078125,0.1564365029335022,-0.019154831767082214,0.1538379192352295
1773148991959044900,5.578044921875,0.13715581595897675,-0.13419869542121887,0.17790478467941284
1773148991969081900,5.588081787109375,0.12887710332870483,-0.24813564121723175,0.2001325935125351
1773148991979118800,5.598118896484375,0.11821483820676804,-0.33814987540245056,0.21797682344913483
1773148991989155800,5.60815576171875,0.1073070615530014,-0.3937532305717468,0.22439584136009216
1773148991999192800,5.61819287109375,0.10460568964481354,-0.4077123701572418,0.20868508517742157
1773148992009229800,5.628229736328125,0.106610506772995,-0.3799385130405426,0.180262491106987
1773148992019266800,5.638266845703125,0.11281543225049973,-0.3167346715927124,0.15223188698291779
1773148992029303800,5.6483037109375,0.10322938859462738,-0.24086599051952362,0.13357111811637878
1773148992039341000,5.658341064453125,0.08137757331132889,-0.15576931834220886,0.1286279261112213
1773148992049377800,5.668377685546875,0.048864103853702545,-0.0632162094116211,0.1289384514093399
1773148992059414800,5.678414794921875,0.012405873276293278,0.03796449303627014,0.11265753954648972
1773148992069451800,5.68845166015625,-0.017116598784923553,0.140787273645401,0.07795096188783646
1773148992079489000,5.698489013671875,-0.02907809615135193,0.21827591955661774,0.048080094158649445
1773148992089526000,5.708526123046875,-0.026583515107631683,0.26499974727630615,0.025704214349389076
1773148992099563000,5.71856298828125,-0.02937484160065651,0.28876128792762756,0.02180393785238266
1773148992109599700,5.728599853515625,-0.02329804003238678,0.3005167245864868,0.026706285774707794
1773148992119636700,5.73863671875,-0.023038893938064575,0.30227208137512207,0.031263284385204315
1773148992129674000,5.748674072265625,-0.025815505534410477,0.3020569086074829,0.03490249440073967
1773148992139711000,5.7587109375,-0.03161591291427612,0.2855730652809143,0.037539009004831314
1773148992149748000,5.768748046875,-0.024693291634321213,0.25414058566093445,0.05195336788892746
1773148992159784700,5.77878466796875,-0.021775975823402405,0.20426040887832642,0.059279296547174454
1773148992169822000,5.788822021484375,-0.032850466668605804,0.15785908699035645,0.05702253431081772
1773148992179859000,5.79885888671875,-0.028273090720176697,0.11196544766426086,0.05100496858358383
1773148992189896000,5.80889599609375,-0.015183121897280216,0.08242087811231613,0.043728411197662354
1773148992199933000,5.818932861328125,-0.008545126765966415,0.05432852730154991,0.04774267226457596
1773148992209970000,5.828969970703125,-0.009816785342991352,0.03812824934720993,0.07556471228599548
1773148992220007000,5.8390068359375,-0.01744658313691616,0.032832249999046326,0.10162081569433212
1773148992230044000,5.8490439453125,-0.029498452320694923,0.04802345111966133,0.1262529194355011
1773148992240081000,5.859080810546875,-0.04218393564224243,0.07092013210058212,0.14572453498840332
1773148992250118000,5.869117919921875,-0.056220926344394684,0.08987198770046234,0.16424627602100372
1773148992260155000,5.87915478515625,-0.061082903295755386,0.0877966433763504,0.1833711415529251
1773148992270191900,5.88919189453125,-0.06485340744256973,0.055432312190532684,0.1992875188589096
1773148992280228900,5.899228759765625,-0.066010482609272,-0.0003739569801837206,0.20975568890571594
1773148992290265900,5.909265869140625,-0.06852690875530243,-0.06964623928070068,0.20769627392292023
1773148992300303000,5.91930322265625,-0.07117190957069397,-0.1370580941438675,0.19338366389274597
1773148992310339800,5.92933984375,-0.07664550840854645,-0.1908731311559677,0.17557616531848907
1773148992320377900,5.9393779296875,-0.0849955826997757,-0.2207668423652649,0.14891712367534637
1773148992330414800,5.949414794921875,-0.0957062840461731,-0.21911542117595673,0.1197962537407875
1773148992340451800,5.959451904296875,-0.10210740566253662,-0.21088454127311707,0.10011745989322662
1773148992350488800,5.96948876953125,-0.10086797177791595,-0.1956413984298706,0.10009295493364334
1773148992360525800,5.97952587890625,-0.09552251547574997,-0.18533208966255188,0.11303945630788803
1773148992370562800,5.989562744140625,-0.09599762409925461,-0.1705097258090973,0.1349085420370102
1773148992380600000,5.99960009765625,-0.1016586497426033,-0.1525116264820099,0.15664969384670258
1773148992390636800,6.00963671875,-0.11321330070495605,-0.12942014634609222,0.1688147485256195
1773148992400673800,6.019673828125,-0.1342431902885437,-0.09841636568307877,0.1753464788198471
1773148992410710800,6.029710693359375,-0.1594817042350769,-0.06441019475460052,0.19043701887130737
1773148992420748000,6.039748046875,-0.18506792187690735,-0.053821172565221786,0.21770402789115906
1773148992430785000,6.049784912109375,-0.2087777853012085,-0.06256379187107086,0.2601795792579651
1773148992440821800,6.05982177734375,-0.22968976199626923,-0.10317091643810272,0.30145516991615295
1773148992450858800,6.069858642578125,-0.24775424599647522,-0.1556176096200943,0.3323342502117157
1773148992460895700,6.079895751953125,-0.2663806676864624,-0.23576009273529053,0.36137405037879944
1773148992470933000,6.08993310546875,-0.27912577986717224,-0.3386097550392151,0.3765045404434204
1773148992480970000,6.099969970703125,-0.2869005799293518,-0.4501814544200897,0.385145902633667
1773148992491007000,6.110007080078125,-0.2835029065608978,-0.550175666809082,0.3811706006526947
1773148992501043700,6.120043701171875,-0.2740023732185364,-0.6276687979698181,0.36341893672943115
1773148992511081000,6.1300810546875,-0.2440178245306015,-0.6958257555961609,0.3430449664592743
1773148992521118000,6.140117919921875,-0.19547340273857117,-0.7484625577926636,0.31684592366218567
1773148992531155000,6.150155029296875,-0.1270274966955185,-0.7685507535934448,0.2857135832309723
1773148992541192000,6.16019189453125,-0.07420407235622406,-0.7333118915557861,0.2390134483575821
1773148992551229000,6.17022900390625,-0.041978225111961365,-0.6403566598892212,0.17604246735572815
1773148992561266000,6.180265869140625,-0.0387231782078743,-0.48412254452705383,0.09449422359466553
1773148992571303000,6.190302978515625,-0.05228905379772186,-0.2993002235889435,-0.003653384279459715
1773148992581340000,6.20033984375,-0.067794069647789,-0.10020538419485092,-0.11606436967849731
1773148992591377000,6.210376953125,-0.06963804364204407,0.10656936466693878,-0.2313491553068161
1773148992601414000,6.220413818359375,-0.043950557708740234,0.2921677529811859,-0.3529965281486511
1773148992611450000,6.2304501953125,0.005232969298958778,0.4613668918609619,-0.4712637662887573
1773148992621487000,6.240487060546875,0.021611575037240982,0.6078991293907166,-0.5722888112068176
1773148992631524400,6.2505244140625,-0.009314114227890968,0.7569117546081543,-0.6285036206245422
1773148992641561300,6.260561279296875,-0.05234023183584213,0.9289928078651428,-0.5933257341384888
1773148992651599000,6.27059912109375,-0.09428714960813522,1.0892887115478516,-0.40129825472831726
1773148992661636000,6.280635986328125,-0.1283721923828125,1.143568992614746,-0.0683629959821701
1773148992671673300,6.29067333984375,-0.1617458611726761,1.0464637279510498,0.2862235903739929
1773148992681710300,6.30071044921875,-0.18159452080726624,0.8108620047569275,0.5252799391746521
1773148992691747000,6.3107470703125,-0.19436118006706238,0.520021915435791,0.609577476978302
1773148992701784000,6.3207841796875,-0.1988062709569931,0.23350775241851807,0.5649591088294983
1773148992711821300,6.3308212890625,-0.18637090921401978,0.02027377486228943,0.442512571811676
1773148992721858300,6.3408583984375,-0.1529749631881714,-0.08502180129289627,0.30358973145484924
1773148992731895300,6.350895263671875,-0.08353383839130402,-0.06746704131364822,0.1779058277606964
1773148992741932000,6.36093212890625,0.008564775809645653,0.07409925758838654,0.0946156308054924
1773148992751969000,6.370968994140625,0.10415787994861603,0.30749228596687317,0.06986740976572037
1773148992762006300,6.38100634765625,0.18033289909362793,0.5733969807624817,0.0930735245347023
1773148992772043300,6.391043212890625,0.21991707384586334,0.7878932952880859,0.12593665719032288
1773148992782080300,6.401080322265625,0.2297426164150238,0.9027959108352661,0.13893336057662964
1773148992792117000,6.411116943359375,0.2175711691379547,0.8724766373634338,0.12810201942920685
1773148992802154200,6.421154296875,0.17556670308113098,0.6925445199012756,0.11096807569265366
1773148992812191200,6.431191162109375,0.1230933740735054,0.3879864811897278,0.1212654560804367
1773148992822228200,6.441228271484375,0.06957241892814636,0.023549159988760948,0.1546913981437683
1773148992832265200,6.45126513671875,0.028630848973989487,-0.31628748774528503,0.18946987390518188
1773148992842302200,6.46130224609375,0.007121812552213669,-0.5518895387649536,0.19885247945785522
1773148992852339200,6.471339111328125,0.008610520511865616,-0.6509549021720886,0.17727874219417572
1773148992862376200,6.481376220703125,0.018772561103105545,-0.6319365501403809,0.13185444474220276
1773148992872413200,6.4914130859375,0.02854689210653305,-0.5418599247932434,0.07845939695835114
1773148992882450200,6.5014501953125,0.0347815565764904,-0.4148543179035187,0.024838712066411972
1773148992892487200,6.511487060546875,0.04488851875066757,-0.29477745294570923,-0.029067130759358406
1773148992902524200,6.521524169921875,0.055240221321582794,-0.19004976749420166,-0.09019377082586288
1773148992912561200,6.53156103515625,0.05593850463628769,-0.12815417349338531,-0.1341039538383484
1773148992922598100,6.54159814453125,0.04455740377306938,-0.11048693209886551,-0.15043184161186218
1773148992932635400,6.551635498046875,0.029490571469068527,-0.1323176622390747,-0.13818050920963287
1773148992942672100,6.561672119140625,0.012379403226077557,-0.18283212184906006,-0.10380152612924576
1773148992952709000,6.571709228515625,-0.0007406603544950485,-0.22731569409370422,-0.0589834526181221
1773148992962746000,6.58174609375,-0.009693481028079987,-0.24530169367790222,-0.021469347178936005
1773148992972783400,6.591783447265625,-0.022494498640298843,-0.2409045398235321,0.005331908352673054
1773148992982821000,6.601821044921875,-0.034591130912303925,-0.21595948934555054,0.01755541004240513
1773148992992858000,6.611858154296875,-0.04279286786913872,-0.1839940994977951,0.0252093356102705
1773148993002895000,6.62189501953125,-0.04495268687605858,-0.1537095159292221,0.020837312564253807
1773148993012932400,6.631932373046875,-0.0422343984246254,-0.13184070587158203,0.014527483843266964
1773148993022969300,6.64196923828125,-0.046282652765512466,-0.12065962702035904,0.0006452773232012987
1773148993033006000,6.652006103515625,-0.048385750502347946,-0.11278679221868515,-0.00949550699442625
1773148993043043000,6.66204296875,-0.0436413511633873,-0.10013221949338913,-0.012101550586521626
1773148993053080300,6.672080322265625,-0.030929282307624817,-0.0821675956249237,0.003031862433999777
1773148993063117300,6.682117431640625,-0.01919890195131302,-0.06624290347099304,0.021046269685029984
1773148993073154300,6.692154296875,-0.01608513481914997,-0.05725659430027008,0.03612508624792099
1773148993083191000,6.70219091796875,-0.013385076075792313,-0.053360775113105774,0.0315723791718483
1773148993093228000,6.71222802734375,-0.014274838380515575,-0.05389154329895973,0.015328961424529552
1773148993103265300,6.722265380859375,-0.021402506157755852,-0.04767272248864174,-0.02162129245698452
1773148993113302300,6.73230224609375,-0.026363443583250046,-0.02932407706975937,-0.053601063787937164
1773148993123339300,6.74233935546875,-0.028220826759934425,-0.000526732299476862,-0.07937932759523392
1773148993133376000,6.7523759765625,-0.02162204682826996,0.019796116277575493,-0.09038670361042023
1773148993143413200,6.762413330078125,-0.02020430937409401,0.025317369028925896,-0.08850719034671783
1773148993153450200,6.7724501953125,-0.013302462175488472,0.02142595872282982,-0.08076751232147217
1773148993163487200,6.7824873046875,-0.020827773958444595,0.0021246285177767277,-0.07038123160600662
1773148993173524200,6.792524169921875,-0.0359039306640625,-0.019011283293366432,-0.06635905802249908
1773148993183561200,6.802561279296875,-0.052899319678545,-0.028587162494659424,-0.07053118199110031
1773148993193598200,6.81259814453125,-0.06359164416790009,-0.03363385424017906,-0.060074806213378906
1773148993203635200,6.82263525390625,-0.06552764028310776,-0.03485393524169922,-0.03525565192103386
1773148993213672200,6.832672119140625,-0.06247192621231079,-0.042295340448617935,-0.006727338768541813
1773148993223709200,6.842709228515625,-0.05536293983459473,-0.06134875863790512,0.016042571514844894
1773148993233746200,6.85274609375,-0.04600352421402931,-0.08034642040729523,0.024174800142645836
1773148993243783200,6.862783203125,-0.03142537549138069,-0.09281811118125916,0.01427805982530117
1773148993253820200,6.872820068359375,-0.01684989407658577,-0.08973576873540878,0.0032272732350975275
1773148993263857200,6.882857177734375,-0.0038641057908535004,-0.0769345834851265,-0.004127426538616419
1773148993273894400,6.892894287109375,0.003731229342520237,-0.052325911819934845,-0.011707315221428871
1773148993283932200,6.90293212890625,0.013467277400195599,-0.015006494708359241,-0.016211720183491707
1773148993293969200,6.91296923828125,0.01735708862543106,0.02631031908094883,-0.019018957391381264
1773148993304006100,6.923006103515625,0.02349834516644478,0.06211934611201286,-0.02586718648672104
1773148993314043400,6.93304345703125,0.026617437601089478,0.07394298911094666,-0.026153476908802986
1773148993324080000,6.943080078125,0.028310319408774376,0.06476692110300064,-0.02271110564470291
1773148993334117000,6.9531171875,0.027139859274029732,0.03526069223880768,-0.003830891102552414
1773148993344154000,6.963154052734375,0.026106439530849457,0.010495312511920929,0.010928177274763584
1773148993354191400,6.97319140625,0.01968955621123314,-0.008446687832474709,0.02224448136985302
1773148993364228400,6.983228271484375,0.011852926574647427,-0.014249092899262905,0.018488144502043724
1773148993374265000,6.99326513671875,0.0019238628447055817,-0.02290303446352482,0.014896605163812637
1773148993384302000,7.003302001953125,-0.009760763496160507,-0.03770690783858299,0.005435890983790159
1773148993394339300,7.01333935546875,-0.013306496664881706,-0.0624237097799778,0.00366648705676198
1773148993404376300,7.023376220703125,-0.005940436851233244,-0.08829448372125626,0.006807293742895126
1773148993414413300,7.033413330078125,0.0036139190196990967,-0.09739024937152863,0.01395708229392767
1773148993424450000,7.043449951171875,0.017382659018039703,-0.08538142591714859,0.011420796625316143
1773148993434487000,7.053487060546875,0.024018991738557816,-0.05525361746549606,0.009074019268155098
1773148993444524300,7.063524169921875,0.030716536566615105,-0.019314300268888474,0.004168825224041939
1773148993454561300,7.073561279296875,0.04145466536283493,0.01614062860608101,-0.00626224372535944
1773148993464598300,7.083598388671875,0.046974025666713715,0.04376273229718208,-0.015473868697881699
1773148993474635000,7.093635009765625,0.048251278698444366,0.06431008875370026,-0.0210270918905735
1773148993484672300,7.10367236328125,0.04358028620481491,0.08192363381385803,-0.021434808149933815
1773148993494709200,7.113709228515625,0.034453365951776505,0.09153950214385986,-0.01448022946715355
1773148993504746200,7.123746337890625,0.028265582397580147,0.07652201503515244,0.009079144336283207
1773148993514783200,7.133783203125,0.02461119554936886,0.04794282838702202,0.04480358585715294
1773148993524820200,7.1438203125,0.0195135660469532,0.011652660556137562,0.08180343359708786
1773148993534857200,7.153857177734375,0.010830061510205269,-0.01168009266257286,0.10633647441864014
1773148993544894200,7.163894287109375,0.002333669923245907,-0.005035719834268093,0.11014897376298904
1773148993554931200,7.17393115234375,-0.012337418273091316,0.019166821613907814,0.10072217881679535
1773148993564968200,7.18396826171875,-0.02471437305212021,0.0503084734082222,0.07874305546283722
1773148993575006200,7.194006103515625,-0.036364104598760605,0.07052665948867798,0.05302916839718819
1773148993585043200,7.204043212890625,-0.04327608272433281,0.08619146049022675,0.03115614503622055
1773148993595080200,7.214080078125,-0.0453173965215683,0.080288827419281,0.01761397160589695
1773148993605117400,7.224117431640625,-0.04098868370056152,0.07741492986679077,0.0029023492243140936
1773148993615154400,7.234154541015625,-0.03345966339111328,0.07260579615831375,-0.012355166487395763
1773148993625191700,7.244191650390625,-0.026382479816675186,0.07326709479093552,-0.02661360427737236
1773148993635228700,7.254228759765625,-0.01816476508975029,0.09002769738435745,-0.04575188085436821
1773148993645265700,7.264265625,-0.012733095325529575,0.10662200301885605,-0.06317045539617538
1773148993655302400,7.274302490234375,-0.005564398597925901,0.11652816832065582,-0.06987869739532471
1773148993665339600,7.284339599609375,0.002603132277727127,0.10829952359199524,-0.06866455078125
1773148993675376600,7.294376708984375,0.008180590346455574,0.08881503343582153,-0.06064737215638161
1773148993685413600,7.30441357421875,0.013045035302639008,0.06311022490262985,-0.048262819647789
1773148993695450600,7.31445068359375,0.014815770089626312,0.03945470228791237,-0.04759196937084198
1773148993705487600,7.324487548828125,0.013608668930828571,0.033203139901161194,-0.04589225724339485
1773148993715524600,7.334524658203125,0.011778810061514378,0.037128906697034836,-0.04839030280709267
1773148993725561600,7.3445615234375,0.011056981049478054,0.04944218695163727,-0.0448647066950798
1773148993735598600,7.3545986328125,0.009522468782961369,0.06484910100698471,-0.03354015201330185
1773148993745635600,7.364635498046875,0.007519400678575039,0.07742556929588318,-0.014799213036894798
1773148993755672600,7.374672607421875,-0.00014597643166780472,0.08381582796573639,0.0022862956393510103
1773148993765709600,7.38470947265625,-0.005998100619763136,0.08480194956064224,0.01908246800303459
1773148993775746600,7.39474658203125,-0.005865208804607391,0.08656096458435059,0.028180090710520744
1773148993785783600,7.404783447265625,-0.009821569547057152,0.09436459094285965,0.03912175074219704
1773148993795820500,7.414820556640625,-0.01666669175028801,0.09363994747400284,0.05448872223496437
1773148993805857500,7.424857421875,-0.021545229479670525,0.06554434448480606,0.07351681590080261
1773148993815894500,7.43489453125,-0.02061551995575428,0.028392717242240906,0.08500596135854721
1773148993825931500,7.444931640625,-0.013310468755662441,-0.008668098598718643,0.08552953600883484
1773148993835968500,7.454968505859375,-0.004003253765404224,-0.029488692060112953,0.07500845193862915
1773148993846006500,7.465006591796875,0.00657937116920948,-0.03846650570631027,0.06748942285776138
1773148993856043500,7.47504345703125,0.012867627665400505,-0.03375590592622757,0.06710859388113022
1773148993866080500,7.48508056640625,0.01860988326370716,-0.024389956146478653,0.06689372658729553
1773148993876117800,7.49511767578125,0.026359418407082558,-0.017733383923768997,0.07306027412414551
1773148993886154800,7.50515478515625,0.033317334949970245,-0.016026301309466362,0.07535696774721146
1773148993896191500,7.51519140625,0.039025284349918365,-0.019401058554649353,0.07298356294631958
1773148993906228500,7.525228515625,0.05221113562583923,-0.019355785101652145,0.06905433535575867
1773148993916265500,7.535265380859375,0.06485262513160706,-0.017320331186056137,0.06523456424474716
1773148993926302700,7.545302734375,0.076509028673172,-0.006843751762062311,0.06663686037063599
1773148993936339700,7.555339599609375,0.0880061686038971,0.004500249400734901,0.08047810196876526
1773148993946376400,7.56537646484375,0.10818144679069519,0.013085180893540382,0.09815797209739685
1773148993956413400,7.575413330078125,0.12779748439788818,0.009878203272819519,0.12681013345718384
1773148993966450700,7.58545068359375,0.14650613069534302,-0.0036215444561094046,0.15587611496448517
1773148993976487700,7.59548779296875,0.16036681830883026,-0.019232993945479393,0.1872207224369049
1773148993986524700,7.605524658203125,0.1665174961090088,-0.030832439661026,0.21082651615142822
1773148993996561400,7.6155615234375,0.17065498232841492,-0.030625246465206146,0.2321230173110962
1773148994006598400,7.625598388671875,0.17539705336093903,-0.013741593807935715,0.24995721876621246
1773148994016635600,7.6356357421875,0.19377367198467255,0.017987573519349098,0.2696065306663513
1773148994026672600,7.645672607421875,0.22192251682281494,0.04559909179806709,0.30627691745758057
1773148994036709600,7.655709716796875,0.24572637677192688,0.08965816348791122,0.3533051311969757
1773148994046746400,7.665746337890625,0.2617686688899994,0.16052453219890594,0.41800105571746826
1773148994056783600,7.67578369140625,0.28765806555747986,0.2571357488632202,0.4902062714099884
1773148994066820600,7.685820556640625,0.32056525349617004,0.3759424090385437,0.5707288384437561
1773148994076857600,7.695857666015625,0.3718915581703186,0.5075669884681702,0.6635602712631226
1773148994086894600,7.70589453125,0.43604305386543274,0.6631133556365967,0.7869452238082886
1773148994096931600,7.715931640625,0.5117634534835815,0.8591861724853516,0.9567025303840637
1773148994106969600,7.725969482421875,0.5879060626029968,1.1052839756011963,1.1512641906738281
1773148994117006600,7.736006591796875,0.6613647937774658,1.388954520225525,1.3611127138137817
1773148994127043600,7.746043701171875,0.7440048456192017,1.6479977369308472,1.5871514081954956
1773148994137080600,7.75608056640625,0.867019534111023,1.8074148893356323,1.8401281833648682
1773148994147117600,7.76611767578125,1.01287841796875,1.7086490392684937,2.1011314392089844
1773148994157154600,7.776154541015625,1.1856653690338135,1.1722620725631714,2.2793099880218506
1773148994167191600,7.786191650390625,1.3546719551086426,0.3750576972961426,2.326139450073242
1773148994177228800,7.796228759765625,1.4363231658935547,-0.17403234541416168,2.2245893478393555
1773148994187265500,7.806265625,1.4340742826461792,-0.34716737270355225,2.0656564235687256
1773148994197302500,7.816302490234375,1.4700686931610107,0.26586034893989563,2.1012349128723145
1773148994207339500,7.826339599609375,1.3869599103927612,0.957283079624176,2.3417141437530518
1773148994217376800,7.836376708984375,1.013816237449646,0.6664685606956482,2.395561695098877
1773148994227413800,7.846413818359375,0.5198937058448792,-0.3357703983783722,2.1526901721954346
1773148994237450500,7.856450439453125,0.08109556138515472,-1.5161840915679932,1.7268567085266113
1773148994247487500,7.866487548828125,-0.18282224237918854,-2.327460765838623,1.2474697828292847
1773148994257524500,7.8765244140625,-0.30217820405960083,-2.3641605377197266,0.7899861335754395
1773148994267561700,7.886561767578125,-0.28549665212631226,-1.8338779211044312,0.40947604179382324
1773148994277598700,7.8965986328125,-0.21088021993637085,-1.0605881214141846,0.13677340745925903
1773148994287635500,7.906635498046875,-0.08457387983798981,-0.27646881341934204,-0.06490213423967361
1773148994297672400,7.91667236328125,0.06601536273956299,0.47800952196121216,-0.24708899855613708
1773148994307709700,7.926709716796875,0.1959570348262787,1.1883373260498047,-0.44315409660339355
1773148994317746700,7.93674658203125,0.23605412244796753,1.855827808380127,-0.6735846400260925
1773148994327783700,7.94678369140625,0.2091658115386963,2.4462482929229736,-0.9173855185508728
1773148994337820400,7.9568203125,0.13283908367156982,2.940502882003784,-1.1668422222137451
1773148994347858700,7.966858642578125,0.04094935953617096,3.2637417316436768,-1.4093403816223145
1773148994357895700,7.976895751953125,-0.057099174708127975,3.444425582885742,-1.6086535453796387
1773148994367931600,7.986931640625,-0.16787981986999512,3.406691074371338,-1.6679109334945679
1773148994377968600,7.99696875,-0.3088816702365875,2.6231532096862793,-1.4941492080688477
1773148994388005400,8.00700537109375,-0.37054863572120667,1.105629801750183,-1.0087956190109253
1773148994398042600,8.017042724609375,-0.3808542788028717,-0.45131438970565796,-0.4061146080493927
1773148994408079600,8.02707958984375,-0.33816125988960266,-1.6024973392486572,0.05210020765662193
1773148994418116600,8.03711669921875,-0.29573604464530945,-2.1135191917419434,0.25581949949264526
1773148994428153600,8.047153564453126,-0.3004460036754608,-1.9258170127868652,0.2433166354894638
1773148994438190600,8.057190673828124,-0.2592330574989319,-1.0697036981582642,0.0928211435675621
1773148994448227600,8.0672275390625,-0.3039734661579132,0.045774638652801514,-0.11073531210422516
1773148994458264600,8.0772646484375,-0.3768186569213867,0.8785368800163269,-0.2538730502128601
1773148994468301600,8.087301513671875,-0.3829224407672882,1.2106178998947144,-0.2820701003074646
1773148994478338600,8.097338623046875,-0.29215845465660095,1.0950100421905518,-0.1924896389245987
1773148994488375600,8.10737548828125,-0.12820005416870117,0.6840554475784302,-0.011964836157858372
1773148994498412500,8.11741259765625,0.029255084693431854,0.16956813633441925,0.1546744704246521
1773148994508449500,8.127449462890626,0.05376017838716507,-0.2730903625488281,0.2728441059589386
1773148994518487800,8.13748779296875,-0.1014975905418396,-0.4532952606678009,0.29458028078079224
1773148994528524500,8.147524658203125,-0.27095842361450195,-0.30781587958335876,0.2509762942790985
1773148994538561500,8.1575615234375,-0.26330050826072693,-0.05274760723114014,0.1756437122821808
1773148994548598500,8.1675986328125,-0.06457088142633438,0.02629159577190876,0.09321799129247665
1773148994558635500,8.177635498046875,0.25961917638778687,-0.12493972480297089,0.023593373596668243
1773148994568672800,8.1876728515625,0.6223815679550171,-0.28947019577026367,-0.003914236556738615
1773148994578709500,8.19770947265625,0.9243419766426086,-0.32548463344573975,-0.03651372343301773
1773148994588746500,8.20774658203125,1.1145389080047607,-0.2607767581939697,-0.1021680012345314
1773148994598783500,8.217783447265624,1.1833195686340332,-0.09628099203109741,-0.09775754064321518
1773148994608820500,8.227820556640625,1.0857372283935547,0.07863395661115646,0.07997966557741165
1773148994618857700,8.237857666015625,0.8247397541999817,0.02417018450796604,0.37495937943458557
1773148994628894500,8.24789453125,0.47849011421203613,-0.38117775321006775,0.6655872464179993
1773148994638931500,8.257931396484375,0.22554385662078857,-0.8690630197525024,0.8935219049453735
1773148994648968400,8.267968505859375,0.1336771696805954,-0.9502524137496948,1.0446674823760986
1773148994659005400,8.27800537109375,0.1924470216035843,-0.5894718170166016,1.1483392715454102
1773148994669043500,8.28804345703125,0.2920984625816345,-0.18606166541576385,1.1831082105636597
1773148994679080400,8.29808056640625,0.31828612089157104,-0.016251586377620697,1.1068572998046875
1773148994689117400,8.308117431640625,0.2663426101207733,-0.10170003771781921,0.8942670822143555
1773148994699154700,8.31815478515625,0.15397238731384277,-0.29994282126426697,0.534902036190033
1773148994709191700,8.328191650390625,-0.006959227845072746,-0.4107133746147156,0.14223796129226685
1773148994719228400,8.338228515625,-0.19776353240013123,-0.24373771250247955,-0.18579477071762085
1773148994729265400,8.348265380859376,-0.3548525869846344,0.13238109648227692,-0.4418122172355652
1773148994739302400,8.358302490234376,-0.42286545038223267,0.5124523043632507,-0.6371535062789917
1773148994749339600,8.368339599609374,-0.42137208580970764,0.9047579765319824,-0.7844355702400208
1773148994759376600,8.378376708984375,-0.33027252554893494,1.355656385421753,-0.8904299139976501
1773148994769413400,8.388413330078125,-0.17313173413276672,1.9364501237869263,-0.8599386215209961
1773148994779450400,8.398450439453125,-0.02881770208477974,2.5222620964050293,-0.7127696871757507
1773148994789487600,8.408487548828125,0.021625300869345665,2.5588536262512207,-0.5994246006011963
1773148994799524600,8.418524658203125,-0.05752091854810715,1.9437822103500366,-0.5609371066093445
1773148994809561600,8.4285615234375,-0.16228936612606049,0.9738667607307434,-0.42829790711402893
1773148994819599400,8.438599365234374,-0.18822935223579407,0.09146028012037277,-0.16822905838489532
1773148994829636600,8.44863671875,-0.16788117587566376,-0.4770084023475647,0.1131293773651123
1773148994839673600,8.458673583984375,-0.21243692934513092,-0.5805486440658569,0.3186367154121399
1773148994849710600,8.468710693359375,-0.30203238129615784,-0.4034269452095032,0.369242787361145
1773148994859747300,8.478747314453125,-0.3210412263870239,-0.13276080787181854,0.2682785987854004
1773148994869784600,8.48878466796875,-0.29466840624809265,0.1361674964427948,0.06608492881059647
1773148994879821600,8.498821533203126,-0.29131388664245605,0.37449511885643005,-0.19352640211582184
1773148994889858600,8.508858642578126,-0.3148176074028015,0.5111792087554932,-0.41306766867637634
1773148994899895600,8.5188955078125,-0.33025142550468445,0.5598891973495483,-0.5105001926422119
1773148994909932500,8.5289326171875,-0.34569817781448364,0.5768812298774719,-0.5151936411857605
1773148994919969500,8.538969482421875,-0.35877323150634766,0.5724550485610962,-0.4780353307723999
1773148994930006500,8.549006591796875,-0.3516315221786499,0.524661660194397,-0.4480915665626526
1773148994940043500,8.55904345703125,-0.339303195476532,0.47414013743400574,-0.43145185708999634
1773148994950080500,8.56908056640625,-0.3028770685195923,0.4480525255203247,-0.43624433875083923
1773148994960117500,8.579117431640626,-0.2887735068798065,0.46380725502967834,-0.44751670956611633
1773148994970154500,8.589154541015626,-0.3113876283168793,0.5184844136238098,-0.4795996844768524
1773148994980191500,8.59919140625,-0.3576589822769165,0.541183590888977,-0.5097282528877258
1773148994990228500,8.609228515625,-0.40266352891921997,0.5002833008766174,-0.5345433354377747
1773148995000265500,8.619265380859375,-0.43830275535583496,0.40550994873046875,-0.5333271026611328
1773148995010302500,8.629302490234375,-0.46250927448272705,0.30028727650642395,-0.4897933304309845
1773148995020340500,8.639340576171875,-0.4593361020088196,0.2587614059448242,-0.4035005271434784
1773148995030377700,8.649377685546876,-0.4424104392528534,0.2691369950771332,-0.30189043283462524
1773148995040414500,8.65941455078125,-0.46224620938301086,0.29004761576652527,-0.2510102093219757
1773148995050451500,8.669451416015624,-0.537397027015686,0.2633122205734253,-0.2654535472393036
1773148995060488400,8.679488525390624,-0.5973035097122192,0.19379916787147522,-0.3253365755081177
1773148995070525400,8.689525390625,-0.6082159876823425,0.10081243515014648,-0.38209712505340576
1773148995080562700,8.699562744140625,-0.5596233606338501,0.0681556910276413,-0.38132932782173157
1773148995090599400,8.709599365234375,-0.5097847580909729,0.14271962642669678,-0.3243069648742676
1773148995100636400,8.719636474609375,-0.47521689534187317,0.22141337394714355,-0.2471301406621933
1773148995110673400,8.72967333984375,-0.45584040880203247,0.23495978116989136,-0.18801218271255493
1773148995120710700,8.739710693359376,-0.44677793979644775,0.2031233012676239,-0.1648125797510147
1773148995130747600,8.74974755859375,-0.42990198731422424,0.16990210115909576,-0.17141784727573395
1773148995140784400,8.759784423828124,-0.38687142729759216,0.13867147266864777,-0.2241886556148529
1773148995150821400,8.7698212890625,-0.375099241733551,0.15087829530239105,-0.2967274785041809
1773148995160858400,8.7798583984375,-0.33005398511886597,0.25531893968582153,-0.34767693281173706
1773148995170895600,8.7898955078125,-0.28146886825561523,0.44232842326164246,-0.33872106671333313
1773148995180932600,8.7999326171875,-0.2365192472934723,0.6206992864608765,-0.28160613775253296
1773148995190969300,8.80996923828125,-0.24016009271144867,0.70445716381073,-0.23399485647678375
1773148995201006300,8.82000634765625,-0.2707182765007019,0.6467925310134888,-0.20880907773971558
1773148995211044600,8.830044677734374,-0.30285537242889404,0.5114229321479797,-0.178188294172287
1773148995221081600,8.84008154296875,-0.28541460633277893,0.35332947969436646,-0.13386423885822296
1773148995231118300,8.850118408203125,-0.23460310697555542,0.2314489483833313,-0.09828895330429077
1773148995241155600,8.860155517578125,-0.17329686880111694,0.16658632457256317,-0.08769702911376953
1773148995251192600,8.870192626953125,-0.13274334371089935,0.15703850984573364,-0.0952809751033783
1773148995261229600,8.8802294921875,-0.15680792927742004,0.19892551004886627,-0.13111406564712524
1773148995271266600,8.8902666015625,-0.26629558205604553,0.2733776569366455,-0.2130175530910492
1773148995281303300,8.90030322265625,-0.34422552585601807,0.3483765423297882,-0.29160982370376587
1773148995291340500,8.910340576171874,-0.3752538561820984,0.3937506377696991,-0.35643357038497925
1773148995301377500,8.92037744140625,-0.3560015857219696,0.43480485677719116,-0.39093348383903503
1773148995311414500,8.93041455078125,-0.28601136803627014,0.4538549482822418,-0.38291195034980774
1773148995321451500,8.940451416015625,-0.25592854619026184,0.4379478693008423,-0.3857346475124359
1773148995331488500,8.950488525390625,-0.18879587948322296,0.37746796011924744,-0.34304913878440857
1773148995341525500,8.960525390625,-0.14188776910305023,0.28621742129325867,-0.30554649233818054
1773148995351562500,8.9705625,-0.11198349297046661,0.11242249608039856,-0.23312589526176453
1773148995361599500,8.980599609375,-0.11892182379961014,-0.10494204610586166,-0.16277609765529633
1773148995371636500,8.990636474609374,-0.14909887313842773,-0.3051643669605255,-0.12402942776679993
1773148995381673500,9.000673583984375,-0.1798059195280075,-0.4444761872291565,-0.10179043561220169
1773148995391710500,9.01071044921875,-0.17806772887706757,-0.5365512371063232,-0.0921226441860199
1773148995401748500,9.02074853515625,-0.12685832381248474,-0.6154124736785889,-0.07909366488456726
1773148995411785700,9.03078564453125,-0.041917718946933746,-0.6630091071128845,-0.0470149964094162
1773148995421822500,9.040822509765626,0.04321421682834625,-0.6970991492271423,0.004897466395050287
1773148995431859500,9.050859375,0.09452588856220245,-0.702030599117279,0.0428336039185524
1773148995441896400,9.060896484375,0.12007252871990204,-0.7019331455230713,0.06565183401107788
1773148995451933700,9.07093359375,0.11409099400043488,-0.7175370454788208,0.0592624805867672
1773148995461970700,9.080970703125,0.07468633353710175,-0.6716023087501526,0.029116561636328697
1773148995472007400,9.09100732421875,-0.00008768215775489807,-0.5323066711425781,-0.016297051683068275
1773148995482044400,9.10104443359375,-0.0948386937379837,-0.36896538734436035,-0.05434802919626236
1773148995492081400,9.111081298828125,-0.1683148443698883,-0.22010789811611176,-0.08296066522598267
1773148995502118700,9.12111865234375,-0.20758289098739624,-0.09963954985141754,-0.10845004767179489
1773148995512155600,9.13115576171875,-0.23092710971832275,-0.0011852234601974487,-0.14201948046684265
1773148995522192400,9.1411923828125,-0.22914332151412964,0.09906361997127533,-0.18085609376430511
1773148995532229400,9.1512294921875,-0.19349128007888794,0.20580770075321198,-0.2363482117652893
1773148995542266600,9.1612666015625,-0.1391231119632721,0.2794773578643799,-0.28476208448410034
1773148995552303600,9.1713037109375,-0.08633702248334885,0.33182716369628906,-0.32496845722198486
1773148995562340600,9.181340576171875,-0.04881308227777481,0.3695833086967468,-0.3671468198299408
1773148995572377300,9.19137744140625,-0.03335722163319588,0.39835575222969055,-0.39458203315734863
1773148995582415600,9.20141552734375,-0.014173140749335289,0.4483187794685364,-0.4028482139110565
1773148995592452600,9.21145263671875,0.020481523126363754,0.5155953764915466,-0.37261173129081726
1773148995602489300,9.2214892578125,0.07869049906730652,0.5756872296333313,-0.31145650148391724
1773148995612527000,9.231527099609375,0.15107500553131104,0.561954915523529,-0.21932725608348846
1773148995622564400,9.241564453125,0.19116489589214325,0.4526635706424713,-0.1257280558347702
1773148995632601300,9.251601318359375,0.18918851017951965,0.2706737816333771,-0.04682822525501251
1773148995642638000,9.26163818359375,0.17250007390975952,0.03529667854309082,0.030241789296269417
1773148995652675000,9.271675048828126,0.15316975116729736,-0.17372404038906097,0.10751340538263321
1773148995662712000,9.281712158203124,0.12585823237895966,-0.31390029191970825,0.16915465891361237
1773148995672749300,9.291749267578124,0.0889352485537529,-0.3868872821331024,0.20049801468849182
1773148995682786300,9.301786376953125,0.04905467852950096,-0.404104620218277,0.20917566120624542
1773148995692823300,9.3118232421875,0.017770584672689438,-0.364713191986084,0.20639893412590027
1773148995702860000,9.321860107421875,0.005957069806754589,-0.23551791906356812,0.16864942014217377
1773148995712897300,9.331897216796875,0.010009024292230606,-0.03345716372132301,0.10310634225606918
1773148995722934300,9.341934326171875,0.023857463151216507,0.1742859035730362,0.0330449678003788
1773148995732971300,9.35197119140625,0.03672364726662636,0.3083638548851013,-0.026209745556116104
1773148995743008300,9.36200830078125,0.0523231104016304,0.349712073802948,-0.051072217524051666
1773148995753045200,9.372045166015624,0.06937059015035629,0.3562280535697937,-0.047257471829652786
1773148995763083300,9.382083251953125,0.08683187514543533,0.3676982820034027,-0.039856281131505966
1773148995773120300,9.392120361328125,0.08356373757123947,0.389999657869339,-0.035463981330394745
1773148995783157000,9.402156982421875,0.056810420006513596,0.38543951511383057,-0.031309984624385834
1773148995793194200,9.4121943359375,0.014266235753893852,0.27540600299835205,-0.029016191139817238
1773148995803231200,9.422231201171876,-0.014100690372288227,0.10997765511274338,-0.018112409859895706
1773148995813268200,9.432268310546876,-0.007016134914010763,-0.053825244307518005,0.0153998713940382
1773148995823305200,9.44230517578125,0.00243489071726799,-0.16652622818946838,0.07204797118902206
1773148995833342200,9.45234228515625,0.005363766103982925,-0.2492082118988037,0.1247941106557846
1773148995843379200,9.462379150390625,0.0061158426105976105,-0.33689919114112854,0.15303266048431396
1773148995853416200,9.472416259765625,0.012324376031756401,-0.4028770327568054,0.1510522961616516
1773148995863453200,9.482453125,0.018187325447797775,-0.4265432059764862,0.14211606979370117
1773148995873490400,9.492490478515625,0.016145002096891403,-0.37341630458831787,0.12313122302293777
1773148995883527200,9.502527099609376,0.0029833950102329254,-0.23858633637428284,0.08858336508274078
1773148995893564200,9.512564208984376,-0.011063413694500923,-0.07716462761163712,0.05083402991294861
1773148995903601200,9.52260107421875,-0.0171884186565876,0.026292521506547928,0.022785883396863937
1773148995913638100,9.53263818359375,-0.025505781173706055,0.0355956107378006,-0.0013843561755493283
1773148995923675400,9.54267529296875,-0.04358811303973198,0.05090026557445526,-0.03785634785890579
1773148995933712100,9.552712158203125,-0.06306757777929306,0.09194184839725494,-0.08134070783853531
1773148995943750100,9.562750244140625,-0.0792313665151596,0.1508949249982834,-0.1238575428724289
1773148995953787400,9.572787353515626,-0.09596825391054153,0.16901655495166779,-0.1558515727519989
1773148995963824400,9.582824462890626,-0.09647105634212494,0.18401946127414703,-0.18016330897808075
1773148995973861000,9.592861083984374,-0.08504787087440491,0.12335246056318283,-0.17298933863639832
1773148995983898000,9.602898193359374,-0.08340629935264587,-0.0015149053651839495,-0.13562224805355072
1773148995993935000,9.61293505859375,-0.1133580133318901,-0.106676384806633,-0.10662322491407394
1773148996003972400,9.622972412109375,-0.11795303225517273,-0.18516667187213898,-0.1065683662891388
1773148996014009300,9.63300927734375,-0.0806155800819397,-0.281339168548584,-0.10382626950740814
1773148996024046000,9.643046142578125,-0.046667203307151794,-0.38920438289642334,-0.08488000929355621
1773148996034083000,9.6530830078125,-0.03191130980849266,-0.4571569859981537,-0.07470042258501053
1773148996044120300,9.663120361328126,-0.024208914488554,-0.48869040608406067,-0.08110426366329193
1773148996054157300,9.6731572265625,-0.009230333380401134,-0.49111807346343994,-0.09742283821105957
1773148996064194300,9.6831943359375,0.0010289615020155907,-0.4715268015861511,-0.11569958180189133
1773148996074231000,9.69323095703125,0.006293311715126038,-0.43016448616981506,-0.13078834116458893
1773148996084268300,9.703268310546875,-0.02113218791782856,-0.3711400330066681,-0.13746407628059387
1773148996094305300,9.71330517578125,-0.06348220258951187,-0.2969111204147339,-0.1514807790517807
1773148996104342300,9.72334228515625,-0.10902119427919388,-0.2344578504562378,-0.16670474410057068
1773148996114380000,9.733380126953126,-0.14011549949645996,-0.18080708384513855,-0.18423128128051758
1773148996124417300,9.743417236328124,-0.15541855990886688,-0.14742383360862732,-0.19972901046276093
1773148996134454300,9.753454345703124,-0.15733234584331512,-0.15122421085834503,-0.20227490365505219
1773148996144491300,9.7634912109375,-0.16163867712020874,-0.17303043603897095,-0.21496619284152985
1773148996154528300,9.7735283203125,-0.15135779976844788,-0.20942458510398865,-0.24201029539108276
1773148996164565200,9.783565185546875,-0.136328786611557,-0.2641168534755707,-0.2686123549938202
1773148996174602200,9.793602294921875,-0.12672701478004456,-0.3531010150909424,-0.26073646545410156
1773148996184639200,9.80363916015625,-0.11443546414375305,-0.47912952303886414,-0.2343118041753769
1773148996194676200,9.81367626953125,-0.09075681120157242,-0.6651706695556641,-0.2037816047668457
1773148996204713200,9.823713134765624,-0.0573626384139061,-0.9080663919448853,-0.14801181852817535
1773148996214750200,9.833750244140624,-0.040359873324632645,-1.1449638605117798,-0.07124894857406616
1773148996224787200,9.843787109375,-0.059676047414541245,-1.3014682531356812,-0.056390903890132904
1773148996234824200,9.85382421875,-0.13141770660877228,-1.3061808347702026,-0.17931421101093292
1773148996244861200,9.863861083984375,-0.16719675064086914,-1.1094316244125366,-0.4518378674983978
1773148996254898400,9.8738984375,-0.26770979166030884,-0.8454478979110718,-0.6807905435562134
1773148996264935200,9.88393505859375,-0.409288227558136,-0.7259925603866577,-0.7044673562049866
1773148996274972200,9.89397216796875,-0.5114755630493164,-0.6931700110435486,-0.6096906065940857
1773148996285009200,9.904009033203126,-0.557016134262085,-0.6476621627807617,-0.5193827748298645
1773148996295047200,9.914047119140625,-0.5888146162033081,-0.5147991180419922,-0.5287754535675049
1773148996305084200,9.924084228515625,-0.6653285622596741,-0.36248043179512024,-0.5871516466140747
1773148996315121200,9.93412109375,-0.7354027628898621,-0.28212299942970276,-0.6169219613075256
1773148996325158100,9.944158203125,-0.7859362363815308,-0.2287236899137497,-0.6221519112586975
1773148996335195400,9.9541953125,-0.8230323195457458,-0.16453306376934052,-0.5995829701423645
1773148996345232100,9.964232177734376,-0.825772225856781,-0.1299804002046585,-0.54021817445755
1773148996355269000,9.97426904296875,-0.7243038415908813,-0.2063569724559784,-0.44211411476135254
1773148996365306000,9.98430615234375,-0.5547758340835571,-0.33009010553359985,-0.3366159200668335
1773148996375343400,9.99434326171875,-0.37128257751464844,-0.3836798369884491,-0.25543349981307983
1773148996385380400,10.00438037109375,-0.21009555459022522,-0.3863432705402374,-0.1872970461845398
1773148996395417000,10.0144169921875,-0.02742578461766243,-0.36401596665382385,-0.11108212918043137
1773148996405454000,10.0244541015625,0.1507876217365265,-0.32279688119888306,-0.06238756328821182
1773148996415491000,10.034490966796875,0.249006450176239,-0.28914231061935425,-0.031616002321243286
1773148996425528300,10.0445283203125,0.24879580736160278,-0.29322120547294617,-0.01448441669344902
1773148996435565300,10.0545654296875,0.25515809655189514,-0.2853255569934845,-0.04274097457528114
1773148996445602300,10.064602294921874,0.33065444231033325,-0.22448058426380157,-0.1097908467054367
1773148996455639000,10.07463916015625,0.4159313142299652,-0.12740612030029297,-0.17095060646533966
1773148996465676300,10.08467626953125,0.3963051438331604,-0.017863918095827103,-0.14885275065898895
1773148996475714300,10.09471435546875,0.32979539036750793,0.1219206303358078,-0.08676964044570923
1773148996485751000,10.1047509765625,0.25980353355407715,0.32244017720222473,-0.050342660397291183
1773148996495788000,10.1147880859375,0.19237713515758514,0.511099636554718,-0.030377736315131187
1773148996505825300,10.1248251953125,0.09978674352169037,0.5690769553184509,0.02743283286690712
1773148996515862300,10.1348623046875,-0.021320145577192307,0.48489776253700256,0.10871707648038864
1773148996525899300,10.144899169921874,-0.11275578290224075,0.3113997280597687,0.15328560769557953
1773148996535936000,10.15493603515625,-0.2180691957473755,0.16591140627861023,0.13062529265880585
1773148996545973200,10.16497314453125,-0.3318873643875122,0.07365497201681137,0.07845770567655563
1773148996556010200,10.17501025390625,-0.40973198413848877,-0.02308158203959465,0.09334442764520645
1773148996566047200,10.185047119140625,-0.40205007791519165,-0.12271523475646973,0.19405852258205414
1773148996576084200,10.195084228515626,-0.2810214161872864,-0.17803387343883514,0.3111744821071625
1773148996586121200,10.205121337890626,-0.11839868128299713,-0.08785498142242432,0.35559841990470886
1773148996596158200,10.215158203125,0.007839652709662914,0.1721256673336029,0.302433043718338
1773148996606195200,10.2251953125,0.06115240976214409,0.47083327174186707,0.23417142033576965
1773148996616231400,10.2352314453125,0.12625014781951904,0.5420228838920593,0.2669975459575653
1773148996626268400,10.245268310546875,0.21488627791404724,0.31974855065345764,0.40040087699890137
1773148996636305400,10.255305419921875,0.23548933863639832,-0.00039026979357004166,0.5223731994628906
1773148996646342400,10.26534228515625,0.15216781198978424,-0.2263195514678955,0.5255237221717834
1773148996656380400,10.27538037109375,0.06422800570726395,-0.36211487650871277,0.4108652174472809
1773148996666417400,10.28541748046875,0.019525248557329178,-0.4757940471172333,0.296834796667099
1773148996676454400,10.295454345703124,0.001179625280201435,-0.6396251916885376,0.295146107673645
1773148996686491400,10.305491455078124,-0.03467051684856415,-0.8303791284561157,0.3790617883205414
1773148996696528400,10.3155283203125,-0.0747913271188736,-0.9475831985473633,0.43976491689682007
1773148996706565400,10.3255654296875,-0.11130033433437347,-0.9368109703063965,0.41142117977142334
1773148996716602400,10.335602294921875,-0.11746208369731903,-0.78121018409729,0.2861681878566742
1773148996726639400,10.345639404296875,-0.10448023676872253,-0.5614818334579468,0.12639185786247253
1773148996736676400,10.35567626953125,-0.0855063945055008,-0.3280116319656372,0.005923318676650524
1773148996746713300,10.36571337890625,-0.048100970685482025,-0.10954666137695312,-0.07192141562700272
1773148996756750300,10.375750244140624,0.0040544141083955765,0.15932345390319824,-0.12837865948677063
1773148996766787300,10.385787353515624,0.04421381652355194,0.4288542866706848,-0.13102690875530243
1773148996776824600,10.395824462890625,0.03426035866141319,0.5918152928352356,0.004153440240770578
1773148996786861300,10.405861328125,0.008113175630569458,0.5892053842544556,0.2492460161447525
1773148996796898300,10.415898193359375,0.02360086888074875,0.5223538875579834,0.43004050850868225
1773148996806935300,10.425935302734375,0.026765767484903336,0.47466224431991577,0.4456591308116913
1773148996816972500,10.43597265625,0.006798186339437962,0.4016253352165222,0.3371198773384094
1773148996827009500,10.446009521484376,0.006879146210849285,0.18102876842021942,0.26663506031036377
1773148996837047300,10.45604736328125,0.019485149532556534,-0.1942986696958542,0.32099878787994385
1773148996847084300,10.466084228515625,0.0012230565771460533,-0.5270193815231323,0.41213294863700867
1773148996857121500,10.47612158203125,-0.017239434644579887,-0.6673476099967957,0.4332582652568817
1773148996867158500,10.486158447265625,-0.02790805697441101,-0.6536989212036133,0.3862822353839874
1773148996877195300,10.4961953125,-0.06077440828084946,-0.5790948271751404,0.3506581783294678
1773148996887232300,10.506232177734375,-0.10746894031763077,-0.48826906085014343,0.3508789539337158
1773148996897269500,10.51626953125,-0.10249941051006317,-0.36922451853752136,0.34799012541770935
1773148996907306500,10.526306396484374,-0.06193946674466133,-0.2062973827123642,0.3384413421154022
1773148996917343500,10.536343505859374,-0.018893815577030182,-0.004400268662720919,0.31597810983657837
1773148996927380200,10.546380126953125,0.012155979871749878,0.2228240966796875,0.29089245200157166
1773148996937417200,10.556417236328125,0.03998776525259018,0.4306395649909973,0.26281094551086426
1773148996947454500,10.566454345703125,0.07040053606033325,0.5799009203910828,0.24242712557315826
1773148996957491500,10.576491455078125,0.08356484025716782,0.6814334988594055,0.22283466160297394
1773148996967528400,10.586528564453126,0.07485576719045639,0.7501103281974792,0.19065728783607483
1773148996977565200,10.596565185546876,0.08186517655849457,0.7926917672157288,0.16607029736042023
1773148996987602400,10.6066025390625,0.14322839677333832,0.8202512264251709,0.1698133796453476
1773148996997639400,10.616639404296874,0.1860520988702774,0.7859695553779602,0.2463502734899521
1773148997007676400,10.626676513671875,0.17163081467151642,0.7140404582023621,0.393266499042511
1773148997017714400,10.63671435546875,0.10754737257957458,0.6040616631507874,0.5708689093589783
1773148997027751400,10.64675146484375,0.06006347015500069,0.4430328607559204,0.7057704925537109
1773148997037788400,10.656788330078125,0.06592197716236115,0.2823408842086792,0.7513704299926758
1773148997047825400,10.666825439453126,0.11751672625541687,0.16212448477745056,0.7019900679588318
1773148997057862400,10.6768623046875,0.179093599319458,0.07618923485279083,0.6249644160270691
1773148997067899400,10.6868994140625,0.26186785101890564,0.01757519133388996,0.559655487537384
1773148997077936400,10.696936279296875,0.3607562184333801,0.11793231219053268,0.45958811044692993
1773148997087973400,10.706973388671875,0.4417186975479126,0.4130838215351105,0.3626626133918762
1773148997098010400,10.71701025390625,0.4818478524684906,0.7664851546287537,0.321237713098526
1773148997108047400,10.72704736328125,0.5493797659873962,1.0403754711151123,0.32544419169425964
1773148997118084400,10.73708447265625,0.5444731712341309,1.1050127744674683,0.34460535645484924
1773148997128121300,10.747121337890626,0.4953056275844574,1.0650910139083862,0.3998417258262634
1773148997138158300,10.757158447265626,0.3773662745952606,0.9791136980056763,0.5634674429893494
1773148997148195300,10.7671953125,0.22116149961948395,0.7651071548461914,0.835383951663971
1773148997158232600,10.777232666015625,0.1024201512336731,0.3891531527042389,1.0915461778640747
1773148997168269300,10.787269287109375,0.019914086908102036,-0.03290993720293045,1.2796005010604858
1773148997178306300,10.797306396484375,0.005449590273201466,-0.24904106557369232,1.4189305305480957
1773148997188343300,10.80734326171875,0.01742928847670555,-0.2889421284198761,1.4895416498184204
1773148997198380500,10.817380615234375,0.017398959025740623,-0.2430395781993866,1.4924248456954956
1773148997208418300,10.827418212890626,-0.03634336590766907,-0.12603013217449188,1.4434431791305542
1773148997218455300,10.837455322265624,-0.16688187420368195,0.007197437342256308,1.4050620794296265
1773148997228492500,10.847492431640624,-0.30519846081733704,0.13061551749706268,1.3756152391433716
1773148997238529500,10.857529541015625,-0.4301421642303467,0.2574843168258667,1.3423222303390503
1773148997248566300,10.867566162109375,-0.5259949564933777,0.34562426805496216,1.29570472240448
1773148997258603300,10.877603271484375,-0.5951004028320312,0.4355652928352356,1.2073132991790771
1773148997268640300,10.88764013671875,-0.5863345861434937,0.4774978458881378,1.084653377532959
1773148997278677500,10.897677490234376,-0.4735426604747772,0.530352771282196,0.9392955899238586
1773148997288714500,10.907714599609376,-0.26618948578834534,0.6953644156455994,0.7739475965499878
1773148997298751200,10.917751220703124,0.011809341609477997,0.9631317257881165,0.584446907043457
1773148997308788200,10.927788330078124,0.3064495027065277,1.1302516460418701,0.35470667481422424
1773148997318825500,10.937825439453125,0.5087586045265198,1.0658444166183472,0.10293934494256973
1773148997328862500,10.947862548828125,0.57957524061203,0.7029540538787842,-0.06773971766233444
1773148997338899500,10.9578994140625,0.5276232957839966,0.1933152675628662,-0.13189023733139038
1773148997348936200,10.967936279296875,0.40100646018981934,-0.2998901903629303,-0.10939077287912369
1773148997358973200,10.97797314453125,0.23968781530857086,-0.6520022749900818,-0.07343896478414536
1773148997369010400,10.988010498046876,0.07028467953205109,-0.7314733862876892,-0.0437774732708931
1773148997379047400,10.99804736328125,-0.11136361956596375,-0.5281938314437866,0.019964441657066345
1773148997389085200,11.008085205078125,-0.329484760761261,-0.1547728180885315,0.14786648750305176
1773148997399122400,11.018122314453125,-0.5833438634872437,0.14057013392448425,0.2701553702354431
1773148997409159400,11.028159423828125,-0.7759942412376404,0.13378998637199402,0.27968016266822815
1773148997419196400,11.038196533203125,-0.8182989358901978,-0.24373097717761993,0.15002119541168213
1773148997429233400,11.0482333984375,-0.7401631474494934,-0.8721586465835571,-0.0682898461818695
1773148997439270400,11.0582705078125,-0.5819032192230225,-1.4741054773330688,-0.3227253258228302
1773148997449307400,11.068307373046874,-0.42203816771507263,-1.7236251831054688,-0.5520461797714233
1773148997459344400,11.078344482421874,-0.3025057911872864,-1.5550720691680908,-0.7158348560333252
1773148997469381400,11.08838134765625,-0.23265747725963593,-1.0816209316253662,-0.8080060482025146
1773148997479418400,11.09841845703125,-0.21283993124961853,-0.49062830209732056,-0.8414294719696045
1773148997489455400,11.108455322265625,-0.25530004501342773,0.06017705798149109,-0.8324354290962219
1773148997499492400,11.118492431640625,-0.30854275822639465,0.4541257917881012,-0.8373226523399353
1773148997509529300,11.128529296875,-0.3388311564922333,0.6355613470077515,-0.9036188125610352
1773148997519566300,11.13856640625,-0.3319361209869385,0.5575335025787354,-1.0733815431594849
1773148997529603600,11.148603515625,-0.32611390948295593,0.20850732922554016,-1.324718952178955
1773148997539640300,11.158640380859374,-0.34634971618652344,-0.33778637647628784,-1.5882759094238281
1773148997549677300,11.16867724609375,-0.39817750453948975,-0.8808161020278931,-1.774942398071289
1773148997559714300,11.17871435546875,-0.47221389412879944,-1.2026681900024414,-1.8224509954452515
1773148997569751600,11.18875146484375,-0.5528382062911987,-1.2066230773925781,-1.723642110824585
1773148997579788500,11.19878857421875,-0.5953419208526611,-0.9062003493309021,-1.47530198097229
1773148997589826300,11.208826416015626,-0.5780247449874878,-0.38846588134765625,-1.1043667793273926
1773148997599863300,11.21886328125,-0.5137407779693604,0.1519133746623993,-0.7539417743682861
1773148997609904600,11.228904541015625,-0.426229864358902,0.4838593602180481,-0.5397527813911438
1773148997619941400,11.23894140625,-0.3100821375846863,0.5756232738494873,-0.4484914243221283
1773148997629978600,11.248978515625,-0.16385966539382935,0.5148954391479492,-0.36628443002700806
1773148997640015600,11.259015625,0.0062894076108932495,0.353787899017334,-0.2467365562915802
1773148997650052600,11.269052490234374,0.02440076693892479,0.13290748000144958,-0.08749710768461227
1773148997660089600,11.279089599609375,-0.032876357436180115,0.025528710335493088,0.0765468031167984
1773148997670126600,11.289126708984375,0.061461061239242554,-0.09583020955324173,0.21780432760715485
1773148997680163600,11.29916357421875,0.19502466917037964,-0.24734525382518768,0.32462677359580994
1773148997690200600,11.30920068359375,0.2908734083175659,-0.42935580015182495,0.3860728144645691
1773148997700237600,11.319237548828125,0.3384670913219452,-0.6698588132858276,0.3963842988014221
1773148997710274800,11.32927490234375,0.34172654151916504,-0.8524004220962524,0.3219175338745117
1773148997720311600,11.3393115234375,0.28125399351119995,-0.8785942196846008,0.16196486353874207
1773148997730348500,11.3493486328125,0.19377180933952332,-0.7204482555389404,-0.04705013334751129
1773148997740385500,11.359385498046874,0.09128360450267792,-0.3922428786754608,-0.25221553444862366
1773148997750422500,11.369422607421875,0.022972721606492996,-0.08338276296854019,-0.3652573823928833
1773148997760459800,11.379459716796875,0.015461831353604794,0.051590997725725174,-0.3503672480583191
1773148997770496500,11.38949658203125,-0.033002641052007675,0.12223108112812042,-0.2716066539287567
1773148997780533500,11.399533447265625,-0.08916769176721573,0.11650093644857407,-0.19768491387367249
1773148997790571800,11.40957177734375,-0.1090892031788826,0.00877020601183176,-0.15183912217617035
1773148997800608500,11.4196083984375,-0.09092031419277191,-0.12487532198429108,-0.13945451378822327
1773148997810645500,11.4296455078125,-0.018914563581347466,-0.2305293083190918,-0.14092589914798737
1773148997820682500,11.4396826171875,0.07774490118026733,-0.24044090509414673,-0.1564994752407074
1773148997830719700,11.4497197265625,0.14306610822677612,-0.1121806725859642,-0.1757591813802719
1773148997840756700,11.4597568359375,0.185420960187912,0.12400803714990616,-0.20126421749591827
1773148997850793700,11.469793701171875,0.21263155341148376,0.39150097966194153,-0.2077801674604416
1773148997860830500,11.47983056640625,0.22548989951610565,0.6118468046188354,-0.1568012535572052
1773148997870867500,11.489867431640626,0.2302124947309494,0.7252690196037292,-0.03382046893239021
1773148997880904700,11.49990478515625,0.22468918561935425,0.725793719291687,0.09077920764684677
1773148997890941700,11.509941650390624,0.21013768017292023,0.6013407111167908,0.1411142796278
1773148997900978700,11.519978759765625,0.19172853231430054,0.35216787457466125,0.11779306828975677
1773148997911015400,11.530015380859375,0.16120843589305878,0.04991215839982033,0.060031238943338394
1773148997921052700,11.540052734375,0.1371770054101944,-0.21615944802761078,0.02747953310608864
1773148997931089700,11.550089599609375,0.1244574710726738,-0.34397998452186584,0.01040574163198471
1773148997941126700,11.560126708984376,0.1370069831609726,-0.28152361512184143,-0.006336190737783909
1773148997951163600,11.57016357421875,0.16858993470668793,-0.06564030051231384,-0.03277019411325455
1773148997961200400,11.580200439453124,0.1909874528646469,0.17644380033016205,-0.05543089658021927
1773148997971237600,11.590237548828124,0.19788503646850586,0.3439747393131256,-0.06783483177423477
1773148997981274600,11.600274658203125,0.2017359435558319,0.3638196885585785,-0.08337117731571198
1773148997991311600,11.6103115234375,0.2150011509656906,0.29922470450401306,-0.10184578597545624
1773148998001349600,11.620349609375,0.23226003348827362,0.2729727029800415,-0.15187804400920868
1773148998011386600,11.63038671875,0.25232189893722534,0.2896278202533722,-0.20308077335357666
1773148998021423600,11.640423583984376,0.28352323174476624,0.3001643717288971,-0.22999946773052216
1773148998031460600,11.650460693359374,0.29698336124420166,0.237355574965477,-0.21726129949092865
1773148998041497600,11.66049755859375,0.2880096435546875,0.11287640035152435,-0.19796893000602722
1773148998051534600,11.67053466796875,0.27177369594573975,-0.003945291042327881,-0.20745351910591125
1773148998061571600,11.680571533203125,0.26409998536109924,-0.06343454867601395,-0.2747806906700134
1773148998071608600,11.690608642578125,0.2624344527721405,-0.09390857070684433,-0.35374021530151367
1773148998081645600,11.7006455078125,0.25355109572410583,-0.16969957947731018,-0.3661922812461853
1773148998091682600,11.7106826171875,0.22678713500499725,-0.357662558555603,-0.32784250378608704
1773148998101719600,11.720719482421876,0.16223494708538055,-0.5913034677505493,-0.3012855648994446
1773148998111756500,11.730756591796874,0.0832437202334404,-0.8787911534309387,-0.2981424927711487
1773148998121793500,11.74079345703125,-0.02178242802619934,-1.218393087387085,-0.325644850730896
1773148998131830800,11.750830810546875,-0.14159804582595825,-1.521524429321289,-0.4279520511627197
1773148998141867500,11.760867431640625,-0.21625907719135284,-1.7821383476257324,-0.5127939581871033
1773148998151904500,11.770904541015625,-0.30630242824554443,-1.9327619075775146,-0.5315490365028381
1773148998161941500,11.78094140625,-0.44005244970321655,-1.9477014541625977,-0.45652124285697937
1773148998171978500,11.790978515625,-0.5547563433647156,-1.8962278366088867,-0.31092169880867004
1773148998182015700,11.801015625,-0.6339938044548035,-1.850279688835144,-0.1528458297252655
1773148998192052500,11.811052490234376,-0.6330766081809998,-1.8057262897491455,-0.034895483404397964
1773148998202089500,11.82108935546875,-0.5580719709396362,-1.6911343336105347,0.004911547061055899
1773148998212127700,11.831127685546875,-0.41993167996406555,-1.4587589502334595,-0.003604442812502384
1773148998222164700,11.841164794921875,-0.35616040229797363,-1.012268304824829,-0.012727262452244759
1773148998232201500,11.851201416015625,-0.3000476062297821,-0.40276899933815,0.0023646042682230473
1773148998242238500,11.861238525390625,-0.20302505791187286,0.3712652623653412,0.051388662308454514
1773148998252275700,11.871275634765626,-0.07543807476758957,1.124094843864441,0.12428124248981476
1773148998262312700,11.881312744140626,0.05849333852529526,1.716300368309021,0.19406789541244507
1773148998272349700,11.891349609375,0.16832584142684937,2.179335355758667,0.2033836394548416
1773148998282386400,11.901386474609374,0.2541923224925995,2.5089356899261475,0.15529629588127136
1773148998292423400,11.91142333984375,0.2922619581222534,2.65018892288208,0.09283771365880966
1773148998302460700,11.921460693359375,0.23500899970531464,2.6493892669677734,0.10125864297151566
1773148998312497700,11.93149755859375,0.12064327299594879,2.588711977005005,0.18076038360595703
1773148998322534700,11.94153466796875,-0.010430530644953251,2.4619956016540527,0.29734519124031067
1773148998332571400,11.9515712890625,-0.1129039078950882,2.267488479614258,0.3975610136985779
1773148998342608600,11.961608642578126,-0.179010808467865,2.0182948112487793,0.4620082974433899
1773148998352645600,11.971645751953124,-0.2075449824333191,1.7304199934005737,0.47265270352363586
1773148998362682600,11.9816826171875,-0.19743503630161285,1.4917457103729248,0.43702957034111023
1773148998372719600,11.9917197265625,-0.14707864820957184,1.4186906814575195,0.32191765308380127
1773148998382756400,12.00175634765625,-0.08593960106372833,1.4051369428634644,0.1525239795446396
1773148998392793600,12.011793701171875,-0.06812651455402374,1.2611515522003174,0.015538433566689491
1773148998402830600,12.02183056640625,-0.09063645452260971,0.928310751914978,-0.06935503333806992
1773148998412867600,12.03186767578125,-0.11212443560361862,0.47913482785224915,-0.09338287264108658
1773148998422904600,12.041904541015626,-0.12645748257637024,0.04164009913802147,-0.08906268328428268
1773148998432941600,12.051941650390624,-0.1295454204082489,-0.2937554717063904,-0.0845307782292366
1773148998442978600,12.061978515625,-0.11706482619047165,-0.5948127508163452,-0.009993789717555046
1773148998453015600,12.072015625,-0.08383230119943619,-0.9239975810050964,0.17723682522773743
1773148998463052500,12.082052490234375,-0.03139454871416092,-1.2689237594604492,0.38499152660369873
1773148998473089800,12.09208984375,-0.0040747784078121185,-1.5091570615768433,0.49967893958091736
1773148998483126500,12.10212646484375,0.005976257845759392,-1.5819849967956543,0.48332926630973816
1773148998493163500,12.11216357421875,-0.0067893387749791145,-1.4881974458694458,0.40369969606399536
1773148998503200500,12.122200439453126,-0.049547240138053894,-1.3199272155761719,0.31798458099365234
1773148998513237500,12.132237548828124,-0.11162658780813217,-1.0891443490982056,0.23156900703907013
1773148998523274800,12.142274658203124,-0.16981901228427887,-0.8444846868515015,0.14020223915576935
1773148998533311500,12.1523115234375,-0.18882839381694794,-0.6248859763145447,0.04552074149250984
1773148998543348500,12.162348388671875,-0.17412391304969788,-0.4644462764263153,-0.02790760062634945
1773148998553386800,12.17238671875,-0.15123377740383148,-0.36749282479286194,-0.0704883486032486
1773148998563423700,12.182423828125,-0.14177930355072021,-0.3277893364429474,-0.06487055122852325
1773148998573460500,12.19246044921875,-0.12588903307914734,-0.30269303917884827,-0.04433172196149826
1773148998583497500,12.20249755859375,-0.10733596980571747,-0.24809595942497253,-0.054425813257694244
1773148998593534700,12.21253466796875,-0.07169967144727707,-0.16012242436408997,-0.08111175149679184
1773148998603571700,12.22257177734375,-0.023211637511849403,-0.027267789468169212,-0.11832068860530853
1773148998613604600,12.2326044921875,0.033768292516469955,0.16015775501728058,-0.15067754685878754
1773148998623641600,12.2426416015625,0.07781536877155304,0.3554146885871887,-0.1481778621673584
1773148998633678300,12.25267822265625,0.10457321256399155,0.46353796124458313,-0.1179371252655983
1773148998643715300,12.26271533203125,0.09953553974628448,0.4351588487625122,-0.07030384242534637
1773148998653752600,12.272752685546875,0.056923624128103256,0.28374534845352173,0.004852157551795244
1773148998663789600,12.28278955078125,-0.007229504641145468,0.045872051268815994,0.10543190687894821
1773148998673826600,12.29282666015625,-0.06426509469747543,-0.2549764811992645,0.2133093774318695
1773148998683865600,12.302865478515624,-0.09580372273921967,-0.5483635067939758,0.2920757234096527
1773148998693902600,12.312902587890624,-0.07616637647151947,-0.7900083661079407,0.3227899670600891
1773148998703939300,12.322939208984375,-0.0342848114669323,-0.9471109509468079,0.29816436767578125
1773148998713976300,12.332976318359375,-0.016203811392188072,-0.9672593474388123,0.23023192584514618
1773148998724013600,12.343013671875,-0.05674107372760773,-0.8538172841072083,0.157446950674057
1773148998734050600,12.353050537109375,-0.0702933669090271,-0.6709489226341248,0.08145525306463242
1773148998744087600,12.363087646484376,-0.023363521322607994,-0.4559416174888611,-0.007404756732285023
1773148998754124300,12.373124267578126,0.030414490029215813,-0.21016673743724823,-0.09653862565755844
1773148998764161300,12.383161376953124,0.07888565957546234,0.03592056408524513,-0.15377989411354065
1773148998774198500,12.393198486328124,0.08727621287107468,0.20533008873462677,-0.15895333886146545
1773148998784236500,12.403236572265625,0.039006225764751434,0.21926461160182953,-0.1380062699317932
1773148998794273300,12.413273193359375,-0.00722864642739296,0.1585775762796402,-0.1313832551240921
1773148998804310500,12.423310546875,-0.03663220256567001,0.09778062254190445,-0.11789162456989288
1773148998814347500,12.433347412109375,-0.05489030480384827,0.06573426723480225,-0.07179576903581619
1773148998824384500,12.443384521484376,-0.06785398721694946,0.06612788885831833,0.0003057073336094618
1773148998834421500,12.45342138671875,-0.0757950097322464,0.0376746766269207,0.06795719265937805
