time,seconds_elapsed,roll,rotationRateZ,quaternionY,rotationRateY,quaternionZ,quaternionW,yaw,devicelocation,accelerationZ,pitch,gravityX,gravityZ,quaternionX,rotationRateX,accelerationX,gravityY,accelerationY
1773148987097367600,0.716367431640625,0.1271115959792725,0.8392975926399231,0.06265146818969373,0.015422562137246132,3.0353024565480857e-17,0.9934995765587707,0.012127830343263259,left,0.00023651123046875,-0.18999351621427324,1.2208141524903475,-9.552489360970258,-0.09504409076933108,0.382324755191803,0.0022125542163848877,1.8520104073293506,-0.12193288654088974
1773148987137367800,0.756367919921875,0.13116207202440153,0.8147864937782288,0.06381445998579786,0.00826321355998516,0.01368238034454469,0.994628369518121,0.037958140008858804,left,0.024042189121246338,-0.15874286634947146,1.266449383853376,-9.60017465673089,-0.08034320995383466,0.4002929627895355,-0.0004323720932006836,1.5502056813322007,-0.12252499163150787
1773148987177367800,0.796367919921875,0.13437937438522793,0.7902754545211792,0.06495153265509662,0.0011038649827241898,0.027359259909329775,0.9953533406761339,0.0635445641822992,left,0.04699331521987915,-0.12739998760333202,1.3032007592760027,-9.639479077637194,-0.06560970889966247,0.41826117038726807,-0.0021714121103286743,1.2459899486705661,-0.1228712648153305
1773148987217367600,0.836367431640625,0.1378066669743889,0.7938269376754761,0.0665952112301506,-0.007677986286580563,0.0447548618894091,0.9956574612316694,0.09592744982137924,left,0.05404621362686157,-0.08815594897658362,1.3419170050308107,-9.675959673294425,-0.04720635981133025,0.46131667494773865,-0.006024792790412903,0.8633950182337313,-0.13323046267032623
1773148987257367600,0.876367431640625,0.14033460741651343,0.7466012239456177,0.06846670512754947,-0.04415077716112137,0.06330666396145165,0.9952711821238666,0.13024141762431463,left,0.04502636194229126,-0.0454894150681844,1.370280491336435,-9.700198627015947,-0.02719988612662407,0.4934510290622711,-0.006237387657165527,0.4459447187213227,-0.14545804262161255
1773148987297367600,0.916367431640625,0.14031733558744072,0.6768582463264465,0.06926690117918063,-0.026398316025733948,0.07562000132201455,0.9946358299488737,0.15292033461759363,left,0.02172333002090454,-0.016458545033097165,1.3713460747413337,-9.708951842314004,-0.01353949229006769,0.43513715267181396,-0.012486085295677185,0.16139569996222852,-0.15734519064426422
1773148987337367600,0.956367431640625,0.13998964138308576,0.6125732064247131,0.06998642812612822,-0.04510210454463959,0.08461075499993262,0.993950393699595,0.1693438285561065,left,0.0327448844909668,0.0071060517094230806,1.3683151826128364,-9.7104710147053,-0.0023830249336139636,0.40041637420654297,-0.018211372196674347,-0.0696861790986266,-0.15099608898162842
1773148987377367800,0.996367919921875,0.13707452781955343,0.5735350847244263,0.07000697699661253,-0.06901644170284271,0.09612733911018094,0.9928211599251706,0.19036928649602378,left,0.03341490030288696,0.038946209000596206,1.3390199684150517,-9.7072970608443,0.012830707226859092,0.3410532474517822,-0.03186476230621338,-0.38183549037165937,-0.11302904784679413
1773148987417367800,1.036367919921875,0.13193846893846514,0.5503056049346924,0.0690488399736604,-0.0571114607155323,0.10715423563770556,0.9914896151827516,0.21086736146471086,left,0.026750683784484863,0.06725537840284038,1.2872069251999259,-9.699439917603135,0.026428383705199933,0.3281847834587097,-0.027966685593128204,-0.6590530337315053,-0.1084563210606575
1773148987457367600,1.076367431640625,0.12620885453893751,0.5270761251449585,0.06806936049652935,-0.04520647972822189,0.11814807180427452,0.9898516321429242,0.23155863863193732,left,0.01935034990310669,0.09545294116246547,1.2287835239343345,-9.684363929024338,0.04001788133457112,0.3153163194656372,-0.02339453250169754,-0.9346529858268797,-0.10404853522777557
1773148987497367600,1.116367431640625,0.12110220867089257,0.4230262339115143,0.0677353972274872,0.07587387412786484,0.129262163082008,0.9878219733589197,0.25267974062871484,left,0.016802608966827393,0.12442712221714675,1.1755470237873493,-9.659566172376275,0.053954588937712676,0.33925244212150574,-0.0220378115773201,-1.2170672941122203,-0.09595707803964615
1773148987537367600,1.156367431640625,0.11856314330329908,0.31566670536994934,0.06903291271315279,0.03017740696668625,0.13845036466499785,0.9855170598589906,0.2698281904146102,left,0.02062124013900757,0.15662793901943237,1.145785434186831,-9.618602293825148,0.06944225434156381,0.47156989574432373,-0.03762432932853699,-1.529723011404276,-0.07510799169540405
1773148987577367600,1.196367431640625,0.11574098862396912,0.2967767119407654,0.06945673196354243,-0.008169583976268768,0.14284085479159123,0.9839980790386389,0.277873630399045,left,0.002815842628479004,0.179716895854075,1.1142590999361126,-9.58415232721269,0.08074635585294748,0.5004875659942627,-0.04358714073896408,-1.752948998466134,-0.05890814960002899
1773148987617367800,1.236367919921875,0.11271668167866337,0.2778867185115814,0.06987017558211575,-0.046516574919223785,0.14721005089023842,0.9823320688155147,0.28602175677793473,left,-0.015494048595428467,0.20278264029694956,1.080432452853769,-9.544755551847816,0.09203840147663553,0.5294052362442017,-0.04931536316871643,-1.9750176321864128,-0.0428263396024704
1773148987657367800,1.276367919921875,0.10789513924838603,0.2381150871515274,0.06949821320363406,0.022651255130767822,0.15178417746151468,0.9805505246881342,0.29492836983423637,left,-0.08125966787338257,0.22540586269666954,1.0293238315809516,-9.502992631873488,0.10320963222287263,0.4968326687812805,-0.021839655935764313,-2.1918058412857353,-0.05272938311100006
1773148987697367600,1.316367431640625,0.1022701695970736,0.24664340913295746,0.0690041886604091,-0.05908334255218506,0.15701866494464453,0.9784539949034279,0.3054206742376363,left,-0.17300796508789062,0.249168679231228,0.9702614748246967,-9.454141214942931,0.1149407671959072,0.40537747740745544,0.02514275163412094,-2.4183042741470038,-0.059255778789520264
1773148987737367600,1.356367431640625,0.09918154677398112,0.18273359537124634,0.06881570079702133,-0.0421600267291069,0.1601096467704632,0.9771921895265764,0.31171970218490574,left,-0.19225221872329712,0.2621856195641189,0.9378599651746451,-9.424968311950563,0.12134561884210829,0.3152851462364197,0.05312453210353851,-2.5418062967836854,-0.049533337354660034
1773148987777367600,1.396367431640625,0.09495470701623686,0.02822364866733551,0.0680560480887594,-0.03322023153305054,0.16241202282656883,0.9760014341506767,0.31660865643875324,left,-0.12597352266311646,0.2756531477652438,0.8946869592066854,-9.393916171082854,0.12810905559964114,0.19203731417655945,0.10889361053705215,-2.669129777404666,0.044311389327049255
1773148987817367600,1.436367431640625,0.094428627744128,0.016055509448051453,0.06814266346485566,-0.0364980548620224,0.16231784513155173,0.9756928839986344,0.316364815059218,left,0.029753029346466064,0.280459570826031,0.8885250025108457,-9.381505602321027,0.13051020254053364,0.1862916201353073,0.11673052608966827,-2.714454481513798,0.17223531007766724
1773148987857367600,1.476367431640625,0.09154681767278144,0.04613281041383743,0.06740046431286838,-0.1261143982410431,0.1622467373659146,0.9751354302834783,0.3164016984691177,left,0.10971152782440186,0.28931476822300195,0.859254411297664,-9.359723394101858,0.1350707398300735,0.25151151418685913,0.12064472585916519,-2.7977935667186973,0.21167877316474915
1773148987897367800,1.516367919921875,0.08505550546812798,0.08748111128807068,0.06521427547695628,-0.1349564790725708,0.16285966066112156,0.9743374783690485,0.3183486593787692,left,0.04839223623275757,0.30057453047883065,0.7957530491806566,-9.333121802902221,0.1410330015732399,0.21013736724853516,0.1303553581237793,-2.9034456060186025,0.18912696838378906
1773148987937367600,1.556367431640625,0.07940758779415563,0.10950023680925369,0.06306495380507794,-0.15168578922748566,0.16404558046225937,0.9738733414984918,0.321527360346756,left,0.008877098560333252,0.3055367581751522,0.741875913042575,-9.322990284988284,0.14381442187189866,0.08870480954647064,0.13397076725959778,-2.9498905463293195,0.16875219345092773
1773148987977367600,1.596367431640625,0.07108778821740074,0.10059423744678497,0.05948909372273125,-0.13388359546661377,0.16598289226262397,0.9735981061983721,0.3267240927756063,left,-0.017601847648620605,0.30683287589768016,0.6640136518135666,-9.325018575945496,0.14497388986628046,-0.038098931312561035,0.13422918319702148,-2.9620100231900808,0.1268908977508545
1773148988017367600,1.636367431640625,0.07128888099064744,0.06640759110450745,0.05922798714830908,-0.16684871912002563,0.16629451253630592,0.9739427162035644,0.32738845709136316,left,-0.01070791482925415,0.30160136054384823,0.6669833883393556,-9.340213222467899,0.14238572871942787,-0.03611735254526138,0.12285773456096649,-2.9130621601477262,0.08722548186779022
1773148988057367600,1.676367431640625,0.07636525403148992,0.0596085824072361,0.06053820940021395,-0.2168264538049698,0.165607917653205,0.9749512984164878,0.32542024385293716,left,0.04261547327041626,0.2883800217106958,0.7172648380730301,-9.374292602202296,0.1355700039213014,-0.04155019670724869,0.05226021260023117,-2.789006741411984,0.06925791501998901
1773148988097367600,1.716367431640625,0.07580904645258923,0.05652673542499542,0.059949261453758874,-0.2031545788049698,0.1657162907870751,0.9752619560202733,0.32578288474774464,left,0.03325873613357544,0.2839638968871534,0.7129765662945806,-9.386879696574807,0.1334481736117756,-0.012737110257148743,0.072085902094841,-2.7474606790587304,0.011047571897506714
1773148988137367800,1.756367919921875,0.07540734347193188,0.052560217678546906,0.05956046409807813,-0.18975241482257843,0.16545699659986382,0.9754636300909403,0.32533636701982116,left,0.11464458703994751,0.2818589162008179,0.709639896152541,-9.392911377954482,0.1324663947444248,0.07666093111038208,0.03556712716817856,-2.727638372735679,0.02350783348083496
1773148988177367800,1.796367919921875,0.06937706465485101,0.08484196662902832,0.05690294544287697,-0.23616234958171844,0.16596988339190658,0.9753367430296167,0.3271850786255898,left,0.10479497909545898,0.28391901592613733,0.6525945052418858,-9.391393959128855,0.1339186489650149,0.09275443851947784,0.027861006557941437,-2.747038069732487,0.007621347904205322
1773148988217367600,1.836367431640625,0.057839107920297936,0.07262974232435226,0.05181444306292801,-0.23873558640480042,0.166963629480498,0.9750788479350267,0.3307937923290807,left,0.07799476385116577,0.28764402846577347,0.543600681233406,-9.388017760694026,0.1366000215850381,0.06071557104587555,0.03684267774224281,-2.7820862944990394,0.0005964934825897217
1773148988257367600,1.876367431640625,0.04931154242129983,0.026380039751529694,0.04790725060265131,-0.1200866550207138,0.1672354669804821,0.9750260021585275,0.3325483860477941,left,0.07353675365447998,0.2892708355719334,0.4633012559853494,-9.387779275763034,0.13806290722148618,0.028748124837875366,0.05584828928112984,-2.797380602003634,-0.00684472918510437
1773148988297367600,1.916367431640625,0.04624393004644741,-0.020735420286655426,0.046655386924637214,-0.09454350173473358,0.16677589386700234,0.9748851876379924,0.332045498760931,left,0.02610635757446289,0.2927482005845844,0.43404874841812996,-9.379382034295796,0.14002807924106814,0.06618588417768478,0.0708780512213707,-2.8300483613744376,-0.0279238224029541
1773148988337367600,1.956367431640625,0.0431748946188252,-0.06785087287425995,0.045403248645091876,-0.06900034844875336,0.16631535771952569,0.9747388588178522,0.33155319852757886,left,-0.02134525775909424,0.29622701282426916,0.40483368678446857,-9.37077728755772,0.14199245360979118,0.1036236435174942,0.08590400218963623,-2.8626950779572127,-0.04900503158569336
1773148988377367800,1.996367919921875,0.04448659332917651,-0.12261469662189484,0.04619769287824288,-0.10550122708082199,0.16407455083775924,0.9746307907427916,0.3267816616856461,left,-0.04468601942062378,0.30249618926310967,0.4163186651339754,-9.352125194057821,0.14505198042827772,0.14431190490722656,0.08415281772613525,-2.921440404653549,-0.057460516691207886
1773148988417367800,2.036367919921875,0.0450340418928819,-0.1585344672203064,0.046527591611304944,-0.13251294195652008,0.16135823779998712,0.974607376547331,0.3211421900032998,left,-0.04940134286880493,0.30860473445156755,0.4206271394502371,-9.333893956318498,0.14811829269901128,0.18616148829460144,0.07591322809457779,-2.9785698205858466,-0.04139244556427002
1773148988457367600,2.076367431640625,0.0423329710305311,-0.18954549729824066,0.04528614520624776,-0.14533467590808868,0.15720877334410266,0.9746089011045938,0.3130745330915299,left,-0.15906548500061035,0.3175441386096919,0.39427152236830443,-9.30802067939341,0.15287961392425986,0.19190020859241486,0.0666215643286705,-3.0619737877205013,-0.09047698974609375
1773148988497367600,2.116367431640625,0.03992334067704948,-0.18732623755931854,0.04404625601998938,-0.23902395367622375,0.15206858592629355,0.974658176754835,0.30295652617646895,left,-0.17558062076568604,0.3272775882691726,0.37063437046483155,-9.278723273238539,0.15804013016422763,0.23208287358283997,0.02668173611164093,-3.1525077528655525,-0.06515258550643921
1773148988537367600,2.156367431640625,0.040460058576824484,-0.3351767659187317,0.043950057214045185,0.026359587907791138,0.14557985717656316,0.9748036365785662,0.28960373544840234,left,-0.21131843328475952,0.33732409405882513,0.3743143376192078,-9.246409734132886,0.16319527355863223,0.2524610161781311,0.02673155814409256,-3.245640210071206,-0.07331216335296631
1773148988577367600,2.196367431640625,0.049229451926168184,-0.315609335899353,0.04719884191641317,-0.057444311678409576,0.13761134815935913,0.9753038748726187,0.271790261945111,left,-0.08611249923706055,0.34389163437714443,0.45432555704303085,-9.221282307139038,0.16618575495519328,0.13227345049381256,-0.04049740731716156,-3.306345730924606,0.05185985565185547
1773148988617367800,2.236367919921875,0.05814262617723927,-0.29604190587997437,0.05044369938450367,-0.1412482112646103,0.12963136342987994,0.9757229094776624,0.2538742238765153,left,0.03902542591094971,0.35031047424509537,0.5352530145289376,-9.195489694234729,0.16916240650706874,0.012085877358913422,-0.10781979560852051,-3.365538801388442,0.17687761783599854
1773148988657367800,2.276367919921875,0.05500865188287387,-0.2462126612663269,0.0478100089503935,-0.1887720227241516,0.12369175895822113,0.9767207402824577,0.24226119755163175,left,0.004087984561920166,0.3482013198241597,0.5068211756948381,-9.204189718040823,0.16861534767306757,-0.07214702665805817,-0.08191866427659988,-3.346104033078253,0.10563911497592926
1773148988697367600,2.316367431640625,0.05036708196559827,-0.2714206576347351,0.044504483449980155,-0.16449527442455292,0.11840805090949265,0.9777404300881692,0.2322650092711282,left,-0.007664144039154053,0.34466939072949104,0.4646860979398712,-9.218188432776927,0.16739931281562068,-0.030068788677453995,-0.06195320934057236,-3.3135254132956264,0.09547577798366547
1773148988737367600,2.356367431640625,0.046620133321484174,-0.29551851749420166,0.041564718248159,-0.09324003010988235,0.1131199752666659,0.9788276112831134,0.2221136796980629,left,-0.0032731294631958008,0.3397930429680468,0.4308907227786258,-9.235895938903093,0.16544709801758195,-0.05968393385410309,-0.05458906292915344,-3.2684780648231504,0.09199529886245728
1773148988777367600,2.396367431640625,0.04530437650890786,-0.2614384591579437,0.03986907415916918,-0.0702124610543251,0.10814009640420516,0.9797900046097565,0.21218462412712527,left,0.03892862796783447,0.3352304818165006,0.4194091784952208,-9.251256005120277,0.16348602148916933,-0.04098980501294136,-0.059872813522815704,-3.226258925513923,0.07830387353897095
1773148988817367600,2.436367431640625,0.04618617560125869,-0.2832733690738678,0.039361492451896976,-0.002002499997615814,0.10329778118821814,0.9805134401043997,0.20217083223435822,left,0.05338478088378906,0.33270616254811664,0.42794140798635777,-9.258988060677051,0.1623996471645012,0.02831749990582466,-0.042782969772815704,-3.202871620185673,0.050375282764434814
1773148988857367600,2.476367431640625,0.05008768649933145,-0.32044529914855957,0.0403717573244348,0.06321465969085693,0.09826832223348388,0.9810180953747449,0.19127198443298973,left,0.04963231086730957,0.33230829208034574,0.46412587024122476,-9.258520443165303,0.16222502775693232,0.05929790437221527,-0.027620794251561165,-3.1991835793226957,0.020955681800842285
1773148989019075000,2.638074951171875,0.08812177379155764,-0.346473753452301,0.053336531567964876,0.005506231915205717,0.06602812689319783,0.9826452276632073,0.11916110891243563,left,0.06083689257502556,0.33756493671616145,0.8143534124933183,-9.217297036895156,0.1649359335153633,0.05037460848689079,-0.04058970883488655,-3.247868992036581,0.015641193836927414
1773148989059043600,2.678043701171875,0.09303497512580736,-0.31330493092536926,0.05462886274516288,0.009396055713295937,0.05954272446202038,0.982795789000613,0.10506806236744076,left,0.0636717900633812,0.3394326808043747,0.8590648070096969,-9.207128694102167,0.1660806327691624,0.11277168244123459,-0.033490635454654694,-3.265145997790992,0.022732414305210114
1773148989217877500,2.83687744140625,0.10150385905468216,-0.23060530424118042,0.055327811467157303,0.0795191153883934,0.038938800032242114,0.9817546681670825,0.06074314724681943,left,-0.18155425786972046,0.36103375523932074,0.9296422449927777,-9.127214614909887,0.17770872258564707,0.06370539963245392,0.011194956488907337,-3.464116372257471,-0.05589890107512474
1773148989257877200,2.876877197265625,0.10139213585475713,-0.22942951321601868,0.05473122771862055,0.07021500170230865,0.03590111714671181,0.9817497798413323,0.05451249547486948,left,-0.24907547235488892,0.36241027305541546,0.9281390008229762,-9.122565912321209,0.17855830349931714,0.05691000819206238,0.0468386635184288,-3.4767417528137563,-0.08809375762939453
1773148989297877200,2.916877197265625,0.10128950181974065,-0.22825372219085693,0.05413406688250772,0.060910891741514206,0.03286307541735835,0.9817347798278641,0.04827877884082054,left,-0.31659960746765137,0.36378735271202217,0.9267177358482033,-9.117889152681826,0.1794060132392045,0.05011461675167084,0.08247401565313339,-3.4893659643262622,-0.12028884887695312
1773148989337877500,2.95687744140625,0.10671806550560269,-0.22581151127815247,0.05611675787879058,0.10360108315944672,0.029618884542450145,0.9816865641947764,0.04066770352269651,left,-0.13490766286849976,0.3639781873176685,0.9761299284666776,-9.112062053963541,0.17962473467061996,-0.0058850012719631195,0.07858946919441223,-3.4911148538202044,0.04617571830749512
1773148989377877500,2.99687744140625,0.10995104379006664,-0.024103328585624695,0.057521692546576846,0.10507304966449738,0.0289144643883301,0.9817921870109468,0.03873702715997206,left,-0.04841351509094238,0.3621123373503841,1.0062968839976936,-9.115317256367206,0.17871600654645786,-0.006136551033705473,0.09464292973279953,-3.4740096975013612,0.09607869386672974
1773148989417877500,3.03687744140625,0.11317791183713587,0.17760486900806427,0.05892644054100539,0.10654500871896744,0.028209864878231856,0.9818944587177795,0.03681398490555047,left,0.03806990385055542,0.36024063055147254,1.0364380475003272,-9.118467244830727,0.17780669372957977,-0.006388100795447826,0.11069902032613754,-3.4568387824699283,0.14597493410110474
1773148989457877500,3.07687744140625,0.11204854591616123,0.6026333570480347,0.05952133969187837,0.13861310482025146,0.03444380125855414,0.9816101688107173,0.049650416229359104,left,-0.009733915328979492,0.36153432182568784,1.0256384210664777,-9.11518047824502,0.17807960517385044,-0.019677413627505302,0.10110337287187576,-3.4687083762228488,0.1997550129890442
1773148989497877200,3.116877197265625,0.10957366170069209,1.15457284450531,0.06306136837898031,0.36420994997024536,0.06047460509866373,0.9803599937422854,0.10313537716194358,left,-0.014569222927093506,0.3621594382610355,1.002838925563544,-9.11553352946639,0.17680607188663894,-0.10352054983377457,0.08562128990888596,-3.4744416591778395,0.1681438535451889
1773148989537877200,3.156877197265625,0.10706605260526353,1.7065123319625854,0.06655766720714036,0.5898067951202393,0.08646341658755087,0.9784301126337113,0.15663311015312373,left,-0.0193634033203125,0.36265988448969694,0.9797916658446192,-9.116289900791644,0.17540995037475954,-0.18736368417739868,0.07016448676586151,-3.479030448272824,0.1364159882068634
1773148989577877500,3.19687744140625,0.0992119980915389,1.7334054708480835,0.07149122613372993,0.5100700259208679,0.13609114843006515,0.9732750764748428,0.25982706527904076,left,0.019979417324066162,0.35921232236246686,0.9093449415691196,-9.135584968370198,0.17059837499322564,-0.2526499927043915,0.05280440300703049,-3.447399922995269,0.07247218489646912
1773148989617877500,3.23687744140625,0.09178956408285449,1.760298728942871,0.07624341830641229,0.4303332269191742,0.18537362292306772,0.9656508592932268,0.36284207676214436,left,0.05947434902191162,0.3550268188981301,0.8428274465013295,-9.156371151289344,0.1653540051935451,-0.3179363012313843,0.03504365682601929,-3.408943935611844,0.00783240795135498
1773148989657877500,3.27687744140625,0.08475657152093867,1.4894096851348877,0.07663120805636954,0.3325597047805786,0.2090871526157193,0.9612968367974426,0.413295774993261,left,0.07739275693893433,0.3511179423964385,0.7795324936766177,-9.175279265376926,0.16223009554132195,-0.2430301159620285,0.04971509426832199,-3.37297538112998,-0.0006674230098724365
1773148989697877500,3.31687744140625,0.07535514441016171,1.1566543579101562,0.0767694211678512,0.18025238811969757,0.23674226928129483,0.9551663962228828,0.4725953789646095,left,0.09419625997543335,0.34978789386649506,0.6935757733192295,-9.186668089875578,0.16036442460896858,-0.11805061995983124,0.06945285201072693,-3.3607249713659284,0.03136110305786133
1773148989852950800,3.47195068359375,0.07053622356273859,0.4269578456878662,0.08487023538178924,0.2106008380651474,0.2969563840680177,0.9381135041664379,0.6005984007571374,left,-0.03342348337173462,0.3516246113360675,0.6488618945848197,-9.183730867379904,0.15670702537209566,-0.04824545979499817,0.13877247273921967,-3.3776404503315685,-0.010578285902738571
1773148989892950800,3.51195068359375,0.07356782441209385,0.4096318185329437,0.08743611926050399,0.08874930441379547,0.30495962282238753,0.9355797298321252,0.6171595279127751,left,-0.0673825740814209,0.3506207090220385,0.676949194297567,-9.18509864860177,0.15506526986788327,-0.027588609606027603,0.08350040763616562,-3.3683962366461753,-0.046674877405166626
1773148989932950800,3.55195068359375,0.07086972325140556,0.3624110817909241,0.08760095525068955,0.06397807598114014,0.3113533474858615,0.9333194828489713,0.6313392307945591,left,-0.05676460266113281,0.35280324945716385,0.6516422460183501,-9.179536338299512,0.1558844837166904,0.0090191550552845,0.04701559245586395,-3.3884894688650964,-0.04007604718208313
1773148989972950800,3.59195068359375,0.06813674074587261,0.3151903748512268,0.08776170522273237,0.039206840097904205,0.31773253332962575,0.9310156521183383,0.645536490138742,left,-0.04614335298538208,0.3549496219768958,0.6260557501453906,-9.174005592179299,0.15669641508973509,0.045626915991306305,0.010559283196926117,-3.4082340337768193,-0.03351280093193054
1773148990012950800,3.63195068359375,0.06536933656375148,0.26796963810920715,0.08791834709744448,0.014435609802603722,0.3240968813014131,0.9286683845757342,0.659751203155162,left,-0.0355188250541687,0.3570593494414778,0.6001941636580973,-9.168507579284906,0.15750102471697378,0.08223468065261841,-0.025868970900774002,-3.4276258397281167,-0.02698543667793274
1773148990052950800,3.67195068359375,0.06096919515041706,0.21459034085273743,0.08702202815637845,-0.057831309735774994,0.32833569780315586,0.9270345608420392,0.6697082612206173,left,0.011888742446899414,0.35932549485609017,0.5593710087519139,-9.163283122634887,0.1588387433047452,0.0026580095291137695,-0.07354472577571869,-3.448438910654187,0.0666380524635315
1773148990092950800,3.71195068359375,0.055789247784602446,0.09200798720121384,0.08480366023036305,0.01438131183385849,0.330637111899376,0.9264569784329848,0.6755026348390161,left,-0.01744741201400757,0.3575860925679847,0.5122320948276669,-9.172032830801605,0.15863422321689902,-0.034727878868579865,-0.054721392691135406,-3.432465388713777,0.06919097900390625
1773148990132950800,3.75195068359375,0.050623535505826905,-0.030574366450309753,0.08258440092688765,0.08659392595291138,0.33293502966062466,0.92586960227177,0.6812835595505975,left,-0.04680216312408447,0.3558186671369222,0.4651516330923885,-9.18060075266063,0.15842802721472893,-0.0721137672662735,-0.03590402007102966,-3.4162238634869455,0.0717165470123291
1773148990172950800,3.79195068359375,0.05559386116203296,-0.4644365906715393,0.08322626227733697,0.10659170150756836,0.3297471022023685,0.927541431341675,0.673329781079514,left,-0.032305240631103516,0.34938243262888175,0.5119874358842149,-9.199939074859023,0.154942069878655,-0.016726333647966385,-0.049269624054431915,-3.3569889997079967,-0.02335357666015625
1773148990333073400,3.952073486328125,0.1238756849930597,-6.059422492980957,0.06479300823874092,-1.6812185049057007,0.032645891480213865,0.9835368778538809,0.04532006464902939,left,-0.07778643071651459,0.33607794841876854,1.1439126260522752,-9.187078424242138,0.1655029722654587,0.6347776651382446,-0.4156523048877716,-3.2341058396220204,0.16788114607334137
1773148990373073400,3.992073486328125,0.14002825438479746,-5.516850471496582,0.05183760875754924,-1.5613816976547241,-0.08867269898486477,0.9798803300712022,-0.20401137463945926,left,-0.13005691766738892,0.33225409674028344,1.2938685750462113,-9.179581931006908,0.1711269352958063,0.7096388936042786,-0.4089372754096985,-3.1986811827585098,0.3112623691558838
1773148990413073400,4.032073486328125,0.15305076281802824,-4.204469680786133,0.042323580962367824,-1.166558027267456,-0.17630630523836316,0.9674710621488629,-0.38624575964058994,left,-0.1575108766555786,0.33253638488198606,1.413158971337229,-9.161061939454077,0.17642147280638346,0.5503473281860352,-0.31087344884872437,-3.201297794997692,0.35969558358192444
1773148990453073400,4.072073486328125,0.1659080871968806,-2.8920891284942627,0.03247298650798554,-0.7717342376708984,-0.2625378919375138,0.9473682564216932,-0.5684160942082196,left,-0.18437927961349487,0.3305834440680761,1.5318553472578524,-9.14828429094553,0.1803130475047027,0.391055703163147,-0.21274903416633606,-3.1831893068552017,0.40601542592048645
1773148990493073400,4.112073486328125,0.17505941416108772,-1.8072547912597656,0.02829068095701421,-0.32236766815185547,-0.30810868148337583,0.9333759180237566,-0.6667135274225818,left,-0.17093145847320557,0.32792648453715995,1.6169763474434613,-9.142179544329643,0.18187415275382338,0.2959641218185425,-0.09791389107704163,-3.158533004504442,0.22304119169712067
1773148990533073400,4.152073486328125,0.1889957267199349,-1.1144115924835205,0.028637937195287178,-0.0810229480266571,-0.335354947232114,0.9230771868601785,-0.7285504472186859,left,-0.07894766330718994,0.3304004041674017,1.7427499682739376,-9.111054922747611,0.18613261947711493,0.3293779492378235,-0.08228985965251923,-3.181491270765662,0.19138042628765106
1773148990573073400,4.192073486328125,0.20415856642330096,-0.7862793207168579,0.03141790629276024,0.02972385287284851,-0.3491303960215061,0.9167285068586231,-0.762480596572968,left,-0.05452620983123779,0.3357149872865686,1.877239248871058,-9.066898385635017,0.19165009959325494,0.26470470428466797,-0.06615579128265381,-3.2307454232782122,0.16002275049686432
1773148990613073400,4.232073486328125,0.21953100697093883,-0.45814698934555054,0.034189455754232864,0.14047065377235413,-0.3628121981253609,0.9101338996496211,-0.7965528583450686,left,-0.030215680599212646,0.3405393893295158,2.012974584006518,-9.021652884241938,0.19711619286927057,0.20003148913383484,-0.05014878511428833,-3.2753777612090107,0.12819378077983856
1773148990653073400,4.272073486328125,0.22830303348885278,-0.17841151356697083,0.03616029348006954,0.06534407287836075,-0.36800698356968414,0.9072568400915139,-0.8104850507831405,left,-0.016366183757781982,0.34368747923844695,2.0896903055489062,-8.993560177701712,0.20037087085820873,0.1022859439253807,-0.024237841367721558,-3.3044609400913116,0.11294546723365784
1773148990693073200,4.3120732421875,0.23401440930537232,-0.15027295053005219,0.03837335536076969,0.09427481889724731,-0.3696415818298612,0.9062981172682961,-0.8152590532962838,left,-0.01241236925125122,0.3431789936735915,2.141410848174989,-8.983111264401673,0.20128652024147767,0.09949907660484314,-0.010606661438941956,-3.2997654757514594,0.09023353457450867
1773148990733073400,4.352073486328125,0.23972208299054737,-0.12213438749313354,0.040586048816975646,0.12320557236671448,-0.3712727605222302,0.9053310852950284,-0.8200291501365382,left,-0.008479833602905273,0.3426449181156523,2.1930665088713166,-8.972453092265129,0.20220029245132057,0.09671220928430557,0.003031119704246521,-3.2948329877853393,0.06749746203422546
1773148990773073400,4.392073486328125,0.24542592221749598,-0.0939958244562149,0.04279838583150217,0.15213632583618164,-0.37290049464490943,0.9043555774485409,-0.8247950380271136,left,-0.004568696022033691,0.3420851861541467,2.244655826333165,-8.961586245813965,0.2031121786301591,0.093925341963768,0.016675710678100586,-3.2896623071491717,0.044737011194229126
1773148990813073400,4.432073486328125,0.25323553514896796,-0.031028352677822113,0.04593348896773858,0.18243718147277832,-0.3739942162509378,0.9034141227971373,-0.8289483861464679,left,-0.00380551815032959,0.3419447127095989,2.314688855241239,-8.94423062186539,0.20460028044754433,0.06836018711328506,0.01621966063976288,-3.2883646685540673,0.08398690819740295
1773148990853073400,4.472073486328125,0.2568893625672802,0.09388043731451035,0.047818248657941466,0.16289685666561127,-0.3710263263478243,0.9042564323680956,-0.8235272514120286,left,-0.016007304191589355,0.343510592630248,2.346042901664972,-8.930722320994734,0.2058477567164104,0.03499516844749451,0.013689160346984863,-3.3028274936705824,0.07857471704483032
1773148990893073400,4.512073486328125,0.2605361576629655,0.2187892198562622,0.049702326231991105,0.1433565318584442,-0.3680529913947859,0.9050854518848501,-0.8181090646010487,left,-0.028226852416992188,0.3450949786869502,2.3772448262669146,-8.91703983260095,0.20709217939051555,0.0016301460564136505,0.011174127459526062,-3.3174531081333756,0.07317915558815002
1773148990933073400,4.552073486328125,0.2641757680440749,0.34369799494743347,0.05158564406064806,0.12381619215011597,-0.36507421139182183,0.9059011813474016,-0.8126937520110492,left,-0.040464043617248535,0.3466979366969612,2.4082918525680896,-8.90318374120593,0.20833356879213077,-0.03173487260937691,0.008674919605255127,-3.332241804203391,0.06780019402503967
1773148990973073400,4.592073486328125,0.26145899054245536,0.5730212926864624,0.052489621246339206,0.0778743177652359,-0.356369619779892,0.9095757521027609,-0.7928196952741011,left,-0.02274543046951294,0.3463368635306223,2.3844059500679373,-8.910855591008067,0.20716574511394953,-0.12556257843971252,-0.014764457941055298,-3.3289114907369015,0.07194489240646362
1773148991013073400,4.632073486328125,0.2532778440173628,0.7957996129989624,0.05231553843878591,0.04176481440663338,-0.34385564227452253,0.9151432956868483,-0.7630381940166984,left,-0.02619260549545288,0.34378763217016184,2.3135447997726497,-8.938250378412008,0.2038115163363464,-0.2711741626262665,-0.01127074658870697,-3.305385653720796,0.11204788088798523
1773148991053073400,4.672073486328125,0.2381631378614535,1.3755731582641602,0.05134003522843623,0.07985329627990723,-0.324187828511888,0.9238122540539246,-0.7157191616766541,left,-0.07626086473464966,0.33718017579130183,2.183291549310088,-8.993224662137031,0.19707196720164152,-0.5235790014266968,0.010043606162071228,-3.244308376945555,0.21889059245586395
1773148991093073400,4.712073486328125,0.22201947162255115,2.434866189956665,0.05319751342256816,0.5172787308692932,-0.28754491185922804,0.9374517346412449,-0.6322943581534436,left,-0.1181144118309021,0.3294482804943506,2.0432924192503092,-9.051496233841776,0.18887072508366118,-0.7246412634849548,0.01589241623878479,-3.1726576837077736,0.2899922728538513
1773148991133073400,4.752073486328125,0.20976723914558162,3.111349105834961,0.062298960341479886,0.7418242692947388,-0.21167279066633957,0.9579812809781838,-0.4700612257355481,left,-0.08234751224517822,0.33074815729179824,1.9313802966423332,-9.071809538552165,0.18326282708799135,-0.756803035736084,-0.0446692556142807,-3.1847169548138976,0.20752188563346863
1773148991173073400,4.792073486328125,0.19745245744372839,3.7878317832946777,0.07100841019308564,0.9663698077201843,-0.1344687067702884,0.9724829116309276,-0.3078035883911462,left,-0.04610943794250488,0.33015863904055964,1.8198872762292622,-9.096745242366195,0.1765017758346464,-0.7889648079872131,-0.10527362674474716,-3.1792484602749345,0.1232641190290451
1773148991213073400,4.832073486328125,0.1854063030263579,4.4643144607543945,0.0792710484402175,1.1909153461456299,-0.05641862557738612,0.9808653399827708,-0.14565075584165743,left,-0.009463906288146973,0.3276956234148949,1.7116154098197818,-9.125676153296231,0.1686301094852001,-0.8211265206336975,-0.1662064790725708,-3.156389562734961,0.037233054637908936
1773148991253073400,4.872073486328125,0.17055016690355818,4.094130516052246,0.08727616487835325,1.0153411626815796,0.03363850602708424,0.9824799788673396,0.040116286271590244,left,0.029036402702331543,0.32849255695390994,1.575431746394932,-9.14761442885995,0.16119660605013297,-0.6488879323005676,-0.16472530364990234,-3.1637878562927244,-0.0840197503566742
1773148991293073400,4.912073486328125,0.16326061380817167,3.231598377227783,0.0932509097274369,0.8383265733718872,0.09164158803559162,0.9788312101993227,0.1593419691674383,left,0.025977730751037598,0.33138845793658794,1.507212927301973,-9.149776575329899,0.1574658273597412,-0.46233442425727844,-0.13441886007785797,-3.1906551126912235,-0.09947514533996582
1773148991333073400,4.952073486328125,0.1556521027049566,2.3690662384033203,0.0989060557697825,0.6613119840621948,0.1493306294798848,0.9718277132804317,0.27868888755875165,left,0.023178458213806152,0.3334431115334017,1.4365344400972127,-9.154483730107545,0.15319537573026037,-0.27578091621398926,-0.10386157035827637,-3.2097014662057157,-0.11572811007499695
1773148991373073400,4.992073486328125,0.1478344555026618,1.5065338611602783,0.10422220986877796,0.48429739475250244,0.20650790500852306,0.9614934933357865,0.3981160923922824,left,0.020632147789001465,0.3346265197567703,1.3643642530299722,-9.161671011263131,0.14839986432959582,-0.08922739326953888,-0.07315218448638916,-3.220665051029622,-0.1328052282333374
1773148991413073400,5.032073486328125,0.14873797080497136,0.8019092679023743,0.10861267985992207,0.34472453594207764,0.2296569088297458,0.95583960134256,0.446110185681377,left,0.020745813846588135,0.3387920106816473,1.3706414336033164,-9.147087190115451,0.14775528577391572,-0.06894627213478088,-0.05865734815597534,-3.259220699395239,-0.07775542140007019
1773148991453073200,5.0720732421875,0.14993649999102152,0.36564651131629944,0.11021202755565504,0.15985631942749023,0.23635918351051605,0.9541546006822377,0.45995910591264383,left,0.02903968095779419,0.33885831960716783,1.3815712622880936,-9.14522431885302,0.14688987540694762,-0.0078178271651268,-0.05275660753250122,-3.2598341551184653,-0.07914245128631592
1773148991493073400,5.112073486328125,0.1511339664150413,-0.07061624526977539,0.11180574969945614,-0.025011897087097168,0.24304943459476888,0.952420895721516,0.473808408584563,left,0.03732717037200928,0.3389403033756171,1.3924810710981488,-9.143298903748393,0.14601696786419524,0.05331061780452728,-0.046853840351104736,-3.260592280009389,-0.08051466941833496
1773148991533073400,5.152073486328125,0.14989505549997895,-0.3115638196468353,0.11087096073096903,-0.14328959584236145,0.2387383556563496,0.953305034037455,0.4648508786156824,left,-0.009605646133422852,0.3418461491372784,1.3797316257707775,-9.135610102811455,0.14805790212437184,0.12347047030925751,-0.03959561884403229,-3.287453983449936,-0.061219871044158936
1773148991573073400,5.192073486328125,0.1488508276531825,-0.4398392140865326,0.10946207507696,-0.1433541625738144,0.23080653102774862,0.9550236851332761,0.4482809467549426,left,-0.032983601093292236,0.34495592470411446,1.3686683799646795,-9.12689137430489,0.15058583339999648,0.061138782650232315,-0.03484061360359192,-3.3161697903245684,-0.03084436058998108
1773148991613073400,5.232073486328125,0.14918635453919876,-0.51680588722229,0.10816920243334384,-0.1515437811613083,0.22120879383546851,0.9572180247078493,0.42812612427354013,left,0.0055481791496276855,0.34566517085967047,1.3713807076632976,-9.124103789412974,0.15198555252836485,0.033550605177879333,-0.03560205549001694,-3.3227146819233893,-0.031796813011169434
1773148991653073400,5.272073486328125,0.150590429048955,-0.6754553914070129,0.10681101140999134,-0.1410539150238037,0.20935937126697593,0.9599531877362883,0.40323604836418836,left,0.023915767669677734,0.34422846427680803,1.3849050828859208,-9.126879683867097,0.15247969103325298,0.03684408217668533,-0.003491610288619995,-3.3094553873777386,-0.043986111879348755
1773148991693073200,5.3120732421875,0.1541844695357631,-0.7473000884056091,0.10600787635710111,-0.11773702502250671,0.19509761532727515,0.963048845361679,0.3731138510034908,left,0.015006780624389648,0.34157110801506263,1.4190440838530658,-9.130500796973704,0.1524346781599001,0.019421713426709175,0.013193950057029724,-3.2849124822735782,-0.033697307109832764
1773148991733073400,5.352073486328125,0.1610392576255825,-0.739826500415802,0.10662023661526793,-0.12099100649356842,0.17903908241026287,0.9659746773489839,0.3387714585687865,left,0.007271111011505127,0.3407063044715457,1.4820527670823036,-9.123360277569294,0.15319992802034224,0.051111698150634766,0.025960788130760193,-3.2769206067368386,-0.014956176280975342
1773148991773073400,5.392073486328125,0.16785616214224675,-0.7323529124259949,0.1072040801885231,-0.12424498796463013,0.16293259853394573,0.9686422126504662,0.30444785000137325,left,-0.000431060791015625,0.3396202242472561,1.5448046990714965,-9.116548843988776,0.15392419932033094,0.0828016847372055,0.03875380754470825,-3.2668799819767473,0.003576040267944336
1773148991813073400,5.432073486328125,0.1732679816676163,-0.574996292591095,0.10755506122170486,-0.08381794393062592,0.1496667111899125,0.9706982083661312,0.2763281315742767,left,0.008008778095245361,0.33794853895874066,1.5950582378849387,-9.113421651878953,0.15419702032054933,0.038920026272535324,0.032441601157188416,-3.2514182089507577,0.007347971200942993
1773148991853073400,5.472073486328125,0.17589975374298583,-0.43554893136024475,0.1070698072066212,-0.13068528473377228,0.1394941195404937,0.9722876373960682,0.25511319726483633,left,0.0066072940826416016,0.33572151455665183,1.620300231169164,-9.11629866861999,0.15405897469589203,0.01157628744840622,0.05055311322212219,-3.2308059212937947,-0.0037067830562591553
1773148991893073400,5.512073486328125,0.17740589476340177,-0.331278532743454,0.10676355677961999,-0.09792864322662354,0.13336932070608248,0.9731686458127217,0.24235155466939223,left,0.003975212574005127,0.3346858210703384,1.6346183871179818,-9.1171368730098,0.1541328294101291,-0.0013752654194831848,0.06254304945468903,-3.2212145016059277,-0.0051965415477752686
1773148991933073400,5.552073486328125,0.17889734246478853,-0.2270081341266632,0.10645319528093371,-0.06517200917005539,0.1272394291469732,0.9740122815606042,0.22959626430672275,left,0.0013481378555297852,0.33363203743951725,1.648817446731776,-9.118024177238345,0.15420075434625205,-0.014326819218695164,0.07454513013362885,-3.2114521092653274,-0.006703674793243408
1773148991973073400,5.592073486328125,0.1825687777499788,-0.23241452872753143,0.10736433978847422,0.046571820974349976,0.12244808246887554,0.974614951936199,0.21931054117647206,left,0.017366349697113037,0.33182766707222805,1.6833318568825721,-9.117592800083756,0.1536393531625376,0.013526753522455692,0.0683899074792862,-3.194727768957615,-0.029775947332382202
1773148992013073400,5.632073486328125,0.18865930488864543,-0.20841139554977417,0.10957006106308305,0.03775569424033165,0.11815603661207197,0.9748981309541557,0.20956802578373204,left,0.0261685848236084,0.3315105456641526,1.7390211570091545,-9.10816563104689,0.15364629416870026,0.014588192105293274,0.04885639250278473,-3.1917873315915464,-0.04083886742591858
1773148992053073400,5.672073486328125,0.1934508958825249,-0.1588851362466812,0.11123489886984957,-0.04700830206274986,0.11433913773950219,0.9751585902864306,0.20100859058866677,left,0.03987264633178711,0.33119274140162236,1.7828385252952574,-9.100723498347401,0.1536848363128741,-0.015856416895985603,0.027720943093299866,-3.1888401722237467,-0.03189504146575928
1773148992093073400,5.712073486328125,0.19178090703888112,-0.06789860874414444,0.11000024618761711,-0.14154167473316193,0.11180238481420053,0.9756267682892082,0.19616482010953445,left,0.021182358264923096,0.3300096373409327,1.768355826434493,-9.107385294324159,0.15346830147438265,-0.04225277900695801,0.031220972537994385,-3.177866066005826,-0.04233771562576294
1773148992133073400,5.752073486328125,0.18761425314210523,-0.02034131810069084,0.10782370797113568,-0.14597569406032562,0.11061337805376478,0.9759691085251754,0.19439950499129016,left,0.002049088478088379,0.3298085740247013,1.7305124179914593,-9.115302058798074,0.15369771113350308,-0.02070443332195282,0.02067643404006958,-3.1760008566558358,-0.05614113807678223
1773148992173073400,5.792073486328125,0.1845521139680219,0.0019711684435606003,0.10630769010308555,-0.07630313187837601,0.11016316445629808,0.9761280882803557,0.19393206857590758,left,0.007058918476104736,0.33016730810575495,1.7023827404417096,-9.119437551167607,0.1540673426607231,-0.02749193087220192,0.018748685717582703,-3.1793288320347664,-0.0435713529586792
1773148992213073400,5.832073486328125,0.18270875507381526,-0.013974234461784363,0.10535873137109052,-0.04754037782549858,0.10991877261694318,0.9763159300952302,0.1937953686992119,left,0.017644047737121582,0.3292015311504761,1.686126602167636,-9.125575615531206,0.153703184446365,-0.09771697223186493,0.0160834938287735,-3.1703678192049263,-0.02746567130088806
1773148992253073400,5.872073486328125,0.18055312779039884,0.023963015526533127,0.10417927360301468,-0.06197747215628624,0.110035454051574,0.9767964095727686,0.19474206831935928,left,0.026539266109466553,0.32426185027428983,1.6692432719059287,-9.144483729618788,0.15135311747749253,-0.20469710230827332,0.00040821731090545654,-3.124488988344371,-0.001952439546585083
1773148992293073400,5.912073486328125,0.1769037215271333,0.030252208933234215,0.10230163995103567,-0.07128527760505676,0.11088875957732021,0.9774534329073584,0.19760163306888257,left,0.031033039093017578,0.31674856039472093,1.6399452812291682,-9.173364956188202,0.14772587010774868,-0.23500654101371765,0.0062075406312942505,-3.054561173376441,-0.015034139156341553
1773148992333073400,5.952073486328125,0.17419656224132096,0.009389685466885567,0.10078410583441245,-0.04201024770736694,0.11160425836221029,0.9781803754743995,0.20011703355588284,left,0.043125927448272705,0.30778426645749307,1.6197864364281296,-9.204369166260957,0.14335387836230526,-0.2549274265766144,-0.006863147020339966,-2.9709029392197728,-0.020893245935440063
1773148992373073400,5.992073486328125,0.17234176247230043,-0.02865566499531269,0.09951715437589147,0.0014717355370521545,0.1120448065680137,0.9790786867805216,0.20211664311951025,left,0.028866171836853027,0.296149956036631,1.6085301522679627,-9.240786049032211,0.13764939481288557,-0.38829922676086426,-0.006586164236068726,-2.8619723166406152,-0.005385935306549072
1773148992413073400,6.032073486328125,0.17252410192383122,-0.06246645748615265,0.0988770199684515,0.05295531451702118,0.11205522158987445,0.9803992365713152,0.2034560740405332,left,0.029320180416107178,0.2774540646999717,1.6191187662996351,-9.29158743098676,0.12839085774791664,-0.58115553855896,-0.0017443448305130005,-2.686119782911241,0.009716063737869263
1773148992453073200,6.0720732421875,0.17254610221523442,0.051678240299224854,0.09809006616065455,0.0023540928959846497,0.11299862390366266,0.9817853502289169,0.20702496245530247,left,0.012444853782653809,0.2548054217593419,1.6293521371528505,-9.349097370669245,0.11707703348583307,-0.6150010228157043,0.00438670814037323,-2.471836103978753,0.05018217861652374
1773148992493073400,6.112073486328125,0.17560599688356274,0.19615475833415985,0.09906708925546047,0.12884658575057983,0.11841785086848178,0.9825623910267666,0.21963009535656716,left,-0.002128303050994873,0.22905857223003961,1.6685194876760243,-9.403627417758107,0.10360571721322248,-0.6417770385742188,0.007735788822174072,-2.2267058897532523,0.09283082187175751
1773148992533073400,6.152073486328125,0.1789797299093106,0.34063130617141724,0.10002307320666846,0.2553390860557556,0.12381183843544918,0.9831306111581157,0.23224435727645057,left,-0.01741480827331543,0.2033511745894288,1.7098630131945014,-9.4511619068712,0.09011239204881435,-0.6685531139373779,0.010862976312637329,-1.9804785279408097,0.13536760210990906
1773148992573073400,6.192073486328125,0.18413974822698598,0.6953688859939575,0.10233886270678691,0.24645908176898956,0.13538888711540858,0.9824453621797117,0.25714605403290747,left,-0.044076621532440186,0.1808676325026196,1.766316283430904,-9.483598195573688,0.077445544096174,-0.6241738796234131,-0.01486988365650177,-1.7640509688474237,0.21408675611019135
1773148992613073400,6.232073486328125,0.18690419527360919,1.763838291168213,0.1046301004160687,0.41570407152175903,0.1581219111815726,0.9794417752705047,0.3042606866853432,left,-0.1514495611190796,0.16880911240705798,1.7963485797315835,-9.498891041773557,0.06887590933025645,-0.32181623578071594,-0.026884928345680237,-1.6476007644183932,0.4238269329071045
1773148992653073400,6.272073486328125,0.20598237776870104,3.2380614280700684,0.11839972670409543,1.3824706077575684,0.2103393096600041,0.968143434252532,0.40924291460814033,left,-0.192011296749115,0.17975563153792945,1.9734251022979616,-9.4446725448519,0.06661250264764164,-0.1580994427204132,-0.0392613410949707,-1.7533228002145886,0.31043103337287903
1773148992693073200,6.3120732421875,0.24131800826563532,3.8041529655456543,0.1431480480874803,1.5532652139663696,0.2810149951077029,0.9466628033317156,0.551929164792433,left,-0.029621899127960205,0.2070739366654201,2.293551520796865,-9.31905937528014,0.0660973129098977,-0.03204949200153351,-0.14637356996536255,-2.016220141799003,0.1602068692445755
1773148992733073400,6.352073486328125,0.26868133663579036,3.718179225921631,0.16644891430294806,1.4611222743988037,0.35388510951714564,0.9178563119089153,0.702744393536043,left,-0.007505834102630615,0.24474740488814442,2.5256948276773095,-9.173038208451867,0.06782307805556165,-0.004084177315235138,-0.16071262955665588,-2.3762618065789343,0.04148240387439728
1773148992773073400,6.392073486328125,0.2852062485050356,3.3179967403411865,0.18592781267838226,1.1566975116729736,0.4197662541399612,0.8855718582811996,0.8440740089738364,left,0.024960219860076904,0.28504621269330266,2.6478178170457483,-9.030770841199159,0.07063760859035602,0.07977351546287537,-0.14002107083797455,-2.757647726552188,-0.016382962465286255
1773148992813073400,6.432073486328125,0.290664440185042,2.552116632461548,0.19987726321546337,0.8352129459381104,0.4724447343758443,0.8552021623823242,0.9620582382220142,left,-0.006351649761199951,0.3208912333002003,2.667014684946835,-8.915711214345693,0.07398864870799676,0.03361476957798004,-0.12831784784793854,-3.0931393258348105,-0.07045751810073853
1773148992853073400,6.472073486328125,0.28968271037336124,1.657128930091858,0.20812885573235818,0.44868507981300354,0.5087764298900944,0.8318831078486124,1.0469419902851056,left,0.02657216787338257,0.3453061879113178,2.635898831193149,-8.843302396216988,0.07615414579808287,0.00851568952202797,-0.12945373356342316,-3.3194019041135907,-0.11675643920898438
1773148992893073400,6.512073486328125,0.2795465393346439,1.0259313583374023,0.2102195997196867,0.026229143142700195,0.5305456633965862,0.8172003949510729,1.1000495955775809,left,0.014787554740905762,0.3628704902362944,2.5296488260000944,-8.812160238978267,0.08070056487505163,0.13094905018806458,-0.07977139949798584,-3.480961124074459,-0.08514976501464844
1773148992933073400,6.552073486328125,0.2664719353274328,0.648120105266571,0.21019767184135263,-0.04906546324491501,0.5432186288093589,0.8081292948581913,1.1322627067189086,left,-0.03044968843460083,0.37879528123524575,2.3993175418652593,-8.78988410976231,0.08750755575284803,0.19193099439144135,-0.04667259752750397,-3.62651321208626,-0.05735057592391968
1773148992973073400,6.592073486328125,0.256656578586321,0.4357835352420807,0.21019291458647507,-0.003030329942703247,0.55111524122842,0.8021495130683126,1.1529015188477976,left,-0.04395931959152222,0.3907316789971842,2.301774574740976,-8.770514223381877,0.09299015317241628,0.12778201699256897,-0.021769702434539795,-3.73501011942327,-0.03347167372703552
1773148993013073400,6.632073486328125,0.25072867652653497,0.28423136472702026,0.21001805710039054,-0.046968985348939896,0.5563393387845066,0.7982630064698883,1.1666763309070387,left,-0.022710025310516357,0.39677147086002396,2.2441056451044976,-8.761991309708357,0.09568277021964952,0.0018066167831420898,-0.03276129066944122,-3.789707632033527,-0.0077669620513916016
1773148993053073400,6.672073486328125,0.24479984970383412,0.2364683896303177,0.20883240213031024,-0.0783819705247879,0.5602351061946238,0.7956494617794921,1.177195366939067,left,0.033819615840911865,0.3993579920931816,2.1897351724915204,-8.76560307046473,0.09730192448026927,0.03899883106350899,-0.011338502168655396,-3.8130896766647693,0.004001826047897339
1773148993093073400,6.712073486328125,0.23457228625946216,0.19360700249671936,0.20677529883774215,-0.17539119720458984,0.5632050484895286,0.7935349013662261,1.1860513298047275,left,0.012393951416015625,0.4053560941421102,2.0946176789484916,-8.76513662199676,0.10171716308096482,0.13697022199630737,0.00784274935722351,-3.8672134810402987,-0.015412181615829468
1773148993133073400,6.752073486328125,0.2245957301765029,0.20556823909282684,0.20531809505463475,-0.15246884524822235,0.5653360279003742,0.7916810813470954,1.1929506774193646,left,0.0032041072845458984,0.41348343514209673,2.0000030203610657,-8.754666665908694,0.10714807096678146,0.16997337341308594,0.020550698041915894,-3.9403278170898552,0.0041883885860443115
1773148993173073400,6.792073486328125,0.21590367981961844,0.18375879526138306,0.20430189723628214,-0.1404143124818802,0.5673049399628108,0.7898420304484429,1.199403560425644,left,-0.0007254481315612793,0.4213016444906165,1.9171740766353904,-8.741361194133757,0.11213993846993354,0.11940242350101471,0.019290581345558167,-4.010416083316505,0.01939484477043152
1773148993213073400,6.832073486328125,0.20986405550392312,0.11476779729127884,0.20380350878625433,-0.10899527370929718,0.5689657167544557,0.7882559512632602,1.204732126902215,left,0.00985044240951538,0.42725310420385954,1.8593395811736582,-8.729281464761495,0.11573523767105617,0.14424556493759155,0.02683757245540619,-4.06360494492948,-0.0068930089473724365
1773148993253073400,6.872073486328125,0.20659279898436136,0.06967289745807648,0.20390218057062148,-0.04633975028991699,0.5694519621003054,0.7874813716777165,1.2066745306307491,left,-0.007791996002197266,0.4320347864379889,1.8267672450013457,-8.71619986487031,0.11841200467653312,0.09568086266517639,0.035530537366867065,-4.1062355876490475,0.008779376745223999
1773148993293073400,6.912073486328125,0.20340124000465076,0.11552271246910095,0.2042261602677481,-0.07449831068515778,0.5705623158434863,0.7861937207825829,1.2102402562329901,left,0.007002413272857666,0.43715431759293694,1.7946696867339311,-8.701282866245508,0.12103607615692909,0.10696658492088318,0.04486759006977081,-4.151773642247915,0.004702925682067871
1773148993333073400,6.952073486328125,0.20091794968382182,0.045617371797561646,0.2042017375727564,0.004868835210800171,0.5714138813755577,0.7853295106153569,1.2129510130864303,left,-0.010313808917999268,0.44009348042833346,1.7706133961029349,-8.693717399427294,0.12265973853873884,0.0161440372467041,0.04721696674823761,-4.177868745230138,0.011005103588104248
1773148993373073400,6.992073486328125,0.199262754834564,0.018332645297050476,0.20381884779086595,-0.11340710520744324,0.5715537155418889,0.7852101364358979,1.2136136932089903,left,0.01152801513671875,0.4409382582128418,1.755521917694062,-8.693173794069885,0.12340730184135283,0.030662938952445984,0.019136473536491394,-4.185362023594975,0.023363053798675537
1773148993413073400,7.032073486328125,0.1950721056565579,-0.008140703663229942,0.20257326425599378,-0.12849581241607666,0.5709994981235667,0.7856299631562539,1.212961114211566,left,-0.009835243225097656,0.44258317630542754,1.717739737918973,-8.6936887578547,0.12533681199217467,0.04565737396478653,0.023703649640083313,-4.199944675698876,0.016284435987472534
1773148993453073200,7.0720732421875,0.19122052848590623,-0.05664186179637909,0.20139134795099997,-0.1455722600221634,0.570185640052449,0.7862245176386448,1.2116027080820277,left,0.0219038724899292,0.44414119657994205,1.682997071970254,-8.693805077710747,0.127203898362856,0.07500041276216507,0.014470964670181274,-4.213746406558156,-0.019764095544815063
1773148993493073400,7.112073486328125,0.1870870300998848,-0.14996269345283508,0.2000383290112376,-0.21766826510429382,0.567396333274313,0.7881227609700417,1.205349077188234,left,0.003865063190460205,0.44667096638963627,1.6450589709810912,-8.690185718169808,0.1300327132376093,0.09999222308397293,0.002703726291656494,-4.236134471715986,-0.004154473543167114
1773148993533073400,7.152073486328125,0.18237113474002445,-0.2195388674736023,0.1981175485191011,-0.21949449181556702,0.5638325209303824,0.7906829753311038,1.1972200651942135,left,-0.01847285032272339,0.4484570319765521,1.6026840565882623,-8.690392638918757,0.13290119347299933,0.04527182877063751,0.011171400547027588,-4.25192474604398,-0.01581820845603943
1773148993573073400,7.192073486328125,0.17933795839862274,-0.39142608642578125,0.19533997433530553,-0.25764110684394836,0.5581520245133496,0.795183318959425,1.183246886956576,left,0.005193352699279785,0.4460237965761433,1.5781579564884305,-8.705368089732527,0.13413444100283514,-0.057578183710575104,-0.0039035677909851074,-4.230409664328396,0.008017182350158691
1773148993613073400,7.232073486328125,0.17474148445511115,-0.34427258372306824,0.19092593874763963,-0.28268003463745117,0.5515169015627874,0.8007804498077964,1.1670368221994634,left,0.0007000565528869629,0.44031724797471816,1.5422994382522999,-8.736161287403107,0.1346365973213878,-0.06523586064577103,0.00801818072795868,-4.179853781567513,0.027909576892852783
1773148993653073400,7.272073486328125,0.1705499234090469,-0.2800905108451843,0.18745368977648297,-0.18983668088912964,0.5459846394155982,0.8052130984906132,1.1537552562693847,left,-0.022180616855621338,0.4368692975826098,1.5081049077056348,-8.756700217562914,0.1356232307110834,-0.032766081392765045,0.004059880971908569,-4.149241493421793,0.022183865308761597
1773148993693073200,7.3120732421875,0.16828006728396172,-0.2318359762430191,0.1857868508596675,-0.15035708248615265,0.5428054966814346,0.8075862155787727,1.1461985361296532,left,-0.011791527271270752,0.4359448390352576,1.4888663926199077,-8.763878730890154,0.13656424997331504,0.0144880972802639,-0.010156095027923584,-4.141025161479413,-0.008682847023010254
1773148993733073400,7.352073486328125,0.16600358675786892,-0.18358144164085388,0.18411643591056737,-0.11087748408317566,0.5396159028596226,0.8099437840115038,1.138643046731337,left,-0.001413106918334961,0.43503610861683406,1.4695330388575791,-8.770953199321031,0.1375026500118652,0.061742279678583145,-0.024362370371818542,-4.132945315398276,-0.03953564167022705
1773148993773073400,7.392073486328125,0.16398575164153867,-0.2757360339164734,0.18282922115649786,-0.20196878910064697,0.535102434566964,0.812887106181084,1.1279259482547241,left,0.012166857719421387,0.43611449420541887,1.4511032098062335,-8.7694983243376,0.13947577493997346,0.0947987288236618,-0.04878363758325577,-4.142533227954805,-0.026835888624191284
1773148993813073400,7.432073486328125,0.16084581672457376,-0.4861564040184021,0.18063573769848051,-0.3017899990081787,0.5283313139970822,0.8173359743241237,1.1119042097289733,left,0.0084037184715271,0.4369677846340612,1.4229938443921506,-8.770518899556993,0.1421221402544085,0.02799393981695175,-0.04764372110366821,-4.150116522690653,-0.032010436058044434
1773148993853073400,7.472073486328125,0.15737051178582853,-0.6028488874435425,0.17594319993238328,-0.3394867777824402,0.5181291559041148,0.8247647203381798,1.087312573168465,left,-0.00937122106552124,0.4308351727636983,1.3964676565162837,-8.80038270742297,0.14265110476546677,-0.19116434454917908,-0.02086503803730011,-4.095549358461797,0.023815661668777466
1773148993893073400,7.512073486328125,0.1597659791074459,-0.6499558687210083,0.17262889988312907,-0.011713117361068726,0.508620771235158,0.8318835790881798,1.0634077657285814,left,0.008406221866607666,0.4200241062690042,1.4245055641293525,-8.840210859942436,0.1395490796747846,-0.1272411346435547,0.006038695573806763,-3.9989799125447867,-0.09878167510032654
1773148993933073400,7.552073486328125,0.17567290948343886,-0.957438588142395,0.17410092844240344,0.17121349275112152,0.49642365669090066,0.8399830608219073,1.0311608665578518,left,0.04995167255401611,0.40741794389895597,1.5736260121472179,-8.865368097552656,0.13296952985796054,-0.3244697153568268,-0.05058799684047699,-3.885786371824145,-0.06943002343177795
1773148993973073400,7.592073486328125,0.20435101367569405,-1.8486076593399048,0.17598156309016866,0.13403862714767456,0.4754242986749501,0.8539080511618646,0.9769114308787676,left,0.09490233659744263,0.37714705121238074,1.850215340606123,-8.927722554656862,0.11765769636742023,-0.7221256494522095,-0.14833013713359833,-3.6114904149994254,-0.15210917592048645
1773148994013073400,7.632073486328125,0.23747191818870353,-2.7905349731445312,0.17367829772270885,0.12010027468204498,0.43845950416567403,0.8769192614360638,0.8887444911625713,left,0.12876594066619873,0.32041759197385816,2.189561423359811,-9.046322046074271,0.09274578220285594,-1.0983079671859741,-0.22286275029182434,-3.088731154003739,-0.20985478162765503
1773148994053073400,7.672073486328125,0.28013846312431145,-3.560285806655884,0.17321235435859544,0.4360453486442566,0.38561770386865724,0.9043901397653596,0.7719446861199369,left,0.21454179286956787,0.24099366530206753,2.63307120655179,-9.152007110860943,0.058094503909875445,-1.266382098197937,-0.3194015324115753,-2.340530567984283,-0.2719593644142151
1773148994093073400,7.712073486328125,0.32663405123592815,-3.8062851428985596,0.17674551025813617,0.6398026347160339,0.3223122147595446,0.9298221522846535,0.643083347905556,left,0.373982310295105,0.14703009311215623,3.112581400668621,-9.18793591785431,0.017512190857043475,-1.3613048791885376,-0.4093055725097656,-1.4366833470486104,-0.1819099336862564
1773148994133073400,7.752073486328125,0.3633807640271244,-3.586454153060913,0.17970706254442456,0.5184013247489929,0.2567480113600247,0.9492340259302648,0.520852719092744,left,0.6256632804870605,0.04062278597573805,3.4827632050603627,-9.158719175720215,-0.027215231573698376,-1.5508366823196411,-0.4918261468410492,-0.39826402607057243,0.0315745510160923
1773148994173073400,7.792073486328125,0.3654836068631776,-2.769345283508301,0.1719010402682725,-0.38131147623062134,0.2007937349155412,0.9622542678342436,0.4217321562010566,left,0.5115281939506531,-0.055698259807386526,3.499471178755164,-9.144728059768676,-0.06479720252530183,-1.1696605682373047,-0.3857343792915344,0.5459308046814054,0.024287384003400803
1773148994213073400,7.832073486328125,0.34388448069959643,-2.0925159454345703,0.15705930076843744,-0.5054525136947632,0.15860604586253954,0.9703339204147333,0.3467940159937941,left,0.2434859275817871,-0.13082067967225341,3.278027691195905,-9.153601686576009,-0.09289016857599461,-0.9541189074516296,-0.21758738160133362,1.279256258456409,0.0018396824598312378
1773148994253073400,7.872073486328125,0.3179583118056547,-1.4373180866241455,0.1425198877630221,-0.20602044463157654,0.128481251250855,0.9747563519565702,0.29217495754681316,left,-0.04432690143585205,-0.1870073050814097,3.0123791512072087,-9.152689832428097,-0.11415236285326769,-0.8482714891433716,-0.05465906858444214,1.823244477702677,-0.00808534026145935
1773148994293073400,7.912073486328125,0.3012787997478361,-1.0033628940582275,0.13314057502326204,-0.2970006763935089,0.11186387519819273,0.9760674727665731,0.2628311658402142,left,-0.09854137897491455,-0.2270782622133118,2.8353356541275976,-9.12452347612977,-0.1305847213760529,-0.7568638920783997,-0.02064576745033264,2.2077881310544907,-0.006029650568962097
1773148994333073400,7.952073486328125,0.2832199981022386,-0.5694078207015991,0.12367659636879218,-0.3879808783531189,0.09517544939768811,0.9767579458352156,0.23250318783001506,left,-0.1540970802307129,-0.26664450392676536,2.643610136222839,-9.083203623747826,-0.14693403017168763,-0.6654562950134277,0.014864712953567505,2.5840128688722848,-0.0031256675720214844
1773148994373073400,7.992073486328125,0.2705516858524297,-0.43437156081199646,0.11630058390316816,0.04280737042427063,0.08758191967205009,0.9760449289030696,0.22007796112890995,left,-0.295529305934906,-0.29970586728708015,2.5041221705555916,-9.028674161180854,-0.16167844615406574,-0.7429535388946533,0.03575962781906128,2.8953073077484963,-0.0002467632293701172
1773148994413073400,8.032073486328125,0.26322155302253386,-0.25872382521629333,0.11206206060213682,-0.21377497911453247,0.08252478669087894,0.9753280689045127,0.2117157537814457,left,-0.193312406539917,-0.321282737207094,2.4210531344637274,-8.984365648376942,-0.17136783356660798,-0.3185558617115021,-0.0218934565782547,3.0967823585122822,-0.018002092838287354
1773148994453073200,8.0720732421875,0.2575654437216454,-0.10093924403190613,0.10897114417214482,-0.0566755086183548,0.07977610181305632,0.974935223452553,0.20687932584540492,left,-0.1432710886001587,-0.33352260442740306,2.360365587658435,-8.96058846694827,-0.17681181367770524,-0.07058484852313995,-0.025669798254966736,3.210437671525776,-0.04829558730125427
1773148994493073400,8.112073486328125,0.25376743919412376,-0.06694598495960236,0.10736943381938681,-0.08554437756538391,0.07886484868532498,0.9752688198263275,0.20427447348333164,left,-0.2409219741821289,-0.33319275744340476,2.326582122130692,-8.970513064113259,-0.17636019767576644,0.058688804507255554,-0.011605188250541687,3.20738091430366,-0.1598929762840271
1773148994533073400,8.152073486328124,0.24948795360783427,-0.057540494948625565,0.10613881259756848,-0.15698456764221191,0.07725562637624594,0.9762169291711139,0.19921213180336028,left,-0.25446873903274536,-0.3262089415904971,2.293646505603939,-9.001875001582503,-0.17253022225258408,0.39206063747406006,0.013815969228744507,3.142581986656785,-0.022240668535232544
1773148994573073400,8.192073486328125,0.23771138254032595,-0.15359243750572205,0.10203673027993927,-0.346543550491333,0.0747734130691254,0.9782913162627171,0.1899920601484665,left,-0.29865628480911255,-0.3108879454363393,2.1985592610687017,-9.073993312332034,-0.1641450762887723,0.549134373664856,0.05273135006427765,2.9998946404263376,0.017183661460876465
1773148994613073400,8.232073486328124,0.22101308012990764,-0.21495109796524048,0.09578746308223272,-0.2978880703449249,0.07107805121785948,0.9807785148857381,0.17748683857205502,left,-0.2813042998313904,-0.29348647532760097,2.0578728793971237,-9.15898980935514,-0.1544222991414585,0.35459625720977783,0.06261065602302551,2.8369790374204515,0.09567469358444214
1773148994653073400,8.272073486328125,0.19860540229133658,-0.024298369884490967,0.08667138606723354,-0.4279903769493103,0.06898146129023497,0.9836369003861085,0.1671793972572919,left,-0.32358235120773315,-0.2708623984250291,1.8643302290678023,-9.263360868933797,-0.14208491442163096,0.6496171355247498,0.11801360547542572,2.623891582535207,0.23858919739723206
1773148994693073200,8.3120732421875,0.1851661022365161,0.09316562116146088,0.08118871662908098,-0.34163859486579895,0.07094506501848093,0.9856218962682799,0.16680416308635912,left,-0.1921941041946411,-0.24744697068821297,1.7505062814891337,-9.345416636329889,-0.13009520809936567,0.5766956806182861,0.10577386617660522,2.4019376612357792,0.24444521963596344
1773148994733073400,8.352073486328125,0.17181118695097455,0.2106296271085739,0.07569129201635569,-0.2552867829799652,0.07289583463364765,0.9874278892705285,0.16675387869086009,left,-0.061485469341278076,-0.22402876408420858,1.6347167329259216,-9.420807685139774,-0.1180818692439519,0.5037741661071777,0.09373454749584198,2.1786403625033794,0.25043821334838867
1773148994773073400,8.392073486328124,0.15752157379357157,0.28876572847366333,0.06968328890955884,-0.44616666436195374,0.07709200303228464,0.9891479168463779,0.17107789728227227,left,-0.13752245903015137,-0.19597840818281378,1.5089301064833998,-9.49983621366918,-0.10386230020437959,0.7683285474777222,0.0687556117773056,1.9096125553399323,0.2379719316959381
1773148994813073400,8.432073486328125,0.1485342691017866,0.2398393452167511,0.06617672776856943,-0.29945486783981323,0.08284838850115774,0.9903153979380648,0.17940702982488071,left,-0.05348408222198486,-0.1673241746953932,1.4310047168903053,-9.563217091211676,-0.08962284376900823,0.7528017163276672,0.04510551691055298,1.6332432993724941,0.09386737644672394
1773148994853073400,8.472073486328124,0.1303197634748959,0.04414007067680359,0.05872731487091763,-0.40728363394737244,0.08532572304617801,0.9920127073739952,0.18030660441246807,left,-0.19663435220718384,-0.13318583786194435,1.2630996350340544,-9.63738122857511,-0.07198211019947273,0.7833101749420166,0.0619426965713501,1.3022487192481755,0.10275937616825104
1773148994893073400,8.512073486328125,0.11524603701488789,0.006988033652305603,0.05305557725621294,-0.30652672052383423,0.08508754451613718,0.9935441436400808,0.1764382145132299,left,-0.2039969563484192,-0.09655478993548043,1.122424797669798,-9.69622329364419,-0.05305932848456058,0.9179075956344604,0.05514567345380783,0.945408261662349,0.12482388317584991
1773148994933073400,8.552073486328124,0.10035762760542413,-0.030164003372192383,0.0473630250546393,-0.20576977729797363,0.08481602937986474,0.9946854408220522,0.17313451464333757,left,-0.2129138708114624,-0.059870296952889035,0.9807603647463023,-9.739824534961581,-0.034115721909422865,1.0525050163269043,0.0484495535492897,0.586776171419397,0.14707109332084656
1773148994973073400,8.592073486328125,0.09152602978317116,0.05383504182100296,0.045224427841129414,-0.044153496623039246,0.08396806221716423,0.9954086815098884,0.16870353814096548,left,-0.3158460855484009,-0.008543981744367577,0.8962782469861209,-9.765247145509719,-0.008106566295174188,1.4561405181884766,0.08373019099235535,0.08378661890984512,0.22912897169589996
1773148995013073400,8.632073486328125,0.09282856954130225,0.04186209291219711,0.048267567882273356,0.14902280271053314,0.08360941850117053,0.9951112091033749,0.16534565372570298,left,-0.23812097311019897,0.04952868298597006,0.9079154932878911,-9.75245371491015,0.020820381079601484,1.4154504537582397,0.07969993352890015,-0.48551210141275075,0.22789710760116577
1773148995053073400,8.672073486328125,0.0975998720004965,0.13047033548355103,0.052932631613739026,0.027254663407802582,0.08447398673923653,0.9937989617737389,0.16436151319615647,left,-0.1707913875579834,0.1070468047715594,0.9501387973155826,-9.70411258558929,0.04925524322019282,1.37532377243042,0.0371573269367218,-1.0477670315705239,0.19652578234672546
1773148995093073400,8.712073486328125,0.09730304186876083,0.19902688264846802,0.054798467865359635,0.023348141461610794,0.08565180568473356,0.9920140469527535,0.16454121749378892,left,-0.10064387321472168,0.15810701670663901,0.9408286057218909,-9.638523968869448,0.07462693826711769,1.2990143299102783,0.03055591881275177,-1.544048620007187,0.2539856433868408
1773148995133073400,8.752073486328126,0.09658663946373074,0.07683691382408142,0.05647499458400124,-0.02875778079032898,0.08701663112041426,0.9895402537705237,0.1652468094266173,left,-0.07479804754257202,0.20975297395797624,0.9249912043165415,-9.547005961123109,0.1002434039868426,1.1718792915344238,-0.006370849907398224,-2.0419241996370254,0.22113077342510223
1773148995173073400,8.792073486328125,0.09645838594731458,0.03412504866719246,0.05767439062486789,0.06059367209672928,0.08586456896080191,0.9874088468877847,0.16141059017021317,left,-0.01808112859725952,0.24882137402194016,0.9153808607324957,-9.460455804917215,0.11968569538814647,0.919503927230835,-0.00955459475517273,-2.415003479035944,0.2202795147895813
1773148995213073400,8.832073486328126,0.09648502861216807,-0.008586809039115906,0.058851562828302374,0.14994512498378754,0.08467937688958253,0.9848970062283771,0.15753806366140388,left,0.03714883327484131,0.2878899751156019,0.9058471625812351,-9.359324165651202,0.13908187483194626,0.6671285629272461,-0.012746155261993408,-2.784399247616529,0.21905261278152466
1773148995253073400,8.872073486328125,0.10152895408285255,0.02702029049396515,0.06231340923199075,0.09498603641986847,0.08424467735518837,0.9821925640143656,0.1546026529551701,left,0.15326344966888428,0.32238227819967824,0.9427440839543938,-9.25354499284029,0.155940837779966,0.9159342050552368,-0.010226048529148102,-3.1070117838427422,0.2012350708246231
1773148995293073400,8.912073486328126,0.10488952864863214,0.037433650344610214,0.06484470802211638,0.055125560611486435,0.0840466114707847,0.9794507731178679,0.1524121183434969,left,0.10316622257232666,0.35418302044428424,0.9630006900414824,-9.147401662892102,0.1714860330739755,0.5712662935256958,-0.013825342059135437,-3.4011838230043647,0.15232974290847778
1773148995333073400,8.952073486328125,0.10874093290662608,-0.11046303808689117,0.06702145032048308,0.07973705977201462,0.08324506840443185,0.9778628481652223,0.14939771748330902,left,0.06537085771560669,0.3714701599100879,0.991693919758126,-9.08381211103499,0.17989603613258104,0.35701560974121094,0.012491367757320404,-3.5596740107834335,0.07389241456985474
1773148995373073400,8.992073486328126,0.11607103232409653,-0.11137692630290985,0.07026463639807808,0.20740801095962524,0.08069107447846025,0.9769634890361252,0.14238834991411703,left,0.1468295454978943,0.38129653421672627,1.0541500106059014,-9.041118047690391,0.18464597133056562,0.2853248715400696,0.025206007063388824,-3.6492920301273464,0.10270491242408752
1773148995413073400,9.032073486328125,0.12339481144838871,-0.09934236854314804,0.07361678869484006,0.005650714039802551,0.07796315702772766,0.9751768640467701,0.1345186369076811,left,0.19327443838119507,0.39990010355732375,1.1117869376689196,-8.964222439536451,0.19373282379115495,0.5199225544929504,-0.026492491364479065,-3.817987385578453,0.1693527102470398
1773148995453073200,9.0720732421875,0.123740376702841,-0.05262979120016098,0.07379396138585258,-0.020168285816907883,0.0764518469676111,0.9737674468367495,0.13062112122860764,left,0.11780613660812378,0.4149590363874341,1.1076621858891098,-8.905768497002125,0.20121286430549465,0.25968700647354126,0.04790060222148895,-3.9535751289367673,0.12664932012557983
1773148995493073400,9.112073486328125,0.12303459662875449,-0.015196502208709717,0.07309357049083351,-0.053986068814992905,0.07423083412826054,0.9734958381067895,0.1259889262611255,left,0.05857431888580322,0.4194512525543625,1.0991856686405836,-8.888831975248456,0.20360012212528966,0.15498366951942444,0.008510775864124298,-3.9938498561799523,0.09075415134429932
1773148995533073400,9.152073486328124,0.12235020045154926,0.022236783057451248,0.07239234303128297,-0.08780384063720703,0.07200897892152625,0.9732133632898443,0.12135085221374281,left,-0.0006802082061767578,0.4239464367204855,1.0908997785933314,-8.871673919698596,0.20598510760604374,0.05028032511472702,-0.03089846670627594,-4.034070807409286,0.054853469133377075
1773148995573073400,9.192073486328125,0.11862572324578621,0.038572490215301514,0.07076527214044881,-0.0763527974486351,0.07212416410879706,0.9728616062851864,0.12217976750065523,left,0.010317564010620117,0.42819621846238193,1.0558114410120993,-8.85857186154127,0.20816053110272675,0.11906108260154724,-0.0338912159204483,-4.072020891097187,0.002897500991821289
1773148995613073400,9.232073486328124,0.11357777276852887,0.03523722663521767,0.06852374720269473,-0.17038868367671967,0.0722839162796059,0.9726187734240738,0.1234386609550871,left,0.11454331874847412,0.4316508395257561,1.0094802632741628,-8.849759025010465,0.20998178928933917,0.04753731191158295,-0.0467025488615036,-4.102816134594381,0.00948217511177063
1773148995653073400,9.272073486328125,0.10749722719228141,0.0314994752407074,0.06574433596740656,-0.13825519382953644,0.07222508179796311,0.9725026808153501,0.12452722941858568,left,0.1021917462348938,0.4342350850675734,0.9545097789414226,-8.845162344869971,0.21142348897376778,0.08488647639751434,-0.045650314539670944,-4.125820578084886,0.02384108304977417
1773148995693073200,9.3120732421875,0.10489431413705637,0.011225573718547821,0.06461834056071704,-0.0506272166967392,0.07226629193654134,0.9721943390407307,0.12504562316181042,left,0.04545795917510986,0.4376583432774983,0.9299991686716675,-8.833519253349303,0.2131673725242951,0.05316312611103058,-0.031549304723739624,-4.156251372183859,0.017116665840148926
1773148995733073400,9.352073486328125,0.10745059428468216,-0.0827648788690567,0.06541503291797532,0.0535530224442482,0.07057362537859083,0.9723395820271563,0.12103436323965076,left,-0.0610579252243042,0.4368815386856709,0.952922948141396,-8.834320048338174,0.21282832720546663,-0.044183336198329926,-0.061035364866256714,-4.149350506754219,0.02838820219039917
1773148995773073400,9.392073486328124,0.11132560425245631,-0.005367398262023926,0.06714150332133884,0.09159564971923828,0.07047688525149261,0.9725126371351512,0.12009151697618937,left,-0.04262739419937134,0.43442832320603914,0.9882767317257821,-8.84065100492537,0.21152838133635746,-0.06948063522577286,-0.02459064871072769,-4.127539656962454,0.02320161461830139
1773148995813073400,9.432073486328125,0.11716443371052025,-0.18901853263378143,0.06944394894930839,0.09206188470125198,0.06897472838807456,0.9729377680374369,0.11593550302088357,left,-0.07171964645385742,0.4300080269444645,1.0420012345854193,-8.852763467523456,0.20931366680368899,-0.1366027295589447,-0.006692416965961456,-4.08817795291096,-0.021232932806015015
1773148995853073400,9.472073486328124,0.12312080201274635,-0.11008823662996292,0.07159075799919536,0.0795736014842987,0.0667336382210241,0.9738561146966868,0.11048627173118257,left,-0.039736390113830566,0.42118234418112854,1.099101205227524,-8.881862720757722,0.20500191130771908,-0.20653869211673737,0.014417782425880432,-4.009348454084992,0.024623095989227295
1773148995893073400,9.512073486328125,0.12633414947210114,-0.06413508951663971,0.07269006486810041,0.011797480285167694,0.06542849728125476,0.9747192421995753,0.10756677325705281,left,-0.06714612245559692,0.41275942708550817,1.1318509437933564,-8.911471092557907,0.20089196706168921,-0.19977016746997833,-0.0013282671570777893,-3.933825303328037,0.021350055932998657
1773148995933073400,9.552073486328124,0.12618569008712097,-0.045736659318208694,0.07238636966884701,-0.01624470204114914,0.06495315616245832,0.9757024171941345,0.10711135952857519,left,-0.10770750045776367,0.40337630614915826,1.135123462658003,-8.947864009931683,0.19633161075874742,-0.25811058282852173,0.01272362470626831,-3.8493642283558844,0.012842923402786255
1773148995973073400,9.592073486328125,0.1254820409316819,0.0012254267930984497,0.07177945220843303,-0.06833870708942413,0.0643638824119484,0.9768229548445138,0.10660664572297923,left,-0.08682078123092651,0.39260385062062797,1.1339511309430002,-8.989281477469206,0.19110701601110222,-0.24602816998958588,-0.020090751349925995,-3.7519799589246507,0.07827919721603394
1773148996013073400,9.632073486328125,0.12388385941674908,-0.05212381109595299,0.0708958310166161,0.03321941941976547,0.06433227532314771,0.9776652074172463,0.1072795503979068,left,-0.1393371820449829,0.3843553283177251,1.1233692389130592,-9.021487464547157,0.18709870977647589,-0.1754370927810669,0.015596903860569,-3.677117025642097,0.05594843626022339
1773148996053073400,9.672073486328125,0.1252136154639678,-0.035774894058704376,0.07126217156473358,-0.012452781200408936,0.06356531008269581,0.9783820132980735,0.10584965528418613,left,-0.09868037700653076,0.37686422474485765,1.138772852011025,-9.047062635308503,0.18343906470668878,-0.186163991689682,-0.03101697564125061,-3.608911796683073,0.0923795998096466
1773148996093073400,9.712073486328125,0.12968878705657808,-0.05189529061317444,0.07305854876936835,0.017249170690774918,0.06253924229097037,0.9791100829314829,0.10339071317454648,left,-0.05718356370925903,0.36821829141942325,1.1832396241165697,-9.072477647072077,0.1791502696125697,-0.2177092283964157,-0.03711492568254471,-3.529940259037912,0.08569929003715515
1773148996133073400,9.752073486328126,0.13412652169331352,-0.0680156797170639,0.07485323514625893,0.04695112258195877,0.06151172313734978,0.9798154325528511,0.10098121511524001,left,-0.015769779682159424,0.359562268313979,1.227529139959067,-9.097078419843315,0.1748573320583799,-0.24925446510314941,-0.04319481551647186,-3.4506124553009867,0.07898262143135071
1773148996173073400,9.792073486328125,0.138527817412705,-0.08413607627153397,0.07664618836695647,0.07665307074785233,0.06048275262183394,0.980498062162179,0.09862032468742056,left,0.02556067705154419,0.3508963842565771,1.271637600146234,-9.120862031012773,0.17056033892365435,-0.2807996869087219,-0.049256205558776855,-3.370935107474029,0.07223030924797058
1773148996213073400,9.832073486328126,0.14475962454446747,-0.2641597092151642,0.07904926132316896,0.17352861166000366,0.05810176394099358,0.9815282702169688,0.0935092978254063,left,0.03276252746582031,0.3380159149411168,1.3346049284517765,-9.154968298754095,0.164249027899698,-0.2911677658557892,-0.02253308892250061,-3.2520416015461087,0.016768604516983032
1773148996253073400,9.872073486328125,0.15441773461649838,-0.25864481925964355,0.08277554754399968,0.15354333817958832,0.05365859335494702,0.9827421962617856,0.08396791212787592,left,0.03176617622375488,0.3219824156450103,1.4307975038804113,-9.191995422378183,0.1564827900377399,-0.40522465109825134,-0.014161378145217896,-3.1032921787977217,0.010015785694122314
1773148996293073400,9.912073486328126,0.16435650643298308,-0.2891989052295685,0.08681115001325398,0.2453959584236145,0.04997057433453894,0.9841718190923092,0.07648575827070071,left,0.053276121616363525,0.30095869733162733,1.5324201415337622,-9.23965207656622,0.1461939559869624,-0.5996368527412415,0.02763529121875763,-2.9070439227715132,0.008869200944900513
1773148996333073400,9.952073486328125,0.1773359586669556,-0.3216630816459656,0.0923155442152928,0.27998363971710205,0.04595843533676608,0.986044564489467,0.06904822057383328,left,0.13011515140533447,0.2694822028157201,1.667534129900485,-9.304471462479233,0.13069744332100927,-0.9043542146682739,0.02940264344215393,-2.6108476843059063,0.051457956433296204
1773148996373073400,9.992073486328126,0.18863931432554987,-0.2968871593475342,0.09711486934801135,0.1743844449520111,0.04221317429885008,0.9883873477381956,0.06394016150771895,left,0.15951985120773315,0.22553983219040696,1.792392973973602,-9.38872094052732,0.10898232434627327,-1.203957200050354,-0.0387529581785202,-2.193086382615566,0.02998293936252594
1773148996413073400,10.032073486328125,0.19149962855593464,-0.2419186234474182,0.09794853038040938,-0.061445415019989014,0.03982761923435581,0.9908610282530816,0.06352938276883897,left,0.1595129370689392,0.17465936842193652,1.8381150068372487,-9.480910563924908,0.08375068766797798,-1.1616555452346802,-0.04591812193393707,-1.7041282689347863,-0.05244770646095276
1773148996453073200,10.0720732421875,0.18935903388838823,-0.26108667254447937,0.09629057773669576,-0.04474356770515442,0.035862397767123536,0.9925647113717435,0.05921401429005016,left,0.087607741355896,0.13685797362125715,1.828639907005429,-9.541299273914099,0.06524749605315516,-0.8951297998428345,-0.017012804746627808,-1.3379327577002347,-0.038753822445869446
1773148996493073400,10.112073486328125,0.18706414896465384,-0.2802547216415405,0.09459760612750648,-0.028041724115610123,0.0318841892658318,0.9939073893236602,0.054836764380499003,left,0.014339685440063477,0.0990661475123981,1.8148501588448882,-9.588324059939383,0.04672057536620692,-0.6286040544509888,0.012332499027252197,-0.9699189449973404,-0.025245383381843567
1773148996533073400,10.152073486328124,0.18698244557722207,-0.3207390308380127,0.09415446494521885,0.07861471176147461,0.026910692802414413,0.9945468632665938,0.046925849589708434,left,-0.05864530801773071,0.07651048928117792,1.8176717921368777,-9.607527357581258,0.035879827846138725,-0.44927871227264404,0.04940260946750641,-0.7495799846138804,-0.029982194304466248
1773148996573073400,10.192073486328125,0.1890277634443819,-0.2378537952899933,0.0948764368131575,0.017982732504606247,0.022007332654305857,0.9948755143106934,0.03871336898079321,left,0.00009256601333618164,0.058222232221036875,1.8395868329554794,-9.615646951150893,0.027145802922850744,-0.4186219871044159,0.07923419773578644,-0.5706427462095395,0.02885371446609497
1773148996613073400,10.232073486328124,0.18908034019049927,-0.13399860262870789,0.09473516756989975,-0.10128232836723328,0.018926213487019138,0.9951133855199624,0.03384046498723683,left,0.06126672029495239,0.04421487401538472,1.8414141945131122,-9.622457800209522,0.020406977563255536,-0.24687862396240234,0.04227522015571594,-0.43345874663572753,0.021987058222293854
1773148996653073400,10.272073486328125,0.1839636312222411,-0.05590209364891052,0.09209714301247109,-0.1641068011522293,0.0171039414016987,0.9954760642564326,0.031146749123114013,left,0.009978532791137695,0.034831083427470634,1.792820259474963,-9.63532838769853,0.015908766592588525,-0.18892702460289001,0.044752731919288635,-0.3415073889734223,0.019389551132917404
1773148996693073200,10.3120732421875,0.18152777494917066,-0.05600656941533089,0.09085384466661309,-0.09339673072099686,0.016619133664060974,0.9956262976162091,0.030557301296108598,left,0.014795184135437012,0.031024435494701835,1.7695665173985062,-9.640875500431656,0.014061317236827233,-0.10082325339317322,0.03679583966732025,-0.3041971923579462,0.001543896272778511
1773148996733073400,10.352073486328125,0.1790899514588727,-0.05611104518175125,0.08961007741180164,-0.022686652839183807,0.016134254867973836,0.995771320909909,0.02995867475615549,left,0.019592106342315674,0.027219243261668042,1.7462521311759949,-9.646230305463074,0.012213797563333972,-0.012719482183456421,0.028845176100730896,-0.2668968595493585,-0.016300758346915245
1773148996773073400,10.392073486328124,0.1770146732534087,-0.09187302738428116,0.08855422744033858,-0.1323137730360031,0.014799291931826416,0.9958914896424448,0.027400275356695404,left,0.09057939052581787,0.02612257123042496,1.7262801872491835,-9.650115622463822,0.01179773142495135,-0.029453052207827568,0.05944029986858368,-0.25614600416067984,0.015116337686777115
1773148996813073400,10.432073486328125,0.1737893551865167,-0.07052730023860931,0.0869137517598508,-0.10538948327302933,0.013000314357408773,0.9960741054469832,0.024056544722949453,left,0.029285788536071777,0.02347482888485782,1.69525800312832,-9.656267130830884,0.010648234203814482,-0.06232960522174835,0.03850722312927246,-0.23018851955085992,0.0029616467654705048
1773148996853073400,10.472073486328124,0.17041993027728172,0.00539291650056839,0.08521315791438536,-0.09832935035228729,0.012454557925195972,0.9962442644730444,0.02328892651503801,left,0.010406553745269775,0.020051494291255856,1.6628361813426016,-9.662644264647364,0.008997575632995913,-0.08896999061107635,0.042077451944351196,-0.19662503518303856,0.0033168643712997437
1773148996893073400,10.512073486328125,0.16824896012670087,0.014690385200083256,0.0841265064864708,-0.018148422241210938,0.012882575010307854,0.9963388794375322,0.024313628981859053,left,-0.010160684585571289,0.018318920763433135,1.64190956703946,-9.666552962523697,0.008104854918159909,-0.035514235496520996,0.04197722673416138,-0.17963742256294934,-0.01628846302628517
1773148996933073400,10.552073486328124,0.16744588669327468,0.007856336422264576,0.08371870398735444,-0.02684425562620163,0.013289905876978715,0.9963756280032016,0.02530333244870933,left,0.004531383514404297,0.01634375534429122,1.6342020614020525,-9.668199560686945,0.007084577314767424,-0.07643468677997589,0.021262824535369873,-0.16027058665612712,0.030896320939064026
1773148996973073400,10.592073486328125,0.1691034948046183,0.008608351461589336,0.08452645949923156,0.08034810423851013,0.013533759759020764,0.9963148566385915,0.026064520917304827,left,0.039468467235565186,0.012995645930591803,1.6503069546371698,-9.665952074021101,0.005373481320276725,-0.09596327692270279,0.02969914674758911,-0.1274403941320721,0.07759741693735123
1773148997013073400,10.632073486328125,0.1721802782501798,-0.009343122132122517,0.08603879387067724,0.07154708355665207,0.013776210692675003,0.9961901181812065,0.026833746773381174,left,0.04998886585235596,0.009527795872653701,1.6801047115296124,-9.661206340798735,0.0035922232537135067,-0.06627732515335083,0.021261900663375854,-0.09343457282423041,0.005358574911952019
1773148997053073400,10.672073486328125,0.17360080777002287,-0.007780186831951141,0.08674372609239062,0.02750316634774208,0.01353383398097466,0.9961327605235352,0.02636610775804851,left,0.00902414321899414,0.009250498081588643,1.6938314774565397,-9.658834935492276,0.003464606350618593,0.04149354249238968,0.018042251467704773,-0.09071533132763579,0.015194428153336048
1773148997093073400,10.712073486328125,0.17493707591104554,0.005925220437347889,0.0874157418055553,0.05718828737735748,0.013489666931139524,0.9960726088625412,0.0261781293980855,left,-0.03195309638977051,0.010330678016281656,1.7067187238194048,-9.656460607576369,0.00400175434501771,0.020134955644607544,0.0026286542415618896,-0.10130776301790029,0.0032915212213993073
1773148997133073400,10.752073486328126,0.17624688112175754,0.10233575850725174,0.08810097955428994,0.05906448885798454,0.014327463580059705,0.995988990302511,0.027445717538414564,left,-0.08309745788574219,0.01496966279541086,1.7192644632682204,-9.653650226330756,0.00624734644509959,0.18152011930942535,-0.040762826800346375,-0.14679698263951577,0.03164997324347496
1773148997173073400,10.792073486328125,0.18068283472732666,0.12389495968818665,0.09039235830943977,0.12928572297096252,0.016322621478973377,0.9957096868281172,0.030499032246316737,left,0.010701298713684082,0.025210986733537093,1.761707912852615,-9.64394424035251,0.011176669242180647,0.304931104183197,-0.043260395526885986,-0.24720935858711598,0.05508795008063316
1773148997213073400,10.832073486328126,0.1833386449861578,0.03723534941673279,0.0918075482966548,0.09188813716173172,0.017304451893252675,0.9954749790777858,0.03129185074236677,left,-0.021774888038635254,0.03775234335664248,1.786608399222791,-9.63542483381033,0.017361570319816864,0.2630494236946106,-0.01310361921787262,-0.3701363212822005,0.05469720438122749
1773148997253073400,10.872073486328125,0.1867716906759537,-0.011884063482284546,0.09356530298696945,0.0430477149784565,0.017216364909796,0.9952248554558704,0.030220547321325616,left,-0.036871135234832764,0.04669266235772693,1.8189894506067037,-9.625598436322807,0.021831241742462898,0.2854466140270233,-0.053295403718948364,-0.4577324428770691,-0.010934554040431976
1773148997293073400,10.912073486328126,0.18682620834873404,0.008811047300696373,0.09364179892907729,-0.03529525175690651,0.016481938168014975,0.9950426107316572,0.027395821932805854,left,-0.05575078725814819,0.06113503790756968,1.8180965934202074,-9.617999651756882,0.02914958905115331,0.34949302673339844,-0.07856975495815277,-0.599156746901758,-0.014247577637434006
1773148997333073400,10.952073486328125,0.18692168316351346,0.029506158083677292,0.09371321694657034,-0.11363822221755981,0.015746550691059527,0.9948065231093335,0.02456737655454691,left,-0.07484251260757446,0.07557719820035627,1.817217180237174,-9.608321138307451,0.03646636246482936,0.41353940963745117,-0.10384548455476761,-0.7404539904806763,-0.01757355034351349
1773148997373073400,10.992073486328126,0.18206458868103315,0.11658710241317749,0.09137132221241852,-0.14461563527584076,0.016610735194671024,0.9947202985744015,0.02517069714779002,left,-0.030974984169006348,0.09003151221154203,1.7684047801427543,-9.605503742799161,0.04366777488897097,0.2950890064239502,-0.12196391075849533,-0.8817154686264693,0.02301350235939026
1773148997413073400,11.032073486328125,0.17687195915818116,0.0828482136130333,0.08888315710136983,-0.044902168214321136,0.018027741670783623,0.9946958794754394,0.0273776073498231,left,-0.05907493829727173,0.099911218163795,1.7168866282209754,-9.605513095149398,0.048527572476404525,0.17409098148345947,-0.11505159735679626,-0.9781653067518025,-0.009624093770980835
1773148997453073200,11.0720732421875,0.17680448004145047,0.08336474746465683,0.08893774641958811,0.10369259864091873,0.01935713807591536,0.9944659015121156,0.029342382150209602,left,-0.05556541681289673,0.10800883273333273,1.714789071419835,-9.597516251176595,0.05246826011972841,0.21306322515010834,-0.10207249224185944,-1.0571467812690882,-0.015280291438102722
1773148997493073400,11.112073486328125,0.17955117061118173,0.1350770890712738,0.09042420544833228,0.08938737213611603,0.021136467896404117,0.9940263780182952,0.03187747439375774,left,0.005334794521331787,0.1180971557782088,1.7391507747381925,-9.581789105212687,0.05734271112666536,0.2552432715892792,-0.12405646592378616,-1.1554475079581141,0.0197388157248497
1773148997533073400,11.152073486328124,0.18172358698076527,0.10570977628231049,0.0916666781115766,0.0871763527393341,0.023356333875101755,0.9935286431096914,0.035186361727397954,left,0.03510689735412598,0.129570455558243,1.757450693799555,-9.564319499495625,0.06286996180804122,0.29046183824539185,-0.1164141595363617,-1.267099956716597,-0.007488816976547241
1773148997573073400,11.192073486328125,0.18145340149831854,0.18753570318222046,0.09175310989016189,0.019752487540245056,0.026157984449644598,0.9931158515041373,0.039887281767835514,left,0.02987957000732422,0.1402383865085146,1.7523273594364523,-9.550954406487941,0.06795733436495106,0.2510759234428406,-0.10458787530660629,-1.3707656445048748,-0.022117316722869873
1773148997613073400,11.232073486328124,0.18113202151155777,0.2693616449832916,0.09183641651460697,-0.047671377658843994,0.028958737584945868,0.992669257006739,0.04459845022143108,left,0.024550437927246094,0.1509049006469889,1.7465243722461163,-9.536592119136452,0.07304239370744127,0.21168997883796692,-0.09269227087497711,-1.4742615286841987,-0.036763131618499756
1773148997653073400,11.272073486328125,0.17712892743809372,0.29503464698791504,0.09031996262419657,-0.05930112302303314,0.034322179169942735,0.9923140501143295,0.054882278266337584,left,0.013261377811431885,0.1603196098894579,1.7058132994122803,-9.529421789115666,0.07731109429382242,0.1935199499130249,-0.07103130221366882,-1.5654723701775073,-0.04198239743709564
1773148997693073200,11.3120732421875,0.17608613677554003,0.18641731142997742,0.09021858293744534,0.06682968139648438,0.03849441303298263,0.9917845562212178,0.062488325704729925,left,-0.01533728837966919,0.17064336100613756,1.692953671708703,-9.51477600864768,0.08210985793526043,0.21068979799747467,-0.03867688775062561,-1.6653301901154218,0.009785324335098267
1773148997733073400,11.352073486328125,0.178392632152787,0.16511903703212738,0.09174328663049909,0.11399019509553909,0.04234466313019355,0.9912161534534439,0.06943961985143407,left,0.028011858463287354,0.17785858004756952,1.7127182564951478,-9.49877355287373,0.08532582137270082,0.1086089089512825,0.009799525141716003,-1.7350157207600772,-0.008269190788269043
1773148997773073400,11.392073486328124,0.17980617119932468,0.09721134603023529,0.09269666263370137,-0.013202525675296783,0.04463303186609362,0.9907916381715484,0.07342663888274485,left,0.05282020568847656,0.18372218358701295,1.7242942741289733,-9.486170676410199,0.08801835759738341,0.13536657392978668,-0.013182759284973145,-1.7915807808078825,-0.019056424498558044
1773148997813073400,11.432073486328125,0.17558566777208662,0.06997021287679672,0.09080429514596162,-0.1317320019006729,0.04592688600696144,0.990636111385886,0.0758976572325098,left,0.0018120408058166504,0.18982312178609226,1.6823019293129444,-9.482424475619196,0.09102458398746281,0.14130516350269318,-0.037006229162216187,-1.8503699466459451,-0.023152649402618408
1773148997853073400,11.472073486328124,0.17054236778679258,0.14321953058242798,0.0885232781254053,-0.08651374280452728,0.047468748738441875,0.9905594992083223,0.07909663301005421,left,-0.01631009578704834,0.1944376429811146,1.6329915165685116,-9.482272499927879,0.09328597977396032,0.038097724318504333,-0.035652682185173035,-1.8947902492612598,0.03043876588344574
1773148997893073400,11.512073486328125,0.1692966713724434,0.1298794001340866,0.08824076061415517,-0.02448883280158043,0.05052090565457747,0.9903070137742154,0.08512068210558575,left,-0.00443500280380249,0.19760933924913482,1.6201574616976082,-9.478328146216272,0.0946220463515366,0.05524672567844391,-0.010772570967674255,-1.925298200249672,0.019863709807395935
1773148997933073400,11.552073486328124,0.1680307317933847,0.11653928458690643,0.08795726321089388,0.037536073476076126,0.053572436930254985,0.9900433538086811,0.0911524875298976,left,0.007433295249938965,0.20077361514341072,1.6071303684726357,-9.474317741531133,0.09595705835152045,0.07239572703838348,0.014127224683761597,-1.9557155503451824,0.009279415011405945
1773148997973073400,11.592073486328125,0.16966582993408347,0.02806045114994049,0.0889138527559936,0.04096047207713127,0.05480294739261354,0.9897892986914953,0.09328910961785723,left,-0.005079448223114014,0.20315053929917382,1.6218300710849463,-9.46706850105524,0.09699569182807438,0.028101667761802673,-0.007884994149208069,-1.9785515054009855,0.020538941025733948
1773148998013073400,11.632073486328125,0.17056564750883996,0.008821498602628708,0.0894179641977341,0.01923224702477455,0.055388197213125503,0.9896999421282116,0.09435291359060421,left,-0.005640685558319092,0.2035305043111452,1.6302202982895075,-9.464863684487343,0.09711166328320733,0.017908576875925064,-0.0005875974893569946,-1.9822008216887712,-0.010019928216934204
1773148998053073400,11.672073486328125,0.1711452917241845,-0.04735704883933067,0.08965794906210002,0.032675109803676605,0.05472401740016071,0.9896401041342319,0.09283757627384492,left,-0.03676462173461914,0.20496509051799927,1.6352202985338866,-9.461105208736658,0.09787401204265346,0.03732583299279213,0.02174992859363556,-1.995976979715377,-0.011991232633590698
1773148998093073400,11.712073486328125,0.17267553922800424,0.05604797974228859,0.09044203286699433,0.08176395297050476,0.054815587604118594,0.9894819145705402,0.09272921958896108,left,-0.033027470111846924,0.20670257566968614,1.649097871108353,-9.455161205640435,0.09869736891435162,0.051985964179039,0.051359206438064575,-2.0126561657071114,0.019731342792510986
1773148998133073400,11.752073486328126,0.177502605152857,0.08563604950904846,0.0929885467843085,0.12438519299030304,0.05629792166855752,0.9890701763450952,0.09504771828450762,left,0.10662263631820679,0.20904813796150162,1.6938810156866908,-9.442418043923377,0.09961817468410444,0.041029080748558044,0.06841520965099335,-2.035163034939021,0.09721344709396362
1773148998173073400,11.792073486328125,0.18055029513706886,0.000012040138244628906,0.09445610550814179,0.07245532423257828,0.055537501030274807,0.988784179241767,0.0928826230110042,left,0.05558353662490845,0.21278981955851325,1.7212711269155143,-9.42965500846207,0.10148620242412033,0.10273678600788116,0.07444198429584503,-2.0710431804850695,0.030453801155090332
1773148998213073400,11.832073486328126,0.18360874028133647,-0.0856119692325592,0.09592307260395566,0.020525459200143814,0.054776825898499526,0.9884919217295762,0.09070428669814411,left,0.0045223236083984375,0.21652503814548898,1.7486784815400838,-9.4166745308578,0.10335359273516995,0.16444449126720428,0.08046700060367584,-2.1068325790077447,-0.036315083503723145
1773148998253073400,11.872073486328125,0.1848279610820933,-0.07459370791912079,0.09638485509950373,0.0049745868891477585,0.05270585664426853,0.9881632882099015,0.08576110872367997,left,0.05066561698913574,0.22363695708594683,1.7573600929066537,-9.399569082278013,0.10707611732978703,0.1678466796875,0.07074131071567535,-2.1748941617123783,0.017352089285850525
1773148998293073400,11.912073486328126,0.1821563069673246,0.04789596050977707,0.09510078572402464,-0.08447066694498062,0.05236703396414809,0.98801726937819,0.08492409055299004,left,0.07291388511657715,0.22873230644244352,1.730211535348743,-9.393210653162003,0.1097059457517074,0.08130446821451187,0.07029972970485687,-2.223589803559333,0.0347258597612381
1773148998333073400,11.952073486328125,0.17731572374992352,0.023078706115484238,0.09282835189910774,-0.14652474224567413,0.05291822561267147,0.9880632321576517,0.08637337567246171,left,0.013170897960662842,0.23116182639222044,1.6837648414723574,-9.396130340000987,0.11096657089042578,-0.0053397417068481445,0.08047179877758026,-2.246788016056269,-0.022421658039093018
1773148998373073400,11.992073486328126,0.1738040897191779,-0.09043668210506439,0.09104409872038914,-0.04966571927070618,0.0521541715221015,0.9881814344297941,0.08511604074477411,left,-0.08509814739227295,0.23244560100682282,1.6502587315812707,-9.399136536079645,0.11175143153801093,0.1353384107351303,0.07893796265125275,-2.259040910038352,-0.08435441553592682
1773148998413073400,12.032073486328125,0.17463033406697842,-0.08257881551980972,0.09123858473890908,-0.03221935033798218,0.049814941285869434,0.9879399152944022,0.07982192755229889,left,-0.06430822610855103,0.23807570810705003,1.6557880163967609,-9.385095735767484,0.1147554404383617,0.15626966953277588,0.0778040736913681,-2.312732460476458,0.026090219616889954
1773148998453073200,12.0720732421875,0.17572708478106217,-0.0492045097053051,0.09165107714213845,0.04260753095149994,0.048440374458562654,0.987708895679449,0.0765564836657417,left,-0.06730842590332031,0.24233141224150914,1.6643443939484655,-9.373498236954212,0.1169815031661039,0.04214680939912796,0.06472322344779968,-2.3532683228738605,0.022147879004478455
1773148998493073400,12.112073486328125,0.1760760372704488,0.01922602578997612,0.09188775257273167,-0.01445898786187172,0.04891218146521448,0.9875973277776573,0.07736838614610285,left,-0.028179168701171875,0.24355364965824192,1.6671100592695176,-9.370078199377655,0.1175398341684745,0.031084788963198662,0.020289525389671326,-2.3649025004357096,0.0348363071680069
1773148998533073400,12.152073486328124,0.1764240690826268,0.08765655755996704,0.09212436581302536,-0.07152549922466278,0.04938394468560605,0.9874851992741528,0.07818007405459111,left,0.010948717594146729,0.24477614035924478,1.6698624267175792,-9.366644133275747,0.11809808142954109,0.020022768527269363,-0.02414281666278839,-2.3765353628233075,0.047524601221084595
1773148998573073400,12.192073486328125,0.17460079864698264,0.11131712049245834,0.0914863571714788,0.029965229332447052,0.05138194646958547,0.9873986577845102,0.08235897428765208,left,-0.016118168830871582,0.24581557010465918,1.6523517583377658,-9.36723566942811,0.11846581062959553,0.055256057530641556,-0.037003517150878906,-2.3864235735006627,-0.009335830807685852
1773148998613073400,12.232073486328124,0.1746449701215417,0.1149882823228836,0.0918345585882637,0.010685112327337265,0.053692254810980805,0.9870009151521072,0.08666737032623613,left,0.047831714153289795,0.250272114643007,1.6509011211380362,-9.356596201992035,0.12046898470824924,0.11967861652374268,-0.0562412291765213,-2.4287897200651467,0.025691121816635132
1773148998653073400,12.272073486328125,0.1745467268630312,-0.005258925259113312,0.09197559026040288,0.029378902167081833,0.054950401553200405,0.9867464442547452,0.08897930409462143,left,-0.0016072988510131836,0.25331962892475757,1.6486888519160448,-9.349425287449359,0.12187063354806071,0.0003883093595504761,-0.04656139016151428,-2.4577333443462845,-0.006018012762069702
1773148998693073200,12.3120732421875,0.17500427913640623,0.0038153724744915962,0.0921356497775503,0.004147157073020935,0.05464788929152407,0.986880075451049,0.08848957069607943,left,-0.010290145874023438,0.2511295539411297,1.6538997184321282,-9.353948317831755,0.12079897466230498,0.0043542953208088875,-0.05242589861154556,-2.4369354709893463,-0.0010478049516677856
1773148998733073400,12.352073486328125,0.1754604592725927,0.012889670208096504,0.0922955892781223,-0.021084588021039963,0.05434531445920879,0.987012418720758,0.08800115827931064,left,-0.018977463245391846,0.24893926433896715,1.659094364465773,-9.358425755506753,0.11972716359835175,0.008320281282067299,-0.05828877538442612,-2.416124007498473,0.003921061754226685
1773148998773073400,12.392073486328124,0.17589224011503457,-0.018943002447485924,0.09251982327906,0.08909447491168976,0.054593474137192566,0.9870644639518688,0.08856536604712087,left,-0.028636038303375244,0.24756398827479859,1.663714863873273,-9.360971348336339,0.11900995169223577,-0.07488428801298141,-0.02079249918460846,-2.4030505909137427,0.0043792724609375
1773148998813073400,12.432073486328125,0.17878146983160254,-0.11026492714881897,0.09378254872735652,0.04131780192255974,0.05353484086851587,0.9870806581791655,0.08618726146596027,left,0.008598864078521729,0.24619545495806,1.6913371764227747,-9.359352807223797,0.11836653726640473,0.00847586989402771,-0.036438941955566406,-2.3900367955617607,-0.0034506618976593018
1773148998853073400,12.472073486328124,0.17852654617119793,-0.07384900748729706,0.09340910754577672,-0.04229451343417168,0.05152930863030975,0.9872523720900919,0.08222958577831843,left,-0.005961418151855469,0.24530684863135152,1.6893277362965047,-9.361870343002677,0.11811943521504926,-0.026502348482608795,-0.02947750687599182,-2.381584316775948,0.02595292031764984
1773148998893073400,12.512073486328125,0.17797490115153866,-0.016680505126714706,0.09304001786593802,-0.011521745473146439,0.050731703004521185,0.987350754452369,0.08072593096324238,left,-0.011541664600372314,0.2447601932270754,1.6843932025037704,-9.364080420267582,0.11793352775456993,0.018009360879659653,-0.04746332764625549,-2.3763836793929336,0.007814019918441772
1773148998933073400,12.552073486328124,0.17630826102829267,0.026840537786483765,0.0922395062044932,-0.0456366129219532,0.05079067031620911,0.9873980387645719,0.08101433155090734,left,0.0008989572525024414,0.24512130534873458,1.668633761705458,-9.366029216247796,0.11814090366362665,-0.004838388413190842,-0.025670647621154785,-2.3798192067995667,0.025267496705055237
1773148998973073400,12.592073486328125,0.17584717772255823,-0.006700966507196426,0.0920203921439638,0.0034526288509368896,0.05087651528729514,0.9874442820977862,0.08128580622927173,left,0.017522573471069336,0.24461127878141392,1.664527203169465,-9.367991456231474,0.11788808946230049,-0.0060327015817165375,-0.03409247100353241,-2.3749667983323333,0.004052981734275818
1773148999013073400,12.632073486328125,0.17506000030908586,0.07117308676242828,0.09171938489432566,0.03979581221938133,0.0515078595032599,0.9874053509737022,0.08260387541289095,left,-0.004959464073181152,0.24527188090083224,1.656878734242916,-9.367751802256702,0.11817413133244717,0.03680877387523651,-0.008450761437416077,-2.381251723820716,0.00889192521572113
1773148999053073400,12.672073486328125,0.17655496541671833,0.0891871452331543,0.09266829271703336,0.07945072650909424,0.053169798103830795,0.987125685225201,0.08561725169302674,left,0.031235933303833008,0.2473666191156429,1.6700015429273247,-9.36033363495469,0.11903108368423516,0.010502714663743973,-0.005116134881973267,-2.401173983386904,0.020848587155342102
1773148999093073400,12.712073486328125,0.18034509827957831,0.09540355950593948,0.09482277760807918,0.05057143419981003,0.05543593379517859,0.9866308827823603,0.08946976736591734,left,0.17959260940551758,0.25070208880154954,1.704020424646139,-9.346005249872803,0.12039506693216007,0.07397423684597015,-0.03448730707168579,-2.4328747974216935,0.07797574996948242
1773148999133073400,12.752073486328126,0.18412518129787106,0.10161997377872467,0.09697613787481019,0.021692141890525818,0.057701447991074066,0.986124309776055,0.09331258659760583,left,0.3279244303703308,0.2540516653332902,1.737835015964508,-9.331433703684807,0.12175762080063061,0.13744577765464783,-0.06383761763572693,-2.4646821405708788,0.13511380553245544
1773148999173073400,12.792073486328125,0.18275086181107653,-0.0013116896152496338,0.09639775858945385,0.11860282719135284,0.05811562983750527,0.9859661702732624,0.09405694179105331,left,0.30211979150772095,0.2571504791247646,1.7236127216055988,-9.32625776235163,0.1232909089100509,-0.0068251341581344604,-0.04458184540271759,-2.494083883883059,0.15405812859535217
1773148999213073400,12.832073486328126,0.18421652512359163,0.039330918341875076,0.09720030363250269,-0.05240544676780701,0.058548510805575084,0.9856785056410805,0.09448604395725498,left,0.4211786985397339,0.2602319083205571,1.7358640081524848,-9.316122152784466,0.12474797380251344,0.2026645541191101,-0.07628040760755539,-2.52329682662487,0.12334267795085907
1773148999253073400,12.872073486328125,0.1822248840647026,0.07664977014064789,0.09635739962232066,-0.08674940466880798,0.05859502758154694,0.9851196406630339,0.09399281572815042,left,0.3027944564819336,0.2700975523421081,1.7127115344934165,-9.294625775769353,0.1296965942018018,0.2596666216850281,-0.06437858939170837,-2.6166639693692324,0.07609516382217407
1773148999293073400,12.912073486328126,0.1801875426791263,-0.030536547303199768,0.09556021141924213,0.01641049236059189,0.05895839819108139,0.9843550970174632,0.09397406170449367,left,0.21758151054382324,0.28232272264649705,1.6879123165406287,-9.26593101168275,0.13578383102358269,0.3302139937877655,-0.024764105677604675,-2.7320070893391963,-0.010653465986251831
1773148999333073400,12.952073486328125,0.17719955451789238,0.10927519202232361,0.09420557744077221,-0.13858231902122498,0.058742965070703194,0.9837386667517747,0.09307045760276188,left,0.25506591796875,0.29301866859686787,1.6549724622301756,-9.241639450991153,0.14118368935578707,0.21996402740478516,-0.009589657187461853,-2.832587816724181,0.13438844680786133
1773148999373073400,12.992073486328126,0.1709141849801175,0.08411035686731339,0.09136306039729206,-0.09086649119853973,0.05962363144980483,0.9835794797252345,0.09536312816630041,left,0.13614904880523682,0.2981046244395279,1.5943820921890437,-9.23754253706634,0.14376782275290484,0.23264922201633453,-0.004121765494346619,-2.8803011695355174,0.029618829488754272
1773148999413073400,13.032073486328125,0.16460669784470366,0.05894552171230316,0.08851911499170566,-0.04315066710114479,0.06050335525619108,0.9834049793008391,0.09769283119959295,left,0.017174839973449707,0.30317665095201957,1.5336714567691088,-9.232885066649317,0.14634971359644103,0.24533440172672272,0.00135841965675354,-2.9278096474245188,-0.07517173886299133
1773148999453073200,13.0720732421875,0.1604811480858538,-0.00013227388262748718,0.08665313164092225,-0.04367123916745186,0.060116353436847896,0.9824900646013083,0.09647397682012498,left,-0.0899960994720459,0.3175325825003031,1.4886976119242608,-9.196691471239923,0.15359183550288658,0.3402847647666931,0.003274589776992798,-3.061866235692799,-0.057970255613327026
1773148999493073400,13.112073486328125,0.15865151306243597,0.0023583529982715845,0.08597712923838875,0.04023163393139839,0.06057947828764678,0.9816761693994869,0.09693447479372846,left,-0.03966701030731201,0.32826149911049346,1.4665939166657627,-9.166433111098408,0.15890216882787028,0.19245293736457825,0.014070972800254822,-3.1616429532185193,-0.054127246141433716
1773148999533073400,13.152073486328124,0.1630978088004371,0.019384916871786118,0.08795279402961279,-0.08986808359622955,0.05936765244586715,0.981211373942253,0.09341282020731649,left,0.05701655149459839,0.33276176512501,1.505010448821634,-9.14568959827721,0.1611331883289933,0.1613045185804367,-0.053887248039245605,-3.203386876231432,-0.00502932071685791
1773148999573073400,13.192073486328125,0.16130489997365843,-0.081545889377594,0.08706957721057262,-0.02402881532907486,0.058828432173120296,0.9808067850644313,0.0921616377170594,left,-0.10225051641464233,0.3388771579945963,1.4854365643016993,-9.12886705829203,0.16424436956885266,0.10666367411613464,0.01840752363204956,-3.260008342641592,-0.06843766570091248
1773148999613073400,13.232073486328124,0.16448764994952206,-0.012653246521949768,0.0883929195268926,-0.017679546028375626,0.057542712701528186,0.980550263918315,0.08882058638067591,left,-0.03231269121170044,0.34136471662579887,1.5131512313097715,-9.116064275342225,0.16551963186075755,0.1515762358903885,0.016729772090911865,-3.2830054796084758,-0.029629826545715332
1773148999653073400,13.272073486328125,0.1621170675730488,0.0021629389375448227,0.08721134373969856,0.01395895704627037,0.05698811065549599,0.9802644464434324,0.08773300827624426,left,-0.17152893543243408,0.34620816210020217,1.4889526095986365,-9.103826725059747,0.16801251112459348,0.006654307246208191,0.05341005325317383,-3.3277240345180035,-0.027016013860702515
1773148999693073200,13.3120732421875,0.16259845863103647,-0.041755370795726776,0.0872233924997954,-0.012010714039206505,0.05557238005676564,0.9800316861717884,0.08450710434069074,left,-0.1396845579147339,0.3496502376608643,1.4914718989431857,-9.091751671862601,0.16982859378527262,0.026202932000160217,0.038619235157966614,-3.3594568511262533,-0.016584187746047974
1773148999733073400,13.352073486328125,0.16309228424879194,-0.08567367494106293,0.08723496775964548,-0.03798038512468338,0.05415632831483786,0.9797936783312357,0.08127531598651373,left,-0.10785257816314697,0.3530908292354276,1.494075797831267,-9.079555038112401,0.17164376639555273,0.045751556754112244,0.02381978929042816,-3.391135891720652,-0.006157815456390381
1773148999773073400,13.392073486328124,0.15976755279815136,-0.20191732048988342,0.0850768785907534,-0.07728220522403717,0.05076500843288707,0.9798307968622328,0.07470835672795302,left,-0.1639450192451477,0.3562044642785177,1.462193635880202,-9.074003833726048,0.17354099233492604,-0.015976540744304657,-0.013033822178840637,-3.419770157791674,-0.005220681428909302
1773148999813073400,13.432073486328125,0.16044445738030078,-0.07331582903862,0.0850719932784408,-0.09020309150218964,0.048928393626379706,0.9799142644308009,0.070853051821938,left,-0.06171679496765137,0.356024377089854,1.4684338454440236,-9.073619802844524,0.17359978657309041,0.19274431467056274,-0.01665329933166504,-3.4181147918000816,-0.050887495279312134
1773148999853073400,13.472073486328124,0.15829769159823107,-0.036115534603595734,0.08364217861513576,-0.04933246225118637,0.04659009520082631,0.9800015985383825,0.0663714348739865,left,-0.1827424168586731,0.35725367718824735,1.448288152385503,-9.072595135971904,0.17444300071270546,-0.10515132546424866,-0.009174168109893799,-3.4294115541011094,0.041243404150009155
1773148999893073400,13.512073486328125,0.16064416268797532,-0.15926328301429749,0.08459804725936101,-0.07086323201656342,0.04570607815872384,0.9799569094935648,0.06415194656369243,left,-0.061421096324920654,0.35722127621311794,1.4695904681332408,-9.06928148137927,0.1744663385783695,0.06312088668346405,-0.02768760919570923,-3.429113740198314,-0.03423386812210083
1773148999933073400,13.552073486328124,0.15954993152306496,0.034776076674461365,0.083682065922572,-0.03618938848376274,0.04349935103001928,0.9803772598299546,0.06008018741510528,left,-0.0067324042320251465,0.35404744402897254,1.4613874340638517,-9.081583329069614,0.17310520638342664,0.02724713459610939,0.036734968423843384,-3.3999367455527185,0.00032719969749450684
1773148999973073400,13.592073486328125,0.15864504866474544,-0.020555999130010605,0.0833873053983808,0.05074485018849373,0.044269963876776126,0.9804284679225794,0.06185555278112996,left,-0.06334346532821655,0.3534592159027691,1.4534848442457615,-9.08487535635233,0.17276229092902584,0.040179669857025146,0.009319126605987549,-3.394525534158945,-0.025880813598632812
1773149000013073400,13.632073486328125,0.1577414243014916,-0.07588807493448257,0.083092456686971,0.1376790851354599,0.04504049957945235,0.9804787694662106,0.06362987867601222,left,-0.11995512247085571,0.35286934987218155,1.4455891225598752,-9.088160953894256,0.17241919976847478,0.0531122088432312,-0.01809746026992798,-3.38909795615226,-0.052090466022491455
1773149000053073400,13.672073486328125,0.15919638922019252,0.018573395907878876,0.08349243567411951,0.03633943945169449,0.04341835475191704,0.9808474653937603,0.060366695080590324,left,-0.12288838624954224,0.34881884919703543,1.460974761609733,-9.099527566561102,0.17053508884349694,-0.09380210936069489,-0.020565718412399292,-3.3517958149790763,0.014867424964904785
1773149000093073400,13.712073486328125,0.15959676482824728,-0.074012391269207,0.08358702519354569,0.05631215125322342,0.04286859968218314,0.9808726346165646,0.05919018865037284,left,-0.18524271249771118,0.3486305025288655,1.4647181859217584,-9.099564975962043,0.17048314352962118,-0.08789289742708206,0.03164418041706085,-3.350059784966707,0.02741217613220215
1773149000133073400,13.752073486328126,0.1648046829376761,0.013095229864120483,0.08635401250138358,0.04757167026400566,0.044527607505154776,0.9804692777620266,0.06155402945585965,left,-0.08803045749664307,0.3501153621404581,1.5112700937382877,-9.086896633046864,0.17099765677278592,0.28443416953086853,0.01806892454624176,-3.363741688838601,-0.0704069435596466
1773149000173073400,13.792073486328125,0.16843254729927326,0.20111937820911407,0.0880478419575427,0.16036885976791382,0.0443425463417042,0.9801053115980525,0.06033525844765448,left,-0.1851806640625,0.352752603367269,1.5427335918858647,-9.072577015793323,0.1722639856272051,-0.04995718598365784,0.0010649710893630981,-3.388023604919016,0.0684514045715332
1773149000213073400,13.832073486328126,0.1689745474246,-0.14619813859462738,0.08857529659031971,-0.1032622754573822,0.04582700707404216,0.979233488838134,0.06256680833154739,left,-0.23018258810043335,0.36164045599950456,1.5425256482236087,-9.04169847792685,0.17651090296520838,0.137024387717247,-0.021707981824874878,-3.469681897430122,-0.051328420639038086
1773149000253073400,13.872073486328125,0.16764768616177433,0.1905507892370224,0.08832053070376103,0.08833099901676178,0.047893395254943155,0.9791220426536054,0.06696901775784549,left,-0.15871524810791016,0.36237668375899046,1.5301006125450134,-9.04121566284597,0.17670811797868624,0.22814032435417175,0.08875216543674469,-3.4764337097778912,-0.15362924337387085
1773149000293073400,13.912073486328126,0.16635908457819368,0.12771101295948029,0.08804779312466461,0.10011331737041473,0.04968864859188308,0.9786675614593561,0.07051240775689303,left,-0.20363306999206543,0.3670093505351479,1.5157656515918672,-9.027200581496954,0.17885317588243277,0.1617174595594406,0.06586621701717377,-3.518876720970869,-0.11388024687767029
1773149000333073400,13.952073486328125,0.16505057110887653,0.06487123668193817,0.0877743503068797,0.11189562827348709,0.05148351607655296,0.9782051380510992,0.07406858911490367,left,-0.24856829643249512,0.3716377291286035,1.5012600102469325,-9.01301423523426,0.1809967908849853,0.09529460966587067,0.04299764335155487,-3.5612051658734676,-0.0741429328918457
1773149000373073400,13.992073486328126,0.16673476577654534,0.26342523097991943,0.08918162473703994,0.07762789726257324,0.054792483773162676,0.9779589447512134,0.0805232893169633,left,-0.16880470514297485,0.3716396624945401,1.5164363904602824,-9.010465719795226,0.18066744202558177,0.0008993670344352722,0.05950090289115906,-3.561222993791103,-0.03657612204551697
1773149000413073400,14.032073486328125,0.1649667259765893,-0.10132554173469543,0.08844924677186813,-0.19408667087554932,0.05540590640140441,0.978162295013921,0.08224263586359055,left,-0.16972124576568604,0.36979629962811245,1.501578720807284,-9.019593029102683,0.1797371915955981,-0.12480088323354721,-0.0017358213663101196,-3.5443735657989976,-0.016610532999038696
1773149000453073200,14.0720732421875,0.15804935888967725,0.14338818192481995,0.08536597585754312,-0.09681683033704758,0.056473718649418546,0.9784924282931486,0.08579551074402977,left,-0.16087961196899414,0.3684101529851392,1.4399233518831431,-9.034607058361171,0.1790973743843549,0.07145316153764725,0.014969557523727417,-3.5316958705335852,0.015240371227264404
1773149000493073400,14.112073486328125,0.1558508776525497,0.18775096535682678,0.08489624350508682,0.20796597003936768,0.05955510135302871,0.9783315222214309,0.09245029224821548,left,-0.17800557613372803,0.3690710324673749,1.4196948028467595,-9.035443509185313,0.17920160880285824,-0.08190008252859116,0.052963048219680786,-3.537740995916724,0.047614336013793945
1773149000533073400,14.152073486328124,0.15772024706286863,-0.05016118288040161,0.08628410349698562,-0.17485448718070984,0.062052364395642615,0.9776843288430107,0.09689133050018829,left,-0.0034887194633483887,0.3736811984951438,1.434005944532901,-9.016570466411114,0.1812122688046667,0.2227603793144226,-0.01546601951122284,-3.579869242072105,-0.03316733241081238
1773149000573073400,14.192073486328125,0.14938894403071784,0.11638210713863373,0.0823144956829735,-0.04965361952781677,0.06166043464769229,0.9777043132051748,0.09741649067843956,left,-0.10298782587051392,0.37700561401701854,1.357058460061252,-9.016386342015862,0.18307525613977724,0.020413994789123535,0.02588406205177307,-3.6102009597107765,0.026495903730392456
1773149000613073400,14.232073486328124,0.1478034279369741,0.022995755076408386,0.0817527248664896,0.07298702001571655,0.062464935321258096,0.9774184223053264,0.09915833092012775,left,-0.10245496034622192,0.38011412624015645,1.3411020353861152,-9.007382951349019,0.18457453145150576,0.020392263308167458,0.004432067275047302,-3.6385268904849886,0.05132991075515747
1773149000653073400,14.272073486328125,0.15202728697734347,0.09250374883413315,0.08424744646466306,0.11729730665683746,0.06520000591043232,0.9771804810142242,0.1040227393455649,left,-0.002427816390991211,0.37914750337323033,1.3796679128848015,-9.005110330241918,0.18376481633603092,0.0177681315690279,-0.04092811048030853,-3.6297222372606393,-0.08677589893341064
1773149000693073200,14.3120732421875,0.15504016805196869,-0.1575307846069336,0.08541236621824334,-0.0023255720734596252,0.06367883434210087,0.9769045479258529,0.10014929379407701,left,-0.042769014835357666,0.3819884648009297,1.4051948605902491,-8.990688421657682,0.18522200186173954,0.044263869524002075,0.014859110116958618,-3.6555893767058847,0.017937898635864258
1773149000733073400,14.352073486328125,0.15490012286704088,-0.15649883449077606,0.08477889159723968,-0.10679425299167633,0.06064255851518274,0.977016175439663,0.09389739554144848,left,-0.07241272926330566,0.38290725470680387,1.403416891132295,-8.987562983113527,0.18594182678555074,0.04538751393556595,0.02305184304714203,-3.6639486242502928,-0.030228495597839355
1773149000773073400,14.392073486328124,0.15381166359940088,0.07941944897174835,0.08415686005348523,0.024206876754760742,0.060054297870072285,0.9770670651438614,0.0928823222069532,left,-0.08260232210159302,0.3831730484600981,1.3934842567913233,-8.988122370561957,0.18614757665982085,-0.037547774612903595,0.0389929860830307,-3.6663662067860363,0.04315817356109619
