time,seconds_elapsed,z,y,x
1773148986478848000,0.097847900390625,-19.82016372680664,-19.499130249023438,-26.05615234375
1773148986488885200,0.10788525390625,-19.82741928100586,-19.283340454101562,-26.09601593017578
1773148986498922000,0.117921875,-19.809513092041016,-19.13995361328125,-26.022483825683594
1773148986508959000,0.127958984375,-20.367494583129883,-18.66082000732422,-26.1905517578125
1773148986518996000,0.137995849609375,-20.781944274902344,-18.366539001464844,-26.12970733642578
1773148986529033200,0.148033203125,-21.132726669311523,-17.949737548828125,-25.999855041503906
1773148986539070200,0.1580703125,-21.353107452392578,-17.647071838378906,-25.905929565429688
1773148986549107200,0.168107177734375,-21.833826065063477,-16.90727996826172,-25.81255340576172
1773148986559144000,0.17814404296875,-22.385221481323242,-16.40874481201172,-25.808181762695312
1773148986569181200,0.18818115234375,-22.899913787841797,-15.798599243164062,-25.769264221191406
1773148986579218200,0.19821826171875,-23.310928344726562,-15.236526489257812,-25.733802795410156
1773148986589255200,0.208255126953125,-23.630353927612305,-14.621749877929688,-25.789031982421875
1773148986599291100,0.218291015625,-23.874155044555664,-13.9556884765625,-25.727386474609375
1773148986609328000,0.228328125,-24.10970687866211,-13.188522338867188,-25.91699981689453
1773148986619364900,0.23836474609375,-24.099843978881836,-12.860298156738281,-25.972457885742188
1773148986629401900,0.24840185546875,-24.182695388793945,-12.634025573730469,-26.05005645751953
1773148986639438800,0.25843896484375,-23.953243255615234,-12.546661376953125,-26.146774291992188
1773148986649476000,0.26847607421875,-24.002796173095703,-12.403053283691406,-26.220458984375
1773148986659513000,0.27851318359375,-23.995319366455078,-12.450881958007812,-26.26984405517578
1773148986669549800,0.2885498046875,-24.21845245361328,-12.515647888183594,-26.083206176757812
1773148986679586800,0.2985869140625,-24.555797576904297,-12.518112182617188,-25.902931213378906
1773148986689624000,0.3086240234375,-24.48764419555664,-12.64031982421875,-25.648345947265625
1773148986699661000,0.3186611328125,-24.4495906829834,-12.733665466308594,-25.49858856201172
1773148986709698000,0.328697998046875,-24.749048233032227,-12.9091796875,-25.314453125
1773148986719734800,0.33873486328125,-25.128681182861328,-12.935401916503906,-25.303070068359375
1773148986729771800,0.348771728515625,-25.165740966796875,-13.157524108886719,-25.142822265625
1773148986739809000,0.35880908203125,-24.79849624633789,-13.240226745605469,-25.254867553710938
1773148986749846000,0.368845947265625,-24.453189849853516,-13.294212341308594,-25.420562744140625
1773148986759882000,0.378882080078125,-23.964885711669922,-13.402191162109375,-25.695518493652344
1773148986769919000,0.3889189453125,-23.477338790893555,-13.723709106445312,-25.97992706298828
1773148986779956000,0.3989560546875,-22.77406883239746,-13.576126098632812,-26.24785614013672
1773148986789993000,0.408992919921875,-22.700057983398438,-13.601264953613281,-26.556381225585938
1773148986800030000,0.419030029296875,-22.65563201904297,-13.72955322265625,-26.84649658203125
1773148986810067000,0.42906689453125,-22.525760650634766,-13.626724243164062,-27.0721435546875
1773148986820104000,0.43910400390625,-22.40547752380371,-13.708274841308594,-27.076202392578125
1773148986830141200,0.44914111328125,-21.89607048034668,-13.717681884765625,-26.84355926513672
1773148986840178000,0.459177978515625,-22.082630157470703,-13.718544006347656,-27.10454559326172
1773148986850215000,0.46921484375,-22.147634506225586,-13.592514038085938,-27.196189880371094
1773148986860252000,0.479251953125,-21.836288452148438,-13.566764831542969,-27.33873748779297
1773148986870289000,0.489288818359375,-21.744979858398438,-13.596656799316406,-27.4493408203125
1773148986880326100,0.499326171875,-21.6392822265625,-13.815177917480469,-27.48456573486328
1773148986890363000,0.50936279296875,-21.24867820739746,-14.106781005859375,-27.438377380371094
1773148986900399900,0.51939990234375,-20.979934692382812,-14.434555053710938,-27.527206420898438
1773148986910436900,0.529436767578125,-20.72188377380371,-14.857498168945312,-27.68006134033203
1773148986920474000,0.53947412109375,-20.025386810302734,-15.268646240234375,-27.9632568359375
1773148986930511000,0.549510986328125,-19.440643310546875,-15.479499816894531,-28.18035125732422
1773148986940547800,0.5595478515625,-19.038589477539062,-15.392097473144531,-28.584442138671875
1773148986950583800,0.569583740234375,-18.737224578857422,-15.420867919921875,-28.754226684570312
1773148986960620800,0.579620849609375,-18.695858001708984,-15.211540222167969,-28.701309204101562
1773148986970658000,0.589657958984375,-18.74905776977539,-15.077781677246094,-28.73363494873047
1773148986980695000,0.599695068359375,-18.831188201904297,-14.80908203125,-28.6495361328125
1773148986990732000,0.60973193359375,-18.926414489746094,-14.46142578125,-28.708175659179688
1773148987000769000,0.61976904296875,-19.445446014404297,-14.303932189941406,-28.651893615722656
1773148987010806000,0.629805908203125,-19.8430118560791,-14.038558959960938,-28.516159057617188
1773148987020843000,0.639843017578125,-20.217077255249023,-14.104156494140625,-28.091842651367188
1773148987030880000,0.6498798828125,-20.856121063232422,-13.898414611816406,-27.876739501953125
1773148987040917000,0.6599169921875,-21.381534576416016,-13.911094665527344,-27.67072296142578
1773148987050954000,0.6699541015625,-21.844863891601562,-13.719718933105469,-27.410385131835938
1773148987060991000,0.679990966796875,-22.159029006958008,-13.619338989257812,-26.946075439453125
1773148987071028000,0.690028076171875,-22.786590576171875,-13.549423217773438,-26.51007080078125
1773148987081065000,0.70006494140625,-23.643924713134766,-13.4810791015625,-26.293724060058594
1773148987091102000,0.71010205078125,-23.91590690612793,-13.559051513671875,-25.98645782470703
1773148987101139000,0.720138916015625,-24.213361740112305,-13.495674133300781,-25.460891723632812
1773148987111176000,0.730176025390625,-24.671226501464844,-13.412994384765625,-24.981857299804688
1773148987121213000,0.740212890625,-25.24150848388672,-13.419120788574219,-24.4854736328125
1773148987131250000,0.75025,-25.956449508666992,-13.186569213867188,-23.959999084472656
1773148987141287000,0.760286865234375,-26.709253311157227,-13.096664428710938,-23.40283203125
1773148987151324200,0.77032421875,-27.253095626831055,-12.930351257324219,-22.784278869628906
1773148987161360100,0.780360107421875,-27.894174575805664,-12.758529663085938,-21.993019104003906
1773148987171396900,0.79039697265625,-28.54134750366211,-12.779762268066406,-21.458541870117188
1773148987181433900,0.800433837890625,-29.045202255249023,-12.857879638671875,-20.822235107421875
1773148987191470800,0.810470947265625,-29.608936309814453,-12.75091552734375,-20.15766143798828
1773148987201508000,0.820508056640625,-30.25934410095215,-12.6663818359375,-19.404296875
1773148987211545000,0.830545166015625,-30.540407180786133,-12.420204162597656,-18.44769287109375
1773148987221581800,0.840581787109375,-31.192333221435547,-12.389854431152344,-17.90215301513672
1773148987231618800,0.850618896484375,-31.721513748168945,-12.238456726074219,-17.21044158935547
1773148987241656000,0.860656005859375,-31.959287643432617,-11.936866760253906,-16.33641815185547
1773148987251693000,0.870693115234375,-32.83110809326172,-11.876113891601562,-15.338409423828125
1773148987261730000,0.88072998046875,-33.31557846069336,-11.72772216796875,-14.212654113769531
1773148987271766800,0.890766845703125,-34.03148651123047,-11.597930908203125,-13.091781616210938
1773148987281804000,0.900803955078125,-34.03148651123047,-11.597930908203125,-13.091781616210938
1773148987291841000,0.910841064453125,-34.650028228759766,-11.629554748535156,-11.767799377441406
1773148987301878000,0.9208779296875,-34.96775817871094,-11.686531066894531,-10.604103088378906
1773148987311915000,0.9309150390625,-35.19750213623047,-11.654159545898438,-9.472084045410156
1773148987321951700,0.94095166015625,-35.13093566894531,-11.726249694824219,-8.021743774414062
1773148987331989000,0.950989013671875,-35.540191650390625,-11.724472045898438,-6.7660369873046875
1773148987342026000,0.96102587890625,-35.87067413330078,-11.492378234863281,-5.997169494628906
1773148987352063000,0.97106298828125,-36.05888366699219,-11.247756958007812,-5.852165222167969
1773148987362100000,0.981099853515625,-36.03644561767578,-10.950172424316406,-5.9294891357421875
1773148987372137000,0.991136962890625,-36.076866149902344,-10.606903076171875,-6.412376403808594
1773148987382174000,1.001174072265625,-35.931068420410156,-10.228950500488281,-6.969490051269531
1773148987392211000,1.0112109375,-35.95215606689453,-9.615631103515625,-7.373069763183594
1773148987402247000,1.021246826171875,-35.890411376953125,-9.233306884765625,-7.5241851806640625
1773148987412284000,1.031283935546875,-35.81719207763672,-8.863319396972656,-7.402656555175781
1773148987422321200,1.041321044921875,-36.003822326660156,-8.363861083984375,-7.29925537109375
1773148987432358100,1.051358154296875,-36.171138763427734,-8.068519592285156,-7.317451477050781
1773148987442395000,1.061394775390625,-36.044410705566406,-7.719718933105469,-7.294380187988281
1773148987452432000,1.071431884765625,-36.01468276977539,-7.461944580078125,-7.550804138183594
1773148987462468900,1.08146875,-35.7247428894043,-7.055419921875,-7.9682464599609375
1773148987472506000,1.091506103515625,-35.67725372314453,-6.5007476806640625,-8.708282470703125
1773148987482543000,1.101543212890625,-35.442623138427734,-6.2463836669921875,-9.50048828125
1773148987492579800,1.111579833984375,-35.33740997314453,-5.721748352050781,-10.421974182128906
1773148987502616800,1.121616943359375,-34.919979095458984,-5.3028717041015625,-11.252578735351562
1773148987512654000,1.131654052734375,-34.37893295288086,-4.767555236816406,-12.294830322265625
1773148987522691000,1.141691162109375,-34.130775451660156,-4.228759765625,-12.997459411621094
1773148987532728000,1.15172802734375,-33.815345764160156,-3.8572463989257812,-13.599395751953125
1773148987542764800,1.161764892578125,-33.45952606201172,-3.1547012329101562,-14.144035339355469
1773148987552801800,1.1718017578125,-32.8598747253418,-2.4814224243164062,-14.389854431152344
1773148987562839000,1.181839111328125,-32.76976776123047,-1.9181976318359375,-14.865806579589844
1773148987572876000,1.1918759765625,-32.45597457885742,-1.3480453491210938,-15.365066528320312
1773148987582913000,1.2019130859375,-32.005577087402344,-0.5492172241210938,-15.976478576660156
1773148987592949800,1.21194970703125,-31.64627456665039,0.193389892578125,-16.685501098632812
1773148987602986800,1.22198681640625,-31.054115295410156,0.5587692260742188,-17.18457794189453
1773148987613023700,1.232023681640625,-30.343765258789062,1.1437225341796875,-17.99688720703125
1773148987623060700,1.242060791015625,-29.885251998901367,1.7904510498046875,-18.666343688964844
1773148987633097700,1.25209765625,-29.563671112060547,2.3360977172851562,-19.382217407226562
1773148987643134700,1.262134765625,-29.202848434448242,2.8809280395507812,-19.757553100585938
1773148987653171700,1.272171630859375,-28.863386154174805,3.638336181640625,-20.044456481933594
1773148987663208700,1.282208740234375,-28.487966537475586,4.429191589355469,-20.33124542236328
1773148987673245700,1.29224560546875,-28.10065460205078,5.277183532714844,-20.708518981933594
1773148987683282700,1.30228271484375,-27.547571182250977,6.1777496337890625,-20.944717407226562
1773148987693319700,1.312319580078125,-26.860307693481445,7.302337646484375,-21.261703491210938
1773148987703356700,1.322356689453125,-26.192359924316406,8.368995666503906,-21.843505859375
1773148987713392600,1.332392578125,-25.367839813232422,9.591026306152344,-22.300201416015625
1773148987723429600,1.3424296875,-24.441242218017578,10.863014221191406,-22.625106811523438
1773148987733466600,1.352466552734375,-23.76755142211914,12.060348510742188,-22.753082275390625
1773148987743504000,1.36250390625,-22.786848068237305,13.2977294921875,-22.60364532470703
1773148987753540900,1.372540771484375,-22.32596778869629,14.550949096679688,-22.36273193359375
1773148987763577600,1.38257763671875,-21.953630447387695,15.738121032714844,-21.951515197753906
1773148987773614600,1.392614501953125,-21.546247482299805,17.003097534179688,-21.315322875976562
1773148987783651800,1.40265185546875,-21.13248062133789,18.305648803710938,-20.358489990234375
1773148987793688800,1.412688720703125,-20.650920867919922,19.732620239257812,-19.317222595214844
1773148987803725800,1.422725830078125,-20.200782775878906,21.140579223632812,-18.259307861328125
1773148987813762600,1.432762451171875,-19.95829200744629,22.512603759765625,-17.117538452148438
1773148987823799600,1.442799560546875,-19.3601131439209,23.743194580078125,-15.768562316894531
1773148987833836800,1.4528369140625,-18.981042861938477,24.527801513671875,-14.253494262695312
1773148987843873800,1.462873779296875,-19.06890106201172,25.033355712890625,-12.931526184082031
1773148987853910800,1.472910888671875,-19.189411163330078,25.423080444335938,-11.742706298828125
1773148987863947500,1.482947509765625,-19.442291259765625,25.466110229492188,-10.926788330078125
1773148987873984800,1.49298486328125,-19.788942337036133,25.712677001953125,-10.268096923828125
1773148987884021800,1.503021728515625,-19.655200958251953,25.593460083007812,-9.338935852050781
1773148987894058800,1.513058837890625,-20.058950424194336,25.535186767578125,-8.903816223144531
1773148987904095700,1.523095703125,-20.407386779785156,25.4837646484375,-8.519218444824219
1773148987914132700,1.5331328125,-20.71489906311035,25.321685791015625,-8.244071960449219
1773148987924169700,1.543169677734375,-21.10410499572754,25.134384155273438,-8.004386901855469
1773148987934206700,1.553206787109375,-21.066387176513672,25.039291381835938,-7.581352233886719
1773148987944243700,1.56324365234375,-21.266525268554688,25.110244750976562,-7.210395812988281
1773148987954280700,1.57328076171875,-21.55208969116211,25.157516479492188,-6.690971374511719
1773148987964317700,1.583317626953125,-21.49224281311035,25.182022094726562,-6.1660614013671875
1773148987974354700,1.593354736328125,-21.624038696289062,25.259735107421875,-5.4431610107421875
1773148987984391700,1.6033916015625,-21.548513412475586,25.226348876953125,-4.748237609863281
1773148987994428700,1.6134287109375,-21.65021514892578,25.313812255859375,-4.004615783691406
1773148988004466000,1.6234658203125,-21.782634735107422,25.31768798828125,-3.1889801025390625
1773148988014502700,1.633502685546875,-21.735626220703125,25.5361328125,-2.4604873657226562
1773148988024539600,1.64353955078125,-21.58584976196289,25.489654541015625,-1.6887893676757812
1773148988034576600,1.65357666015625,-21.52142333984375,25.505447387695312,-1.1939163208007812
1773148988044612600,1.663612548828125,-21.43869400024414,25.4512939453125,-0.7674484252929688
1773148988054649900,1.67364990234375,-21.631229400634766,25.463394165039062,-0.4362945556640625
1773148988064686800,1.683686767578125,-21.903770446777344,25.401611328125,-0.1002044677734375
1773148988074723800,1.693723876953125,-21.599462509155273,25.344268798828125,0.39685821533203125
1773148988084760600,1.703760498046875,-21.64309310913086,25.113311767578125,0.607086181640625
1773148988094797600,1.713797607421875,-22.028106689453125,24.975250244140625,1.0524826049804688
1773148988104834800,1.723834716796875,-22.08481788635254,24.890472412109375,1.4488372802734375
1773148988114871800,1.733871826171875,-21.966888427734375,24.836944580078125,2.0135879516601562
1773148988124908800,1.74390869140625,-21.73862648010254,24.867172241210938,2.594879150390625
1773148988134945500,1.753945556640625,-21.667089462280273,24.937423706054688,2.8621063232421875
1773148988144982800,1.763982666015625,-21.71552276611328,24.917800903320312,2.9335174560546875
1773148988155019800,1.774019775390625,-21.80904769897461,24.895416259765625,3.0232162475585938
1773148988165056800,1.784056884765625,-21.709129333496094,24.886688232421875,2.802947998046875
1773148988175093800,1.79409375,-21.66843032836914,24.575958251953125,2.7402572631835938
1773148988185130800,1.804130859375,-21.663475036621094,24.754974365234375,2.4948348999023438
1773148988195167700,1.814167724609375,-21.907596588134766,24.766357421875,2.3669815063476562
1773148988205204700,1.824204833984375,-22.062332153320312,24.806777954101562,2.2154541015625
1773148988215241700,1.83424169921875,-22.002307891845703,24.818222045898438,2.1885223388671875
1773148988225278700,1.84427880859375,-22.150983810424805,24.630050659179688,1.8830184936523438
1773148988235315700,1.854315673828125,-22.09850311279297,24.645095825195312,1.6292724609375
1773148988245352700,1.864352783203125,-22.16936683654785,24.432907104492188,1.465087890625
1773148988255389700,1.8743896484375,-21.91754150390625,24.695510864257812,1.1203689575195312
1773148988265426700,1.8844267578125,-21.9835205078125,24.68267822265625,0.8464279174804688
1773148988275464000,1.8944638671875,-22.109832763671875,24.797897338867188,-0.121063232421875
1773148988285500700,1.904500732421875,-22.15023422241211,24.676101684570312,-0.8758468627929688
1773148988295537700,1.91453759765625,-22.496505737304688,24.630279541015625,-1.8227081298828125
1773148988305574700,1.92457470703125,-22.5401611328125,24.399505615234375,-2.8078231811523438
1773148988315611600,1.934611572265625,-22.468969345092773,24.163604736328125,-3.6156692504882812
1773148988325649000,1.94464892578125,-22.549190521240234,24.016159057617188,-4.771949768066406
1773148988335685600,1.954685546875,-22.754974365234375,23.60125732421875,-5.5431365966796875
1773148988345722600,1.96472265625,-22.802242279052734,23.33636474609375,-6.185150146484375
1773148988355759600,1.974759521484375,-22.92420196533203,23.150665283203125,-6.774299621582031
1773148988365796900,1.984796875,-23.155181884765625,23.097503662109375,-7.1446990966796875
1773148988375833900,1.994833740234375,-23.368558883666992,22.86993408203125,-7.661033630371094
1773148988385870600,2.00487060546875,-23.36229705810547,22.549545288085938,-8.153106689453125
1773148988395907600,2.014907470703125,-23.440792083740234,22.186279296875,-8.757560729980469
1773148988405944800,2.02494482421875,-23.43314552307129,21.88031005859375,-9.096847534179688
1773148988415981800,2.03498193359375,-23.45988655090332,21.695068359375,-9.827682495117188
1773148988426018800,2.045018798828125,-23.515003204345703,21.266265869140625,-10.339271545410156
1773148988436055600,2.0550556640625,-23.779857635498047,21.159683227539062,-10.744140625
1773148988446092500,2.065092529296875,-24.006610870361328,20.867141723632812,-11.053543090820312
1773148988456129800,2.0751298828125,-23.63631820678711,20.632843017578125,-11.361732482910156
1773148988466166800,2.085166748046875,-23.486501693725586,20.586181640625,-11.989768981933594
1773148988476203800,2.095203857421875,-23.44912338256836,20.578506469726562,-12.576881408691406
1773148988486239700,2.10523974609375,-23.01810073852539,20.645416259765625,-13.116996765136719
1773148988496276700,2.11527685546875,-22.503215789794922,20.567230224609375,-13.778938293457031
1773148988506313700,2.125313720703125,-22.101947784423828,20.625396728515625,-14.475059509277344
1773148988516350700,2.135350830078125,-21.552547454833984,20.327590942382812,-15.204994201660156
1773148988526387700,2.1453876953125,-21.481403350830078,20.067276000976562,-15.939163208007812
1773148988536424700,2.1554248046875,-21.0712890625,20.075225830078125,-16.55370330810547
1773148988546461700,2.165461669921875,-20.64492416381836,19.946990966796875,-16.953529357910156
1773148988556498700,2.175498779296875,-20.507911682128906,19.889236450195312,-17.494888305664062
1773148988566535700,2.18553564453125,-20.361961364746094,19.725631713867188,-17.660568237304688
1773148988576572700,2.19557275390625,-19.93038558959961,19.649520874023438,-17.795372009277344
1773148988586609700,2.205609619140625,-19.997589111328125,19.812026977539062,-17.658920288085938
1773148988596647000,2.21564697265625,-19.942487716674805,19.812774658203125,-16.934608459472656
1773148988606684000,2.225683837890625,-20.48554039001465,20.163803100585938,-15.871376037597656
1773148988616721000,2.235720947265625,-21.258358001708984,20.57025146484375,-14.503883361816406
1773148988626758000,2.2457578125,-21.964475631713867,20.7406005859375,-12.579475402832031
1773148988636795000,2.255794921875,-22.649076461791992,20.98138427734375,-10.790199279785156
1773148988646831900,2.265831787109375,-23.69502830505371,20.875991821289062,-8.81744384765625
1773148988656868900,2.275868896484375,-24.804441452026367,20.399932861328125,-7.112640380859375
1773148988666905900,2.28590576171875,-25.548959732055664,19.85052490234375,-5.5023040771484375
1773148988676942800,2.29594287109375,-26.40011978149414,19.041915893554688,-4.185554504394531
1773148988686979800,2.305979736328125,-27.395734786987305,18.1851806640625,-2.7909011840820312
1773148988697016800,2.316016845703125,-28.145143508911133,17.169769287109375,-1.6940994262695312
1773148988707053800,2.3260537109375,-28.86117935180664,16.347763061523438,-0.7683868408203125
1773148988717090800,2.3360908203125,-29.376676559448242,15.555274963378906,0.0925445556640625
1773148988727127800,2.3461279296875,-29.802501678466797,14.765205383300781,0.7066879272460938
1773148988737165000,2.3561650390625,-29.8332462310791,14.666488647460938,1.0627593994140625
1773148988747201800,2.366201904296875,-30.0067195892334,14.490798950195312,0.9545516967773438
1773148988757238800,2.37623876953125,-30.251935958862305,14.607826232910156,0.606689453125
1773148988767275800,2.38627587890625,-30.302873611450195,14.835517883300781,0.0211334228515625
1773148988777313000,2.39631298828125,-30.078388214111328,15.228584289550781,-0.7724990844726562
1773148988787350000,2.40635009765625,-29.704896926879883,15.6627197265625,-1.3014373779296875
1773148988797387000,2.416386962890625,-29.6196231842041,16.058937072753906,-2.4338150024414062
1773148988807423700,2.426423828125,-29.53124237060547,16.38507080078125,-3.1458282470703125
1773148988817460700,2.436460693359375,-29.23440170288086,16.914169311523438,-3.5558319091796875
1773148988827498000,2.446498046875,-29.132287979125977,17.180831909179688,-3.6495208740234375
1773148988837535000,2.456534912109375,-29.16066551208496,17.160064697265625,-3.4192123413085938
1773148988847572000,2.466572021484375,-29.330068588256836,17.189956665039062,-3.16461181640625
1773148988857608700,2.476608642578125,-29.56790542602539,17.004684448242188,-2.807952880859375
1773148988867646000,2.48664599609375,-29.609397888183594,17.035293579101562,-2.4443283081054688
1773148988877683000,2.496682861328125,-29.82208251953125,16.823715209960938,-2.0230865478515625
1773148988887720000,2.506719970703125,-29.82208251953125,16.823715209960938,-2.0230865478515625
1773148988897757000,2.5167568359375,-29.934574127197266,16.682540893554688,-1.6711578369140625
1773148988907794000,2.5267939453125,-29.89558219909668,16.59747314453125,-1.3145675659179688
1773148988917831000,2.536830810546875,-29.970558166503906,16.688522338867188,-1.0313491821289062
1773148988927868000,2.546867919921875,-29.96580696105957,16.752166748046875,-0.9280166625976562
1773148988937905000,2.55690478515625,-29.772933959960938,17.035400390625,-0.7741622924804688
1773148988947942000,2.56694189453125,-29.788307189941406,17.262786865234375,-1.0929183959960938
1773148988957979000,2.576978759765625,-29.562267303466797,17.809539794921875,-1.3541412353515625
1773148988968016000,2.587015869140625,-29.16946029663086,18.482757568359375,-1.95672607421875
1773148988978052900,2.597052978515625,-28.693342208862305,18.831802368164062,-2.6015243530273438
1773148988988089900,2.60708984375,-28.148452758789062,19.242477416992188,-3.2420272827148438
1773148988998127000,2.617127197265625,-27.98075294494629,19.695404052734375,-4.354362487792969
1773148989008163800,2.627163818359375,-27.405311584472656,20.42236328125,-5.372352600097656
1773148989018200800,2.637200927734375,-26.90572738647461,20.88916015625,-6.586524963378906
1773148989028237800,2.64723779296875,-26.440536499023438,21.018936157226562,-7.67218017578125
1773148989038274800,2.65727490234375,-25.81464958190918,21.396392822265625,-8.871978759765625
1773148989048312000,2.66731201171875,-25.601594924926758,21.265853881835938,-10.115936279296875
1773148989058348800,2.677348876953125,-25.517107009887695,21.168701171875,-11.30780029296875
1773148989068385800,2.6873857421875,-25.32082748413086,20.898590087890625,-12.402435302734375
1773148989078422800,2.6974228515625,-24.979631423950195,20.597946166992188,-13.492073059082031
1773148989088460000,2.7074599609375,-24.84181785583496,20.245437622070312,-14.382957458496094
1773148989098496000,2.71749609375,-24.86138916015625,19.945022583007812,-15.179031372070312
1773148989108533000,2.727532958984375,-24.69790267944336,19.550765991210938,-15.697494506835938
1773148989118569700,2.73756982421875,-24.588998794555664,19.712722778320312,-16.065650939941406
1773148989128606700,2.747606689453125,-24.708885192871094,19.810012817382812,-16.121559143066406
1773148989138644000,2.75764404296875,-24.395015716552734,19.925369262695312,-16.365318298339844
1773148989148681000,2.767680908203125,-24.268798828125,20.09161376953125,-16.463302612304688
1773148989158718000,2.777718017578125,-24.08847999572754,20.249618530273438,-16.581886291503906
1773148989168755000,2.7877548828125,-23.97222137451172,20.415054321289062,-16.812538146972656
1773148989178792000,2.7977919921875,-23.33660316467285,20.407363891601562,-17.07640838623047
1773148989188829000,2.807828857421875,-23.392641067504883,20.360931396484375,-17.815589904785156
1773148989198866000,2.817865966796875,-22.962268829345703,20.141036987304688,-18.608383178710938
1773148989208903000,2.82790283203125,-22.43285369873047,19.807083129882812,-19.843978881835938
1773148989218940000,2.83793994140625,-21.681438446044922,19.388839721679688,-20.992759704589844
1773148989228977000,2.847976806640625,-21.051284790039062,18.892623901367188,-22.34772491455078
1773148989239014000,2.858013916015625,-20.530136108398438,18.21917724609375,-23.27686309814453
1773148989249051000,2.86805078125,-20.093345642089844,17.384323120117188,-24.08428955078125
1773148989259088000,2.878087890625,-19.411399841308594,16.794036865234375,-24.868202209472656
1773148989269124900,2.888124755859375,-18.93146514892578,16.190582275390625,-25.585792541503906
1773148989279161900,2.898161865234375,-18.231637954711914,15.785194396972656,-26.379043579101562
1773148989289198800,2.90819873046875,-17.782451629638672,15.404502868652344,-26.88903045654297
1773148989299235800,2.91823583984375,-17.459157943725586,14.940338134765625,-27.43993377685547
1773148989309272800,2.92827294921875,-17.15800666809082,14.669349670410156,-27.81487274169922
1773148989319309800,2.938309814453125,-16.627567291259766,14.263969421386719,-27.98981475830078
1773148989329346800,2.948346923828125,-16.453140258789062,13.77813720703125,-28.271194458007812
1773148989339383800,2.9583837890625,-16.267047882080078,13.702720642089844,-28.355117797851562
1773148989349420800,2.9684208984375,-16.14441680908203,13.904853820800781,-28.26422119140625
1773148989359458000,2.9784580078125,-16.45177459716797,14.038986206054688,-28.06183624267578
1773148989369495000,2.9884951171875,-16.836605072021484,14.372001647949219,-27.5330810546875
1773148989379531800,2.99853173828125,-17.61603355407715,14.587005615234375,-27.237594604492188
1773148989389568800,3.00856884765625,-18.31949234008789,14.814178466796875,-26.849647521972656
1773148989399606000,3.01860595703125,-18.53939437866211,15.038185119628906,-26.365493774414062
1773148989409643000,3.02864306640625,-18.496761322021484,15.141487121582031,-26.251304626464844
1773148989419680000,3.038679931640625,-18.715469360351562,15.22491455078125,-25.992446899414062
1773148989429716700,3.048716796875,-18.63654899597168,15.112655639648438,-25.940757751464844
1773148989439753700,3.058753662109375,-18.38777732849121,14.954109191894531,-26.003662109375
1773148989449791000,3.068791015625,-18.145112991333008,14.802619934082031,-26.20526885986328
1773148989459828000,3.078827880859375,-17.558488845825195,14.60943603515625,-26.341758728027344
1773148989469865000,3.088864990234375,-17.30974769592285,14.627815246582031,-26.570518493652344
1773148989479901700,3.098901611328125,-16.822355270385742,14.6011962890625,-26.721221923828125
1773148989489939000,3.10893896484375,-16.49810028076172,14.508705139160156,-26.91710662841797
1773148989499976000,3.118975830078125,-16.420658111572266,14.439292907714844,-27.006240844726562
1773148989510013000,3.129012939453125,-16.380901336669922,14.689605712890625,-26.82135772705078
1773148989520050000,3.1390498046875,-16.166133880615234,14.885330200195312,-26.946502685546875
1773148989530087000,3.1490869140625,-16.206409454345703,14.989753723144531,-26.904945373535156
1773148989540124000,3.1591240234375,-15.83671760559082,15.496116638183594,-26.885353088378906
1773148989550161000,3.169160888671875,-15.425240516662598,16.135711669921875,-26.738754272460938
1773148989560198000,3.179197998046875,-15.076165199279785,16.839065551757812,-26.42792510986328
1773148989570235000,3.18923486328125,-15.049373626708984,17.559234619140625,-26.088668823242188
1773148989580271900,3.19927197265625,-14.91348648071289,18.0946044921875,-25.39362335205078
1773148989590308900,3.209308837890625,-15.536822319030762,18.694290161132812,-24.59302520751953
1773148989600345900,3.219345947265625,-16.303104400634766,18.994094848632812,-23.541419982910156
1773148989610382600,3.229382568359375,-17.23708724975586,19.447784423828125,-22.553955078125
1773148989620419800,3.239419921875,-17.998973846435547,19.8408203125,-21.726829528808594
1773148989630456600,3.24945654296875,-18.876976013183594,19.950088500976562,-20.9964599609375
1773148989640493600,3.25949365234375,-19.22019386291504,20.411163330078125,-20.565170288085938
1773148989650530600,3.269530517578125,-19.267642974853516,20.378829956054688,-19.977439880371094
1773148989660567600,3.279567626953125,-19.355745315551758,20.419342041015625,-19.99774932861328
1773148989670604800,3.289604736328125,-18.905364990234375,20.520095825195312,-20.00635528564453
1773148989680641500,3.2996416015625,-18.52750015258789,20.634185791015625,-20.218414306640625
1773148989690678500,3.309678466796875,-18.448598861694336,20.2847900390625,-20.548011779785156
1773148989700715500,3.319715576171875,-17.807445526123047,20.165130615234375,-20.85057830810547
1773148989710752800,3.329752685546875,-17.548381805419922,20.1092529296875,-21.171981811523438
1773148989720789800,3.339789794921875,-17.233623504638672,20.279678344726562,-21.46448516845703
1773148989730826500,3.349826416015625,-16.958820343017578,20.207168579101562,-21.706565856933594
1773148989740863500,3.359863525390625,-16.766578674316406,20.234878540039062,-21.85619354248047
1773148989750900700,3.369900634765625,-16.68792724609375,20.177597045898438,-21.810768127441406
1773148989760937700,3.379937744140625,-16.735719680786133,20.155715942382812,-21.874740600585938
1773148989770974700,3.389974609375,-16.825057983398438,20.074691772460938,-21.67987823486328
1773148989781011500,3.400011474609375,-16.922561645507812,20.18310546875,-21.36797332763672
1773148989791048400,3.41004833984375,-17.20775604248047,20.272262573242188,-21.046676635742188
1773148989801085700,3.420085693359375,-17.376731872558594,20.31402587890625,-20.868743896484375
1773148989811122700,3.430122802734375,-17.406463623046875,20.230209350585938,-20.607215881347656
1773148989821159700,3.44015966796875,-17.450490951538086,20.23541259765625,-20.387611389160156
1773148989831196700,3.45019677734375,-17.598783493041992,20.191726684570312,-20.20745086669922
1773148989841233700,3.460233642578125,-17.63180923461914,20.179656982421875,-20.070144653320312
1773148989851270700,3.470270751953125,-17.954572677612305,20.026168823242188,-20.04150390625
1773148989861307600,3.4803076171875,-18.033248901367188,19.96514892578125,-20.221115112304688
1773148989871344600,3.4903447265625,-18.08506965637207,19.840240478515625,-20.263694763183594
1773148989881381600,3.500381591796875,-18.08248519897461,19.669448852539062,-20.358985900878906
1773148989891418600,3.510418701171875,-17.760173797607422,19.697235107421875,-20.219940185546875
1773148989901455600,3.52045556640625,-17.833839416503906,19.456878662109375,-20.244140625
1773148989911492600,3.53049267578125,-17.744718551635742,19.336257934570312,-20.31456756591797
1773148989921529600,3.540529541015625,-17.74968910217285,19.13641357421875,-20.32140350341797
1773148989931566600,3.550566650390625,-17.765830993652344,19.094985961914062,-20.23442840576172
1773148989941603600,3.560603515625,-17.803739547729492,19.103378295898438,-20.17772674560547
1773148989951640600,3.570640625,-17.94173240661621,19.027923583984375,-20.025741577148438
1773148989961677600,3.580677490234375,-18.072711944580078,19.181243896484375,-19.86383819580078
1773148989971714800,3.59071484375,-18.477977752685547,19.202987670898438,-19.637733459472656
1773148989981751800,3.600751708984375,-18.57969856262207,19.041915893554688,-19.196426391601562
1773148989991788500,3.61078857421875,-18.866222381591797,19.032379150390625,-18.928207397460938
1773148990001825500,3.620825439453125,-19.147117614746094,18.981735229492188,-18.60106658935547
1773148990011862500,3.630862548828125,-19.254169464111328,19.192459106445312,-18.12560272216797
1773148990021899800,3.640899658203125,-19.620880126953125,19.165496826171875,-17.60516357421875
1773148990031936800,3.650936767578125,-19.774744033813477,19.161483764648438,-17.23162841796875
1773148990041973500,3.660973388671875,-20.25033950805664,19.139755249023438,-17.086196899414062
1773148990052010500,3.671010498046875,-20.755847930908203,19.094711303710938,-16.81470489501953
1773148990062047700,3.6810478515625,-21.110126495361328,18.883712768554688,-16.465057373046875
1773148990072084700,3.691084716796875,-21.29001235961914,18.683502197265625,-16.190147399902344
1773148990082121700,3.701121826171875,-21.42879867553711,18.41595458984375,-15.860519409179688
1773148990092158500,3.711158447265625,-21.993694305419922,18.083572387695312,-15.740989685058594
1773148990102195700,3.72119580078125,-22.57449722290039,17.902328491210938,-15.534919738769531
1773148990112232700,3.731232666015625,-22.949569702148438,17.529159545898438,-15.541473388671875
1773148990122269700,3.741269775390625,-23.40937614440918,17.079238891601562,-15.170646667480469
1773148990132306700,3.751306640625,-23.600540161132812,16.807754516601562,-15.049301147460938
1773148990142343400,3.761343505859375,-23.953413009643555,16.607833862304688,-15.139442443847656
1773148990152380700,3.771380615234375,-24.315555572509766,16.302001953125,-15.029579162597656
1773148990162417700,3.781417724609375,-24.53843879699707,15.767501831054688,-14.791473388671875
1773148990172454700,3.79145458984375,-24.806995391845703,15.71929931640625,-14.547393798828125
1773148990182491600,3.80149169921875,-25.020294189453125,15.477455139160156,-14.335609436035156
1773148990192528600,3.811528564453125,-25.607074737548828,15.000312805175781,-14.178543090820312
1773148990202565600,3.821565673828125,-25.904022216796875,14.82208251953125,-13.934928894042969
1773148990212602600,3.8316025390625,-26.06709861755371,14.583450317382812,-13.742103576660156
1773148990222639600,3.8416396484375,-26.24972152709961,14.410926818847656,-13.411224365234375
1773148990232676900,3.8516767578125,-26.285444259643555,14.070274353027344,-13.416893005371094
1773148990242713600,3.861713623046875,-26.57758140563965,13.800796508789062,-13.238945007324219
1773148990252750600,3.87175048828125,-26.78334617614746,13.817848205566406,-13.220108032226562
1773148990262787600,3.88178759765625,-27.00136947631836,13.500656127929688,-13.075157165527344
1773148990272824600,3.891824462890625,-27.177854537963867,13.287727355957031,-12.969139099121094
1773148990282861800,3.90186181640625,-27.31563949584961,13.157463073730469,-12.883804321289062
1773148990292898600,3.911898681640625,-27.469331741333008,13.064682006835938,-12.761947631835938
1773148990302935600,3.921935546875,-27.408891677856445,13.090385437011719,-12.561378479003906
1773148990312972500,3.93197265625,-27.569095611572266,12.951103210449219,-12.472755432128906
1773148990323009800,3.942009765625,-27.557186126708984,12.8958740234375,-12.251251220703125
1773148990333046800,3.952046875,-27.979869842529297,12.768547058105469,-12.22601318359375
1773148990343083500,3.96208349609375,-27.77768898010254,12.669197082519531,-12.106605529785156
1773148990353120500,3.97212060546875,-27.800281524658203,12.786865234375,-11.851119995117188
1773148990363157800,3.98215771484375,-27.65835189819336,12.748176574707031,-11.682380676269531
1773148990373194800,3.99219482421875,-27.654624938964844,12.748359680175781,-11.777412414550781
1773148990383231700,4.002231689453125,-27.928930282592773,12.743667602539062,-11.876762390136719
1773148990393268500,4.0122685546875,-27.637636184692383,12.683639526367188,-11.93609619140625
1773148990403305500,4.022305419921875,-27.501068115234375,12.908706665039062,-11.945014953613281
1773148990413342700,4.0323427734375,-27.439287185668945,12.847183227539062,-12.033370971679688
1773148990423379700,4.042379638671875,-27.643505096435547,12.875663757324219,-12.178627014160156
1773148990433416700,4.052416748046875,-27.388545989990234,12.850990295410156,-12.236534118652344
1773148990443453400,4.062453369140625,-27.22164535522461,12.890861511230469,-12.240577697753906
1773148990453490700,4.07249072265625,-27.267934799194336,12.993927001953125,-12.375328063964844
1773148990463527700,4.082527587890625,-27.086301803588867,13.048255920410156,-12.465118408203125
1773148990473564700,4.092564697265625,-26.92387580871582,13.145553588867188,-12.467887878417969
1773148990483601700,4.1026015625,-26.758434295654297,13.329948425292969,-12.493789672851562
1773148990493638400,4.112638427734375,-26.758434295654297,13.329948425292969,-12.493789672851562
1773148990503675600,4.122675537109375,-26.599088668823242,13.6505126953125,-12.529426574707031
1773148990513712600,4.132712646484375,-26.29541015625,13.703399658203125,-12.555992126464844
1773148990523749600,4.14274951171875,-26.449918746948242,13.702011108398438,-12.451713562011719
1773148990533786600,4.15278662109375,-26.669607162475586,13.769264221191406,-12.426284790039062
1773148990543823600,4.16282373046875,-26.542959213256836,13.619956970214844,-12.22503662109375
1773148990553860600,4.172860595703125,-26.828508377075195,13.709754943847656,-12.072364807128906
1773148990563897600,4.182897705078125,-26.86538314819336,13.599708557128906,-11.63720703125
1773148990573934600,4.1929345703125,-27.120037078857422,13.4876708984375,-11.589424133300781
1773148990583971800,4.202971923828125,-27.299774169921875,13.5833740234375,-11.553016662597656
1773148990594008600,4.213008544921875,-27.274385452270508,13.58990478515625,-11.505584716796875
1773148990604046600,4.223046630859375,-26.985374450683594,13.519515991210938,-11.689453125
1773148990614083300,4.233083251953125,-26.79698371887207,13.760444641113281,-11.745704650878906
1773148990624120600,4.24312060546875,-26.774477005004883,13.942619323730469,-11.94580078125
1773148990634157300,4.2531572265625,-26.769075393676758,13.867645263671875,-12.130393981933594
1773148990644194300,4.2631943359375,-26.60610008239746,13.915061950683594,-12.334854125976562
1773148990654231300,4.273231201171875,-26.475500106811523,14.095703125,-12.508125305175781
1773148990664268500,4.2832685546875,-26.316736221313477,14.272651672363281,-12.748252868652344
1773148990674305500,4.293305419921875,-26.1279296875,14.375625610351562,-13.010887145996094
1773148990684342300,4.30334228515625,-26.083635330200195,14.405052185058594,-13.096595764160156
1773148990694379300,4.313379150390625,-26.095327377319336,14.501426696777344,-13.181022644042969
1773148990704416300,4.323416259765625,-25.901655197143555,14.572181701660156,-13.074302673339844
1773148990714453500,4.33345361328125,-26.012588500976562,14.449195861816406,-13.265838623046875
1773148990724490500,4.343490478515625,-25.885639190673828,14.753593444824219,-13.459922790527344
1773148990734527200,4.35352734375,-25.674457550048828,14.508895874023438,-13.466339111328125
1773148990744564200,4.363564208984375,-25.770671844482422,14.768074035644531,-13.50506591796875
1773148990754601500,4.3736015625,-25.623638153076172,14.737953186035156,-13.195747375488281
1773148990764638500,4.383638427734375,-25.688451766967773,14.722679138183594,-13.368118286132812
1773148990774675500,4.393675537109375,-25.503915786743164,14.912002563476562,-13.3126220703125
1773148990784712200,4.403712158203125,-25.433568954467773,14.957420349121094,-13.32623291015625
1773148990794749400,4.41374951171875,-25.407926559448242,14.969795227050781,-13.310546875
1773148990804786400,4.423786376953125,-25.24615478515625,15.109634399414062,-13.307785034179688
1773148990814823400,4.433823486328125,-25.50403594970703,15.164085388183594,-13.408203125
1773148990824860400,4.4438603515625,-25.409839630126953,15.216812133789062,-13.504020690917969
1773148990834897200,4.453897216796875,-25.389732360839844,15.264930725097656,-13.454544067382812
1773148990844934400,4.463934326171875,-25.168081283569336,15.295486450195312,-13.391960144042969
1773148990854971400,4.473971435546875,-24.834760665893555,15.250129699707031,-13.509376525878906
1773148990865008400,4.48400830078125,-24.941850662231445,15.468429565429688,-13.552139282226562
1773148990875045400,4.49404541015625,-24.754741668701172,15.571357727050781,-13.454910278320312
1773148990885082400,4.504082275390625,-24.865642547607422,15.625625610351562,-13.512870788574219
1773148990895119400,4.514119384765625,-24.688230514526367,15.908828735351562,-13.2196044921875
1773148990905156400,4.52415625,-24.789480209350586,15.855155944824219,-13.181747436523438
1773148990915194400,4.5341943359375,-24.758237838745117,16.076950073242188,-13.256340026855469
1773148990925230300,4.544230224609375,-24.781295776367188,16.02611541748047,-13.262969970703125
1773148990935268400,4.554268310546875,-24.861629486083984,16.12750244140625,-13.305282592773438
1773148990945305300,4.564305419921875,-24.568464279174805,16.134857177734375,-13.16302490234375
1773148990955342300,4.57434228515625,-24.587221145629883,15.992424011230469,-13.288375854492188
1773148990965379600,4.584379638671875,-24.706817626953125,15.883720397949219,-13.322402954101562
1773148990975416300,4.594416259765625,-24.459421157836914,15.9320068359375,-13.432296752929688
1773148990985453300,4.604453369140625,-24.52171516418457,15.950958251953125,-13.478218078613281
1773148990995490300,4.614490234375,-24.802213668823242,15.894454956054688,-13.499687194824219
1773148991005527600,4.624527587890625,-24.698766708374023,16.034591674804688,-13.500587463378906
1773148991015564500,4.634564453125,-24.700490951538086,16.077316284179688,-13.484046936035156
1773148991025601300,4.644601318359375,-24.5986328125,16.255462646484375,-13.421195983886719
1773148991035638300,4.65463818359375,-24.370830535888672,16.285980224609375,-13.255081176757812
1773148991045675300,4.66467529296875,-24.511510848999023,16.347869873046875,-13.205291748046875
1773148991055712500,4.67471240234375,-24.49132537841797,16.312911987304688,-13.124946594238281
1773148991065749500,4.68474951171875,-24.656274795532227,16.517196655273438,-13.063163757324219
1773148991075786200,4.6947861328125,-24.612890243530273,16.623992919921875,-13.007041931152344
1773148991085823200,4.7048232421875,-24.294218063354492,16.585723876953125,-12.903915405273438
1773148991095860500,4.714860595703125,-24.61646270751953,16.639801025390625,-13.059303283691406
1773148991105897500,4.7248974609375,-24.910852432250977,16.753463745117188,-12.994300842285156
1773148991115934500,4.7349345703125,-24.697669982910156,16.714828491210938,-13.039138793945312
1773148991125971200,4.74497119140625,-24.60517692565918,16.670257568359375,-13.001609802246094
1773148991136008400,4.755008544921875,-24.530887603759766,16.687789916992188,-12.905540466308594
1773148991146045400,4.76504541015625,-24.529829025268555,16.892959594726562,-13.014083862304688
1773148991156082400,4.77508251953125,-24.50533676147461,16.996795654296875,-12.943275451660156
1773148991166119400,4.785119384765625,-24.374862670898438,16.993438720703125,-12.982284545898438
1773148991176156200,4.79515625,-24.264558792114258,17.032623291015625,-12.981147766113281
1773148991186193400,4.805193359375,-24.322425842285156,16.943893432617188,-12.921340942382812
1773148991196230400,4.81523046875,-24.469789505004883,17.107574462890625,-12.85272216796875
1773148991206267400,4.825267333984375,-24.385028839111328,17.331314086914062,-12.978004455566406
1773148991216304400,4.835304443359375,-24.434795379638672,17.23370361328125,-12.915779113769531
1773148991226341400,4.84534130859375,-24.0745849609375,17.188186645507812,-12.912673950195312
1773148991236378400,4.85537841796875,-24.061969757080078,17.391525268554688,-12.956085205078125
1773148991246415400,4.865415283203125,-24.088987350463867,17.34576416015625,-12.9171142578125
1773148991256452400,4.875452392578125,-23.881881713867188,17.514617919921875,-13.011299133300781
1773148991266489300,4.8854892578125,-23.904415130615234,17.642532348632812,-13.135833740234375
1773148991276526300,4.8955263671875,-23.684267044067383,17.446487426757812,-13.016380310058594
1773148991286563300,4.905563232421875,-23.800884246826172,17.800933837890625,-13.153861999511719
1773148991296600300,4.915600341796875,-23.991897583007812,17.857940673828125,-13.248916625976562
1773148991306637300,4.92563720703125,-23.86747932434082,17.886978149414062,-13.218734741210938
1773148991316674600,4.935674560546875,-23.606239318847656,17.993789672851562,-13.410682678222656
1773148991326711300,4.945711181640625,-23.60093116760254,18.019241333007812,-13.508682250976562
1773148991336748300,4.955748291015625,-23.44417381286621,17.81463623046875,-13.590042114257812
1773148991346785300,4.965785400390625,-23.513444900512695,17.814407348632812,-13.739471435546875
1773148991356822500,4.975822509765625,-23.386077880859375,18.186508178710938,-13.887123107910156
1773148991366859500,4.985859619140625,-22.836013793945312,18.136474609375,-13.858306884765625
1773148991376896300,4.995896240234375,-22.677833557128906,18.209442138671875,-14.031501770019531
1773148991386933200,5.005933349609375,-22.607620239257812,18.434707641601562,-14.146354675292969
1773148991396970200,5.01597021484375,-22.356304168701172,18.50518798828125,-14.337203979492188
1773148991407007500,5.026007568359375,-22.316673278808594,18.626968383789062,-14.483230590820312
1773148991417044500,5.03604443359375,-21.917560577392578,18.767868041992188,-14.496047973632812
1773148991427081500,5.04608154296875,-21.698322296142578,18.834548950195312,-14.629615783691406
1773148991437118200,5.0561181640625,-21.792495727539062,19.201187133789062,-14.812461853027344
1773148991447155500,5.066155517578125,-21.695934295654297,19.145355224609375,-14.837051391601562
1773148991457192400,5.0761923828125,-21.485490798950195,19.276565551757812,-14.923553466796875
1773148991467229400,5.0862294921875,-21.15540313720703,19.346511840820312,-14.750236511230469
1773148991477266400,5.096266357421875,-21.262039184570312,19.492660522460938,-15.087623596191406
1773148991487303400,5.106303466796875,-21.211151123046875,19.605667114257812,-15.065467834472656
1773148991497340400,5.11634033203125,-21.219505310058594,19.657913208007812,-15.185516357421875
1773148991507378400,5.12637841796875,-21.147205352783203,19.656982421875,-15.159492492675781
1773148991517415200,5.136415283203125,-21.279571533203125,19.640380859375,-15.0992431640625
1773148991527452400,5.146452392578125,-21.461883544921875,19.566146850585938,-15.090278625488281
1773148991537489400,5.156489501953125,-21.34035873413086,19.5615234375,-15.106918334960938
1773148991547526400,5.1665263671875,-21.247621536254883,19.6038818359375,-15.117996215820312
1773148991557563400,5.1765634765625,-21.257108688354492,19.743515014648438,-14.871353149414062
1773148991567600400,5.186600341796875,-21.246131896972656,19.70928955078125,-14.881607055664062
1773148991577637400,5.196637451171875,-21.54973602294922,19.797653198242188,-14.941047668457031
1773148991587674400,5.20667431640625,-21.617847442626953,19.634902954101562,-14.760360717773438
1773148991597711400,5.21671142578125,-21.701868057250977,19.43621826171875,-14.772270202636719
1773148991607748900,5.226748779296875,-21.701427459716797,19.5517578125,-14.749855041503906
1773148991617785900,5.236785888671875,-21.88329315185547,19.580047607421875,-14.820686340332031
1773148991627822800,5.24682275390625,-21.79661750793457,19.649490356445312,-14.990699768066406
1773148991637859800,5.25685986328125,-21.607421875,19.506011962890625,-15.057273864746094
1773148991647896800,5.266896728515625,-21.357372283935547,19.397293090820312,-15.104690551757812
1773148991657933800,5.276933837890625,-21.450807571411133,19.530792236328125,-15.249382019042969
1773148991667970800,5.286970703125,-21.360424041748047,19.399032592773438,-15.363632202148438
1773148991678007800,5.2970078125,-21.273548126220703,19.211349487304688,-15.680183410644531
1773148991688044800,5.307044921875,-21.224449157714844,19.259506225585938,-15.934028625488281
1773148991698082000,5.31708203125,-21.20853042602539,19.10009765625,-15.940635681152344
1773148991708119000,5.327119140625,-20.989883422851562,19.21343994140625,-16.1705322265625
1773148991718155800,5.33715576171875,-20.773345947265625,19.41595458984375,-16.422866821289062
1773148991728192800,5.34719287109375,-20.804874420166016,19.300552368164062,-16.462326049804688
1773148991738230000,5.35722998046875,-20.756309509277344,19.187637329101562,-16.433944702148438
1773148991748267000,5.36726708984375,-20.745925903320312,19.262237548828125,-16.482345581054688
1773148991758304000,5.377303955078125,-20.734050750732422,19.256942749023438,-16.645767211914062
1773148991768340700,5.3873408203125,-20.69879913330078,19.341567993164062,-16.765647888183594
1773148991778377700,5.397377685546875,-20.73958969116211,19.348648071289062,-16.83490753173828
1773148991788415000,5.4074150390625,-20.662822723388672,19.450759887695312,-16.91419219970703
1773148991798452000,5.417451904296875,-20.31032943725586,19.526809692382812,-16.751319885253906
1773148991808489000,5.427489013671875,-20.44493865966797,19.572463989257812,-17.097450256347656
1773148991818525700,5.437525634765625,-20.424610137939453,19.526779174804688,-17.123275756835938
1773148991828563000,5.44756298828125,-20.49260711669922,19.640823364257812,-17.15972137451172
1773148991838600000,5.457599853515625,-20.512657165527344,19.532073974609375,-17.140853881835938
1773148991848637000,5.467636962890625,-20.25052833557129,19.646331787109375,-17.1119384765625
1773148991858674000,5.477673828125,-20.128952026367188,19.664993286132812,-17.03656005859375
1773148991868711000,5.4877109375,-19.971874237060547,19.841094970703125,-17.068344116210938
1773148991878748000,5.497747802734375,-20.22890853881836,19.879165649414062,-17.00226593017578
1773148991888785000,5.507784912109375,-20.154651641845703,20.072509765625,-16.864791870117188
1773148991898822000,5.51782177734375,-20.01059341430664,20.099456787109375,-16.79186248779297
1773148991908859000,5.52785888671875,-20.041627883911133,20.155776977539062,-16.840042114257812
1773148991918895900,5.537895751953125,-20.182598114013672,20.170150756835938,-16.727554321289062
1773148991928934000,5.547933837890625,-20.182952880859375,20.126113891601562,-16.61762237548828
1773148991938971000,5.557970947265625,-19.99909782409668,20.304046630859375,-16.452072143554688
1773148991949008000,5.5680078125,-20.066213607788086,20.354583740234375,-16.609230041503906
1773148991959044900,5.578044921875,-20.22743034362793,20.226959228515625,-16.561424255371094
1773148991969081900,5.588081787109375,-20.343372344970703,20.297622680664062,-16.51416015625
1773148991979118800,5.598118896484375,-20.19920539855957,20.342559814453125,-16.555953979492188
1773148991989155800,5.60815576171875,-20.303302764892578,20.339096069335938,-16.45140838623047
1773148991999192800,5.61819287109375,-20.25390625,20.391159057617188,-16.63097381591797
1773148992009229800,5.628229736328125,-20.179244995117188,20.215438842773438,-16.74018096923828
1773148992019266800,5.638266845703125,-20.236358642578125,20.215057373046875,-16.747894287109375
1773148992029303800,5.6483037109375,-20.210948944091797,20.228652954101562,-16.65581512451172
1773148992039341000,5.658341064453125,-20.143329620361328,20.240951538085938,-16.781814575195312
1773148992049377800,5.668377685546875,-20.1822452545166,20.410202026367188,-16.833633422851562
1773148992059414800,5.678414794921875,-20.22350311279297,20.257354736328125,-16.949012756347656
1773148992069451800,5.68845166015625,-20.353553771972656,20.348922729492188,-16.959686279296875
1773148992079489000,5.698489013671875,-20.25963020324707,20.342605590820312,-16.8851318359375
1773148992089526000,5.708526123046875,-20.39777374267578,20.275115966796875,-16.836830139160156
1773148992099563000,5.71856298828125,-20.576290130615234,20.226425170898438,-16.842422485351562
1773148992109599700,5.728599853515625,-20.568557739257812,20.332687377929688,-16.833351135253906
1773148992119636700,5.73863671875,-20.472511291503906,20.37420654296875,-16.780807495117188
1773148992129674000,5.748674072265625,-20.394306182861328,20.337234497070312,-16.534347534179688
1773148992139711000,5.7587109375,-20.427730560302734,20.305007934570312,-16.593894958496094
1773148992149748000,5.768748046875,-20.477317810058594,20.23193359375,-16.598800659179688
1773148992159784700,5.77878466796875,-20.646818161010742,20.164138793945312,-16.53521728515625
1773148992169822000,5.788822021484375,-20.729869842529297,20.226104736328125,-16.593467712402344
1773148992179859000,5.79885888671875,-20.48876190185547,20.281707763671875,-16.486160278320312
1773148992189896000,5.80889599609375,-20.58460235595703,20.152633666992188,-16.424911499023438
1773148992199933000,5.818932861328125,-20.539024353027344,20.264907836914062,-16.50164794921875
1773148992209970000,5.828969970703125,-20.70151710510254,20.159332275390625,-16.61022186279297
1773148992220007000,5.8390068359375,-20.6762752532959,20.012985229492188,-16.499343872070312
1773148992230044000,5.8490439453125,-20.59271240234375,20.161056518554688,-16.596641540527344
1773148992240081000,5.859080810546875,-20.791854858398438,20.091766357421875,-16.548866271972656
1773148992250118000,5.869117919921875,-21.042095184326172,20.017105102539062,-16.48125457763672
1773148992260155000,5.87915478515625,-21.09202003479004,19.913681030273438,-16.415687561035156
1773148992270191900,5.88919189453125,-20.969364166259766,20.0335693359375,-16.45087432861328
1773148992280228900,5.899228759765625,-21.07303237915039,19.956451416015625,-16.441452026367188
1773148992290265900,5.909265869140625,-21.07303237915039,19.956451416015625,-16.441452026367188
1773148992300303000,5.91930322265625,-21.22881507873535,19.83880615234375,-16.514503479003906
1773148992310339800,5.92933984375,-21.194108963012695,19.84710693359375,-16.556434631347656
1773148992320377900,5.9393779296875,-21.14645004272461,19.73052978515625,-16.58331298828125
1773148992330414800,5.949414794921875,-21.123870849609375,19.768875122070312,-16.55994415283203
1773148992340451800,5.959451904296875,-21.082664489746094,19.611892700195312,-16.785812377929688
1773148992350488800,5.96948876953125,-21.22549819946289,19.613861083984375,-16.823081970214844
1773148992360525800,5.97952587890625,-21.16280746459961,19.625595092773438,-16.976547241210938
1773148992370562800,5.989562744140625,-20.906787872314453,19.418716430664062,-16.94902801513672
1773148992380600000,5.99960009765625,-20.942516326904297,19.320526123046875,-16.913131713867188
1773148992390636800,6.00963671875,-20.95363426208496,19.397842407226562,-17.055320739746094
1773148992400673800,6.019673828125,-21.097909927368164,19.208587646484375,-17.115867614746094
1773148992410710800,6.029710693359375,-21.34632110595703,19.115219116210938,-17.23743438720703
1773148992420748000,6.039748046875,-21.437358856201172,19.201492309570312,-17.24664306640625
1773148992430785000,6.049784912109375,-21.297595977783203,19.107772827148438,-17.326995849609375
1773148992440821800,6.05982177734375,-21.28768539428711,19.0682373046875,-17.334976196289062
1773148992450858800,6.069858642578125,-21.325721740722656,18.891677856445312,-17.441078186035156
1773148992460895700,6.079895751953125,-21.31085205078125,18.815216064453125,-17.529991149902344
1773148992470933000,6.08993310546875,-21.20745849609375,18.553314208984375,-17.46515655517578
1773148992480970000,6.099969970703125,-21.46492576599121,18.599014282226562,-17.679931640625
1773148992491007000,6.110007080078125,-21.46324348449707,18.471420288085938,-17.775978088378906
1773148992501043700,6.120043701171875,-21.448333740234375,18.23480224609375,-17.97473907470703
1773148992511081000,6.1300810546875,-21.542552947998047,18.15850830078125,-18.126190185546875
1773148992521118000,6.140117919921875,-21.41402244567871,17.785018920898438,-18.153175354003906
1773148992531155000,6.150155029296875,-21.434816360473633,17.456680297851562,-18.429702758789062
1773148992541192000,6.16019189453125,-21.377857208251953,17.4967041015625,-18.649703979492188
1773148992551229000,6.17022900390625,-21.356746673583984,17.210311889648438,-18.80445098876953
1773148992561266000,6.180265869140625,-21.169618606567383,17.349563598632812,-18.995941162109375
1773148992571303000,6.190302978515625,-21.36682891845703,17.352615356445312,-19.115577697753906
1773148992581340000,6.20033984375,-21.159454345703125,17.216018676757812,-19.173751831054688
1773148992591377000,6.210376953125,-21.248226165771484,17.30340576171875,-19.292190551757812
1773148992601414000,6.220413818359375,-21.432580947875977,17.237960815429688,-19.394561767578125
1773148992611450000,6.2304501953125,-21.1595458984375,17.222747802734375,-19.332252502441406
1773148992621487000,6.240487060546875,-21.21800422668457,17.26287841796875,-19.251739501953125
1773148992631524400,6.2505244140625,-21.242576599121094,17.3690185546875,-19.26073455810547
1773148992641561300,6.260561279296875,-21.333995819091797,17.606063842773438,-19.13739776611328
1773148992651599000,6.27059912109375,-21.11697006225586,17.6708984375,-19.050460815429688
1773148992661636000,6.280635986328125,-21.054012298583984,17.79498291015625,-18.741165161132812
1773148992671673300,6.29067333984375,-21.183109283447266,17.6995849609375,-18.646705627441406
1773148992681710300,6.30071044921875,-21.432342529296875,17.673690795898438,-18.528915405273438
1773148992691747000,6.3107470703125,-21.836990356445312,17.527175903320312,-18.345504760742188
1773148992701784000,6.3207841796875,-21.943359375,17.434173583984375,-18.31066131591797
1773148992711821300,6.3308212890625,-22.003040313720703,17.365432739257812,-18.10480499267578
1773148992721858300,6.3408583984375,-22.004981994628906,17.386810302734375,-18.060745239257812
1773148992731895300,6.350895263671875,-22.362882614135742,17.063385009765625,-18.26861572265625
1773148992741932000,6.36093212890625,-22.612937927246094,16.899002075195312,-18.334495544433594
1773148992751969000,6.370968994140625,-22.678802490234375,16.8128662109375,-18.256057739257812
1773148992762006300,6.38100634765625,-22.537912368774414,16.928329467773438,-18.270965576171875
1773148992772043300,6.391043212890625,-22.719648361206055,16.855133056640625,-18.259178161621094
1773148992782080300,6.401080322265625,-22.917537689208984,16.801223754882812,-18.08306121826172
1773148992792117000,6.411116943359375,-23.091533660888672,16.690750122070312,-17.700439453125
1773148992802154200,6.421154296875,-23.026391983032227,16.843841552734375,-17.512496948242188
1773148992812191200,6.431191162109375,-23.34273338317871,16.976425170898438,-17.35235595703125
1773148992822228200,6.441228271484375,-23.470067977905273,16.99163818359375,-17.355186462402344
1773148992832265200,6.45126513671875,-23.438236236572266,17.039154052734375,-17.307960510253906
1773148992842302200,6.46130224609375,-23.441434860229492,16.716415405273438,-17.222747802734375
1773148992852339200,6.471339111328125,-23.460508346557617,16.819137573242188,-17.263214111328125
1773148992862376200,6.481376220703125,-23.406238555908203,16.685134887695312,-17.48192596435547
1773148992872413200,6.4914130859375,-23.47372055053711,16.6282958984375,-17.72064971923828
1773148992882450200,6.5014501953125,-23.310564041137695,16.856552124023438,-17.81999969482422
1773148992892487200,6.511487060546875,-23.33631706237793,16.7724609375,-17.814353942871094
1773148992902524200,6.521524169921875,-23.30510139465332,16.6729736328125,-17.743118286132812
1773148992912561200,6.53156103515625,-23.13151741027832,16.585235595703125,-17.8486328125
1773148992922598100,6.54159814453125,-23.041593551635742,16.5679931640625,-17.92627716064453
1773148992932635400,6.551635498046875,-23.069063186645508,16.46502685546875,-17.846107482910156
1773148992942672100,6.561672119140625,-23.1175537109375,16.473403930664062,-17.827369689941406
1773148992952709000,6.571709228515625,-22.906429290771484,16.61798095703125,-17.981727600097656
1773148992962746000,6.58174609375,-22.717512130737305,16.737518310546875,-18.036949157714844
1773148992972783400,6.591783447265625,-22.83526611328125,16.831817626953125,-18.060775756835938
1773148992982821000,6.601821044921875,-22.84756088256836,16.8411865234375,-18.20135498046875
1773148992992858000,6.611858154296875,-22.694522857666016,16.688369750976562,-18.040390014648438
1773148993002895000,6.62189501953125,-22.602500915527344,16.667449951171875,-18.248687744140625
1773148993012932400,6.631932373046875,-22.861774444580078,16.718536376953125,-18.31568145751953
1773148993022969300,6.64196923828125,-22.845508575439453,16.772628784179688,-18.372764587402344
1773148993033006000,6.652006103515625,-22.666093826293945,16.74053955078125,-18.356857299804688
1773148993043043000,6.66204296875,-22.395280838012695,16.972488403320312,-18.31330108642578
1773148993053080300,6.672080322265625,-22.36412811279297,16.857101440429688,-18.363258361816406
1773148993063117300,6.682117431640625,-22.444717407226562,16.728439331054688,-18.42394256591797
1773148993073154300,6.692154296875,-22.447208404541016,16.838851928710938,-18.588363647460938
1773148993083191000,6.70219091796875,-22.464313507080078,16.668655395507812,-18.54340362548828
1773148993093228000,6.71222802734375,-22.57257843017578,16.855850219726562,-18.458702087402344
1773148993103265300,6.722265380859375,-22.561397552490234,16.7421875,-18.5404052734375
1773148993113302300,6.73230224609375,-22.465255737304688,16.763336181640625,-18.55760955810547
1773148993123339300,6.74233935546875,-22.30695343017578,16.89288330078125,-18.539321899414062
1773148993133376000,6.7523759765625,-22.35100746154785,16.733917236328125,-18.41796875
1773148993143413200,6.762413330078125,-22.492713928222656,16.903472900390625,-18.591773986816406
1773148993153450200,6.7724501953125,-21.954586029052734,16.8316650390625,-18.44831085205078
1773148993163487200,6.7824873046875,-21.934452056884766,16.663528442382812,-18.485122680664062
1773148993173524200,6.792524169921875,-22.177364349365234,16.73028564453125,-18.512840270996094
1773148993183561200,6.802561279296875,-22.04772186279297,16.85382080078125,-18.444969177246094
1773148993193598200,6.81259814453125,-22.250045776367188,16.8446044921875,-18.60064697265625
1773148993203635200,6.82263525390625,-22.314136505126953,16.878372192382812,-18.584732055664062
1773148993213672200,6.832672119140625,-22.175907135009766,16.848739624023438,-18.58222198486328
1773148993223709200,6.842709228515625,-22.252548217773438,17.0059814453125,-18.750640869140625
1773148993233746200,6.85274609375,-22.114933013916016,16.877426147460938,-18.53545379638672
1773148993243783200,6.862783203125,-22.30370330810547,16.7799072265625,-18.531944274902344
1773148993253820200,6.872820068359375,-22.130725860595703,16.742446899414062,-18.686614990234375
1773148993263857200,6.882857177734375,-22.27960968017578,16.778289794921875,-18.563430786132812
1773148993273894400,6.892894287109375,-22.356422424316406,16.872177124023438,-18.693885803222656
1773148993283932200,6.90293212890625,-22.29745101928711,16.800888061523438,-18.709678649902344
1773148993293969200,6.91296923828125,-22.296146392822266,16.8297119140625,-18.63249969482422
1773148993304006100,6.923006103515625,-22.457462310791016,16.827194213867188,-18.62244415283203
1773148993314043400,6.93304345703125,-22.39585304260254,16.845382690429688,-18.63646697998047
1773148993324080000,6.943080078125,-22.377838134765625,16.800216674804688,-18.595108032226562
1773148993334117000,6.9531171875,-22.403907775878906,16.865081787109375,-18.57831573486328
1773148993344154000,6.963154052734375,-22.535945892333984,16.778472900390625,-18.535247802734375
1773148993354191400,6.97319140625,-22.434749603271484,16.761398315429688,-18.52814483642578
1773148993364228400,6.983228271484375,-22.337177276611328,16.811538696289062,-18.59967041015625
1773148993374265000,6.99326513671875,-22.22854232788086,17.010040283203125,-18.484771728515625
1773148993384302000,7.003302001953125,-22.396709442138672,16.991867065429688,-18.606658935546875
1773148993394339300,7.01333935546875,-22.3160343170166,17.031661987304688,-18.65204620361328
1773148993404376300,7.023376220703125,-22.423946380615234,16.989913940429688,-18.677169799804688
1773148993414413300,7.033413330078125,-22.451122283935547,16.790206909179688,-18.689537048339844
1773148993424450000,7.043449951171875,-22.42812728881836,16.97393798828125,-18.533218383789062
1773148993434487000,7.053487060546875,-22.150005340576172,16.89666748046875,-18.591705322265625
1773148993444524300,7.063524169921875,-22.240514755249023,16.814834594726562,-18.78302001953125
1773148993454561300,7.073561279296875,-22.342456817626953,16.98138427734375,-18.707931518554688
1773148993464598300,7.083598388671875,-22.398040771484375,16.834823608398438,-18.64952850341797
1773148993474635000,7.093635009765625,-22.363506317138672,16.905227661132812,-18.58672332763672
1773148993484672300,7.10367236328125,-22.353479385375977,17.098678588867188,-18.624595642089844
1773148993494709200,7.113709228515625,-22.270240783691406,17.125991821289062,-18.59760284423828
1773148993504746200,7.123746337890625,-22.39090347290039,17.034835815429688,-18.54571533203125
1773148993514783200,7.133783203125,-22.290924072265625,17.2266845703125,-18.54125213623047
1773148993524820200,7.1438203125,-22.29576301574707,17.198654174804688,-18.599769592285156
1773148993534857200,7.153857177734375,-22.193153381347656,17.125869750976562,-18.493309020996094
1773148993544894200,7.163894287109375,-22.274627685546875,17.06103515625,-18.53156280517578
1773148993554931200,7.17393115234375,-22.47481918334961,17.000381469726562,-18.51580810546875
1773148993564968200,7.18396826171875,-22.220056533813477,17.0689697265625,-18.42528533935547
1773148993575006200,7.194006103515625,-22.416244506835938,16.98956298828125,-18.601478576660156
1773148993585043200,7.204043212890625,-22.329158782958984,17.043563842773438,-18.517440795898438
1773148993595080200,7.214080078125,-22.412508010864258,16.998062133789062,-18.409698486328125
1773148993605117400,7.224117431640625,-22.405807495117188,16.805526733398438,-18.453659057617188
1773148993615154400,7.234154541015625,-22.265605926513672,17.0340576171875,-18.4730224609375
1773148993625191700,7.244191650390625,-22.44379425048828,16.886611938476562,-18.512840270996094
1773148993635228700,7.254228759765625,-22.485816955566406,16.877273559570312,-18.489517211914062
1773148993645265700,7.264265625,-22.6917667388916,16.839569091796875,-18.554542541503906
1773148993655302400,7.274302490234375,-22.43166732788086,16.883621215820312,-18.482467651367188
1773148993665339600,7.284339599609375,-22.57480239868164,16.945297241210938,-18.526275634765625
1773148993675376600,7.294376708984375,-22.39044189453125,16.77923583984375,-18.40991973876953
1773148993685413600,7.30441357421875,-22.31668472290039,16.828094482421875,-18.34587860107422
1773148993695450600,7.31445068359375,-22.259071350097656,16.954833984375,-18.39647674560547
1773148993705487600,7.324487548828125,-22.48485565185547,17.018936157226562,-18.318138122558594
1773148993715524600,7.334524658203125,-22.587692260742188,16.850692749023438,-18.232452392578125
1773148993725561600,7.3445615234375,-22.636455535888672,16.886489868164062,-18.242088317871094
1773148993735598600,7.3545986328125,-22.57164192199707,16.91790771484375,-18.356353759765625
1773148993745635600,7.364635498046875,-22.564865112304688,16.926483154296875,-18.313552856445312
1773148993755672600,7.374672607421875,-22.200328826904297,17.069839477539062,-18.278121948242188
1773148993765709600,7.38470947265625,-22.48875617980957,16.762283325195312,-18.19873809814453
1773148993775746600,7.39474658203125,-22.59505844116211,16.84539794921875,-18.196884155273438
1773148993785783600,7.404783447265625,-22.578502655029297,16.922927856445312,-18.190582275390625
1773148993795820500,7.414820556640625,-22.699054718017578,16.76611328125,-18.214332580566406
1773148993805857500,7.424857421875,-22.636932373046875,16.86114501953125,-18.070167541503906
1773148993815894500,7.43489453125,-22.59398078918457,16.978729248046875,-18.198524475097656
1773148993825931500,7.444931640625,-22.697399139404297,17.035018920898438,-18.26781463623047
1773148993835968500,7.454968505859375,-22.72400665283203,16.89923095703125,-18.277374267578125
1773148993846006500,7.465006591796875,-22.735782623291016,16.655197143554688,-18.134689331054688
1773148993856043500,7.47504345703125,-22.792556762695312,16.973602294921875,-18.191062927246094
1773148993866080500,7.48508056640625,-22.81494903564453,16.8052978515625,-18.229042053222656
1773148993876117800,7.49511767578125,-22.88936996459961,16.732009887695312,-18.33673095703125
1773148993886154800,7.50515478515625,-22.88936996459961,16.732009887695312,-18.33673095703125
1773148993896191500,7.51519140625,-22.864858627319336,16.718093872070312,-18.258193969726562
1773148993906228500,7.525228515625,-22.609630584716797,16.673858642578125,-17.919143676757812
1773148993916265500,7.535265380859375,-22.882644653320312,16.710159301757812,-18.061912536621094
1773148993926302700,7.545302734375,-22.855159759521484,16.693267822265625,-18.111572265625
1773148993936339700,7.555339599609375,-22.820310592651367,16.706924438476562,-18.166160583496094
1773148993946376400,7.56537646484375,-22.858673095703125,16.709060668945312,-18.18243408203125
1773148993956413400,7.575413330078125,-22.54650115966797,16.704055786132812,-18.116683959960938
1773148993966450700,7.58545068359375,-22.826885223388672,16.6453857421875,-18.15111541748047
1773148993976487700,7.59548779296875,-22.89437484741211,16.490921020507812,-18.108497619628906
1773148993986524700,7.605524658203125,-22.916561126708984,16.542327880859375,-18.02117156982422
1773148993996561400,7.6155615234375,-23.001667022705078,16.4984130859375,-18.086959838867188
1773148994006598400,7.625598388671875,-23.087543487548828,16.462890625,-18.070404052734375
1773148994016635600,7.6356357421875,-22.961956024169922,16.322463989257812,-18.001930236816406
1773148994026672600,7.645672607421875,-23.10558319091797,16.329574584960938,-17.90362548828125
1773148994036709600,7.655709716796875,-22.98404312133789,16.53509521484375,-18.02661895751953
1773148994046746400,7.665746337890625,-23.23655128479004,16.306655883789062,-17.80059051513672
1773148994056783600,7.67578369140625,-23.365083694458008,16.310821533203125,-17.83575439453125
1773148994066820600,7.685820556640625,-23.53669548034668,16.251922607421875,-17.730804443359375
1773148994076857600,7.695857666015625,-23.50486946105957,16.272445678710938,-17.676239013671875
1773148994086894600,7.70589453125,-23.84762191772461,16.360260009765625,-17.59613800048828
1773148994096931600,7.715931640625,-23.902360916137695,16.140518188476562,-17.21630096435547
1773148994106969600,7.725969482421875,-24.15754508972168,15.926681518554688,-17.081031799316406
1773148994117006600,7.736006591796875,-24.665742874145508,15.740135192871094,-16.89520263671875
1773148994127043600,7.746043701171875,-25.02952003479004,15.545265197753906,-16.526473999023438
1773148994137080600,7.75608056640625,-25.740419387817383,15.280960083007812,-16.000823974609375
1773148994147117600,7.76611767578125,-26.102373123168945,14.892295837402344,-15.346435546875
1773148994157154600,7.776154541015625,-26.72113609313965,14.460594177246094,-14.74810791015625
1773148994167191600,7.786191650390625,-27.420936584472656,14.136817932128906,-14.323173522949219
1773148994177228800,7.796228759765625,-27.644481658935547,13.710464477539062,-13.965873718261719
1773148994187265500,7.806265625,-28.249048233032227,13.388359069824219,-13.641250610351562
1773148994197302500,7.816302490234375,-28.488845825195312,12.8079833984375,-13.433738708496094
1773148994207339500,7.826339599609375,-28.985645294189453,12.328163146972656,-13.183029174804688
1773148994217376800,7.836376708984375,-29.480958938598633,11.977745056152344,-12.828910827636719
1773148994227413800,7.846413818359375,-29.702369689941406,11.485885620117188,-12.441925048828125
1773148994237450500,7.856450439453125,-30.02556800842285,10.845260620117188,-12.165596008300781
1773148994247487500,7.866487548828125,-30.214487075805664,10.445648193359375,-12.541938781738281
1773148994257524500,7.8765244140625,-30.337495803833008,9.866836547851562,-13.014900207519531
1773148994267561700,7.886561767578125,-29.920015335083008,9.588119506835938,-13.746986389160156
1773148994277598700,7.8965986328125,-29.928367614746094,9.482559204101562,-14.372459411621094
1773148994287635500,7.906635498046875,-29.54328155517578,9.415809631347656,-14.648674011230469
1773148994297672400,7.91667236328125,-29.475053787231445,9.2843017578125,-14.838279724121094
1773148994307709700,7.926709716796875,-29.369115829467773,9.317367553710938,-14.622062683105469
1773148994317746700,7.93674658203125,-29.666160583496094,9.423332214355469,-14.552398681640625
1773148994327783700,7.94678369140625,-29.822126388549805,9.638816833496094,-14.04864501953125
1773148994337820400,7.9568203125,-29.917787551879883,10.089759826660156,-13.450973510742188
1773148994347858700,7.966858642578125,-30.149272918701172,10.197013854980469,-12.563720703125
1773148994357895700,7.976895751953125,-30.23719596862793,10.615142822265625,-11.665702819824219
1773148994367931600,7.986931640625,-30.156269073486328,11.153533935546875,-10.7552490234375
1773148994377968600,7.99696875,-30.16492462158203,11.566352844238281,-9.70184326171875
1773148994388005400,8.00700537109375,-30.151145935058594,12.0626220703125,-9.127967834472656
1773148994398042600,8.017042724609375,-30.181140899658203,12.503684997558594,-8.782821655273438
1773148994408079600,8.02707958984375,-30.072078704833984,12.619712829589844,-8.671875
1773148994418116600,8.03711669921875,-29.651578903198242,12.713844299316406,-8.939521789550781
1773148994428153600,8.047153564453126,-29.340869903564453,12.762619018554688,-9.411033630371094
1773148994438190600,8.057190673828124,-29.086483001708984,12.498146057128906,-9.975845336914062
1773148994448227600,8.0672275390625,-29.106496810913086,12.462478637695312,-10.282539367675781
1773148994458264600,8.0772646484375,-29.11665916442871,12.628982543945312,-10.27880859375
1773148994468301600,8.087301513671875,-29.057668685913086,12.611824035644531,-9.989479064941406
1773148994478338600,8.097338623046875,-28.838550567626953,12.597770690917969,-9.656219482421875
1773148994488375600,8.10737548828125,-28.86798095703125,12.633430480957031,-9.363517761230469
1773148994498412500,8.11741259765625,-29.035173416137695,12.685722351074219,-9.141654968261719
1773148994508449500,8.127449462890626,-28.972713470458984,12.610671997070312,-9.078819274902344
1773148994518487800,8.13748779296875,-28.840972900390625,12.4022216796875,-8.993392944335938
1773148994528524500,8.147524658203125,-29.129528045654297,12.462234497070312,-9.015968322753906
1773148994538561500,8.1575615234375,-29.002079010009766,12.365463256835938,-9.192779541015625
1773148994548598500,8.1675986328125,-28.840620040893555,12.355880737304688,-9.1632080078125
1773148994558635500,8.177635498046875,-29.125171661376953,12.334640502929688,-9.150718688964844
1773148994568672800,8.1876728515625,-28.965208053588867,12.380256652832031,-8.95318603515625
1773148994578709500,8.19770947265625,-28.798460006713867,12.305793762207031,-8.955917358398438
1773148994588746500,8.20774658203125,-28.640859603881836,12.277801513671875,-8.85504150390625
1773148994598783500,8.217783447265624,-28.739625930786133,12.398323059082031,-8.833381652832031
1773148994608820500,8.227820556640625,-28.92030906677246,12.605918884277344,-8.553634643554688
1773148994618857700,8.237857666015625,-28.73038101196289,12.576934814453125,-8.234024047851562
1773148994628894500,8.24789453125,-28.871973037719727,12.650741577148438,-8.141632080078125
1773148994638931500,8.257931396484375,-28.913198471069336,12.52923583984375,-8.152595520019531
1773148994648968400,8.267968505859375,-29.177854537963867,12.284980773925781,-8.460380554199219
1773148994659005400,8.27800537109375,-29.282258987426758,12.108474731445312,-8.594337463378906
1773148994669043500,8.28804345703125,-29.241893768310547,11.879646301269531,-8.516883850097656
1773148994679080400,8.29808056640625,-29.213647842407227,11.467628479003906,-8.57550048828125
1773148994689117400,8.308117431640625,-29.495920181274414,11.172523498535156,-8.571037292480469
1773148994699154700,8.31815478515625,-29.608285903930664,10.768409729003906,-8.464469909667969
1773148994709191700,8.328191650390625,-29.563220977783203,10.636886596679688,-8.429191589355469
1773148994719228400,8.338228515625,-29.450939178466797,10.753646850585938,-8.521034240722656
1773148994729265400,8.348265380859376,-29.506540298461914,10.783699035644531,-8.523193359375
1773148994739302400,8.358302490234376,-29.5535945892334,11.038558959960938,-8.536186218261719
1773148994749339600,8.368339599609374,-29.25460433959961,11.371788024902344,-8.405311584472656
1773148994759376600,8.378376708984375,-29.25135612487793,11.64154052734375,-7.884757995605469
1773148994769413400,8.388413330078125,-29.12419891357422,11.908973693847656,-7.769805908203125
1773148994779450400,8.398450439453125,-29.193622589111328,12.151878356933594,-7.0991363525390625
1773148994789487600,8.408487548828125,-28.83697509765625,12.405494689941406,-6.5214385986328125
1773148994799524600,8.418524658203125,-28.793739318847656,12.76739501953125,-5.885963439941406
1773148994809561600,8.4285615234375,-28.762996673583984,12.875045776367188,-5.257362365722656
1773148994819599400,8.438599365234374,-28.63099479675293,12.896987915039062,-5.088844299316406
1773148994829636600,8.44863671875,-28.886051177978516,12.951896667480469,-5.067192077636719
1773148994839673600,8.458673583984375,-28.75634765625,13.005119323730469,-5.1549072265625
1773148994849710600,8.468710693359375,-28.767528533935547,13.021781921386719,-5.304595947265625
1773148994859747300,8.478747314453125,-28.78423500061035,13.009330749511719,-5.4126739501953125
1773148994869784600,8.48878466796875,-28.809185028076172,13.006828308105469,-5.48907470703125
1773148994879821600,8.498821533203126,-28.88423728942871,12.954277038574219,-5.606300354003906
1773148994889858600,8.508858642578126,-28.767959594726562,13.124656677246094,-5.659507751464844
1773148994899895600,8.5188955078125,-28.53938102722168,13.022804260253906,-5.317352294921875
1773148994909932500,8.5289326171875,-28.484663009643555,13.303253173828125,-5.150787353515625
1773148994919969500,8.538969482421875,-28.3095645904541,13.321922302246094,-5.039619445800781
1773148994930006500,8.549006591796875,-28.310718536376953,13.571380615234375,-5.0380401611328125
1773148994940043500,8.55904345703125,-28.354469299316406,13.777565002441406,-5.071617126464844
1773148994950080500,8.56908056640625,-28.210081100463867,13.779426574707031,-4.857734680175781
1773148994960117500,8.579117431640626,-28.085412979125977,13.982315063476562,-4.799034118652344
1773148994970154500,8.589154541015626,-28.000558853149414,14.071136474609375,-4.737274169921875
1773148994980191500,8.59919140625,-27.742074966430664,14.307914733886719,-4.601585388183594
1773148994990228500,8.609228515625,-27.60874366760254,14.348220825195312,-4.432952880859375
1773148995000265500,8.619265380859375,-27.50830078125,14.600433349609375,-4.3189697265625
1773148995010302500,8.629302490234375,-27.675264358520508,14.714546203613281,-4.3996734619140625
1773148995020340500,8.639340576171875,-27.434709548950195,14.941993713378906,-4.457344055175781
1773148995030377700,8.649377685546876,-27.280380249023438,14.782157897949219,-4.400550842285156
1773148995040414500,8.65941455078125,-27.145788192749023,14.98516845703125,-4.480125427246094
1773148995050451500,8.669451416015624,-26.93816375732422,14.979560852050781,-4.462303161621094
1773148995060488400,8.679488525390624,-27.098527908325195,15.191017150878906,-4.58807373046875
1773148995070525400,8.689525390625,-26.866270065307617,15.277542114257812,-4.646705627441406
1773148995080562700,8.699562744140625,-26.836997985839844,15.280410766601562,-4.8357086181640625
1773148995090599400,8.709599365234375,-26.65931510925293,15.480857849121094,-4.856605529785156
1773148995100636400,8.719636474609375,-26.283689498901367,15.458106994628906,-4.964942932128906
1773148995110673400,8.72967333984375,-26.29296112060547,15.371688842773438,-4.9620208740234375
1773148995120710700,8.739710693359376,-26.365659713745117,15.181465148925781,-4.9928131103515625
1773148995130747600,8.74974755859375,-26.148456573486328,15.526962280273438,-5.246849060058594
1773148995140784400,8.759784423828124,-26.08310317993164,15.491165161132812,-5.191497802734375
1773148995150821400,8.7698212890625,-25.954578399658203,15.384536743164062,-5.208343505859375
1773148995160858400,8.7798583984375,-26.010042190551758,15.258766174316406,-5.340690612792969
1773148995170895600,8.7898955078125,-25.973005294799805,15.392982482910156,-5.4233551025390625
1773148995180932600,8.7999326171875,-25.818286895751953,15.528343200683594,-5.420494079589844
1773148995190969300,8.80996923828125,-25.566673278808594,15.644340515136719,-5.1436920166015625
1773148995201006300,8.82000634765625,-25.455448150634766,15.581184387207031,-5.131561279296875
1773148995211044600,8.830044677734374,-25.230283737182617,15.500442504882812,-5.117095947265625
1773148995221081600,8.84008154296875,-25.301776885986328,15.555679321289062,-5.134857177734375
1773148995231118300,8.850118408203125,-25.274791717529297,15.67095947265625,-5.1812591552734375
1773148995241155600,8.860155517578125,-25.19841766357422,15.504646301269531,-5.251304626464844
1773148995251192600,8.870192626953125,-24.99264907836914,15.444679260253906,-5.299308776855469
1773148995261229600,8.8802294921875,-24.810985565185547,15.384048461914062,-5.2656707763671875
1773148995271266600,8.8902666015625,-24.601993560791016,15.483383178710938,-5.311012268066406
1773148995281303300,8.90030322265625,-24.178878784179688,15.441421508789062,-5.254600524902344
1773148995291340500,8.910340576171874,-24.070409774780273,15.392463684082031,-5.4372711181640625
1773148995301377500,8.92037744140625,-23.909385681152344,15.3804931640625,-5.391120910644531
1773148995311414500,8.93041455078125,-23.91695785522461,15.412452697753906,-5.364723205566406
1773148995321451500,8.940451416015625,-23.71137237548828,15.484718322753906,-5.402313232421875
1773148995331488500,8.950488525390625,-23.35228729248047,15.567237854003906,-5.1226043701171875
1773148995341525500,8.960525390625,-23.53581428527832,15.385871887207031,-5.20001220703125
1773148995351562500,8.9705625,-23.10708999633789,15.439765930175781,-5.237281799316406
1773148995361599500,8.980599609375,-23.34486198425293,15.588294982910156,-5.428688049316406
1773148995371636500,8.990636474609374,-23.072021484375,15.588516235351562,-5.499229431152344
1773148995381673500,9.000673583984375,-23.121845245361328,15.616310119628906,-5.5622711181640625
1773148995391710500,9.01071044921875,-23.05229949951172,15.333305358886719,-5.764442443847656
1773148995401748500,9.02074853515625,-22.899188995361328,15.340339660644531,-5.989982604980469
1773148995411785700,9.03078564453125,-22.64354705810547,15.338775634765625,-6.0471954345703125
1773148995421822500,9.040822509765626,-22.52166748046875,15.342720031738281,-6.3863525390625
1773148995431859500,9.050859375,-22.281047821044922,15.365974426269531,-6.3682098388671875
1773148995441896400,9.060896484375,-22.29777717590332,15.382278442382812,-6.589332580566406
1773148995451933700,9.07093359375,-22.425060272216797,15.214500427246094,-6.866363525390625
1773148995461970700,9.080970703125,-22.307140350341797,15.063224792480469,-6.9531097412109375
1773148995472007400,9.09100732421875,-22.239227294921875,15.062278747558594,-7.0065460205078125
1773148995482044400,9.10104443359375,-22.11442756652832,15.038742065429688,-7.0526885986328125
1773148995492081400,9.111081298828125,-22.23849868774414,14.997634887695312,-7.268890380859375
1773148995502118700,9.12111865234375,-22.192487716674805,15.052894592285156,-7.314094543457031
1773148995512155600,9.13115576171875,-22.113765716552734,14.978996276855469,-7.385284423828125
1773148995522192400,9.1411923828125,-22.113765716552734,14.978996276855469,-7.385284423828125
1773148995532229400,9.1512294921875,-21.870027542114258,15.054069519042969,-7.2819671630859375
1773148995542266600,9.1612666015625,-22.005813598632812,15.075469970703125,-7.354972839355469
1773148995552303600,9.1713037109375,-22.070602416992188,15.026847839355469,-7.4192047119140625
1773148995562340600,9.181340576171875,-22.10919189453125,14.980888366699219,-7.390815734863281
1773148995572377300,9.19137744140625,-21.888866424560547,15.050910949707031,-7.344398498535156
1773148995582415600,9.20141552734375,-21.76937484741211,15.19635009765625,-7.30609130859375
1773148995592452600,9.21145263671875,-21.620758056640625,15.346611022949219,-7.306343078613281
1773148995602489300,9.2214892578125,-21.462512969970703,15.331398010253906,-7.205146789550781
1773148995612527000,9.231527099609375,-21.51153564453125,15.469978332519531,-7.090110778808594
1773148995622564400,9.241564453125,-21.387020111083984,15.685760498046875,-6.939247131347656
1773148995632601300,9.251601318359375,-21.551410675048828,15.712501525878906,-6.902244567871094
1773148995642638000,9.26163818359375,-21.491886138916016,15.732208251953125,-6.7493743896484375
1773148995652675000,9.271675048828126,-21.70128631591797,15.632186889648438,-6.741172790527344
1773148995662712000,9.281712158203124,-21.804527282714844,15.489341735839844,-6.696205139160156
1773148995672749300,9.291749267578124,-21.475746154785156,15.567527770996094,-6.647918701171875
1773148995682786300,9.301786376953125,-21.636459350585938,15.625205993652344,-6.706962585449219
1773148995692823300,9.3118232421875,-21.514389038085938,15.658279418945312,-6.834770202636719
1773148995702860000,9.321860107421875,-21.667564392089844,15.410308837890625,-6.8347015380859375
1773148995712897300,9.331897216796875,-21.701946258544922,15.371543884277344,-6.838874816894531
1773148995722934300,9.341934326171875,-21.540950775146484,15.450210571289062,-6.812690734863281
1773148995732971300,9.35197119140625,-21.84601593017578,15.423049926757812,-6.940879821777344
1773148995743008300,9.36200830078125,-21.98654556274414,15.47930908203125,-6.8227081298828125
1773148995753045200,9.372045166015624,-21.99739646911621,15.491226196289062,-6.798652648925781
1773148995763083300,9.382083251953125,-22.08771514892578,15.466941833496094,-6.5640411376953125
1773148995773120300,9.392120361328125,-22.099349975585938,15.3885498046875,-6.414405822753906
1773148995783157000,9.402156982421875,-22.107975006103516,15.406684875488281,-6.465980529785156
1773148995793194200,9.4121943359375,-22.172685623168945,15.522476196289062,-6.4467315673828125
1773148995803231200,9.422231201171876,-22.083776473999023,15.519363403320312,-6.212165832519531
1773148995813268200,9.432268310546876,-22.034347534179688,15.493179321289062,-6.160865783691406
1773148995823305200,9.44230517578125,-21.994714736938477,15.335052490234375,-6.214111328125
1773148995833342200,9.45234228515625,-22.1456356048584,15.419837951660156,-6.279914855957031
1773148995843379200,9.462379150390625,-22.36563491821289,15.431259155273438,-6.373985290527344
1773148995853416200,9.472416259765625,-22.361738204956055,15.335784912109375,-6.401893615722656
1773148995863453200,9.482453125,-22.28121566772461,15.450981140136719,-6.3003692626953125
1773148995873490400,9.492490478515625,-22.403282165527344,15.387191772460938,-6.498649597167969
1773148995883527200,9.502527099609376,-22.341167449951172,15.449905395507812,-6.596595764160156
1773148995893564200,9.512564208984376,-22.543827056884766,15.438430786132812,-6.5949554443359375
1773148995903601200,9.52260107421875,-22.276790618896484,15.323432922363281,-6.687065124511719
1773148995913638100,9.53263818359375,-22.517131805419922,15.3104248046875,-6.644462585449219
1773148995923675400,9.54267529296875,-22.688976287841797,15.419517517089844,-6.753990173339844
1773148995933712100,9.552712158203125,-22.699581146240234,15.376190185546875,-6.7706451416015625
1773148995943750100,9.562750244140625,-22.812129974365234,15.396003723144531,-6.7348480224609375
1773148995953787400,9.572787353515626,-22.861661911010742,15.396621704101562,-6.7055816650390625
1773148995963824400,9.582824462890626,-22.666423797607422,15.315704345703125,-6.64678955078125
1773148995973861000,9.592861083984374,-22.415393829345703,15.4522705078125,-6.653633117675781
1773148995983898000,9.602898193359374,-22.702768325805664,15.40106201171875,-6.6306915283203125
1773148995993935000,9.61293505859375,-22.724498748779297,15.426956176757812,-6.63555908203125
1773148996003972400,9.622972412109375,-22.642284393310547,15.252723693847656,-6.608146667480469
1773148996014009300,9.63300927734375,-22.77106475830078,15.222373962402344,-6.665809631347656
1773148996024046000,9.643046142578125,-22.699779510498047,15.34716796875,-6.7893218994140625
1773148996034083000,9.6530830078125,-22.780302047729492,15.472671508789062,-7.001289367675781
1773148996044120300,9.663120361328126,-22.70863151550293,15.529525756835938,-7.071014404296875
1773148996054157300,9.6731572265625,-22.827903747558594,15.528083801269531,-7.0439453125
1773148996064194300,9.6831943359375,-23.10372543334961,15.683891296386719,-7.235282897949219
1773148996074231000,9.69323095703125,-23.10246467590332,15.654617309570312,-7.4762725830078125
1773148996084268300,9.703268310546875,-23.187763214111328,15.7789306640625,-7.676429748535156
1773148996094305300,9.71330517578125,-23.287490844726562,15.8443603515625,-7.716766357421875
1773148996104342300,9.72334228515625,-23.174055099487305,15.832229614257812,-7.785919189453125
1773148996114380000,9.733380126953126,-23.184112548828125,15.816436767578125,-7.889762878417969
1773148996124417300,9.743417236328124,-23.33361053466797,15.956695556640625,-7.993438720703125
1773148996134454300,9.753454345703124,-23.577253341674805,15.927536010742188,-8.060569763183594
1773148996144491300,9.7634912109375,-23.541976928710938,16.010986328125,-8.113388061523438
1773148996154528300,9.7735283203125,-23.505508422851562,16.07391357421875,-8.250991821289062
1773148996164565200,9.783565185546875,-23.567262649536133,16.057106018066406,-8.334053039550781
1773148996174602200,9.793602294921875,-23.723581314086914,16.12335205078125,-8.451484680175781
1773148996184639200,9.80363916015625,-23.752723693847656,16.295822143554688,-8.66534423828125
1773148996194676200,9.81367626953125,-23.699909210205078,16.625,-8.695297241210938
1773148996204713200,9.823713134765624,-23.71844482421875,16.63787841796875,-8.756568908691406
1773148996214750200,9.833750244140624,-23.6758975982666,16.589279174804688,-9.060432434082031
1773148996224787200,9.843787109375,-23.85159683227539,16.677719116210938,-9.363151550292969
1773148996234824200,9.85382421875,-23.649826049804688,16.537734985351562,-9.380828857421875
1773148996244861200,9.863861083984375,-23.41994857788086,16.722885131835938,-9.650726318359375
1773148996254898400,9.8738984375,-23.377948760986328,16.873565673828125,-10.163536071777344
1773148996264935200,9.88393505859375,-23.27338409423828,16.906402587890625,-10.290908813476562
1773148996274972200,9.89397216796875,-23.280366897583008,17.180404663085938,-10.479690551757812
1773148996285009200,9.904009033203126,-22.991411209106445,17.00006103515625,-10.686668395996094
1773148996295047200,9.914047119140625,-23.133604049682617,17.318527221679688,-10.991195678710938
1773148996305084200,9.924084228515625,-23.058168411254883,17.420791625976562,-11.28253173828125
1773148996315121200,9.93412109375,-22.891592025756836,17.552749633789062,-11.549140930175781
1773148996325158100,9.944158203125,-22.90404510498047,17.71026611328125,-11.74237060546875
1773148996335195400,9.9541953125,-22.813079833984375,17.885665893554688,-11.839447021484375
1773148996345232100,9.964232177734376,-22.555477142333984,17.957504272460938,-11.986038208007812
1773148996355269000,9.97426904296875,-22.55297088623047,18.068130493164062,-12.306083679199219
1773148996365306000,9.98430615234375,-22.610145568847656,18.149154663085938,-12.472816467285156
1773148996375343400,9.99434326171875,-22.58388900756836,18.206222534179688,-12.517707824707031
1773148996385380400,10.00438037109375,-22.303932189941406,18.325698852539062,-12.557403564453125
1773148996395417000,10.0144169921875,-22.499183654785156,18.42205810546875,-12.834365844726562
1773148996405454000,10.0244541015625,-22.3563232421875,18.462051391601562,-12.881446838378906
1773148996415491000,10.034490966796875,-22.255111694335938,18.483810424804688,-12.900962829589844
1773148996425528300,10.0445283203125,-22.305688858032227,18.575759887695312,-12.913009643554688
1773148996435565300,10.0545654296875,-22.145362854003906,18.531173706054688,-12.723182678222656
1773148996445602300,10.064602294921874,-22.284725189208984,18.440505981445312,-12.819389343261719
1773148996455639000,10.07463916015625,-22.24858856201172,18.656845092773438,-12.866363525390625
1773148996465676300,10.08467626953125,-22.423688888549805,18.748794555664062,-12.821182250976562
1773148996475714300,10.09471435546875,-22.39771270751953,18.734024047851562,-12.618461608886719
1773148996485751000,10.1047509765625,-22.254329681396484,18.89813232421875,-12.581809997558594
1773148996495788000,10.1147880859375,-22.249412536621094,18.853363037109375,-12.497978210449219
1773148996505825300,10.1248251953125,-22.435253143310547,18.856918334960938,-12.387657165527344
1773148996515862300,10.1348623046875,-22.605188369750977,18.916961669921875,-12.227996826171875
1773148996525899300,10.144899169921874,-22.600971221923828,18.907501220703125,-12.070526123046875
1773148996535936000,10.15493603515625,-22.644481658935547,18.990142822265625,-12.027900695800781
1773148996545973200,10.16497314453125,-22.760086059570312,18.931777954101562,-12.002388000488281
1773148996556010200,10.17501025390625,-22.626270294189453,18.974288940429688,-12.102851867675781
1773148996566047200,10.185047119140625,-22.66848373413086,18.91998291015625,-12.194900512695312
1773148996576084200,10.195084228515626,-22.866329193115234,18.764205932617188,-12.145210266113281
1773148996586121200,10.205121337890626,-22.931133270263672,18.615951538085938,-12.226974487304688
1773148996596158200,10.215158203125,-22.94156265258789,18.550399780273438,-12.259178161621094
1773148996606195200,10.2251953125,-23.180906295776367,18.419387817382812,-12.202651977539062
1773148996616231400,10.2352314453125,-23.073999404907227,18.277572631835938,-12.197349548339844
1773148996626268400,10.245268310546875,-23.196090698242188,18.274154663085938,-11.950981140136719
1773148996636305400,10.255305419921875,-23.43015480041504,18.257308959960938,-11.961387634277344
1773148996646342400,10.26534228515625,-23.55731201171875,18.150253295898438,-11.943084716796875
1773148996656380400,10.27538037109375,-23.739044189453125,18.098342895507812,-11.94781494140625
1773148996666417400,10.28541748046875,-23.74732208251953,18.117568969726562,-12.019584655761719
1773148996676454400,10.295454345703124,-23.695096969604492,17.9727783203125,-12.035377502441406
1773148996686491400,10.305491455078124,-23.760618209838867,17.719253540039062,-12.176055908203125
1773148996696528400,10.3155283203125,-23.54758644104004,17.77581787109375,-12.391983032226562
1773148996706565400,10.3255654296875,-23.547243118286133,17.640640258789062,-12.589859008789062
1773148996716602400,10.335602294921875,-23.37204360961914,17.604766845703125,-12.803466796875
1773148996726639400,10.345639404296875,-23.52775001525879,17.449691772460938,-12.953842163085938
1773148996736676400,10.35567626953125,-23.305660247802734,17.460800170898438,-13.103187561035156
1773148996746713300,10.36571337890625,-23.166507720947266,17.27081298828125,-12.982460021972656
1773148996756750300,10.375750244140624,-23.42459487915039,17.332321166992188,-13.171424865722656
1773148996766787300,10.385787353515624,-23.175338745117188,17.27801513671875,-12.922370910644531
1773148996776824600,10.395824462890625,-23.337465286254883,17.185928344726562,-12.859458923339844
1773148996786861300,10.405861328125,-23.519784927368164,17.379348754882812,-12.781417846679688
1773148996796898300,10.415898193359375,-23.738800048828125,17.26690673828125,-12.677085876464844
1773148996806935300,10.425935302734375,-23.908546447753906,17.23065185546875,-12.545883178710938
1773148996816972500,10.43597265625,-24.017921447753906,17.208450317382812,-12.438140869140625
1773148996827009500,10.446009521484376,-24.36441421508789,16.973892211914062,-12.417343139648438
1773148996837047300,10.45604736328125,-24.434965133666992,16.88714599609375,-12.354217529296875
1773148996847084300,10.466084228515625,-24.40043067932129,16.779586791992188,-12.462005615234375
1773148996857121500,10.47612158203125,-24.367319107055664,16.706985473632812,-12.564910888671875
1773148996867158500,10.486158447265625,-24.46576690673828,16.519088745117188,-12.649871826171875
1773148996877195300,10.4961953125,-24.497507095336914,16.271774291992188,-12.708251953125
1773148996887232300,10.506232177734375,-24.525556564331055,16.279647827148438,-12.772117614746094
1773148996897269500,10.51626953125,-24.58599090576172,16.166015625,-13.043418884277344
1773148996907306500,10.526306396484374,-24.553142547607422,15.914161682128906,-13.056022644042969
1773148996917343500,10.536343505859374,-24.675539016723633,15.840538024902344,-13.060157775878906
1773148996927380200,10.546380126953125,-24.66956901550293,15.700149536132812,-13.076850891113281
1773148996937417200,10.556417236328125,-24.780141830444336,15.55133056640625,-13.107833862304688
1773148996947454500,10.566454345703125,-24.834381103515625,15.464286804199219,-12.969017028808594
1773148996957491500,10.576491455078125,-24.951370239257812,15.278564453125,-12.655403137207031
1773148996967528400,10.586528564453126,-24.91995620727539,15.201637268066406,-12.605880737304688
1773148996977565200,10.596565185546876,-25.338781356811523,14.937728881835938,-12.311813354492188
1773148996987602400,10.6066025390625,-25.287364959716797,15.03350830078125,-12.175209045410156
1773148996997639400,10.616639404296874,-25.25197982788086,15.043006896972656,-11.985733032226562
1773148997007676400,10.626676513671875,-25.56110382080078,14.730392456054688,-11.5518798828125
1773148997017714400,10.63671435546875,-25.7220458984375,14.798507690429688,-11.532272338867188
1773148997027751400,10.64675146484375,-26.100112915039062,14.45794677734375,-11.322502136230469
1773148997037788400,10.656788330078125,-25.94933319091797,14.173294067382812,-11.279312133789062
1773148997047825400,10.666825439453126,-26.132774353027344,14.144752502441406,-11.139114379882812
1773148997057862400,10.6768623046875,-26.433027267456055,13.861228942871094,-11.0616455078125
1773148997067899400,10.6868994140625,-26.513427734375,13.74462890625,-11.016685485839844
1773148997077936400,10.696936279296875,-26.655338287353516,13.573226928710938,-10.905380249023438
1773148997087973400,10.706973388671875,-26.76367950439453,13.367767333984375,-10.741096496582031
1773148997098010400,10.71701025390625,-27.009035110473633,13.234687805175781,-10.325942993164062
1773148997108047400,10.72704736328125,-27.050790786743164,13.197349548339844,-10.161277770996094
1773148997118084400,10.73708447265625,-27.195226669311523,13.149169921875,-9.895545959472656
1773148997128121300,10.747121337890626,-27.345712661743164,12.978126525878906,-9.484817504882812
1773148997138158300,10.757158447265626,-27.428516387939453,12.691619873046875,-9.235565185546875
1773148997148195300,10.7671953125,-27.4838924407959,12.38946533203125,-8.797843933105469
1773148997158232600,10.777232666015625,-27.4838924407959,12.38946533203125,-8.797843933105469
1773148997168269300,10.787269287109375,-27.922189712524414,12.259140014648438,-8.673027038574219
1773148997178306300,10.797306396484375,-28.1323299407959,11.97943115234375,-8.636604309082031
1773148997188343300,10.80734326171875,-28.413043975830078,11.396614074707031,-8.520530700683594
1773148997198380500,10.817380615234375,-28.754179000854492,11.030288696289062,-8.611770629882812
1773148997208418300,10.827418212890626,-28.9114933013916,10.563888549804688,-8.667694091796875
1773148997218455300,10.837455322265624,-29.405590057373047,10.151420593261719,-8.63897705078125
1773148997228492500,10.847492431640624,-29.532974243164062,9.807853698730469,-8.657676696777344
1773148997238529500,10.857529541015625,-29.672243118286133,9.540634155273438,-8.800270080566406
1773148997248566300,10.867566162109375,-29.735218048095703,9.100807189941406,-8.647438049316406
1773148997258603300,10.877603271484375,-29.968711853027344,8.799652099609375,-8.806861877441406
1773148997268640300,10.88764013671875,-30.490875244140625,8.289581298828125,-8.683036804199219
1773148997278677500,10.897677490234376,-30.48989486694336,7.8217620849609375,-8.708335876464844
1773148997288714500,10.907714599609376,-30.809335708618164,7.648811340332031,-8.488418579101562
1773148997298751200,10.917751220703124,-30.71998405456543,7.504341125488281,-8.254096984863281
1773148997308788200,10.927788330078124,-30.938657760620117,7.149169921875,-8.097236633300781
1773148997318825500,10.937825439453125,-30.998950958251953,7.186073303222656,-7.840629577636719
1773148997328862500,10.947862548828125,-31.146501541137695,6.903999328613281,-7.4955596923828125
1773148997338899500,10.9578994140625,-31.3109188079834,6.943695068359375,-7.2056121826171875
1773148997348936200,10.967936279296875,-31.203275680541992,7.146003723144531,-7.0074462890625
1773148997358973200,10.97797314453125,-31.06560707092285,7.2601470947265625,-7.073966979980469
1773148997369010400,10.988010498046876,-31.137451171875,7.2007293701171875,-7.181671142578125
1773148997379047400,10.99804736328125,-31.20821189880371,7.104179382324219,-7.303375244140625
1773148997389085200,11.008085205078125,-31.13365364074707,7.098594665527344,-7.4727783203125
1773148997399122400,11.018122314453125,-31.069992065429688,7.044868469238281,-7.634971618652344
1773148997409159400,11.028159423828125,-31.143884658813477,7.003753662109375,-7.593986511230469
1773148997419196400,11.038196533203125,-31.220237731933594,6.76422119140625,-7.625251770019531
1773148997429233400,11.0482333984375,-31.320356369018555,6.7252044677734375,-7.7428131103515625
1773148997439270400,11.0582705078125,-31.03866195678711,6.697509765625,-7.872955322265625
1773148997449307400,11.068307373046874,-31.06864356994629,6.7584228515625,-8.317146301269531
1773148997459344400,11.078344482421874,-30.899768829345703,6.905670166015625,-8.713981628417969
1773148997469381400,11.08838134765625,-30.92483139038086,6.995353698730469,-9.276458740234375
1773148997479418400,11.09841845703125,-30.71790313720703,6.930641174316406,-9.636268615722656
1773148997489455400,11.108455322265625,-30.294370651245117,7.447517395019531,-9.696205139160156
1773148997499492400,11.118492431640625,-30.238605499267578,7.4814605712890625,-9.843818664550781
1773148997509529300,11.128529296875,-30.25923728942871,7.84014892578125,-9.80328369140625
1773148997519566300,11.13856640625,-30.02993392944336,7.981597900390625,-9.616912841796875
1773148997529603600,11.148603515625,-29.890968322753906,8.140907287597656,-9.553581237792969
1773148997539640300,11.158640380859374,-29.71360206604004,8.487625122070312,-9.369796752929688
1773148997549677300,11.16867724609375,-29.683414459228516,8.896820068359375,-9.553756713867188
1773148997559714300,11.17871435546875,-29.544105529785156,9.408897399902344,-9.811370849609375
1773148997569751600,11.18875146484375,-29.231599807739258,9.914237976074219,-10.164276123046875
1773148997579788500,11.19878857421875,-28.710548400878906,10.29022216796875,-10.520309448242188
1773148997589826300,11.208826416015626,-28.3148193359375,10.823272705078125,-10.895484924316406
1773148997599863300,11.21886328125,-28.117504119873047,11.106979370117188,-11.16192626953125
1773148997609904600,11.228904541015625,-27.926250457763672,11.298805236816406,-11.28997802734375
1773148997619941400,11.23894140625,-27.926769256591797,11.343666076660156,-11.165252685546875
1773148997629978600,11.248978515625,-27.976627349853516,11.560256958007812,-10.96881103515625
1773148997640015600,11.259015625,-27.91616439819336,11.749549865722656,-10.888031005859375
1773148997650052600,11.269052490234374,-27.86390495300293,11.603630065917969,-10.87982177734375
1773148997660089600,11.279089599609375,-27.800519943237305,11.725860595703125,-10.839454650878906
1773148997670126600,11.289126708984375,-27.920557022094727,11.675506591796875,-10.819122314453125
1773148997680163600,11.29916357421875,-27.73026466369629,11.822196960449219,-10.656455993652344
1773148997690200600,11.30920068359375,-27.798452377319336,11.839363098144531,-10.924270629882812
1773148997700237600,11.319237548828125,-28.04948616027832,11.668838500976562,-10.931472778320312
1773148997710274800,11.32927490234375,-27.899381637573242,11.559768676757812,-11.040061950683594
1773148997720311600,11.3393115234375,-27.922582626342773,11.716361999511719,-11.174140930175781
1773148997730348500,11.3493486328125,-27.989267349243164,11.653701782226562,-11.381515502929688
1773148997740385500,11.359385498046874,-27.968894958496094,11.865135192871094,-11.641456604003906
1773148997750422500,11.369422607421875,-27.590686798095703,11.762039184570312,-11.605949401855469
1773148997760459800,11.379459716796875,-27.551990509033203,11.855056762695312,-11.751533508300781
1773148997770496500,11.38949658203125,-27.407997131347656,12.141342163085938,-11.772392272949219
1773148997780533500,11.399533447265625,-27.42209815979004,12.305160522460938,-11.738395690917969
1773148997790571800,11.40957177734375,-27.363311767578125,12.323966979980469,-11.739768981933594
1773148997800608500,11.4196083984375,-27.26544189453125,12.335685729980469,-11.822792053222656
1773148997810645500,11.4296455078125,-27.461626052856445,12.434013366699219,-11.900444030761719
1773148997820682500,11.4396826171875,-27.18328094482422,12.572708129882812,-11.830497741699219
1773148997830719700,11.4497197265625,-27.253751754760742,12.473976135253906,-11.904075622558594
1773148997840756700,11.4597568359375,-26.967788696289062,12.6312255859375,-11.929107666015625
1773148997850793700,11.469793701171875,-27.009708404541016,12.802070617675781,-11.978141784667969
1773148997860830500,11.47983056640625,-26.85527992248535,13.045013427734375,-11.805023193359375
1773148997870867500,11.489867431640626,-26.83734130859375,13.060523986816406,-11.531806945800781
1773148997880904700,11.49990478515625,-27.16424560546875,13.2772216796875,-11.573806762695312
1773148997890941700,11.509941650390624,-27.274215698242188,13.126091003417969,-11.346244812011719
1773148997900978700,11.519978759765625,-27.525297164916992,13.1885986328125,-11.227798461914062
1773148997911015400,11.530015380859375,-27.360261917114258,13.241966247558594,-11.164405822753906
1773148997921052700,11.540052734375,-27.16390609741211,13.281990051269531,-11.097221374511719
1773148997931089700,11.550089599609375,-27.542455673217773,13.406227111816406,-11.036491394042969
1773148997941126700,11.560126708984376,-27.56243133544922,13.503746032714844,-11.153373718261719
1773148997951163600,11.57016357421875,-27.49958610534668,13.564315795898438,-11.16546630859375
1773148997961200400,11.580200439453124,-27.332674026489258,13.609748840332031,-11.127662658691406
1773148997971237600,11.590237548828124,-27.527711868286133,13.580360412597656,-11.128440856933594
1773148997981274600,11.600274658203125,-27.55255889892578,13.627067565917969,-11.011314392089844
1773148997991311600,11.6103115234375,-27.649654388427734,13.81842041015625,-10.997306823730469
1773148998001349600,11.620349609375,-27.467023849487305,13.696235656738281,-10.866279602050781
1773148998011386600,11.63038671875,-27.290668487548828,14.087997436523438,-10.595603942871094
1773148998021423600,11.640423583984376,-27.410831451416016,14.243995666503906,-10.656814575195312
1773148998031460600,11.650460693359374,-27.468904495239258,14.272850036621094,-10.530372619628906
1773148998041497600,11.66049755859375,-27.22945213317871,14.256462097167969,-10.475013732910156
1773148998051534600,11.67053466796875,-27.34868621826172,14.268203735351562,-10.396522521972656
1773148998061571600,11.680571533203125,-27.450824737548828,14.444908142089844,-10.246833801269531
1773148998071608600,11.690608642578125,-27.27334213256836,14.782127380371094,-10.430427551269531
1773148998081645600,11.7006455078125,-27.28302001953125,15.007965087890625,-10.39990234375
1773148998091682600,11.7106826171875,-27.170654296875,15.086570739746094,-10.381660461425781
1773148998101719600,11.720719482421876,-26.954574584960938,15.129638671875,-10.397506713867188
1773148998111756500,11.730756591796874,-26.923913955688477,15.353919982910156,-10.393409729003906
1773148998121793500,11.74079345703125,-26.516786575317383,15.714218139648438,-10.422813415527344
1773148998131830800,11.750830810546875,-26.491168975830078,15.885467529296875,-11.122077941894531
1773148998141867500,11.760867431640625,-26.375699996948242,15.976303100585938,-11.657127380371094
1773148998151904500,11.770904541015625,-26.130170822143555,16.056350708007812,-12.039375305175781
1773148998161941500,11.78094140625,-25.838924407958984,16.03545379638672,-12.569366455078125
1773148998171978500,11.790978515625,-25.437515258789062,16.31298828125,-13.175277709960938
1773148998182015700,11.801015625,-25.28304672241211,16.192825317382812,-13.596755981445312
1773148998192052500,11.811052490234376,-24.993833541870117,16.139755249023438,-14.118095397949219
1773148998202089500,11.82108935546875,-24.421403884887695,15.979812622070312,-14.520988464355469
1773148998212127700,11.831127685546875,-24.320606231689453,15.884407043457031,-15.1429443359375
1773148998222164700,11.841164794921875,-24.06072998046875,15.816032409667969,-15.577239990234375
1773148998232201500,11.851201416015625,-24.02939224243164,15.888824462890625,-15.850555419921875
1773148998242238500,11.861238525390625,-24.069551467895508,15.792030334472656,-15.899009704589844
1773148998252275700,11.871275634765626,-24.054859161376953,15.793434143066406,-15.780891418457031
1773148998262312700,11.881312744140626,-24.37633514404297,15.794357299804688,-15.684638977050781
1773148998272349700,11.891349609375,-24.7067928314209,15.842147827148438,-15.268829345703125
1773148998282386400,11.901386474609374,-24.98076057434082,15.866401672363281,-14.855072021484375
1773148998292423400,11.91142333984375,-25.354415893554688,15.85009765625,-14.258827209472656
1773148998302460700,11.921460693359375,-25.45612335205078,15.747817993164062,-13.657539367675781
1773148998312497700,11.93149755859375,-25.769954681396484,15.715255737304688,-12.9683837890625
1773148998322534700,11.94153466796875,-26.16200828552246,15.7952880859375,-12.31341552734375
1773148998332571400,11.9515712890625,-26.521371841430664,15.636131286621094,-11.680274963378906
1773148998342608600,11.961608642578126,-27.024845123291016,15.547103881835938,-11.165962219238281
1773148998352645600,11.971645751953124,-27.271175384521484,15.34930419921875,-10.699317932128906
1773148998362682600,11.9816826171875,-27.398014068603516,15.279617309570312,-10.359474182128906
1773148998372719600,11.9917197265625,-27.51866912841797,15.122024536132812,-9.959617614746094
1773148998382756400,12.00175634765625,-27.617521286010742,15.064727783203125,-9.584823608398438
1773148998392793600,12.011793701171875,-27.681743621826172,14.971603393554688,-8.998054504394531
1773148998402830600,12.02183056640625,-27.95383071899414,14.902496337890625,-8.775802612304688
1773148998412867600,12.03186767578125,-28.046157836914062,14.988853454589844,-8.671684265136719
1773148998422904600,12.041904541015626,-27.956857681274414,15.172660827636719,-8.634063720703125
1773148998432941600,12.051941650390624,-27.930011749267578,14.875228881835938,-8.553947448730469
1773148998442978600,12.061978515625,-27.887941360473633,14.856620788574219,-8.657127380371094
1773148998453015600,12.072015625,-27.819793701171875,14.851821899414062,-8.850051879882812
1773148998463052500,12.082052490234375,-27.859268188476562,14.57977294921875,-8.998764038085938
1773148998473089800,12.09208984375,-27.81247329711914,14.300064086914062,-9.344375610351562
1773148998483126500,12.10212646484375,-27.859586715698242,14.057212829589844,-9.692161560058594
1773148998493163500,12.11216357421875,-27.802053451538086,13.886741638183594,-10.024742126464844
1773148998503200500,12.122200439453126,-27.655210494995117,13.712043762207031,-10.445121765136719
1773148998513237500,12.132237548828124,-27.40101432800293,13.712745666503906,-10.775192260742188
1773148998523274800,12.142274658203124,-27.43302345275879,13.383331298828125,-11.001182556152344
1773148998533311500,12.1523115234375,-27.287553787231445,13.351455688476562,-11.069847106933594
1773148998543348500,12.162348388671875,-27.24397850036621,13.218452453613281,-11.235076904296875
1773148998553386800,12.17238671875,-27.251792907714844,13.315475463867188,-11.351028442382812
1773148998563423700,12.182423828125,-27.28565216064453,13.194549560546875,-11.385040283203125
1773148998573460500,12.19246044921875,-27.237030029296875,13.213829040527344,-11.57171630859375
1773148998583497500,12.20249755859375,-27.237030029296875,13.213829040527344,-11.57171630859375
1773148998593534700,12.21253466796875,-26.89137840270996,13.002738952636719,-11.386581420898438
1773148998603571700,12.22257177734375,-27.10940170288086,12.949081420898438,-11.636489868164062
1773148998613604600,12.2326044921875,-26.92447853088379,13.10748291015625,-11.644973754882812
1773148998623641600,12.2426416015625,-27.126998901367188,13.158798217773438,-11.694267272949219
1773148998633678300,12.25267822265625,-27.296680450439453,13.008193969726562,-11.645721435546875
1773148998643715300,12.26271533203125,-27.119600296020508,13.118698120117188,-11.531082153320312
1773148998653752600,12.272752685546875,-27.287391662597656,12.914382934570312,-11.248214721679688
1773148998663789600,12.28278955078125,-27.244935989379883,13.115226745605469,-11.273231506347656
1773148998673826600,12.29282666015625,-27.309778213500977,12.986763000488281,-11.2637939453125
1773148998683865600,12.302865478515624,-27.28984832763672,12.728233337402344,-11.351058959960938
1773148998693902600,12.312902587890624,-27.31443977355957,12.761489868164062,-11.550933837890625
1773148998703939300,12.322939208984375,-27.179180145263672,12.724945068359375,-11.718132019042969
1773148998713976300,12.332976318359375,-27.312458038330078,12.622947692871094,-11.902549743652344
1773148998724013600,12.343013671875,-27.125314712524414,12.535163879394531,-12.003135681152344
1773148998734050600,12.353050537109375,-27.112539291381836,12.353591918945312,-12.218124389648438
1773148998744087600,12.363087646484376,-26.967945098876953,12.496452331542969,-12.463874816894531
1773148998754124300,12.373124267578126,-26.85011863708496,12.291206359863281,-12.521263122558594
1773148998764161300,12.383161376953124,-27.010658264160156,12.282730102539062,-12.621589660644531
1773148998774198500,12.393198486328124,-26.828489303588867,12.389732360839844,-12.460235595703125
1773148998784236500,12.403236572265625,-26.897165298461914,12.303459167480469,-12.4879150390625
1773148998794273300,12.413273193359375,-26.863616943359375,12.420967102050781,-12.500579833984375
1773148998804310500,12.423310546875,-26.869415283203125,12.325347900390625,-12.464141845703125
1773148998814347500,12.433347412109375,-26.707687377929688,12.53546142578125,-12.42486572265625
1773148998824384500,12.443384521484376,-26.901165008544922,12.449028015136719,-12.221260070800781
1773148998834421500,12.45342138671875,-26.92781639099121,12.488418579101562,-12.290847778320312
1773148998844458500,12.46345849609375,-27.096881866455078,12.259895324707031,-12.285835266113281
1773148998854495500,12.47349560546875,-27.111923217773438,12.403312683105469,-12.297981262207031
1773148998864532500,12.483532470703125,-26.758880615234375,12.2916259765625,-12.242523193359375
1773148998874569500,12.493569580078125,-26.86905860900879,12.417922973632812,-12.379478454589844
1773148998884606500,12.5036064453125,-27.073925018310547,12.232307434082031,-12.355842590332031
1773148998894643500,12.5136435546875,-27.090621948242188,12.213211059570312,-12.3912353515625
1773148998904680400,12.523680419921876,-27.321651458740234,12.086418151855469,-12.287139892578125
1773148998914717400,12.533717529296876,-27.23760414123535,12.297584533691406,-12.164566040039062
1773148998924754400,12.54375439453125,-27.338943481445312,12.352348327636719,-12.177772521972656
1773148998934791700,12.553791748046875,-27.368223190307617,12.2998046875,-12.060340881347656
1773148998944828400,12.563828369140625,-27.568971633911133,12.164283752441406,-11.964469909667969
1773148998954865400,12.573865478515625,-27.62300682067871,12.329513549804688,-11.822227478027344
1773148998964902400,12.58390234375,-27.57632827758789,12.270263671875,-11.715583801269531
1773148998974939600,12.593939697265625,-27.71251678466797,12.321342468261719,-11.670921325683594
1773148998984977400,12.603977294921876,-27.442615509033203,12.370796203613281,-11.670196533203125
1773148998995014400,12.614014404296874,-27.621212005615234,12.58856201171875,-11.733909606933594
1773148999005051400,12.624051513671875,-27.552228927612305,12.399398803710938,-11.616935729980469
1773148999015088600,12.634088623046875,-27.518043518066406,12.369415283203125,-11.583824157714844
1773148999025125400,12.64412548828125,-27.642614364624023,12.540611267089844,-11.686737060546875
1773148999035162400,12.654162353515625,-27.715007781982422,12.368766784667969,-11.58013916015625
1773148999045199400,12.664199462890625,-27.82080078125,12.3946533203125,-11.738494873046875
1773148999055236600,12.674236572265626,-27.80453872680664,12.254119873046875,-11.655654907226562
1773148999065273600,12.684273681640626,-27.88361358642578,12.346939086914062,-11.726829528808594
1773148999075310600,12.694310546875,-27.884254455566406,12.261093139648438,-11.593070983886719
1773148999085347300,12.704347412109374,-27.91429328918457,12.106460571289062,-11.548538208007812
1773148999095384300,12.71438427734375,-27.86472511291504,12.101493835449219,-11.455711364746094
1773148999105421600,12.724421630859375,-27.830280303955078,12.065025329589844,-11.368560791015625
1773148999115458600,12.73445849609375,-28.085617065429688,12.199012756347656,-11.355072021484375
1773148999125495600,12.74449560546875,-28.30793571472168,11.928199768066406,-11.216316223144531
1773148999135532300,12.7545322265625,-28.197677612304688,11.8067626953125,-11.19281005859375
