absolute_timestamp,accel_x,accel_y,accel_z
1773292760098,0.586,-0.704,-0.358
1773292760117,0.591,-0.691,-0.357
1773292760137,0.593,-0.729,-0.351
1773292760157,0.588,-0.700,-0.356
1773292760176,0.584,-0.718,-0.359
1773292760196,0.592,-0.721,-0.386
1773292760216,0.593,-0.722,-0.369
1773292760235,0.593,-0.704,-0.367
1773292760255,0.585,-0.716,-0.357
1773292760275,0.589,-0.716,-0.367
1773292760295,0.596,-0.717,-0.370
1773292760314,0.590,-0.712,-0.379
1773292760334,0.589,-0.714,-0.374
1773292760354,0.588,-0.714,-0.371
1773292760373,0.587,-0.702,-0.377
1773292760393,0.590,-0.707,-0.380
1773292760413,0.584,-0.722,-0.371
1773292760432,0.584,-0.718,-0.372
1773292760452,0.588,-0.719,-0.369
1773292760472,0.592,-0.708,-0.369
1773292760491,0.591,-0.709,-0.368
1773292760511,0.591,-0.713,-0.371
1773292760531,0.587,-0.711,-0.375
1773292760550,0.586,-0.718,-0.374
1773292760570,0.582,-0.708,-0.368
1773292760590,0.579,-0.719,-0.362
1773292760610,0.582,-0.708,-0.369
1773292760629,0.581,-0.716,-0.371
1773292760649,0.578,-0.709,-0.369
1773292760669,0.582,-0.726,-0.367
1773292760688,0.588,-0.707,-0.378
1773292760708,0.589,-0.712,-0.380
1773292760728,0.589,-0.719,-0.373
1773292760747,0.591,-0.705,-0.369
1773292760767,0.596,-0.696,-0.370
1773292760787,0.598,-0.707,-0.357
1773292760806,0.597,-0.714,-0.356
1773292760826,0.595,-0.724,-0.323
1773292760846,0.588,-0.699,-0.308
1773292760866,0.580,-0.715,-0.354
1773292760885,0.568,-0.735,-0.378
1773292760905,0.563,-0.732,-0.385
1773292760925,0.563,-0.707,-0.423
1773292760944,0.548,-0.700,-0.472
1773292760964,0.525,-0.741,-0.473
1773292760984,0.522,-0.735,-0.481
1773292761003,0.522,-0.723,-0.507
1773292761023,0.516,-0.745,-0.495
1773292761043,0.499,-0.755,-0.460
1773292761062,0.497,-0.711,-0.464
1773292761082,0.501,-0.728,-0.460
1773292761102,0.499,-0.722,-0.463
1773292761121,0.484,-0.728,-0.462
1773292761141,0.470,-0.722,-0.445
1773292761161,0.468,-0.713,-0.465
1773292761181,0.462,-0.731,-0.478
1773292761200,0.460,-0.742,-0.473
1773292761220,0.457,-0.715,-0.453
1773292761240,0.454,-0.712,-0.441
1773292761259,0.450,-0.745,-0.449
1773292761279,0.451,-0.729,-0.470
1773292761299,0.453,-0.706,-0.477
1773292761318,0.459,-0.740,-0.460
1773292761338,0.466,-0.722,-0.462
1773292761358,0.475,-0.733,-0.481
1773292761377,0.472,-0.718,-0.496
1773292761397,0.472,-0.720,-0.496
1773292761417,0.474,-0.744,-0.482
1773292761436,0.482,-0.747,-0.482
1773292761456,0.493,-0.700,-0.493
1773292761476,0.489,-0.688,-0.497
1773292761496,0.483,-0.709,-0.507
1773292761515,0.477,-0.718,-0.508
1773292761535,0.479,-0.708,-0.520
1773292761555,0.483,-0.713,-0.509
1773292761574,0.489,-0.712,-0.505
1773292761594,0.488,-0.706,-0.507
1773292761614,0.482,-0.710,-0.502
1773292761633,0.482,-0.715,-0.505
1773292761653,0.481,-0.722,-0.502
1773292761673,0.479,-0.718,-0.513
1773292761692,0.480,-0.724,-0.507
1773292761712,0.475,-0.718,-0.512
1773292761732,0.473,-0.721,-0.507
1773292761751,0.472,-0.726,-0.502
1773292761771,0.476,-0.708,-0.496
1773292761791,0.478,-0.721,-0.496
1773292761810,0.478,-0.698,-0.497
1773292761830,0.476,-0.708,-0.503
1773292761850,0.476,-0.708,-0.496
1773292761869,0.476,-0.706,-0.498
1773292761889,0.474,-0.691,-0.509
1773292761909,0.476,-0.709,-0.510
1773292761929,0.471,-0.704,-0.509
1773292761948,0.474,-0.717,-0.505
1773292761968,0.475,-0.695,-0.516
1773292761988,0.477,-0.705,-0.517
1773292762007,0.469,-0.696,-0.519
1773292762027,0.468,-0.709,-0.512
1773292762047,0.471,-0.713,-0.513
1773292762066,0.474,-0.704,-0.515
1773292762086,0.469,-0.705,-0.516
1773292762106,0.471,-0.711,-0.520
1773292762125,0.467,-0.711,-0.523
1773292762145,0.472,-0.702,-0.518
1773292762165,0.465,-0.706,-0.517
1773292762184,0.466,-0.699,-0.522
1773292762204,0.466,-0.710,-0.524
1773292762224,0.466,-0.710,-0.526
1773292762244,0.460,-0.698,-0.534
1773292762263,0.464,-0.715,-0.528
1773292762283,0.463,-0.719,-0.523
1773292762303,0.468,-0.704,-0.532
1773292762322,0.471,-0.688,-0.530
1773292762342,0.466,-0.688,-0.534
1773292762362,0.460,-0.691,-0.536
1773292762381,0.457,-0.698,-0.541
1773292762401,0.454,-0.709,-0.534
1773292762421,0.458,-0.716,-0.523
1773292762440,0.463,-0.706,-0.523
1773292762460,0.472,-0.692,-0.533
1773292762480,0.477,-0.695,-0.536
1773292762499,0.471,-0.709,-0.529
1773292762519,0.474,-0.706,-0.533
1773292762539,0.479,-0.696,-0.529
1773292762559,0.474,-0.693,-0.528
1773292762578,0.478,-0.708,-0.520
1773292762598,0.482,-0.716,-0.523
1773292762618,0.488,-0.707,-0.526
1773292762637,0.493,-0.709,-0.504
1773292762657,0.503,-0.707,-0.513
1773292762677,0.501,-0.668,-0.526
1773292762696,0.499,-0.679,-0.534
1773292762716,0.495,-0.676,-0.529
1773292762736,0.489,-0.676,-0.527
1773292762755,0.488,-0.683,-0.516
1773292762775,0.495,-0.674,-0.469
1773292762795,0.530,-0.683,-0.439
1773292762815,0.567,-0.706,-0.456
1773292762834,0.611,-0.681,-0.481
1773292762854,0.645,-0.636,-0.504
1773292762874,0.678,-0.712,-0.521
1773292762893,0.720,-0.758,-0.500
1773292762913,0.747,-0.735,-0.480
1773292762933,0.749,-0.732,-0.508
1773292762952,0.747,-0.704,-0.560
1773292762972,0.727,-0.745,-0.592
1773292762992,0.683,-0.697,-0.645
1773292763011,0.626,-0.738,-0.644
1773292763031,0.574,-0.671,-0.625
1773292763051,0.526,-0.652,-0.626
1773292763070,0.477,-0.672,-0.591
1773292763090,0.422,-0.657,-0.534
1773292763110,0.369,-0.696,-0.545
1773292763130,0.343,-0.696,-0.549
1773292763149,0.313,-0.753,-0.551
1773292763169,0.261,-0.695,-0.539
1773292763189,0.213,-0.698,-0.542
1773292763208,0.204,-0.680,-0.502
1773292763228,0.205,-0.835,-0.598
1773292763248,0.215,-0.822,-0.761
1773292763267,0.226,-0.743,-0.722
1773292763287,0.232,-1.254,-0.461
1773292763307,0.260,-0.775,-0.531
1773292763326,0.251,-0.558,-0.789
1773292763346,0.228,-0.611,-0.810
1773292763366,0.159,-0.613,-0.772
1773292763386,0.065,-0.652,-0.718
1773292763405,0.014,-0.695,-0.557
1773292763425,-0.030,-0.740,-0.439
1773292763445,-0.037,-0.557,-0.373
1773292763464,-0.034,-0.641,-0.307
1773292763484,-0.026,-0.659,-0.279
1773292763504,-0.006,-0.728,-0.329
1773292763523,0.035,-0.682,-0.403
1773292763543,0.069,-0.772,-0.457
1773292763563,0.123,-0.712,-0.508
1773292763582,0.205,-0.818,-0.561
1773292763602,0.257,-0.775,-0.612
1773292763622,0.306,-0.609,-0.709
1773292763642,0.323,-0.586,-0.807
1773292763661,0.334,-0.666,-0.797
1773292763681,0.313,-0.674,-0.752
1773292763701,0.295,-0.684,-0.742
1773292763720,0.275,-0.673,-0.695
1773292763740,0.280,-0.698,-0.688
1773292763760,0.291,-0.719,-0.651
1773292763779,0.288,-0.699,-0.603
1773292763799,0.291,-0.624,-0.600
1773292763819,0.300,-0.681,-0.625
1773292763838,0.316,-0.737,-0.652
1773292763858,0.319,-0.749,-0.614
1773292763878,0.309,-0.652,-0.608
1773292763897,0.315,-0.678,-0.644
1773292763917,0.323,-0.719,-0.659
1773292763937,0.320,-0.715,-0.664
1773292763957,0.310,-0.686,-0.653
1773292763976,0.312,-0.683,-0.656
1773292763996,0.322,-0.722,-0.642
1773292764016,0.337,-0.685,-0.622
1773292764035,0.338,-0.689,-0.623
1773292764055,0.343,-0.698,-0.611
1773292764075,0.354,-0.705,-0.637
1773292764094,0.361,-0.677,-0.641
1773292764114,0.372,-0.667,-0.634
1773292764134,0.384,-0.690,-0.637
1773292764153,0.404,-0.695,-0.650
1773292764173,0.417,-0.661,-0.661
1773292764193,0.425,-0.656,-0.654
1773292764212,0.441,-0.685,-0.628
1773292764232,0.451,-0.655,-0.618
1773292764252,0.455,-0.631,-0.596
1773292764272,0.448,-0.661,-0.579
1773292764291,0.450,-0.661,-0.552
1773292764311,0.473,-0.686,-0.548
1773292764331,0.499,-0.664,-0.546
1773292764350,0.523,-0.695,-0.543
1773292764370,0.533,-0.658,-0.533
1773292764390,0.522,-0.636,-0.542
1773292764409,0.515,-0.656,-0.524
1773292764429,0.527,-0.628,-0.489
1773292764449,0.536,-0.610,-0.489
1773292764468,0.529,-0.613,-0.503
1773292764488,0.522,-0.598,-0.510
1773292764508,0.526,-0.541,-0.540
1773292764528,0.546,-0.598,-0.583
1773292764547,0.563,-0.687,-0.577
1773292764567,0.573,-0.610,-0.555
1773292764587,0.589,-0.565,-0.576
1773292764606,0.593,-0.639,-0.565
1773292764626,0.587,-0.636,-0.561
1773292764646,0.611,-0.508,-0.591
1773292764665,0.625,-0.567,-0.614
1773292764685,0.627,-0.614,-0.595
1773292764705,0.612,-0.592,-0.564
1773292764724,0.582,-0.551,-0.501
1773292764744,0.546,-0.543,-0.490
1773292764764,0.515,-0.555,-0.433
1773292764783,0.521,-0.518,-0.492
1773292764803,0.553,-0.554,-0.566
1773292764823,0.565,-0.568,-0.517
1773292764843,0.586,-0.568,-0.496
1773292764862,0.647,-0.519,-0.515
1773292764882,0.690,-0.485,-0.523
1773292764902,0.709,-0.476,-0.533
1773292764921,0.754,-0.445,-0.536
1773292764941,0.792,-0.389,-0.547
1773292764961,0.799,-0.360,-0.568
1773292764980,0.794,-0.349,-0.600
1773292765000,0.781,-0.353,-0.582
1773292765020,0.765,-0.327,-0.545
1773292765039,0.748,-0.339,-0.558
1773292765059,0.738,-0.397,-0.540
1773292765079,0.736,-0.377,-0.529
1773292765099,0.729,-0.420,-0.518
1773292765118,0.741,-0.372,-0.501
1773292765138,0.746,-0.450,-0.527
1773292765158,0.755,-0.402,-0.520
1773292765177,0.776,-0.351,-0.525
1773292765197,0.795,-0.458,-0.504
1773292765217,0.800,-0.464,-0.447
1773292765236,0.800,-0.338,-0.456
1773292765256,0.834,-0.359,-0.504
1773292765276,0.833,-0.458,-0.505
1773292765295,0.786,-0.306,-0.485
1773292765315,0.751,-0.340,-0.481
1773292765335,0.749,-0.422,-0.459
1773292765354,0.722,-0.372,-0.449
1773292765374,0.688,-0.390,-0.415
1773292765394,0.696,-0.441,-0.417
1773292765414,0.728,-0.435,-0.447
1773292765433,0.745,-0.431,-0.425
1773292765453,0.761,-0.372,-0.456
1773292765473,0.779,-0.359,-0.488
1773292765492,0.799,-0.348,-0.520
1773292765512,0.808,-0.366,-0.509
1773292765532,0.791,-0.340,-0.490
1773292765551,0.805,-0.330,-0.510
1773292765571,0.810,-0.390,-0.494
1773292765591,0.789,-0.358,-0.479
1773292765610,0.761,-0.350,-0.455
1773292765630,0.766,-0.449,-0.464
1773292765650,0.770,-0.411,-0.440
1773292765669,0.760,-0.315,-0.445
1773292765689,0.759,-0.458,-0.457
1773292765709,0.774,-0.415,-0.446
1773292765729,0.798,-0.376,-0.475
1773292765748,0.811,-0.420,-0.476
1773292765768,0.808,-0.393,-0.463
1773292765788,0.814,-0.351,-0.509
1773292765807,0.809,-0.421,-0.516
1773292765827,0.811,-0.359,-0.492
1773292765847,0.785,-0.408,-0.499
1773292765866,0.749,-0.462,-0.473
1773292765886,0.723,-0.436,-0.484
1773292765906,0.713,-0.417,-0.444
1773292765925,0.685,-0.536,-0.389
1773292765945,0.671,-0.481,-0.385
1773292765965,0.711,-0.410,-0.415
1773292765984,0.765,-0.530,-0.437
1773292766004,0.786,-0.444,-0.465
1773292766024,0.796,-0.347,-0.532
1773292766043,0.789,-0.448,-0.519
1773292766063,0.781,-0.448,-0.563
1773292766083,0.777,-0.449,-0.555
1773292766103,0.751,-0.428,-0.510
1773292766122,0.750,-0.387,-0.502
1773292766142,0.737,-0.460,-0.511
1773292766162,0.713,-0.441,-0.495
1773292766181,0.691,-0.431,-0.475
1773292766201,0.695,-0.497,-0.482
1773292766221,0.694,-0.542,-0.478
1773292766240,0.692,-0.491,-0.458
1773292766260,0.699,-0.558,-0.481
1773292766280,0.712,-0.575,-0.444
1773292766299,0.728,-0.546,-0.459
1773292766319,0.733,-0.524,-0.449
1773292766339,0.754,-0.559,-0.444
1773292766358,0.758,-0.533,-0.452
1773292766378,0.743,-0.516,-0.428
1773292766398,0.727,-0.602,-0.401
1773292766417,0.727,-0.631,-0.368
1773292766437,0.704,-0.579,-0.372
1773292766457,0.692,-0.586,-0.336
1773292766476,0.675,-0.639,-0.328
1773292766496,0.662,-0.658,-0.336
1773292766516,0.677,-0.613,-0.320
1773292766536,0.682,-0.636,-0.282
1773292766555,0.683,-0.623,-0.280
1773292766575,0.687,-0.628,-0.303
1773292766595,0.687,-0.633,-0.298
1773292766614,0.662,-0.621,-0.288
1773292766634,0.650,-0.595,-0.309
1773292766654,0.679,-0.727,-0.330
1773292766673,0.692,-0.658,-0.344
1773292766693,0.689,-0.562,-0.363
1773292766713,0.689,-0.653,-0.342
1773292766732,0.682,-0.637,-0.309
1773292766752,0.682,-0.623,-0.262
1773292766772,0.644,-0.586,-0.206
1773292766791,0.647,-0.640,-0.240
1773292766811,0.628,-0.711,-0.330
1773292766831,0.629,-0.629,-0.287
1773292766850,0.622,-0.765,-0.224
1773292766870,0.621,-0.699,-0.216
1773292766890,0.618,-0.592,-0.308
1773292766909,0.651,-0.744,-0.369
1773292766929,0.648,-0.761,-0.295
1773292766949,0.616,-0.640,-0.301
1773292766969,0.606,-0.623,-0.334
1773292766988,0.612,-0.775,-0.291
1773292767008,0.616,-0.681,-0.290
1773292767028,0.613,-0.584,-0.342
1773292767047,0.591,-0.666,-0.401
1773292767067,0.557,-0.680,-0.338
1773292767087,0.548,-0.704,-0.338
1773292767106,0.610,-0.835,-0.410
1773292767126,0.637,-0.691,-0.456
1773292767146,0.614,-0.583,-0.414
1773292767165,0.634,-0.696,-0.419
1773292767185,0.673,-0.850,-0.507
1773292767205,0.646,-0.616,-0.454
1773292767224,0.578,-0.582,-0.350
1773292767244,0.551,-0.749,-0.319
1773292767264,0.586,-0.866,-0.398
1773292767284,0.576,-0.717,-0.415
1773292767303,0.527,-0.650,-0.393
1773292767323,0.526,-0.737,-0.424
1773292767343,0.552,-0.951,-0.437
1773292767362,0.559,-0.754,-0.447
1773292767382,0.530,-0.648,-0.489
1773292767402,0.497,-0.657,-0.424
1773292767421,0.501,-0.763,-0.418
1773292767441,0.493,-0.745,-0.379
1773292767461,0.468,-0.705,-0.384
1773292767480,0.461,-0.701,-0.387
1773292767500,0.460,-0.756,-0.418
1773292767520,0.455,-0.812,-0.421
1773292767539,0.437,-0.773,-0.439
1773292767559,0.426,-0.747,-0.420
1773292767579,0.435,-0.771,-0.430
1773292767599,0.416,-0.784,-0.453
1773292767618,0.412,-0.742,-0.529
1773292767638,0.431,-0.749,-0.578
1773292767658,0.411,-0.747,-0.580
1773292767677,0.380,-0.720,-0.581
1773292767697,0.353,-0.758,-0.622
1773292767717,0.344,-0.711,-0.655
1773292767736,0.339,-0.713,-0.631
1773292767756,0.321,-0.760,-0.551
1773292767776,0.324,-0.763,-0.496
1773292767795,0.347,-0.764,-0.482
1773292767815,0.346,-0.693,-0.433
1773292767835,0.301,-0.756,-0.331
1773292767854,0.286,-0.794,-0.277
1773292767874,0.296,-0.782,-0.351
1773292767894,0.270,-0.657,-0.375
1773292767914,0.231,-0.723,-0.365
1773292767933,0.210,-0.830,-0.423
1773292767953,0.215,-0.777,-0.448
1773292767973,0.217,-0.765,-0.503
1773292767992,0.218,-0.752,-0.523
1773292768012,0.212,-0.748,-0.571
1773292768032,0.236,-0.837,-0.648
1773292768051,0.234,-0.894,-0.676
1773292768071,0.220,-0.778,-0.706
1773292768091,0.196,-0.715,-0.711
1773292768110,0.209,-0.755,-0.758
1773292768130,0.197,-0.700,-0.767
1773292768150,0.170,-0.663,-0.707
1773292768169,0.135,-0.664,-0.647
1773292768189,0.081,-0.756,-0.659
1773292768209,0.057,-0.773,-0.788
1773292768229,0.075,-0.731,-0.696
1773292768248,0.063,-0.738,-0.626
1773292768268,0.061,-0.624,-0.753
1773292768288,0.059,-0.655,-0.826
1773292768307,0.059,-0.741,-0.772
1773292768327,0.051,-0.767,-0.742
1773292768347,0.035,-0.684,-0.741
1773292768366,0.016,-0.697,-0.750
1773292768386,0.015,-0.704,-0.792
1773292768406,0.024,-0.713,-0.802
1773292768425,0.031,-0.729,-0.751
1773292768445,0.032,-0.684,-0.755
1773292768465,0.036,-0.655,-0.765
1773292768484,0.044,-0.666,-0.758
1773292768504,0.059,-0.654,-0.779
1773292768524,0.059,-0.652,-0.754
1773292768544,0.047,-0.652,-0.759
1773292768563,0.037,-0.663,-0.759
1773292768583,0.039,-0.640,-0.742
1773292768603,0.039,-0.672,-0.736
1773292768622,0.034,-0.662,-0.766
1773292768642,0.042,-0.679,-0.781
1773292768662,0.044,-0.669,-0.744
1773292768681,0.047,-0.665,-0.730
1773292768701,0.052,-0.665,-0.728
1773292768721,0.052,-0.661,-0.727
1773292768740,0.060,-0.665,-0.726
1773292768760,0.069,-0.660,-0.716
1773292768780,0.072,-0.663,-0.723
1773292768799,0.073,-0.649,-0.736
1773292768819,0.077,-0.671,-0.723
1773292768839,0.077,-0.668,-0.701
1773292768859,0.085,-0.649,-0.720
1773292768878,0.086,-0.654,-0.741
1773292768898,0.088,-0.662,-0.755
1773292768918,0.098,-0.674,-0.748
1773292768937,0.101,-0.662,-0.738
1773292768957,0.102,-0.634,-0.745
1773292768977,0.102,-0.625,-0.756
1773292768996,0.106,-0.654,-0.770
1773292769016,0.110,-0.640,-0.764
1773292769036,0.112,-0.635,-0.752
1773292769055,0.106,-0.628,-0.744
1773292769075,0.101,-0.626,-0.743
1773292769095,0.105,-0.643,-0.739
1773292769114,0.112,-0.636,-0.750
1773292769134,0.107,-0.638,-0.744
1773292769154,0.097,-0.627,-0.745
1773292769173,0.088,-0.646,-0.747
1773292769193,0.082,-0.648,-0.743
1773292769213,0.083,-0.641,-0.745
1773292769233,0.081,-0.639,-0.751
1773292769252,0.078,-0.637,-0.745
1773292769272,0.081,-0.637,-0.742
1773292769292,0.082,-0.634,-0.747
1773292769311,0.081,-0.631,-0.754
1773292769331,0.083,-0.644,-0.754
1773292769351,0.082,-0.639,-0.745
1773292769370,0.078,-0.626,-0.744
1773292769390,0.072,-0.644,-0.754
1773292769410,0.067,-0.635,-0.754
1773292769429,0.069,-0.643,-0.760
1773292769449,0.068,-0.646,-0.756
1773292769469,0.068,-0.628,-0.770
1773292769488,0.070,-0.636,-0.780
1773292769508,0.078,-0.634,-0.787
1773292769528,0.082,-0.637,-0.765
1773292769547,0.088,-0.626,-0.760
1773292769567,0.097,-0.635,-0.760
1773292769587,0.105,-0.617,-0.750
1773292769607,0.112,-0.603,-0.751
1773292769626,0.105,-0.619,-0.749
1773292769646,0.098,-0.597,-0.750
1773292769666,0.082,-0.616,-0.760
1773292769685,0.078,-0.642,-0.773
1773292769705,0.070,-0.646,-0.767
1773292769725,0.070,-0.599,-0.760
1773292769744,0.063,-0.609,-0.759
1773292769764,0.064,-0.641,-0.754
1773292769784,0.060,-0.633,-0.756
1773292769803,0.059,-0.628,-0.771
1773292769823,0.057,-0.633,-0.771
1773292769843,0.067,-0.637,-0.769
1773292769862,0.068,-0.624,-0.768
1773292769882,0.074,-0.609,-0.757
1773292769902,0.069,-0.612,-0.754
1773292769922,0.067,-0.621,-0.758
1773292769941,0.065,-0.628,-0.754
1773292769961,0.067,-0.618,-0.748
1773292769981,0.063,-0.603,-0.764
1773292770000,0.056,-0.603,-0.782
1773292770020,0.049,-0.631,-0.769
1773292770040,0.054,-0.628,-0.765
1773292770059,0.052,-0.623,-0.783
1773292770079,0.049,-0.603,-0.784
1773292770099,0.058,-0.629,-0.781
1773292770118,0.061,-0.635,-0.774
1773292770138,0.063,-0.611,-0.765
1773292770158,0.073,-0.600,-0.772
1773292770177,0.078,-0.626,-0.768
1773292770197,0.078,-0.596,-0.765
1773292770217,0.077,-0.595,-0.761
1773292770236,0.073,-0.593,-0.735
1773292770256,0.070,-0.636,-0.731
1773292770276,0.076,-0.615,-0.747
1773292770296,0.072,-0.617,-0.730
1773292770315,0.069,-0.612,-0.717
1773292770335,0.075,-0.629,-0.732
1773292770355,0.086,-0.633,-0.733
1773292770374,0.077,-0.619,-0.728
1773292770394,0.070,-0.615,-0.729
1773292770414,0.061,-0.621,-0.732
1773292770433,0.056,-0.629,-0.716
1773292770453,0.046,-0.650,-0.699
1773292770473,0.040,-0.637,-0.711
1773292770492,0.026,-0.678,-0.695
1773292770512,0.023,-0.604,-0.694
1773292770532,0.001,-0.558,-0.700
1773292770551,-0.033,-0.583,-0.727
1773292770571,-0.070,-0.667,-0.699
1773292770591,-0.100,-0.624,-0.674
1773292770610,-0.126,-0.560,-0.711
1773292770630,-0.157,-0.525,-0.716
1773292770650,-0.202,-0.551,-0.708
1773292770670,-0.243,-0.538,-0.726
1773292770689,-0.282,-0.524,-0.761
1773292770709,-0.325,-0.480,-0.747
1773292770729,-0.342,-0.566,-0.709
1773292770748,-0.349,-0.567,-0.707
1773292770768,-0.341,-0.483,-0.795
1773292770788,-0.347,-0.497,-0.843
1773292770807,-0.324,-0.550,-0.846
1773292770827,-0.276,-0.508,-0.895
1773292770847,-0.226,-0.510,-0.962
1773292770866,-0.200,-0.430,-0.916
1773292770886,-0.163,-0.416,-0.915
1773292770906,-0.153,-0.392,-0.921
1773292770925,-0.150,-0.335,-0.891
1773292770945,-0.154,-0.384,-0.878
1773292770965,-0.168,-0.382,-0.908
1773292770984,-0.164,-0.360,-0.935
1773292771004,-0.164,-0.277,-0.900
1773292771024,-0.158,-0.309,-0.820
1773292771044,-0.134,-0.389,-0.876
1773292771063,-0.109,-0.367,-0.974
1773292771083,-0.104,-0.271,-1.016
1773292771103,-0.101,-0.245,-0.991
1773292771122,-0.091,-0.304,-1.028
1773292771142,-0.102,-0.369,-1.026
1773292771162,-0.096,-0.292,-1.058
1773292771181,-0.123,-0.217,-1.075
1773292771201,-0.110,-0.201,-1.029
1773292771221,-0.093,-0.277,-0.998
1773292771240,-0.086,-0.304,-0.977
1773292771260,-0.081,-0.292,-0.963
1773292771280,-0.084,-0.224,-0.975
1773292771299,-0.078,-0.231,-0.960
1773292771319,-0.057,-0.271,-0.994
1773292771339,-0.049,-0.271,-1.044
1773292771358,-0.042,-0.202,-1.110
1773292771378,-0.036,-0.187,-1.099
1773292771398,-0.046,-0.204,-1.015
1773292771418,-0.087,-0.141,-1.038
1773292771437,-0.130,-0.099,-1.096
1773292771457,-0.145,-0.192,-1.105
1773292771477,-0.129,-0.359,-1.066
1773292771496,-0.095,-0.159,-1.116
1773292771516,-0.061,-0.027,-1.165
1773292771536,-0.081,-0.235,-1.142
1773292771555,-0.077,-0.204,-1.130
1773292771575,-0.095,0.057,-1.170
1773292771595,-0.126,-0.032,-1.277
1773292771614,-0.189,-0.063,-1.230
1773292771634,-0.201,-0.018,-1.136
1773292771654,-0.167,-0.026,-1.191
1773292771673,-0.185,-0.174,-1.052
1773292771693,-0.260,-0.210,-0.913
1773292771713,-0.208,-0.101,-0.970
1773292771732,-0.095,-0.085,-0.980
1773292771752,-0.068,-0.027,-0.894
1773292771772,-0.126,-0.061,-0.890
1773292771792,-0.137,-0.206,-1.035
1773292771811,-0.145,-0.210,-1.019
1773292771831,-0.112,-0.073,-0.964
1773292771851,-0.124,0.013,-0.950
1773292771870,-0.124,0.023,-1.032
1773292771890,-0.109,-0.113,-0.993
1773292771910,-0.112,0.020,-0.980
1773292771929,-0.130,0.096,-1.067
1773292771949,-0.091,-0.069,-1.052
1773292771969,-0.085,0.029,-1.008
1773292771988,-0.090,0.245,-0.997
1773292772008,-0.084,-0.098,-0.934
1773292772028,-0.021,-0.082,-0.790
1773292772047,-0.041,0.175,-0.890
1773292772067,-0.067,0.023,-0.812
1773292772087,-0.033,-0.016,-0.789
1773292772106,0.007,0.144,-0.888
1773292772126,0.017,0.090,-0.928
1773292772146,0.025,0.255,-1.004
1773292772166,0.058,0.301,-1.062
1773292772185,0.036,0.031,-1.014
1773292772205,0.012,0.039,-0.940
1773292772225,0.040,0.051,-0.802
1773292772244,-0.058,0.211,-0.701
1773292772264,-0.150,0.191,-0.645
1773292772284,-0.095,-0.272,-0.584
1773292772303,-0.116,-0.107,-0.516
1773292772323,-0.101,0.484,-0.579
1773292772343,-0.035,0.220,-0.707
1773292772362,0.003,-0.073,-0.912
1773292772382,-0.064,0.429,-0.851
1773292772402,-0.051,0.271,-0.647
1773292772421,-0.004,-0.054,-0.904
1773292772441,-0.043,0.262,-1.086
1773292772461,-0.029,0.277,-0.941
1773292772480,0.010,-0.015,-0.781
1773292772500,-0.027,0.131,-0.996
1773292772520,-0.051,0.301,-0.980
1773292772540,-0.028,0.003,-0.769
1773292772559,-0.037,0.066,-0.646
1773292772579,-0.066,0.234,-0.766
1773292772599,-0.060,0.005,-0.719
1773292772618,-0.085,0.146,-0.638
1773292772638,-0.100,0.151,-0.598
1773292772658,-0.108,0.104,-0.765
1773292772677,-0.104,0.077,-0.912
1773292772697,-0.127,0.101,-0.672
1773292772717,-0.105,0.020,-0.482
1773292772736,-0.086,0.088,-0.722
1773292772756,-0.062,0.184,-0.878
1773292772776,-0.112,0.225,-0.670
1773292772795,-0.097,0.015,-0.552
1773292772815,-0.042,0.084,-0.864
1773292772835,0.025,0.383,-1.114
1773292772854,-0.123,0.322,-0.816
1773292772874,-0.125,0.031,-0.670
1773292772894,-0.052,0.282,-1.069
1773292772914,0.133,0.433,-1.246
1773292772933,-0.084,0.359,-1.173
1773292772953,-0.028,0.176,-1.235
1773292772973,0.001,0.387,-1.334
1773292772992,-0.133,0.570,-1.389
1773292773012,-0.210,0.128,-1.150
1773292773032,-0.102,0.010,-1.036
1773292773051,-0.061,0.467,-1.019
1773292773071,-0.199,0.570,-1.022
1773292773091,-0.224,-0.020,-1.265
1773292773110,-0.178,0.180,-1.537
1773292773130,0.002,0.522,-1.204
1773292773150,-0.011,0.304,-0.998
1773292773169,-0.034,0.431,-1.313
1773292773189,-0.158,0.334,-1.496
1773292773209,-0.220,0.188,-1.272
1773292773229,-0.146,0.419,-1.242
1773292773248,-0.161,0.435,-1.255
1773292773268,-0.144,0.137,-1.277
1773292773288,-0.075,0.271,-1.276
1773292773307,-0.097,0.551,-1.217
1773292773327,-0.169,0.488,-1.135
1773292773347,-0.122,0.115,-1.146
1773292773366,-0.051,0.206,-1.235
1773292773386,-0.093,0.685,-1.045
1773292773406,-0.154,0.525,-0.878
1773292773425,-0.096,0.194,-0.996
1773292773445,-0.010,0.138,-1.269
1773292773465,-0.079,0.586,-1.268
1773292773484,-0.127,0.444,-1.037
1773292773504,-0.086,0.221,-0.947
1773292773524,-0.040,0.210,-1.053
1773292773543,-0.064,0.385,-1.094
1773292773563,-0.110,0.362,-0.938
1773292773583,-0.063,0.183,-0.923
1773292773602,-0.038,0.190,-0.979
1773292773622,-0.034,0.368,-0.952
1773292773642,-0.070,0.307,-0.881
1773292773662,-0.064,0.160,-0.809
1773292773681,-0.030,0.151,-0.780
1773292773701,-0.071,0.228,-0.825
1773292773721,-0.115,0.310,-0.804
1773292773740,-0.075,0.116,-0.724
1773292773760,-0.013,0.063,-0.720
1773292773780,-0.002,0.367,-0.869
1773292773799,-0.043,0.358,-0.959
1773292773819,-0.055,0.076,-0.827
1773292773839,-0.036,-0.051,-0.783
1773292773858,-0.012,0.314,-0.801
1773292773878,-0.030,0.436,-0.902
1773292773898,-0.048,0.215,-0.964
1773292773917,-0.078,-0.059,-0.853
1773292773937,-0.118,-0.072,-0.649
1773292773957,-0.140,-0.001,-0.448
1773292773976,-0.132,0.008,-0.339
1773292773996,-0.075,-0.044,-0.388
1773292774016,-0.043,0.213,-0.571
1773292774036,-0.050,0.052,-0.628
1773292774055,0.005,0.174,-0.725
1773292774075,-0.019,0.274,-0.875
1773292774095,-0.049,0.136,-0.989
1773292774114,-0.058,0.095,-0.926
1773292774134,-0.052,0.110,-0.884
1773292774154,-0.075,-0.028,-0.822
1773292774173,-0.046,0.104,-0.754
1773292774193,-0.034,0.183,-0.671
1773292774213,-0.023,0.055,-0.620
1773292774232,-0.019,0.112,-0.642
1773292774252,-0.016,0.207,-0.769
1773292774272,-0.059,0.218,-0.722
1773292774291,-0.066,0.130,-0.600
1773292774311,-0.004,0.148,-0.790
1773292774331,0.038,0.195,-1.054
1773292774351,-0.017,0.351,-0.909
1773292774370,-0.048,0.242,-0.741
1773292774390,0.035,0.042,-0.895
1773292774410,0.007,0.085,-1.062
1773292774429,-0.038,0.402,-0.846
1773292774449,-0.095,0.253,-0.794
1773292774469,-0.059,0.044,-0.952
1773292774488,0.022,0.365,-1.143
1773292774508,0.025,0.405,-1.132
1773292774528,0.103,0.130,-1.109
1773292774547,0.065,0.209,-1.257
1773292774567,-0.059,0.654,-1.340
1773292774587,-0.185,0.247,-1.210
1773292774606,-0.073,-0.234,-0.982
1773292774626,0.063,0.200,-1.093
1773292774646,0.066,0.703,-1.179
1773292774666,-0.068,0.257,-1.134
1773292774685,-0.033,-0.046,-1.094
1773292774705,0.067,0.277,-1.108
1773292774725,0.022,0.639,-1.331
1773292774744,-0.120,0.485,-1.379
1773292774764,-0.120,0.223,-1.421
1773292774784,-0.093,0.280,-1.603
1773292774803,-0.111,0.336,-1.574
1773292774823,-0.121,0.237,-1.383
1773292774843,-0.096,0.287,-1.236
1773292774862,-0.061,0.447,-1.123
1773292774882,-0.048,0.369,-1.059
1773292774902,-0.019,0.264,-1.142
1773292774921,-0.053,0.390,-1.128
1773292774941,-0.064,0.363,-1.075
1773292774961,-0.055,0.243,-1.067
1773292774980,-0.020,0.185,-1.139
1773292775000,-0.076,0.460,-1.176
1773292775020,-0.131,0.350,-1.092
1773292775040,-0.046,0.148,-0.982
1773292775059,-0.001,0.123,-0.943
1773292775079,-0.064,0.442,-1.014
1773292775099,-0.135,0.374,-0.983
1773292775118,-0.083,0.077,-0.815
1773292775138,-0.005,-0.007,-0.863
1773292775158,-0.043,0.403,-1.002
1773292775177,-0.104,0.468,-0.972
1773292775197,-0.069,0.059,-0.853
1773292775217,-0.045,0.006,-0.855
1773292775236,-0.032,0.279,-0.941
1773292775256,-0.052,0.236,-0.854
1773292775276,-0.008,0.023,-0.745
1773292775295,0.005,0.130,-0.789
1773292775315,-0.012,0.329,-0.869
1773292775335,-0.025,0.141,-0.805
1773292775355,-0.030,0.143,-0.844
1773292775374,-0.041,0.078,-0.818
1773292775394,-0.017,0.134,-0.798
1773292775414,-0.019,0.207,-0.885
1773292775433,-0.045,0.198,-0.878
1773292775453,-0.086,0.095,-0.720
1773292775473,-0.068,-0.185,-0.620
1773292775492,-0.047,-0.055,-0.538
1773292775512,-0.078,0.177,-0.509
1773292775532,-0.035,-0.004,-0.570
1773292775551,0.027,0.053,-0.677
1773292775571,-0.041,0.176,-0.722
1773292775591,-0.076,0.139,-0.772
1773292775610,-0.087,0.033,-0.741
1773292775630,-0.077,-0.020,-0.713
1773292775650,-0.074,0.102,-0.716
1773292775669,-0.026,0.134,-0.773
1773292775689,-0.006,0.055,-0.780
1773292775709,-0.005,0.073,-0.723
1773292775729,-0.037,0.090,-0.669
1773292775748,-0.006,0.239,-0.782
1773292775768,0.018,-0.010,-0.783
1773292775788,-0.027,0.007,-0.613
1773292775807,-0.045,0.296,-0.655
1773292775827,0.061,0.271,-1.034
1773292775847,0.000,0.072,-1.123
1773292775866,-0.030,0.098,-0.719
1773292775886,-0.067,0.202,-0.624
1773292775906,0.034,0.280,-0.990
1773292775925,-0.003,0.313,-1.225
1773292775945,-0.046,0.280,-1.056
1773292775965,0.042,-0.181,-0.906
1773292775984,0.067,0.339,-0.973
1773292776004,-0.041,0.682,-1.163
1773292776024,-0.044,0.031,-1.001
1773292776043,0.006,-0.182,-0.829
1773292776063,0.105,0.420,-1.055
1773292776083,-0.021,0.720,-1.219
1773292776103,-0.122,0.060,-1.069
1773292776122,-0.066,-0.098,-1.159
1773292776142,0.063,0.475,-1.270
1773292776162,0.030,0.659,-1.213
1773292776181,0.039,0.087,-1.314
1773292776201,0.038,0.215,-1.605
1773292776221,-0.020,0.588,-1.500
1773292776240,-0.087,0.190,-1.190
1773292776260,0.024,0.089,-1.264
1773292776280,0.098,0.476,-1.505
1773292776299,0.015,0.494,-1.420
1773292776319,-0.012,0.098,-1.130
1773292776339,0.014,0.164,-1.139
1773292776358,-0.024,0.551,-1.262
1773292776378,-0.080,0.380,-1.076
1773292776398,0.002,0.127,-1.007
1773292776417,0.008,0.295,-1.211
1773292776437,-0.138,0.459,-1.305
1773292776457,-0.106,0.115,-1.029
1773292776477,0.027,0.149,-0.973
1773292776496,0.044,0.526,-1.094
1773292776516,-0.056,0.529,-1.031
1773292776536,-0.039,0.133,-0.990
1773292776555,-0.006,0.111,-1.079
1773292776575,-0.007,0.491,-1.137
1773292776595,-0.112,0.417,-1.007
1773292776614,-0.022,0.034,-0.971
1773292776634,0.025,0.113,-1.051
1773292776654,-0.026,0.441,-0.976
1773292776673,-0.102,0.264,-0.747
1773292776693,-0.008,0.136,-0.815
1773292776713,0.034,0.125,-0.994
1773292776732,-0.006,0.218,-0.954
1773292776752,-0.033,0.184,-0.822
1773292776772,-0.010,0.142,-0.878
1773292776791,-0.031,0.206,-0.957
1773292776811,-0.017,0.045,-0.863
1773292776831,0.008,-0.016,-0.791
1773292776851,0.009,0.222,-0.833
1773292776870,-0.023,0.165,-0.754
1773292776890,-0.020,0.068,-0.730
1773292776910,-0.052,0.226,-0.764
1773292776929,-0.081,0.156,-0.753
1773292776949,-0.063,0.046,-0.739
1773292776969,-0.060,-0.095,-0.679
1773292776988,-0.021,-0.251,-0.551
1773292777008,-0.023,0.013,-0.481
1773292777028,-0.025,0.147,-0.486
1773292777047,0.006,0.075,-0.651
1773292777067,0.026,0.198,-0.796
1773292777087,-0.067,0.158,-0.759
1773292777106,-0.087,-0.019,-0.692
1773292777126,-0.051,0.057,-0.761
1773292777146,-0.054,0.130,-0.821
1773292777166,-0.090,0.088,-0.726
1773292777185,-0.069,0.116,-0.686
1773292777205,0.022,0.007,-0.858
1773292777225,-0.015,0.039,-0.802
1773292777244,-0.123,0.180,-0.575
1773292777264,-0.104,0.109,-0.501
1773292777284,0.027,0.044,-0.782
1773292777303,-0.013,0.285,-0.908
1773292777323,-0.091,0.173,-0.587
1773292777343,-0.035,-0.034,-0.497
1773292777362,0.069,0.248,-1.014
1773292777382,0.026,0.506,-1.299
1773292777402,-0.086,0.235,-0.797
1773292777421,-0.015,-0.290,-0.506
1773292777441,0.062,0.151,-1.029
1773292777461,0.109,0.786,-1.550
1773292777480,-0.141,0.438,-1.182
1773292777500,-0.076,-0.287,-0.777
1773292777520,0.108,-0.274,-0.944
1773292777540,0.232,0.951,-1.492
1773292777559,-0.113,0.834,-1.378
1773292777579,-0.025,-0.123,-1.092
1773292777599,-0.061,-0.205,-1.226
1773292777618,0.112,0.773,-1.434
1773292777638,-0.091,0.631,-1.325
1773292777658,-0.031,-0.017,-1.259
1773292777677,0.042,-0.004,-1.491
1773292777697,0.043,0.555,-1.566
1773292777717,-0.049,0.321,-1.157
1773292777736,-0.045,0.272,-1.057
1773292777756,-0.013,0.397,-1.283
1773292777776,-0.044,0.318,-1.352
1773292777795,-0.030,0.346,-1.210
1773292777815,0.018,0.405,-1.105
1773292777835,-0.042,0.477,-1.123
1773292777855,-0.116,0.215,-1.157
1773292777874,-0.065,0.225,-1.186
1773292777894,0.002,0.394,-1.168
1773292777914,-0.053,0.600,-1.126
1773292777933,-0.113,0.268,-1.047
1773292777953,-0.010,0.080,-1.125
1773292777973,0.024,0.409,-1.175
1773292777992,-0.037,0.546,-1.061
1773292778012,-0.003,0.337,-0.982
1773292778032,-0.009,0.200,-1.052
1773292778051,-0.032,0.340,-1.119
1773292778071,-0.048,0.256,-0.976
1773292778091,-0.026,0.276,-0.924
1773292778110,-0.028,0.309,-0.972
1773292778130,-0.045,0.217,-0.918
1773292778150,-0.038,0.252,-0.902
1773292778169,-0.048,0.232,-0.853
1773292778189,-0.023,0.180,-0.830
1773292778209,-0.041,0.092,-0.806
1773292778229,-0.052,0.198,-0.804
1773292778248,-0.052,0.132,-0.778
1773292778268,-0.066,0.162,-0.731
1773292778288,-0.075,0.037,-0.690
1773292778307,-0.023,0.053,-0.765
1773292778327,-0.035,0.419,-0.909
1773292778347,-0.076,0.227,-0.872
1773292778366,-0.048,-0.093,-0.814
1773292778386,-0.003,-0.016,-0.900
1773292778406,-0.057,0.173,-0.797
1773292778425,-0.136,-0.045,-0.545
1773292778445,-0.084,-0.410,-0.320
1773292778465,0.025,0.019,-0.363
1773292778484,0.006,0.446,-0.672
1773292778504,0.017,0.150,-0.783
1773292778524,-0.025,-0.103,-0.623
1773292778543,-0.066,0.120,-0.712
1773292778563,-0.115,0.308,-0.974
1773292778583,-0.083,-0.058,-0.982
1773292778602,-0.057,-0.312,-0.686
1773292778622,-0.059,0.239,-0.643
1773292778642,-0.054,0.287,-0.815
1773292778661,0.014,-0.270,-0.746
1773292778681,0.009,-0.110,-0.430
1773292778701,-0.058,0.454,-0.469
1773292778720,-0.004,0.286,-0.838
1773292778740,-0.053,-0.235,-0.943
1773292778760,-0.067,0.059,-0.568
1773292778779,-0.118,0.273,-0.496
1773292778799,0.089,0.027,-1.023
1773292778819,0.084,0.194,-1.426
1773292778839,0.020,0.245,-0.909
1773292778858,0.024,0.017,-0.380
1773292778878,0.091,0.087,-0.745
1773292778898,0.069,0.471,-1.323
1773292778917,0.036,0.390,-1.252
1773292778937,0.024,0.041,-0.961
1773292778957,0.072,0.333,-1.171
1773292778976,0.034,0.569,-1.208
1773292778996,-0.012,0.151,-1.184
1773292779016,0.027,0.007,-1.366
1773292779035,0.070,0.507,-1.292
1773292779055,0.031,0.474,-1.141
1773292779075,0.032,-0.008,-1.055
1773292779094,0.031,0.361,-1.224
1773292779114,0.114,0.612,-1.478
1773292779134,-0.058,0.293,-1.270
1773292779153,-0.082,0.023,-1.133
1773292779173,0.125,0.447,-1.326
1773292779193,0.168,0.698,-1.455
1773292779213,-0.006,0.283,-1.256
1773292779232,0.022,0.209,-1.296
1773292779252,0.104,0.451,-1.403
1773292779272,0.025,0.488,-1.223
1773292779291,-0.007,0.169,-0.989
1773292779311,0.093,0.247,-1.054
1773292779331,0.127,0.617,-1.219
1773292779350,0.009,0.366,-1.095
1773292779370,0.002,0.053,-1.001
1773292779390,0.077,0.302,-1.118
1773292779409,0.073,0.538,-1.172
1773292779429,0.027,0.228,-1.004
1773292779449,0.083,0.254,-1.027
1773292779468,0.091,0.446,-1.082
1773292779488,-0.004,0.270,-1.016
1773292779508,0.006,0.181,-0.966
1773292779527,0.122,0.254,-1.040
1773292779547,0.110,0.435,-1.045
1773292779567,0.021,0.340,-0.943
1773292779587,-0.047,0.095,-0.839
1773292779606,0.062,0.134,-0.909
1773292779626,0.083,0.245,-0.883
1773292779646,0.039,0.232,-0.796
1773292779665,0.002,0.171,-0.761
1773292779685,0.031,0.189,-0.865
1773292779705,0.014,0.139,-0.855
1773292779724,0.040,0.064,-0.768
1773292779744,0.051,0.273,-0.888
1773292779764,0.029,0.175,-0.775
1773292779783,0.009,-0.014,-0.754
1773292779803,0.074,0.048,-0.826
1773292779823,0.038,0.332,-0.813
1773292779842,-0.031,0.264,-0.768
1773292779862,-0.017,0.122,-0.865
1773292779882,0.024,0.147,-0.982
1773292779901,0.041,0.141,-0.982
1773292779921,-0.039,0.125,-0.800
1773292779941,-0.109,0.038,-0.660
1773292779961,-0.039,-0.199,-0.589
1773292779980,0.031,0.069,-0.572
1773292780000,0.019,0.090,-0.507
1773292780020,-0.009,0.089,-0.548
1773292780039,0.037,0.112,-0.700
1773292780059,0.002,0.170,-0.732
1773292780079,0.030,0.171,-0.867
1773292780098,0.027,0.082,-0.933
1773292780118,0.013,0.083,-0.922
1773292780138,-0.039,0.044,-0.768
1773292780157,0.013,-0.054,-0.629
1773292780177,0.086,0.021,-0.668
1773292780197,0.006,0.367,-0.739
1773292780216,-0.110,0.100,-0.565
1773292780236,-0.025,-0.272,-0.555
1773292780256,0.046,-0.005,-0.654
1773292780275,-0.030,0.613,-0.685
1773292780295,-0.161,0.166,-0.563
1773292780315,0.010,-0.255,-0.788
1773292780334,0.153,0.220,-1.269
1773292780354,0.149,0.753,-1.183
1773292780374,-0.044,0.289,-0.737
1773292780393,0.015,-0.079,-0.799
1773292780413,0.097,0.303,-1.171
1773292780433,-0.032,0.738,-1.174
1773292780453,-0.114,0.218,-0.955
1773292780472,0.108,0.027,-1.370
1773292780492,0.176,0.378,-1.459
1773292780512,0.027,0.542,-1.109
1773292780531,0.054,-0.102,-0.955
1773292780551,0.095,0.037,-1.181
1773292780571,0.184,0.759,-1.311
1773292780590,0.015,0.353,-1.119
1773292780610,0.038,-0.071,-1.019
1773292780630,0.106,0.271,-1.189
1773292780649,0.106,0.645,-1.159
1773292780669,0.043,0.457,-1.061
1773292780689,0.037,0.084,-1.211
1773292780708,0.072,0.388,-1.591
1773292780728,0.018,0.576,-1.522
1773292780748,0.068,0.212,-1.156
1773292780767,0.160,0.392,-1.337
1773292780787,0.048,0.587,-1.458
1773292780807,-0.088,0.194,-1.203
1773292780826,0.025,0.209,-1.150
1773292780846,0.107,0.562,-1.173
1773292780866,0.075,0.465,-1.075
1773292780886,0.046,0.177,-1.001
1773292780905,0.057,0.292,-1.017
1773292780925,0.025,0.546,-1.036
1773292780945,0.018,0.308,-0.997
1773292780964,0.094,0.191,-1.097
1773292780984,0.075,0.393,-1.150
1773292781004,0.009,0.401,-0.991
1773292781023,0.007,0.258,-0.882
1773292781043,0.076,0.253,-0.917
1773292781063,0.091,0.407,-1.069
1773292781082,0.052,0.299,-1.029
1773292781102,0.059,0.108,-0.829
1773292781122,0.077,0.189,-0.760
1773292781141,0.001,0.434,-0.853
1773292781161,-0.027,0.232,-0.885
1773292781181,0.047,0.009,-0.804
1773292781200,0.077,0.189,-0.784
1773292781220,-0.012,0.441,-0.786
1773292781240,0.003,0.122,-0.729
1773292781260,0.048,0.139,-0.909
1773292781279,0.074,0.376,-1.015
1773292781299,0.007,0.219,-0.883
1773292781319,0.010,0.064,-0.809
1773292781338,0.069,0.055,-0.814
1773292781358,0.071,0.328,-0.921
1773292781378,-0.071,0.378,-0.826
1773292781397,-0.116,-0.144,-0.645
1773292781417,-0.042,-0.303,-0.599
1773292781437,0.034,0.243,-0.721
1773292781456,-0.020,0.134,-0.666
1773292781476,0.022,-0.255,-0.460
1773292781496,0.031,0.155,-0.395
1773292781515,0.027,0.266,-0.618
1773292781535,0.079,0.105,-0.776
1773292781555,0.047,0.143,-0.770
1773292781574,-0.013,0.042,-0.717
1773292781594,0.046,0.132,-0.854
1773292781614,0.035,0.217,-0.970
1773292781633,-0.074,0.100,-0.796
1773292781653,-0.119,-0.119,-0.456
1773292781673,0.015,0.191,-0.673
1773292781693,0.068,0.324,-1.033
1773292781712,-0.063,0.174,-0.668
1773292781732,-0.135,-0.007,-0.319
1773292781752,0.006,0.032,-0.720
1773292781771,0.160,0.269,-1.284
1773292781791,0.076,0.349,-0.972
1773292781811,-0.129,0.183,-0.366
1773292781830,-0.044,0.030,-0.625
1773292781850,-0.042,0.200,-1.101
1773292781870,0.052,0.618,-1.035
1773292781889,-0.132,0.140,-0.603
1773292781909,-0.018,-0.004,-0.838
1773292781929,0.142,0.479,-1.495
1773292781948,0.016,0.746,-1.366
1773292781968,0.026,-0.042,-0.838
1773292781988,-0.126,-0.141,-0.896
1773292782007,0.246,0.807,-1.540
1773292782027,-0.064,0.795,-1.394
1773292782047,0.013,-0.083,-0.909
1773292782066,-0.155,0.100,-0.975
1773292782086,0.239,0.937,-1.346
1773292782106,0.032,0.578,-1.442
1773292782126,0.009,0.298,-1.334
1773292782145,0.089,0.476,-1.447
1773292782165,-0.026,0.745,-1.282
1773292782185,-0.129,0.369,-1.097
1773292782204,-0.043,0.338,-1.292
1773292782224,0.117,0.519,-1.423
1773292782244,0.042,0.577,-1.155
1773292782263,0.019,0.334,-1.001
1773292782283,0.070,0.389,-1.125
1773292782303,0.045,0.612,-1.248
1773292782322,-0.013,0.309,-1.052
1773292782342,0.080,0.299,-0.990
1773292782362,0.158,0.559,-1.069
1773292782381,0.043,0.553,-1.048
1773292782401,-0.009,0.250,-0.950
1773292782421,0.025,0.341,-0.957
1773292782440,0.110,0.541,-1.117
1773292782460,0.057,0.529,-1.096
1773292782480,0.043,0.296,-0.975
1773292782500,0.096,0.365,-0.930
1773292782519,0.075,0.515,-0.967
1773292782539,0.034,0.448,-0.975
1773292782559,0.048,0.256,-0.983
1773292782578,0.046,0.253,-0.927
1773292782598,0.006,0.314,-0.793
1773292782618,0.009,0.289,-0.788
1773292782637,0.030,0.296,-0.873
1773292782657,0.035,0.243,-0.848
1773292782677,0.059,0.185,-0.749
1773292782696,0.038,0.307,-0.769
1773292782716,0.044,0.303,-0.817
1773292782736,0.035,0.157,-0.832
1773292782755,0.030,0.218,-0.830
1773292782775,0.045,0.251,-0.753
1773292782795,0.036,0.338,-0.765
1773292782814,0.014,0.157,-0.845
1773292782834,0.042,0.091,-0.871
1773292782854,0.031,0.308,-0.828
1773292782873,-0.023,0.140,-0.812
1773292782893,-0.060,0.021,-0.757
1773292782913,-0.046,-0.032,-0.634
1773292782933,-0.019,0.090,-0.585
1773292782952,-0.026,0.113,-0.637
1773292782972,-0.081,0.015,-0.585
1773292782992,-0.064,0.223,-0.553
1773292783011,-0.022,0.106,-0.640
1773292783031,0.048,0.008,-0.653
1773292783051,0.064,0.244,-0.718
1773292783070,0.071,0.344,-0.901
1773292783090,0.044,0.072,-0.895
1773292783110,-0.015,0.025,-0.747
1773292783129,-0.003,0.091,-0.689
1773292783149,0.084,0.131,-0.748
1773292783169,0.029,0.192,-0.738
1773292783188,-0.164,0.253,-0.598
1773292783208,-0.114,0.047,-0.564
1773292783228,0.027,0.097,-0.843
1773292783247,0.068,0.281,-0.874
1773292783267,0.009,0.179,-0.540
1773292783287,0.066,-0.084,-0.746
1773292783306,0.110,0.354,-1.068
1773292783326,0.021,0.740,-0.993
1773292783346,-0.139,-0.100,-0.523
1773292783365,-0.079,-0.426,-0.652
1773292783385,0.233,0.598,-1.573
1773292783405,0.067,1.263,-1.566
1773292783425,-0.089,0.067,-0.807
1773292783444,-0.231,-0.536,-0.622
1773292783464,0.124,0.412,-1.308
1773292783484,0.105,1.278,-1.437
1773292783503,0.019,0.336,-1.088
1773292783523,-0.063,-0.205,-1.124
1773292783543,0.124,0.389,-1.369
1773292783562,0.038,0.682,-1.069
1773292783582,-0.050,0.046,-0.992
1773292783602,0.019,0.234,-1.432
1773292783621,0.063,0.749,-1.448
1773292783641,-0.041,0.356,-1.032
1773292783661,0.002,0.185,-1.128
1773292783680,0.181,0.564,-1.439
1773292783700,0.072,0.664,-1.369
1773292783720,-0.010,0.239,-1.154
1773292783739,0.108,0.244,-1.327
1773292783759,0.148,0.661,-1.437
1773292783779,-0.022,0.568,-1.181
1773292783798,0.025,0.229,-0.947
1773292783818,0.093,0.470,-0.976
1773292783838,0.097,0.589,-1.142
1773292783858,-0.012,0.277,-1.165
1773292783877,0.020,0.231,-1.002
1773292783897,0.061,0.569,-0.921
1773292783917,0.057,0.512,-0.927
1773292783936,0.061,0.256,-1.008
1773292783956,0.075,0.357,-1.098
1773292783976,0.047,0.390,-1.030
1773292783995,0.022,0.359,-0.976
1773292784015,0.077,0.416,-0.939
1773292784035,0.138,0.319,-0.942
1773292784054,0.051,0.410,-0.981
1773292784074,0.016,0.290,-0.878
1773292784094,0.078,0.175,-0.904
1773292784113,0.162,0.382,-0.979
1773292784133,0.092,0.392,-0.949
1773292784153,-0.001,0.208,-0.830
1773292784172,0.040,0.183,-0.753
1773292784192,0.086,0.300,-0.779
1773292784212,0.053,0.270,-0.757
1773292784232,0.030,0.172,-0.780
1773292784251,0.031,0.194,-0.872
1773292784271,0.045,0.283,-0.875
1773292784291,-0.001,0.217,-0.809
1773292784310,-0.007,0.080,-0.739
1773292784330,0.038,0.183,-0.785
1773292784350,0.033,0.421,-0.796
1773292784369,-0.048,0.230,-0.819
1773292784389,0.001,-0.005,-0.767
1773292784409,0.000,0.193,-0.800
1773292784428,-0.047,0.199,-0.744
1773292784448,-0.074,-0.123,-0.634
1773292784468,-0.062,-0.066,-0.468
1773292784487,-0.037,0.252,-0.496
1773292784507,0.010,-0.013,-0.481
1773292784527,0.040,0.069,-0.503
1773292784546,0.062,0.470,-0.732
1773292784566,0.014,0.351,-0.879
1773292784586,-0.012,-0.099,-0.802
1773292784605,0.046,-0.087,-0.899
1773292784625,0.079,0.378,-0.883
1773292784645,0.020,0.307,-0.642
1773292784665,0.044,-0.003,-0.596
1773292784684,0.075,0.016,-0.564
1773292784704,0.033,0.441,-0.717
1773292784724,-0.097,0.460,-0.735
1773292784743,-0.022,0.009,-0.825
1773292784763,0.026,0.013,-0.964
1773292784783,0.019,0.450,-0.778
1773292784802,-0.105,0.314,-0.644
1773292784822,-0.123,0.016,-0.727
1773292784842,0.029,0.318,-0.839
1773292784861,0.177,0.459,-1.051
1773292784881,0.017,0.473,-0.947
1773292784901,-0.042,0.235,-0.975
1773292784920,0.024,0.308,-1.147
1773292784940,0.122,0.792,-1.241
1773292784960,-0.062,0.526,-1.147
1773292784979,-0.085,0.021,-1.039
1773292784999,0.029,0.197,-1.233
1773292785019,0.043,0.703,-1.198
1773292785038,-0.035,0.503,-0.995
1773292785058,0.083,0.235,-1.090
1773292785078,0.180,0.495,-1.324
1773292785097,0.033,0.746,-1.228
1773292785117,-0.019,0.439,-1.101
1773292785137,0.061,0.276,-1.322
1773292785156,0.164,0.646,-1.515
1773292785176,-0.019,0.660,-1.340
1773292785196,-0.015,0.297,-1.177
1773292785216,0.084,0.295,-1.264
1773292785235,0.044,0.626,-1.280
1773292785255,-0.088,0.431,-1.070
1773292785275,0.078,0.200,-0.979
1773292785294,0.111,0.437,-1.044
1773292785314,0.047,0.702,-1.079
1773292785334,-0.077,0.400,-0.988
1773292785353,-0.018,0.191,-0.985
1773292785373,0.061,0.297,-1.011
1773292785393,0.007,0.686,-1.012
1773292785412,-0.035,0.370,-0.943
1773292785432,0.042,0.167,-0.995
1773292785452,0.079,0.517,-1.171
1773292785471,0.008,0.563,-1.081
1773292785491,0.019,0.200,-0.958
1773292785511,0.070,0.272,-0.984
1773292785530,0.055,0.534,-1.022
1773292785550,-0.009,0.332,-0.866
1773292785570,0.020,0.244,-0.790
1773292785589,0.051,0.310,-0.891
1773292785609,0.044,0.349,-0.988
1773292785629,0.033,0.295,-0.906
1773292785648,0.069,0.239,-0.800
1773292785668,0.062,0.429,-0.869
1773292785688,0.022,0.365,-0.977
1773292785707,0.011,0.133,-0.921
1773292785727,0.063,0.128,-0.801
1773292785747,0.064,0.305,-0.734
1773292785766,0.003,0.330,-0.715
1773292785786,0.033,0.183,-0.767
1773292785806,0.081,0.196,-0.833
1773292785826,0.004,0.320,-0.838
1773292785845,-0.016,0.142,-0.751
1773292785865,0.024,0.201,-0.758
1773292785885,0.058,0.462,-0.999
1773292785904,0.009,0.204,-1.042
1773292785924,-0.025,-0.192,-0.823
1773292785944,0.004,-0.254,-0.539
1773292785963,-0.030,0.237,-0.480
1773292785983,-0.012,0.163,-0.570
1773292786003,0.051,-0.083,-0.506
1773292786022,0.008,0.226,-0.485
1773292786042,-0.005,0.289,-0.698
1773292786062,0.038,0.094,-0.841
1773292786081,0.060,0.173,-0.855
1773292786101,-0.007,0.158,-0.847
1773292786121,0.023,0.226,-0.897
1773292786140,0.032,0.063,-0.881
1773292786160,0.015,0.181,-0.780
1773292786180,-0.109,0.027,-0.644
1773292786199,0.017,0.090,-0.651
1773292786219,0.082,0.287,-0.816
1773292786239,-0.072,0.425,-0.702
1773292786258,-0.203,-0.090,-0.541
1773292786278,-0.090,-0.213,-0.678
1773292786298,0.134,0.371,-1.015
1773292786318,0.102,0.634,-0.855
1773292786337,-0.047,0.018,-0.495
1773292786357,-0.046,0.146,-0.828
1773292786377,0.147,0.687,-1.347
1773292786396,0.014,0.613,-1.178
1773292786416,-0.126,0.157,-0.710
1773292786436,-0.143,0.093,-0.810
1773292786455,0.063,0.428,-0.944
1773292786475,0.192,0.523,-0.920
1773292786495,0.137,0.193,-1.095
1773292786514,0.275,0.386,-1.320
1773292786534,0.137,0.866,-1.242
1773292786554,0.000,0.263,-1.006
1773292786573,-0.062,-0.066,-0.908
1773292786593,0.208,0.642,-1.236
1773292786613,0.176,1.078,-1.320
1773292786632,-0.045,0.312,-1.091
1773292786652,-0.163,-0.059,-0.962
1773292786672,0.161,0.601,-1.198
1773292786691,0.184,0.991,-1.268
1773292786711,0.046,0.512,-1.028
1773292786731,0.086,0.316,-1.186
1773292786751,0.169,0.850,-1.478
1773292786770,0.007,0.747,-1.378
1773292786790,-0.003,0.251,-1.063
1773292786810,0.121,0.468,-1.105
1773292786829,0.138,0.831,-1.213
1773292786849,0.019,0.498,-1.097
1773292786869,0.052,0.299,-0.999
1773292786888,0.115,0.578,-0.974
1773292786908,0.102,0.687,-0.917
1773292786928,0.063,0.426,-0.919
1773292786947,0.097,0.321,-1.120
1773292786967,0.079,0.538,-1.180
1773292786987,0.025,0.528,-0.988
1773292787006,0.050,0.384,-0.893
1773292787026,0.102,0.423,-0.935
1773292787046,0.079,0.523,-0.974
1773292787065,0.041,0.426,-0.808
1773292787085,0.082,0.364,-0.818
1773292787105,0.081,0.415,-0.891
1773292787124,0.030,0.428,-0.902
1773292787144,0.021,0.252,-0.825
1773292787164,0.080,0.278,-0.762
1773292787183,0.108,0.439,-0.793
1773292787203,0.069,0.387,-0.850
1773292787223,0.010,0.252,-0.765
1773292787243,0.066,0.207,-0.710
1773292787262,0.051,0.303,-0.785
1773292787282,0.020,0.277,-0.808
1773292787302,0.028,0.222,-0.711
1773292787321,0.028,0.265,-0.729
1773292787341,-0.023,0.399,-0.792
1773292787361,0.033,0.255,-0.791
1773292787380,0.079,0.323,-0.891
1773292787400,0.026,0.355,-0.908
1773292787420,0.022,0.363,-0.818
1773292787439,-0.006,0.263,-0.865
1773292787459,-0.074,0.030,-0.787
1773292787479,-0.086,-0.119,-0.619
1773292787498,-0.068,0.190,-0.498
1773292787518,-0.046,0.277,-0.482
1773292787538,0.009,0.264,-0.647
1773292787557,0.041,0.331,-0.788
1773292787577,0.010,0.393,-0.771
1773292787597,0.005,0.144,-0.805
1773292787617,0.051,0.270,-0.948
1773292787636,0.049,0.349,-1.046
1773292787656,-0.008,0.326,-0.962
1773292787676,-0.011,0.082,-0.811
1773292787695,0.053,0.208,-0.830
1773292787715,0.004,0.390,-0.863
1773292787735,-0.027,0.202,-0.698
1773292787754,-0.010,0.067,-0.525
1773292787774,0.020,0.307,-0.666
1773292787794,0.018,0.387,-0.810
1773292787813,0.025,0.399,-0.955
1773292787833,-0.022,0.323,-0.961
1773292787853,-0.036,-0.022,-0.769
1773292787872,-0.009,0.227,-0.752
1773292787892,0.047,0.522,-0.850
1773292787912,0.038,0.598,-0.994
1773292787931,-0.003,0.214,-0.928
1773292787951,-0.049,0.085,-0.784
1773292787971,-0.012,0.236,-0.735
1773292787990,0.056,0.455,-0.912
1773292788010,0.074,0.725,-1.119
1773292788030,0.089,0.387,-1.030
1773292788049,0.070,0.114,-0.922
1773292788069,0.059,0.287,-0.924
1773292788089,0.059,0.766,-1.164
1773292788109,0.016,0.657,-1.220
1773292788128,0.012,0.317,-1.083
1773292788148,0.004,0.412,-1.098
1773292788168,0.011,0.250,-1.008
1773292788187,0.064,0.535,-1.060
1773292788207,0.054,0.743,-1.073
1773292788227,0.003,0.525,-1.080
1773292788246,0.012,0.352,-1.147
1773292788266,0.072,0.576,-1.168
1773292788286,0.047,0.658,-1.152
1773292788305,0.016,0.486,-1.127
1773292788325,0.046,0.405,-1.059
1773292788345,0.070,0.500,-1.059
1773292788364,0.056,0.448,-1.002
1773292788384,0.071,0.420,-0.870
1773292788404,0.067,0.503,-0.924
1773292788423,-0.002,0.541,-0.920
1773292788443,-0.024,0.387,-0.929
1773292788463,0.067,0.393,-0.969
1773292788482,0.093,0.646,-1.010
1773292788502,0.020,0.635,-0.974
1773292788522,-0.013,0.344,-0.989
1773292788542,0.046,0.385,-1.028
1773292788561,0.075,0.440,-1.037
1773292788581,0.024,0.523,-0.981
1773292788601,-0.041,0.404,-0.914
1773292788620,0.015,0.304,-0.870
1773292788640,0.062,0.474,-0.875
1773292788660,0.035,0.388,-0.836
1773292788679,0.018,0.239,-0.753
1773292788699,0.050,0.406,-0.855
1773292788719,0.038,0.502,-0.883
1773292788738,0.004,0.385,-0.903
1773292788758,-0.025,0.177,-0.816
1773292788778,0.028,0.312,-0.783
1773292788797,0.006,0.460,-0.908
1773292788817,0.006,0.271,-0.868
1773292788837,-0.012,0.180,-0.798
1773292788856,0.004,0.281,-0.794
1773292788876,-0.004,0.259,-0.736
1773292788896,0.007,0.279,-0.727
1773292788915,-0.003,0.430,-0.851
1773292788935,-0.053,0.345,-0.827
1773292788955,-0.062,0.062,-0.758
1773292788974,-0.004,0.225,-0.814
1773292788994,-0.018,0.370,-0.846
1773292789014,-0.054,0.107,-0.689
1773292789033,-0.024,0.177,-0.648
1773292789053,0.006,0.280,-0.655
1773292789073,0.030,0.374,-0.818
1773292789093,0.021,0.288,-0.864
1773292789112,-0.015,0.293,-0.864
1773292789132,-0.055,0.164,-0.788
1773292789152,-0.001,0.247,-0.841
1773292789171,0.033,0.333,-0.925
1773292789191,-0.007,0.195,-0.769
1773292789211,-0.060,0.181,-0.702
1773292789230,-0.012,0.131,-0.759
1773292789250,0.044,0.337,-0.908
1773292789270,-0.003,0.373,-0.790
1773292789289,-0.069,0.191,-0.609
1773292789309,-0.038,0.160,-0.688
1773292789329,0.085,0.345,-0.946
1773292789348,0.059,0.538,-0.971
1773292789368,-0.113,0.317,-0.765
1773292789388,-0.092,0.058,-0.697
1773292789407,0.031,0.127,-0.851
1773292789427,0.109,0.508,-0.999
1773292789447,-0.041,0.514,-0.808
1773292789466,-0.082,0.104,-0.616
1773292789486,0.029,0.108,-0.810
1773292789506,0.168,0.733,-1.167
1773292789525,0.068,0.912,-1.206
1773292789545,0.019,0.261,-0.958
1773292789565,0.060,0.255,-1.140
1773292789585,0.170,0.744,-1.417
1773292789604,0.057,0.885,-1.336
1773292789624,0.021,0.315,-1.136
1773292789644,0.074,0.173,-1.189
1773292789663,0.083,0.520,-1.250
1773292789683,-0.001,0.541,-1.146
1773292789703,0.052,0.232,-0.987
1773292789722,0.124,0.340,-1.024
1773292789742,0.076,0.748,-1.206
1773292789762,-0.027,0.440,-1.092
1773292789781,0.053,0.111,-1.011
1773292789801,0.151,0.490,-1.039
1773292789821,0.103,0.891,-1.135
1773292789840,0.009,0.398,-1.056
1773292789860,0.073,0.111,-1.044
1773292789880,0.093,0.441,-1.085
1773292789899,0.067,0.618,-1.048
1773292789919,0.029,0.401,-0.920
1773292789939,0.055,0.253,-0.946
1773292789958,0.097,0.408,-1.075
1773292789978,0.082,0.505,-1.063
1773292789998,0.037,0.341,-0.853
1773292790018,0.053,0.306,-0.832
1773292790037,0.049,0.367,-0.932
1773292790057,0.042,0.455,-1.010
1773292790077,0.039,0.311,-0.892
1773292790096,0.063,0.262,-0.772
1773292790116,0.074,0.388,-0.864
1773292790136,0.030,0.305,-0.877
1773292790155,0.050,0.190,-0.859
1773292790175,0.067,0.225,-0.772
1773292790195,0.065,0.325,-0.733
1773292790214,0.048,0.339,-0.736
1773292790234,0.029,0.287,-0.813
1773292790254,0.034,0.337,-0.860
1773292790273,0.043,0.373,-0.913
1773292790293,0.042,0.241,-0.859
1773292790313,0.042,0.170,-0.826
1773292790332,0.060,0.379,-0.924
1773292790352,0.019,0.361,-0.945
1773292790372,-0.029,0.231,-0.927
1773292790431,-0.039,0.097,-0.630
1773292790450,-0.050,0.127,-0.553
1773292790470,0.024,0.208,-0.632
1773292790490,0.018,0.291,-0.720
1773292790510,0.046,0.136,-0.764
1773292790529,0.050,0.128,-0.758
1773292790549,0.036,0.305,-0.879
1773292790569,-0.034,0.357,-0.956
1773292790588,-0.064,0.142,-0.878
1773292790608,-0.022,-0.014,-0.843
1773292790628,-0.003,0.065,-0.737
1773292790647,0.023,0.272,-0.718
1773292790667,0.007,0.372,-0.766
1773292790687,0.005,0.153,-0.807
1773292790706,-0.013,0.121,-0.669
1773292790726,-0.015,0.296,-0.678
1773292790746,0.017,0.228,-0.830
1773292790765,0.039,0.345,-1.002
1773292790785,-0.032,0.307,-0.956
1773292790805,-0.063,0.102,-0.703
1773292790824,0.029,0.206,-0.756
1773292790844,0.088,0.570,-1.035
1773292790864,0.042,0.540,-1.102
1773292790884,-0.007,0.241,-0.963
1773292790903,0.002,0.070,-0.842
1773292790923,0.083,0.464,-0.884
1773292790943,0.049,0.721,-1.037
1773292790962,-0.007,0.386,-1.063
1773292790982,-0.011,0.080,-0.906
1773292791002,0.122,0.314,-0.850
1773292791021,0.101,0.725,-1.057
1773292791041,0.017,0.633,-1.205
1773292791061,0.014,0.269,-1.139
1773292791080,0.070,0.442,-1.132
1773292791100,0.039,0.620,-1.134
1773292791120,0.030,0.355,-1.031
1773292791139,0.084,0.401,-1.063
1773292791159,0.086,0.728,-1.138
1773292791179,0.015,0.600,-1.140
1773292791198,0.016,0.302,-1.059
1773292791218,0.090,0.443,-1.077
1773292791238,0.109,0.630,-1.118
1773292791257,0.025,0.675,-1.128
1773292791277,0.025,0.441,-1.056
1773292791297,0.076,0.338,-1.069
1773292791316,0.087,0.748,-1.180
1773292791336,-0.018,0.555,-1.023
1773292791356,0.014,0.181,-0.824
1773292791376,0.052,0.426,-0.899
1773292791395,0.066,0.644,-1.026
1773292791415,0.030,0.389,-1.024
1773292791435,0.063,0.303,-0.871
1773292791454,0.099,0.523,-0.906
1773292791474,0.065,0.626,-0.918
1773292791494,0.030,0.392,-0.904
1773292791513,0.059,0.360,-0.914
1773292791533,0.068,0.525,-0.942
1773292791553,0.020,0.390,-0.893
1773292791572,-0.022,0.329,-0.849
1773292791592,-0.002,0.375,-0.860
1773292791612,0.030,0.366,-0.897
1773292791631,0.010,0.369,-0.845
1773292791651,0.016,0.422,-0.840
1773292791671,0.007,0.372,-0.811
1773292791690,-0.005,0.257,-0.819
1773292791710,0.025,0.199,-0.800
1773292791730,0.021,0.368,-0.777
1773292791750,-0.001,0.491,-0.840
1773292791769,-0.066,0.210,-0.853
1773292791789,-0.038,0.086,-0.762
1773292791809,0.019,0.260,-0.749
1773292791828,0.032,0.475,-0.870
1773292791848,0.016,0.320,-0.810
1773292791868,-0.007,0.204,-0.856
1773292791887,-0.042,0.130,-0.824
1773292791907,-0.047,0.037,-0.711
1773292791927,-0.014,0.224,-0.694
1773292791946,0.009,0.379,-0.728
1773292791966,-0.001,0.207,-0.759
1773292791986,-0.001,0.184,-0.752
1773292792005,0.012,0.327,-0.812
1773292792025,0.009,0.282,-0.850
1773292792045,0.008,0.258,-0.895
1773292792064,0.012,0.246,-0.980
1773292792084,0.005,0.299,-0.953
1773292792104,-0.016,0.240,-0.821
1773292792124,0.037,0.234,-0.840
1773292792143,0.059,0.300,-0.905
1773292792163,0.024,0.384,-0.855
1773292792183,-0.036,0.193,-0.747
1773292792202,-0.015,0.114,-0.688
1773292792222,0.033,0.380,-0.828
1773292792242,-0.014,0.396,-0.841
1773292792261,-0.063,0.299,-0.914
1773292792281,-0.051,0.185,-0.918
1773292792301,0.038,0.368,-0.908
1773292792320,0.040,0.383,-0.888
1773292792340,0.002,0.292,-0.847
1773292792360,0.007,0.208,-0.821
1773292792379,0.071,0.207,-0.861
1773292792399,0.094,0.513,-0.947
1773292792419,0.022,0.471,-0.918
1773292792439,-0.012,0.198,-0.844
1773292792458,0.049,0.301,-0.903
1773292792478,0.064,0.436,-0.984
1773292792498,0.010,0.359,-0.868
1773292792517,0.006,0.306,-0.881
1773292792537,0.063,0.421,-0.936
1773292792557,0.138,0.619,-1.031
1773292792576,0.062,0.520,-1.088
1773292792596,-0.008,0.307,-1.046
1773292792616,0.032,0.408,-1.029
1773292792635,0.061,0.536,-1.035
1773292792655,-0.019,0.321,-0.880
1773292792675,-0.052,0.241,-0.799
1773292792694,0.028,0.379,-0.887
1773292792714,0.053,0.459,-0.926
1773292792734,-0.018,0.468,-0.904
1773292792753,-0.036,0.379,-0.917
1773292792773,0.029,0.361,-1.055
1773292792793,0.023,0.487,-1.142
1773292792813,-0.010,0.571,-1.082
1773292792832,0.002,0.417,-1.067
1773292792852,0.049,0.523,-1.137
1773292792872,0.032,0.699,-1.166
1773292792891,-0.003,0.454,-1.081
1773292792911,0.031,0.370,-1.128
1773292792931,0.064,0.579,-1.140
1773292792950,-0.005,0.530,-1.100
1773292792970,-0.023,0.351,-0.965
1773292792990,0.043,0.374,-0.933
1773292793009,0.038,0.557,-0.982
1773292793029,-0.020,0.478,-0.901
1773292793049,-0.017,0.363,-0.853
1773292793068,0.034,0.459,-0.968
1773292793088,-0.042,0.577,-1.041
1773292793108,-0.054,0.342,-1.055
1773292793127,-0.007,0.349,-0.984
1773292793147,0.002,0.427,-1.000
1773292793167,-0.025,0.349,-0.953
1773292793187,-0.018,0.387,-0.915
1773292793206,-0.003,0.363,-0.949
1773292793226,-0.024,0.284,-0.838
1773292793246,0.003,0.246,-0.710
1773292793265,0.020,0.277,-0.773
1773292793285,0.039,0.453,-0.949
1773292793305,0.015,0.443,-0.989
1773292793324,0.014,0.178,-0.870
1773292793344,0.039,0.225,-0.767
1773292793364,0.031,0.467,-0.895
1773292793383,-0.010,0.346,-0.921
1773292793403,-0.028,0.201,-0.853
1773292793423,-0.004,0.202,-0.858
1773292793442,-0.002,0.245,-0.872
1773292793462,-0.030,0.342,-0.844
1773292793482,-0.068,0.262,-0.813
1773292793501,-0.053,0.273,-0.857
1773292793521,-0.009,0.267,-0.906
1773292793541,0.020,0.225,-0.947
1773292793561,-0.006,0.191,-0.906
1773292793580,0.025,0.243,-0.854
1773292793600,0.039,0.335,-0.831
1773292793620,0.034,0.353,-0.933
1773292793639,0.031,0.097,-0.912
1773292793659,0.014,0.196,-0.897
1773292793679,-0.034,0.235,-0.770
1773292793698,0.031,0.165,-0.666
1773292793718,0.048,0.211,-0.744
1773292793738,0.059,0.202,-0.762
1773292793757,0.027,0.148,-0.680
1773292793777,0.033,0.260,-0.733
1773292793797,0.046,0.308,-0.798
1773292793816,0.019,0.269,-0.863
1773292793836,-0.031,0.125,-0.897
1773292793856,-0.050,0.080,-0.823
1773292793875,-0.045,0.141,-0.829
1773292793895,-0.050,0.202,-0.858
1773292793915,-0.047,0.254,-0.819
1773292793934,0.055,0.251,-0.869
1773292793954,0.052,0.177,-0.772
1773292793974,0.067,0.290,-0.613
1773292793994,0.052,0.358,-0.632
1773292794013,0.053,0.409,-0.712
1773292794033,0.075,0.375,-0.834
1773292794053,0.023,0.230,-0.739
1773292794072,0.063,0.371,-0.756
1773292794092,0.095,0.559,-0.903
1773292794112,0.138,0.593,-1.036
1773292794131,0.058,0.388,-1.024
1773292794151,0.026,0.338,-1.027
1773292794171,0.033,0.461,-0.990
1773292794190,0.050,0.543,-0.925
1773292794210,0.028,0.415,-0.858
1773292794230,-0.063,0.231,-0.797
1773292794249,0.000,0.378,-0.868
1773292794269,0.108,0.599,-0.987
1773292794289,0.074,0.830,-1.001
1773292794308,0.008,0.484,-0.988
1773292794328,0.044,0.351,-1.012
1773292794348,0.167,0.463,-1.027
1773292794368,0.103,0.509,-0.944
1773292794387,0.060,0.519,-0.887
1773292794407,0.071,0.526,-0.881
1773292794427,0.133,0.706,-1.034
1773292794446,0.135,0.690,-1.109
1773292794466,0.146,0.496,-1.046
1773292794486,0.119,0.690,-1.012
1773292794505,0.073,0.840,-1.178
1773292794525,0.029,0.537,-1.218
1773292794545,0.110,0.352,-1.173
1773292794564,0.132,0.543,-1.002
1773292794584,-0.003,0.772,-0.854
1773292794604,-0.053,0.576,-0.815
1773292794623,0.029,0.416,-0.849
1773292794643,0.097,0.498,-0.917
1773292794663,0.010,0.629,-0.970
1773292794682,-0.053,0.569,-0.946
1773292794702,0.045,0.543,-0.992
1773292794722,0.109,0.631,-1.066
1773292794742,0.048,0.516,-1.023
1773292794761,-0.003,0.338,-0.838
1773292794781,0.034,0.517,-0.809
1773292794801,0.068,0.633,-0.849
1773292794820,0.056,0.535,-0.897
1773292794840,0.021,0.440,-0.914
1773292794860,0.030,0.513,-0.940
1773292794879,0.039,0.477,-0.948
1773292794899,0.042,0.465,-0.936
1773292794919,0.030,0.456,-0.868
1773292794938,0.019,0.403,-0.869
1773292794958,-0.001,0.461,-0.909
1773292794978,0.014,0.327,-0.863
1773292729461,0.047,0.319,-0.767
1773292729481,0.027,0.430,-0.735
1773292729501,-0.011,0.376,-0.666
1773292729521,0.000,0.369,-0.788
1773292729540,0.044,0.413,-1.008
1773292729560,0.036,0.380,-1.012
1773292729580,0.011,0.298,-0.874
1773292729599,0.004,0.211,-0.808
1773292729619,0.030,0.414,-0.827
1773292729639,0.061,0.300,-0.763
1773292729658,0.103,0.337,-0.792
1773292729678,0.080,0.242,-0.739
1773292729698,0.092,0.133,-0.733
1773292729717,0.102,0.222,-0.744
1773292729737,0.082,0.323,-0.678
1773292729757,0.069,0.277,-0.629
1773292729776,0.099,0.210,-0.693
1773292729796,0.104,0.304,-0.768
1773292729816,0.076,0.454,-0.832
1773292729835,0.038,0.294,-0.905
1773292729855,0.026,0.259,-0.925
1773292729875,0.006,0.343,-0.977
1773292729895,0.018,0.336,-0.977
1773292729914,0.033,0.263,-0.886
1773292729934,0.053,0.475,-0.850
1773292729954,0.038,0.497,-0.932
1773292729973,0.048,0.202,-0.984
1773292729993,0.049,0.230,-0.957
1773292730013,0.025,0.323,-0.889
1773292730032,0.045,0.263,-0.881
1773292730052,0.059,0.174,-0.884
1773292730072,0.081,0.177,-0.872
1773292730091,0.058,0.148,-0.756
1773292730111,0.047,0.174,-0.701
1773292730131,0.052,0.325,-0.746
1773292730150,0.074,0.253,-0.815
1773292730170,0.113,0.013,-0.833
1773292730190,0.131,0.102,-0.863
1773292730209,0.108,0.322,-0.866
1773292730229,0.106,0.231,-0.913
1773292730249,0.097,0.011,-0.877
1773292730269,0.061,-0.018,-0.833
1773292730288,0.050,0.173,-0.791
1773292730308,0.084,0.234,-0.962
1773292730328,0.107,-0.018,-0.944
1773292730347,0.134,0.142,-0.944
1773292730367,0.199,0.054,-1.044
1773292730387,0.247,0.097,-1.153
1773292730406,0.221,0.303,-1.245
1773292730426,0.163,0.092,-1.190
1773292730446,0.199,0.097,-1.248
1773292730465,0.251,0.184,-1.300
1773292730485,0.283,0.103,-1.161
1773292730505,0.388,0.132,-1.254
1773292730524,0.446,0.128,-1.321
1773292730544,0.448,0.147,-1.269
1773292730564,0.443,0.101,-1.210
1773292730583,0.454,-0.021,-1.120
1773292730603,0.455,-0.144,-1.041
1773292730623,0.407,-0.157,-0.910
1773292730643,0.334,-0.123,-0.736
1773292730662,0.304,-0.231,-0.639
1773292730682,0.283,-0.318,-0.570
1773292730702,0.261,-0.258,-0.527
1773292730721,0.224,-0.220,-0.495
1773292730741,0.186,-0.348,-0.476
1773292730761,0.186,-0.432,-0.474
1773292730780,0.210,-0.465,-0.538
1773292730800,0.226,-0.398,-0.584
1773292730820,0.236,-0.528,-0.566
1773292730839,0.316,-0.647,-0.566
1773292730859,0.406,-0.668,-0.618
1773292730879,0.471,-0.627,-0.610
1773292730898,0.525,-0.516,-0.573
1773292730918,0.546,-0.547,-0.489
1773292730938,0.567,-0.620,-0.437
1773292730957,0.591,-0.542,-0.466
1773292730977,0.599,-0.573,-0.517
1773292730997,0.605,-0.585,-0.540
1773292731017,0.591,-0.631,-0.512
1773292731036,0.619,-0.626,-0.497
1773292731056,0.639,-0.605,-0.550
1773292731076,0.645,-0.621,-0.527
1773292731095,0.659,-0.578,-0.529
1773292731115,0.698,-0.497,-0.620
1773292731135,0.704,-0.553,-0.585
1773292731154,0.714,-0.557,-0.599
1773292731174,0.693,-0.507,-0.621
1773292731194,0.684,-0.612,-0.629
1773292731213,0.693,-0.608,-0.640
1773292731233,0.723,-0.612,-0.674
1773292731253,0.727,-0.688,-0.640
1773292731272,0.756,-0.676,-0.625
1773292731292,0.786,-0.567,-0.671
1773292731312,0.769,-0.551,-0.727
1773292731332,0.729,-0.596,-0.705
1773292731351,0.673,-0.517,-0.673
1773292731371,0.593,-0.556,-0.617
1773292731391,0.536,-0.527,-0.582
1773292731410,0.465,-0.564,-0.510
1773292731430,0.464,-0.618,-0.410
1773292731450,0.512,-0.631,-0.443
1773292731469,0.515,-0.634,-0.483
1773292731489,0.524,-0.593,-0.572
1773292731509,0.523,-0.579,-0.588
1773292731528,0.519,-0.620,-0.535
1773292731548,0.516,-0.669,-0.517
1773292731568,0.537,-0.649,-0.505
1773292731587,0.557,-0.600,-0.492
1773292731607,0.581,-0.652,-0.472
1773292731627,0.597,-0.590,-0.468
1773292731646,0.605,-0.623,-0.465
1773292731666,0.636,-0.615,-0.498
1773292731686,0.641,-0.625,-0.489
1773292731705,0.622,-0.600,-0.453
1773292731725,0.624,-0.665,-0.460
1773292731745,0.649,-0.657,-0.493
1773292731765,0.659,-0.664,-0.495
1773292731784,0.630,-0.582,-0.428
1773292731804,0.618,-0.700,-0.389
1773292731824,0.649,-0.646,-0.452
1773292731843,0.657,-0.672,-0.449
1773292731863,0.646,-0.636,-0.389
1773292731883,0.632,-0.650,-0.358
1773292731902,0.633,-0.621,-0.367
1773292731922,0.627,-0.645,-0.384
1773292731942,0.628,-0.651,-0.396
1773292731961,0.622,-0.649,-0.419
1773292731981,0.611,-0.651,-0.430
1773292732001,0.616,-0.672,-0.454
1773292732020,0.608,-0.677,-0.442
1773292732040,0.607,-0.660,-0.432
1773292732060,0.609,-0.649,-0.421
1773292732079,0.613,-0.656,-0.426
1773292732099,0.605,-0.671,-0.428
1773292732119,0.609,-0.666,-0.418
1773292732139,0.624,-0.629,-0.425
1773292732158,0.619,-0.653,-0.411
1773292732178,0.610,-0.664,-0.417
1773292732198,0.603,-0.665,-0.426
1773292732217,0.603,-0.644,-0.418
1773292732237,0.611,-0.648,-0.406
1773292732257,0.611,-0.647,-0.432
1773292732276,0.614,-0.683,-0.430
1773292732296,0.619,-0.634,-0.443
1773292732316,0.624,-0.646,-0.443
1773292732335,0.623,-0.651,-0.420
1773292732355,0.626,-0.643,-0.431
1773292732375,0.630,-0.641,-0.453
1773292732394,0.616,-0.644,-0.450
1773292732414,0.619,-0.645,-0.449
1773292732434,0.616,-0.645,-0.430
1773292732453,0.620,-0.649,-0.432
1773292732473,0.616,-0.651,-0.443
1773292732493,0.612,-0.658,-0.443
1773292732512,0.614,-0.654,-0.439
1773292732532,0.616,-0.651,-0.416
1773292732552,0.621,-0.655,-0.413
1773292732571,0.629,-0.644,-0.436
1773292732591,0.628,-0.662,-0.439
1773292732611,0.623,-0.639,-0.438
1773292732631,0.613,-0.654,-0.435
1773292732650,0.619,-0.653,-0.440
1773292732670,0.617,-0.642,-0.449
1773292732690,0.611,-0.665,-0.438
1773292732709,0.609,-0.664,-0.446
1773292732729,0.609,-0.655,-0.441
1773292732749,0.617,-0.635,-0.441
1773292732768,0.613,-0.656,-0.437
1773292732788,0.608,-0.650,-0.429
1773292732808,0.607,-0.653,-0.437
1773292732827,0.612,-0.639,-0.450
1773292732847,0.617,-0.650,-0.444
1773292732867,0.615,-0.657,-0.441
1773292732886,0.615,-0.639,-0.443
1773292732906,0.615,-0.651,-0.433
1773292732926,0.614,-0.631,-0.434
1773292732945,0.614,-0.667,-0.420
1773292732965,0.610,-0.659,-0.423
1773292732985,0.611,-0.642,-0.437
1773292733004,0.610,-0.660,-0.440
1773292733024,0.607,-0.664,-0.444
1773292733044,0.610,-0.658,-0.440
1773292733063,0.607,-0.662,-0.449
1773292733083,0.604,-0.667,-0.452
1773292733103,0.606,-0.657,-0.445
