time,seconds_elapsed,z,y,x
1773148836895959300,0.268959228515625,-0.97412109375,-0.2179412841796875,-0.0122222900390625
1773148836905996300,0.278996337890625,-1.0579833984375,-0.190704345703125,0.00103759765625
1773148836916033500,0.289033447265625,-1.1116180419921875,-0.1605987548828125,0.016845703125
1773148836926069500,0.299069580078125,-1.104736328125,-0.1266326904296875,0.025665283203125
1773148836936106500,0.3091064453125,-1.1045989990234375,-0.1144256591796875,0.019805908203125
1773148836946143500,0.3191435546875,-1.0523681640625,-0.167938232421875,0.036102294921875
1773148836956180200,0.32918017578125,-1.0342559814453125,-0.2111358642578125,0.0544281005859375
1773148836966217500,0.339217529296875,-1.038238525390625,-0.217193603515625,0.050048828125
1773148836976253400,0.34925341796875,-1.0894927978515625,-0.205230712890625,0.008453369140625
1773148836986290400,0.35929052734375,-1.1759796142578125,-0.203338623046875,-0.022186279296875
1773148836996327400,0.369327392578125,-1.143798828125,-0.214630126953125,-0.0281829833984375
1773148837006364400,0.379364501953125,-1.054595947265625,-0.2257080078125,-0.0277252197265625
1773148837016401400,0.3894013671875,-0.9411163330078125,-0.2277069091796875,-0.0322113037109375
1773148837026437600,0.399437744140625,-0.89569091796875,-0.2259063720703125,-0.056396484375
1773148837036474400,0.409474365234375,-0.8840789794921875,-0.2214508056640625,-0.0833282470703125
1773148837046511400,0.419511474609375,-0.8965911865234375,-0.2042694091796875,-0.1329345703125
1773148837056548400,0.42954833984375,-0.89312744140625,-0.18218994140625,-0.1689453125
1773148837066585300,0.43958544921875,-0.8595123291015625,-0.15399169921875,-0.16656494140625
1773148837076621300,0.449621337890625,-0.78143310546875,-0.11871337890625,-0.15399169921875
1773148837086658600,0.459658447265625,-0.6522369384765625,-0.0801239013671875,-0.111053466796875
1773148837096695300,0.4696953125,-0.7297515869140625,-0.0639495849609375,-0.116455078125
1773148837106732300,0.479732177734375,-0.853363037109375,-0.0711822509765625,-0.161346435546875
1773148837116769300,0.489769287109375,-0.834930419921875,-0.0886688232421875,-0.0953369140625
1773148837126805200,0.49980517578125,-0.7999420166015625,-0.110504150390625,0.0346221923828125
1773148837136842500,0.509842529296875,-0.736083984375,-0.13409423828125,0.1908416748046875
1773148837146879500,0.51987939453125,-0.6697845458984375,-0.1609039306640625,0.3366241455078125
1773148837156916500,0.52991650390625,-0.990966796875,-0.1311798095703125,0.45709228515625
1773148837166953200,0.539953125,-1.040069580078125,0.115325927734375,0.623077392578125
1773148837176990500,0.549990478515625,-0.983184814453125,0.1898193359375,0.6436004638671875
1773148837187026400,0.5600263671875,-0.9184417724609375,0.1791534423828125,0.5538787841796875
1773148837197063400,0.5700634765625,-0.822021484375,0.11126708984375,0.4687042236328125
1773148837207100400,0.580100341796875,-0.8955230712890625,-0.0119476318359375,0.3984832763671875
1773148837217137400,0.590137451171875,-1.0852813720703125,-0.1412506103515625,0.30157470703125
1773148837227174400,0.60017431640625,-0.8094940185546875,-0.13787841796875,0.465087890625
1773148837237210600,0.610210693359375,-0.6779022216796875,-0.1488189697265625,0.797332763671875
1773148837247247400,0.620247314453125,-0.6616363525390625,-0.2739410400390625,0.8678741455078125
1773148837257284400,0.630284423828125,-0.7252197265625,-0.315155029296875,0.7843017578125
1773148837267321300,0.6403212890625,-0.7760772705078125,-0.2365264892578125,0.7394561767578125
1773148837277358300,0.6503583984375,-0.696746826171875,-0.13800048828125,0.768951416015625
1773148837287394300,0.660394287109375,-0.738555908203125,-0.0303192138671875,0.6973419189453125
1773148837297431600,0.670431640625,-0.9122772216796875,0.06475830078125,0.6252288818359375
1773148837307468300,0.68046826171875,-1.101715087890625,-0.0658111572265625,0.2469329833984375
1773148837317505300,0.69050537109375,-1.10791015625,0.030120849609375,0.212432861328125
1773148837327542300,0.700542236328125,-0.8030548095703125,0.224273681640625,0.2913360595703125
1773148837337579500,0.71057958984375,-0.6392669677734375,0.409454345703125,0.580108642578125
1773148837347615500,0.720615478515625,-0.559539794921875,0.1351165771484375,0.4508514404296875
1773148837357652500,0.730652587890625,-0.4510040283203125,0.056365966796875,0.4335174560546875
1773148837367689500,0.740689453125,-0.502471923828125,0.077423095703125,0.56024169921875
1773148837377726200,0.750726318359375,-0.660125732421875,0.0535736083984375,0.606475830078125
1773148837387763500,0.760763427734375,-0.715606689453125,0.0337982177734375,0.5703277587890625
1773148837397799400,0.77079931640625,-0.6540069580078125,0.0045166015625,0.5829315185546875
1773148837407836400,0.78083642578125,-0.69970703125,-0.0119171142578125,0.4990386962890625
1773148837417873400,0.790873291015625,-0.629638671875,0.02679443359375,0.3028106689453125
1773148837427910400,0.800910400390625,-0.6279449462890625,0.0501708984375,0.2386932373046875
1773148837437947400,0.810947509765625,-0.7914581298828125,0.0539398193359375,0.268463134765625
1773148837447983600,0.820983642578125,-0.9036102294921875,0.1810302734375,0.2971954345703125
1773148837458020400,0.831020263671875,-0.759429931640625,0.433074951171875,0.2226409912109375
1773148837468057300,0.841057373046875,-0.677703857421875,0.6862640380859375,0.0548095703125
1773148837478094300,0.85109423828125,-0.4881134033203125,0.749237060546875,0.0305328369140625
1773148837488131300,0.86113134765625,-0.3281402587890625,0.580230712890625,0.1721649169921875
1773148837498168600,0.87116845703125,-0.25701904296875,0.50067138671875,0.31732177734375
1773148837508204500,0.88120458984375,-0.0804595947265625,0.4673614501953125,0.4657745361328125
1773148837518241300,0.8912412109375,-0.027435302734375,0.54241943359375,0.55169677734375
1773148837528278300,0.9012783203125,-0.06512451171875,0.60693359375,0.58905029296875
1773148837538315300,0.911315185546875,-0.17138671875,0.63568115234375,0.6352996826171875
1773148837548352500,0.9213525390625,-0.323760986328125,0.6854400634765625,0.692657470703125
1773148837558388500,0.931388427734375,-0.3618621826171875,0.7545318603515625,0.79052734375
1773148837568425500,0.941425537109375,-0.3225250244140625,0.8990020751953125,0.880279541015625
1773148837578462500,0.95146240234375,-0.2099761962890625,1.020355224609375,0.9300689697265625
1773148837588499200,0.961499267578125,-0.09674072265625,1.0345611572265625,0.9624176025390625
1773148837598536400,0.971536376953125,-0.097259521484375,0.9915924072265625,1.00958251953125
1773148837608573400,0.981573486328125,-0.15997314453125,1.02252197265625,1.0577239990234375
1773148837618609400,0.991609375,-0.2339935302734375,1.125396728515625,1.0673675537109375
1773148837628646400,1.001646484375,-0.2465362548828125,1.1397705078125,0.9705352783203125
1773148837638683400,1.011683349609375,-0.16278076171875,1.2271728515625,0.911865234375
1773148837648716800,1.021716796875,-0.2327880859375,1.47833251953125,0.8997039794921875
1773148837658753800,1.03175390625,-0.22137451171875,1.6526947021484375,1.0122222900390625
1773148837668790800,1.041790771484375,-0.1923675537109375,1.765380859375,1.268402099609375
1773148837678826800,1.05182666015625,-0.226654052734375,1.8151092529296875,1.5030517578125
1773148837688864000,1.061864013671875,-0.1683197021484375,1.6959991455078125,1.722198486328125
1773148837698901000,1.07190087890625,-0.002838134765625,1.5412445068359375,1.8343505859375
1773148837708938000,1.08193798828125,0.078125,1.50396728515625,1.8259429931640625
1773148837718974700,1.091974609375,0.0580596923828125,1.47509765625,1.7316131591796875
1773148837729011000,1.102010986328125,0.0272979736328125,1.4263153076171875,1.5738983154296875
1773148837739048000,1.1120478515625,0.025848388671875,1.402313232421875,1.4575958251953125
1773148837749085000,1.1220849609375,0.0289154052734375,1.39044189453125,1.336517333984375
1773148837759122000,1.132121826171875,0.0139923095703125,1.3441619873046875,1.213165283203125
1773148837769159000,1.142158935546875,-0.0031585693359375,1.27508544921875,1.152862548828125
1773148837779196000,1.15219580078125,-0.032928466796875,1.2665863037109375,1.1040802001953125
1773148837789232000,1.162232177734375,-0.0207366943359375,1.1876220703125,1.1087493896484375
1773148837799268900,1.172268798828125,0.0270538330078125,1.1025543212890625,1.07232666015625
1773148837809305900,1.182305908203125,0.0850067138671875,1.01702880859375,0.9854888916015625
1773148837819342800,1.1923427734375,0.0809478759765625,0.99957275390625,0.9075775146484375
1773148837829379800,1.2023798828125,0.0665435791015625,1.021453857421875,0.842529296875
1773148837839415800,1.212415771484375,0.0688629150390625,1.0369415283203125,0.8125457763671875
1773148837849453000,1.222453125,0.03448486328125,0.981170654296875,0.8683624267578125
1773148837859489800,1.23248974609375,-0.101837158203125,0.9453887939453125,0.85284423828125
1773148837869526800,1.24252685546875,-0.4197845458984375,0.8592681884765625,0.8052520751953125
1773148837879563800,1.252563720703125,-0.6363067626953125,0.67535400390625,0.8277130126953125
1773148837889601000,1.26260107421875,-0.7804718017578125,0.486297607421875,0.821929931640625
1773148837899637000,1.272636962890625,-0.8615570068359375,0.4215545654296875,0.77349853515625
1773148837909674000,1.282674072265625,-0.7855377197265625,0.4485931396484375,0.65374755859375
1773148837919711000,1.2927109375,-0.688140869140625,0.5490875244140625,0.5818023681640625
1773148837929747700,1.302747802734375,-0.56671142578125,0.597625732421875,0.5843505859375
1773148837939785000,1.312784912109375,-0.417938232421875,0.638031005859375,0.6090240478515625
1773148837949822000,1.322822021484375,-0.2742156982421875,0.6752777099609375,0.6444091796875
1773148837959858000,1.33285791015625,-0.117095947265625,0.722198486328125,0.7231292724609375
1773148837969895000,1.34289501953125,0.0264739990234375,0.767791748046875,0.808807373046875
1773148837979932000,1.352931884765625,0.23236083984375,0.8089141845703125,0.6963348388671875
1773148837989969000,1.362968994140625,0.433837890625,0.7558135986328125,0.5848541259765625
1773148838000006000,1.373005859375,0.5461578369140625,0.5745391845703125,0.70428466796875
1773148838010043000,1.38304296875,0.605560302734375,0.3589324951171875,0.8501129150390625
1773148838020078800,1.393078857421875,0.64056396484375,0.368499755859375,0.6520233154296875
1773148838030115800,1.40311572265625,0.5832672119140625,0.304595947265625,0.3620147705078125
1773148838040152800,1.41315283203125,0.4374237060546875,0.33837890625,-0.034271240234375
1773148838050190000,1.423190185546875,0.294464111328125,0.48419189453125,-0.40997314453125
1773148838060226800,1.433226806640625,0.154022216796875,0.375885009765625,-0.4476318359375
1773148838070263800,1.443263916015625,0.0590362548828125,0.289886474609375,-0.22418212890625
1773148838080299800,1.4532998046875,-0.1013336181640625,0.3237762451171875,0.032958984375
1773148838090336800,1.463336669921875,-0.1501617431640625,0.0772247314453125,0.465057373046875
1773148838100374000,1.4733740234375,0.0794219970703125,0.0237274169921875,0.6313629150390625
1773148838110411000,1.483410888671875,0.1233062744140625,0.352569580078125,0.60504150390625
1773148838120448000,1.493447998046875,0.1978302001953125,0.5499267578125,0.6938018798828125
1773148838130484700,1.503484619140625,0.2523345947265625,0.6316680908203125,0.7362213134765625
1773148838140520700,1.513520751953125,0.199066162109375,0.3461151123046875,0.7801513671875
1773148838150558000,1.523557861328125,0.3258819580078125,0.36395263671875,0.7545623779296875
1773148838160595000,1.533594970703125,0.3882598876953125,0.5698394775390625,0.7718505859375
1773148838170632000,1.5436318359375,0.4761505126953125,0.5919952392578125,0.8427734375
1773148838180669000,1.5536689453125,0.6530609130859375,0.595794677734375,0.9279327392578125
1773148838190705000,1.563704833984375,0.4745941162109375,0.78265380859375,0.9745941162109375
1773148838200742000,1.573741943359375,0.26702880859375,0.8986358642578125,0.8654327392578125
1773148838210779000,1.58377880859375,0.26678466796875,0.741119384765625,0.7853851318359375
1773148838220816000,1.59381591796875,0.088043212890625,0.7910003662109375,0.77587890625
1773148838230852900,1.603852783203125,-0.08367919921875,0.91705322265625,0.77276611328125
1773148838240889900,1.613889892578125,-0.197662353515625,1.00604248046875,0.7275543212890625
1773148838250926000,1.623926025390625,-0.2264862060546875,1.106353759765625,0.6723175048828125
1773148838260963000,1.633963134765625,-0.177276611328125,1.0592803955078125,0.6321258544921875
1773148838270999800,1.643999755859375,-0.063079833984375,1.015533447265625,0.639129638671875
1773148838281036800,1.654036865234375,0.0882568359375,0.712860107421875,0.68084716796875
1773148838291073800,1.66407373046875,0.2213897705078125,0.32843017578125,0.85662841796875
1773148838301111000,1.674111083984375,0.11480712890625,0.4921722412109375,0.9090576171875
1773148838311147000,1.68414697265625,0.15911865234375,0.7327880859375,0.9267120361328125
1773148838321184000,1.69418408203125,0.321533203125,0.992584228515625,0.9603729248046875
1773148838331221000,1.704220947265625,0.38214111328125,1.068084716796875,1.009918212890625
1773148838341257700,1.7142578125,0.301116943359375,0.95770263671875,0.9052886962890625
1773148838351295000,1.724294921875,0.2161712646484375,0.7844085693359375,0.8090972900390625
1773148838361332000,1.73433203125,0.149932861328125,0.6432952880859375,0.799346923828125
1773148838371368000,1.744367919921875,0.0615081787109375,0.640838623046875,0.70111083984375
1773148838381405000,1.754405029296875,-0.057830810546875,0.6730804443359375,0.5552978515625
1773148838391442000,1.76444189453125,-0.1429901123046875,0.7302398681640625,0.3724365234375
1773148838401479000,1.77447900390625,-0.359375,0.730926513671875,0.271575927734375
1773148838411516000,1.784515869140625,-0.7626495361328125,0.6629638671875,0.4197845458984375
1773148838421553000,1.794552978515625,-0.8978424072265625,0.5952911376953125,0.484100341796875
1773148838431590000,1.80458984375,-0.5550537109375,0.67529296875,0.390106201171875
1773148838441625900,1.8146259765625,-0.1455078125,0.7325286865234375,0.5143585205078125
1773148838451663000,1.8246630859375,0.4053497314453125,0.7361602783203125,0.6528472900390625
1773148838461699800,1.834699951171875,0.34130859375,0.96343994140625,0.7602081298828125
1773148838471736800,1.84473681640625,0.1003265380859375,1.3411407470703125,0.813690185546875
1773148838481773800,1.85477392578125,-0.0534515380859375,1.67266845703125,0.82696533203125
1773148838491810800,1.864810791015625,-0.0394744873046875,1.83868408203125,0.8922576904296875
1773148838501846800,1.8748466796875,0.0901336669921875,1.86767578125,0.9547119140625
1773148838511884000,1.884884033203125,0.185821533203125,1.81103515625,0.90386962890625
1773148838521921000,1.894921142578125,0.094940185546875,1.7037811279296875,0.7586212158203125
1773148838531957800,1.904957763671875,-0.1747894287109375,1.515167236328125,0.680206298828125
1773148838541994800,1.914994873046875,-0.4500732421875,1.2211151123046875,0.564483642578125
1773148838552032000,1.925031982421875,-0.65960693359375,0.960052490234375,0.403045654296875
1773148838562068000,1.93506787109375,-0.728607177734375,0.7891845703125,0.2486572265625
1773148838572105000,1.94510498046875,-0.6192779541015625,0.6541900634765625,0.1094818115234375
1773148838582142000,1.955141845703125,-0.459259033203125,0.6084136962890625,0.02392578125
1773148838592179000,1.965178955078125,-0.3674774169921875,0.609039306640625,0.0170135498046875
1773148838602216000,1.9752158203125,-0.3250274658203125,0.6585693359375,0.037017822265625
1773148838612253000,1.9852529296875,-0.303497314453125,0.7495574951171875,0.0526580810546875
1773148838622289000,1.995288818359375,-0.3191680908203125,0.8117828369140625,0.0772247314453125
1773148838632326000,2.005325927734375,-0.2851409912109375,0.8506927490234375,0.1300811767578125
1773148838642363000,2.01536279296875,-0.114501953125,0.8377838134765625,0.21124267578125
1773148838652399000,2.025399169921875,0.041290283203125,0.839569091796875,0.266845703125
1773148838662436000,2.03543603515625,0.0793914794921875,0.8665008544921875,0.273712158203125
1773148838672472800,2.045472900390625,0.032867431640625,0.884765625,0.2328948974609375
1773148838682510000,2.055510009765625,0.0167388916015625,0.8728179931640625,0.14935302734375
1773148838692546000,2.065546142578125,0.0824127197265625,0.7953643798828125,0.109130859375
1773148838702583000,2.0755830078125,0.2053375244140625,0.708984375,0.0991973876953125
1773148838712620000,2.0856201171875,0.2736968994140625,0.64813232421875,0.0859832763671875
1773148838722657000,2.095656982421875,0.2763214111328125,0.589324951171875,0.084136962890625
1773148838732694000,2.105694091796875,0.1922607421875,0.5341796875,0.1120147705078125
1773148838742731000,2.11573095703125,-0.1142120361328125,0.5441436767578125,0.110595703125
1773148838752767000,2.12576708984375,-0.3155517578125,0.5862274169921875,0.128936767578125
1773148838762804000,2.135803955078125,-0.3851470947265625,0.646820068359375,0.1516876220703125
1773148838772841000,2.145841064453125,-0.37176513671875,0.7362518310546875,0.1774444580078125
1773148838782878000,2.1558779296875,-0.3653717041015625,0.7683868408203125,0.285430908203125
1773148838792915200,2.165915283203125,-0.314697265625,0.7793426513671875,0.375244140625
1773148838802952000,2.175951904296875,-0.095794677734375,0.806488037109375,0.504364013671875
1773148838812988200,2.18598828125,-0.053985595703125,0.8771209716796875,0.5299224853515625
1773148838823025000,2.19602490234375,-0.018157958984375,1.023834228515625,0.3950042724609375
1773148838833062000,2.206061767578125,-0.040924072265625,1.1826629638671875,0.248138427734375
1773148838843099100,2.21609912109375,-0.21295166015625,1.316497802734375,0.2812042236328125
1773148838853136100,2.22613623046875,-0.449005126953125,1.239501953125,0.4218902587890625
1773148838863173000,2.236173095703125,-0.6003265380859375,1.0202789306640625,0.5142364501953125
1773148838873209000,2.246208984375,-0.5181121826171875,0.86920166015625,0.55096435546875
1773148838883245800,2.256245849609375,-0.294464111328125,0.8889312744140625,0.5937042236328125
1773148838893283000,2.266282958984375,-0.1702423095703125,0.9818572998046875,0.570343017578125
1773148838903320000,2.276320068359375,-0.207244873046875,1.170562744140625,0.4649810791015625
1773148838913357000,2.286357177734375,-0.3512420654296875,1.271026611328125,0.383697509765625
1773148838923394000,2.29639404296875,-0.6149749755859375,1.3829193115234375,0.287933349609375
1773148838933430800,2.3064306640625,-0.6667022705078125,1.29998779296875,0.243255615234375
1773148838943467300,2.31646728515625,-0.4831695556640625,0.9865570068359375,0.22601318359375
1773148838953504000,2.32650390625,-0.2209014892578125,0.74737548828125,0.272552490234375
1773148838963541000,2.336541015625,0.0555267333984375,0.4615020751953125,0.3273468017578125
1773148838973578000,2.346577880859375,0.1319122314453125,0.28912353515625,0.36279296875
1773148838983615000,2.356614990234375,-0.1781005859375,0.5240478515625,0.2776641845703125
1773148838993652200,2.36665234375,-0.3642578125,0.8152923583984375,0.243560791015625
1773148839003688200,2.376688232421875,-0.1341552734375,0.7938232421875,0.4485626220703125
1773148839013725000,2.386724853515625,-0.16680908203125,0.661041259765625,0.7976837158203125
1773148839023762000,2.396761962890625,-0.2485198974609375,0.635986328125,0.9245452880859375
1773148839033799000,2.406798828125,-0.02935791015625,1.263946533203125,0.726226806640625
1773148839043836200,2.416836181640625,-0.1358489990234375,1.8895111083984375,0.468414306640625
1773148839053873200,2.426873046875,-0.0481719970703125,2.040557861328125,0.2660064697265625
1773148839063910000,2.436909912109375,0.0298309326171875,1.9048004150390625,0.232177734375
1773148839073946000,2.446946044921875,-0.07989501953125,1.5127105712890625,0.305816650390625
1773148839083982800,2.45698291015625,-0.305938720703125,1.349884033203125,0.2684326171875
1773148839094020000,2.46702001953125,-0.356597900390625,1.291656494140625,0.005157470703125
1773148839104057000,2.47705712890625,-0.416290283203125,1.0941619873046875,-0.1594696044921875
1773148839114094000,2.487093994140625,-0.270050048828125,0.862640380859375,-0.3135833740234375
1773148839124131000,2.497131103515625,0.009185791015625,0.64361572265625,-0.385772705078125
1773148839134167000,2.5071669921875,0.241180419921875,0.46087646484375,-0.4198455810546875
1773148839144204000,2.5172041015625,0.4459075927734375,0.349456787109375,-0.4299163818359375
1773148839154241000,2.527240966796875,0.491607666015625,0.335479736328125,-0.491729736328125
1773148839164278000,2.537278076171875,0.5270538330078125,0.375640869140625,-0.5615692138671875
1773148839174315000,2.54731494140625,0.579071044921875,0.50042724609375,-0.59600830078125
1773148839184352000,2.55735205078125,0.5899810791015625,0.65234375,-0.5589141845703125
1773148839194389000,2.567388916015625,0.5662078857421875,0.7573394775390625,-0.4621429443359375
1773148839204425200,2.57742529296875,0.44805908203125,1.0359954833984375,-0.1300811767578125
1773148839214462000,2.5874619140625,-0.0257720947265625,1.2864532470703125,0.57086181640625
1773148839224499000,2.5974990234375,0.783050537109375,0.7606353759765625,-0.1449737548828125
1773148839234536000,2.607535888671875,0.5059356689453125,0.5040283203125,-0.469024658203125
1773148839244573200,2.6175732421875,0.1754608154296875,0.4537811279296875,-0.4558258056640625
1773148839254610200,2.627610107421875,-0.1078948974609375,0.46636962890625,-0.38250732421875
1773148839264646100,2.637646240234375,-0.3399810791015625,0.6250762939453125,-0.2707061767578125
1773148839274683000,2.647682861328125,0.1168365478515625,0.88677978515625,-0.4427642822265625
1773148839284719900,2.657719970703125,0.6108856201171875,1.2902374267578125,-0.65765380859375
1773148839294757000,2.667757080078125,0.5886993408203125,1.66729736328125,-0.59521484375
1773148839304794000,2.677794189453125,0.4931640625,1.9669036865234375,-0.5307464599609375
1773148839314831000,2.6878310546875,0.287628173828125,1.863189697265625,-0.5860137939453125
1773148839324867800,2.697867919921875,-0.1109466552734375,1.57147216796875,-0.622894287109375
1773148839334904000,2.707904052734375,-0.3275604248046875,1.323089599609375,-0.5362091064453125
1773148839344941000,2.717941162109375,-0.493896484375,1.0060882568359375,-0.274444580078125
1773148839354978000,2.72797802734375,-0.3688507080078125,0.7372894287109375,-0.207183837890625
1773148839365015000,2.73801513671875,-0.1121368408203125,0.677215576171875,-0.2659454345703125
1773148839375052000,2.748052001953125,0.5392913818359375,0.4156494140625,-0.4082183837890625
1773148839385089000,2.758089111328125,0.7629547119140625,0.5051727294921875,-0.458526611328125
1773148839395126000,2.7681259765625,0.491790771484375,0.8909454345703125,-0.5009002685546875
1773148839405162000,2.778161865234375,0.4278411865234375,1.1790771484375,-0.5362396240234375
1773148839415199000,2.788198974609375,0.303802490234375,1.2552490234375,-0.4637603759765625
1773148839425236000,2.798236083984375,0.14385986328125,1.1154632568359375,-0.300506591796875
1773148839435273000,2.80827294921875,0.098052978515625,0.9598846435546875,-0.1981201171875
1773148839445310200,2.818310302734375,0.068115234375,0.775299072265625,-0.1338958740234375
1773148839455347000,2.828346923828125,0.0144805908203125,0.5592193603515625,-0.097259521484375
1773148839465383200,2.838383056640625,-0.0146942138671875,0.4622802734375,-0.08038330078125
1773148839475420000,2.848419921875,0.015228271484375,0.5254669189453125,-0.082275390625
1773148839485457000,2.858456787109375,0.0738525390625,0.664459228515625,-0.1223297119140625
1773148839495494100,2.868494140625,0.248046875,0.8694000244140625,-0.03912353515625
1773148839505531100,2.87853125,0.50775146484375,0.7282257080078125,0.45672607421875
1773148839515568000,2.888568115234375,0.5023651123046875,-0.142852783203125,-0.0063934326171875
1773148839525604900,2.89860498046875,0.4185638427734375,0.003814697265625,-0.4191131591796875
1773148839535640800,2.908640869140625,0.0009307861328125,0.9056243896484375,-0.570037841796875
1773148839545678000,2.918677978515625,-0.08209228515625,1.5296630859375,-0.8809051513671875
1773148839555715000,2.928715087890625,-0.018310546875,1.6470794677734375,-1.0621795654296875
1773148839565752000,2.938751953125,-0.1029815673828125,1.3687744140625,-1.06195068359375
1773148839575789000,2.9487890625,-0.26275634765625,0.9761505126953125,-0.87060546875
1773148839585826000,2.958825927734375,-0.3135528564453125,0.6755523681640625,-0.7493743896484375
1773148839595863000,2.968863037109375,-0.219329833984375,0.8025360107421875,-0.73980712890625
1773148839605899000,2.97889892578125,-0.2188262939453125,1.000396728515625,-0.6852264404296875
1773148839615936000,2.98893603515625,-0.217926025390625,1.0794525146484375,-0.5877227783203125
1773148839625973000,2.998972900390625,-0.1219329833984375,0.89599609375,-0.42779541015625
1773148839636010000,3.009010009765625,-0.0832977294921875,0.5179901123046875,-0.26239013671875
1773148839646047500,3.019047607421875,-0.0595855712890625,0.5948028564453125,-0.3476409912109375
1773148839656084500,3.02908447265625,0.011505126953125,0.9071807861328125,-0.5456390380859375
1773148839666121700,3.039121826171875,0.0029296875,1.38677978515625,-0.659759521484375
1773148839676157700,3.04915771484375,0.071502685546875,1.46710205078125,-0.6275177001953125
1773148839686194700,3.059194580078125,0.191131591796875,1.1944427490234375,-0.4448089599609375
1773148839696231700,3.069231689453125,0.2434844970703125,0.8239288330078125,-0.250274658203125
1773148839706268700,3.0792685546875,0.3817138671875,0.730194091796875,-0.31597900390625
1773148839716305400,3.089305419921875,0.50311279296875,0.947235107421875,-0.4924163818359375
1773148839726342700,3.0993427734375,0.3264617919921875,1.1307525634765625,-0.4881134033203125
1773148839736378600,3.109378662109375,0.2368621826171875,1.1799468994140625,-0.467437744140625
1773148839746415600,3.11941552734375,0.3010711669921875,1.2589569091796875,-0.42431640625
1773148839756452600,3.12945263671875,0.2026519775390625,1.230072021484375,-0.30682373046875
1773148839766489600,3.139489501953125,-0.0649871826171875,0.8390350341796875,0.004302978515625
1773148839776526600,3.149526611328125,-0.2897491455078125,0.863250732421875,0.065887451171875
1773148839786563600,3.1595634765625,-0.3280792236328125,1.0696258544921875,0.116729736328125
1773148839796600600,3.1696005859375,0.062103271484375,1.0577392578125,0.0748748779296875
1773148839806636500,3.179636474609375,0.095367431640625,1.0251312255859375,-0.0317840576171875
1773148839816673500,3.189673583984375,0.24041748046875,1.0719146728515625,-0.024658203125
1773148839826710800,3.199710693359375,-0.015472412109375,1.22943115234375,-0.1564178466796875
1773148839836747500,3.20974755859375,-0.417877197265625,1.17694091796875,-0.19195556640625
1773148839846784500,3.219784423828125,-0.2913055419921875,1.0264129638671875,-0.2176055908203125
1773148839856821500,3.229821533203125,0.12945556640625,0.8900146484375,-0.330078125
1773148839866858800,3.239858642578125,0.1977996826171875,0.9765777587890625,-0.458953857421875
1773148839876894700,3.249894775390625,-0.4673309326171875,1.077484130859375,-0.483184814453125
1773148839886931700,3.259931640625,-0.6593475341796875,1.0708465576171875,-0.34661865234375
1773148839896968700,3.26996875,-0.4088592529296875,0.9054107666015625,-0.24395751953125
1773148839907005400,3.28000537109375,0.00146484375,0.787506103515625,-0.209991455078125
1773148839917042400,3.29004248046875,0.3984222412109375,0.92718505859375,-0.1059112548828125
1773148839927079700,3.30007958984375,0.33782958984375,1.01568603515625,-0.168121337890625
1773148839937116700,3.31011669921875,0.071136474609375,0.96221923828125,-0.1779327392578125
1773148839947152600,3.320152587890625,0.330474853515625,0.8574676513671875,-0.001678466796875
1773148839957189600,3.330189697265625,0.4546966552734375,0.615020751953125,0.0445404052734375
1773148839967226600,3.3402265625,0.2439117431640625,0.5293121337890625,-0.092132568359375
1773148839977263600,3.350263671875,-0.14007568359375,0.8187103271484375,-0.4058837890625
1773148839987300600,3.360300537109375,-0.332916259765625,1.063507080078125,-0.7646026611328125
1773148839997337600,3.370337646484375,-0.292144775390625,1.1743011474609375,-0.9660491943359375
1773148840007374600,3.38037451171875,-0.256683349609375,1.215362548828125,-0.98797607421875
1773148840017410600,3.39041064453125,-0.345703125,1.3050994873046875,-0.866119384765625
1773148840027447800,3.40044775390625,-0.4464874267578125,1.2335052490234375,-0.63153076171875
1773148840037484500,3.410484619140625,-0.3777923583984375,1.135467529296875,-0.4130706787109375
1773148840047521500,3.420521484375,-0.26837158203125,1.041259765625,-0.2933807373046875
1773148840057558500,3.43055859375,0.0078582763671875,0.9258270263671875,-0.2477569580078125
1773148840067595800,3.440595703125,0.2150421142578125,0.7474212646484375,-0.240814208984375
1773148840077632800,3.4506328125,0.3141021728515625,0.5956878662109375,-0.2263031005859375
1773148840087668700,3.460668701171875,0.2871551513671875,0.6412506103515625,-0.2346954345703125
1773148840097705700,3.470705810546875,0.1209869384765625,0.8854522705078125,-0.246307373046875
1773148840107742500,3.480742431640625,0.0224456787109375,0.97369384765625,-0.2651214599609375
1773148840117779500,3.490779541015625,-0.035125732421875,1.0107421875,-0.253753662109375
1773148840127816700,3.500816650390625,-0.0417022705078125,1.0212554931640625,-0.2021636962890625
1773148840137853700,3.510853759765625,-0.051177978515625,0.9754180908203125,-0.1515350341796875
1773148840147890700,3.520890625,0.10009765625,0.823974609375,0.0261077880859375
1773148840157926700,3.5309267578125,0.140380859375,0.6033782958984375,0.1554107666015625
1773148840167963400,3.54096337890625,-0.188751220703125,0.7846221923828125,-0.058074951171875
1773148840178000600,3.551000732421875,-0.2635345458984375,0.9354705810546875,-0.17059326171875
1773148840188037600,3.56103759765625,-0.1532135009765625,0.8967742919921875,-0.1325836181640625
1773148840198074600,3.57107470703125,-0.2008056640625,0.9446563720703125,-0.05181884765625
1773148840208111600,3.581111572265625,-0.264862060546875,0.9952850341796875,0.011749267578125
1773148840218148600,3.591148681640625,-0.2469635009765625,0.96038818359375,-0.0256805419921875
1773148840228184600,3.6011845703125,-0.21563720703125,1.03887939453125,-0.1350860595703125
1773148840238221600,3.6112216796875,-0.1247100830078125,1.133331298828125,-0.265869140625
1773148840248258600,3.621258544921875,-0.050689697265625,1.075714111328125,-0.276824951171875
1773148840258295600,3.631295654296875,0.123046875,1.049468994140625,-0.253387451171875
1773148840268332800,3.641332763671875,0.2996063232421875,1.0836639404296875,-0.221832275390625
1773148840278369800,3.651369873046875,0.3438873291015625,1.0545806884765625,-0.1508941650390625
1773148840288406500,3.661406494140625,0.1767425537109375,1.205322265625,-0.059356689453125
1773148840298442500,3.6714423828125,-0.3834228515625,0.7305450439453125,0.12982177734375
1773148840308479500,3.6814794921875,-0.7928314208984375,1.0012664794921875,0.1393280029296875
1773148840318516500,3.6915166015625,-0.4949188232421875,1.4424591064453125,0.08978271484375
1773148840328553700,3.7015537109375,0.004241943359375,1.18994140625,0.215667724609375
1773148840338590700,3.7115908203125,0.08831787109375,1.36907958984375,0.2858428955078125
1773148840348627500,3.72162744140625,0.1691741943359375,1.34027099609375,0.2698516845703125
1773148840358664400,3.73166455078125,0.2257537841796875,1.14923095703125,0.3231353759765625
1773148840368700400,3.741700439453125,-0.063873291015625,0.900054931640625,0.450958251953125
1773148840378737700,3.751737548828125,-0.0850982666015625,1.00042724609375,0.2284393310546875
1773148840388774700,3.761774658203125,0.441009521484375,1.1204376220703125,-0.115570068359375
1773148840398811600,3.771811767578125,0.541259765625,1.28173828125,-0.4154052734375
1773148840408848600,3.7818486328125,0.2656707763671875,1.3367767333984375,-0.47918701171875
1773148840418885600,3.7918857421875,-0.1526947021484375,1.197998046875,-0.3395233154296875
1773148840428922600,3.801922607421875,-0.3450775146484375,1.0129547119140625,-0.2921600341796875
1773148840438958600,3.81195849609375,-0.15252685546875,0.548980712890625,-0.1305084228515625
1773148840448995600,3.82199560546875,-0.0462188720703125,0.6092529296875,-0.164154052734375
1773148840459032600,3.832032470703125,0.11907958984375,0.6840667724609375,-0.3011016845703125
1773148840469069800,3.84206982421875,0.188262939453125,0.6297149658203125,-0.5242156982421875
1773148840479106600,3.8521064453125,0.31219482421875,0.109588623046875,-0.5277252197265625
1773148840489143600,3.8621435546875,0.4252777099609375,-0.15802001953125,-0.65838623046875
1773148840499180500,3.8721806640625,0.2927093505859375,0.333526611328125,-0.9931488037109375
1773148840509217500,3.882217529296875,0.181640625,0.610870361328125,-1.156341552734375
1773148840519253800,3.892253662109375,0.1792755126953125,0.963531494140625,-1.132476806640625
1773148840529290800,3.902290771484375,0.07684326171875,1.1606597900390625,-0.927734375
1773148840539327700,3.91232763671875,-0.126220703125,1.4287567138671875,-0.6279754638671875
1773148840549364500,3.922364501953125,-0.059478759765625,1.4654693603515625,-0.0963592529296875
1773148840559401500,3.9324013671875,0.3220062255859375,1.5515594482421875,0.42437744140625
1773148840569438700,3.942438720703125,0.27752685546875,1.771942138671875,0.8227691650390625
1773148840579475700,3.952475830078125,-0.0423736572265625,1.5404052734375,1.252655029296875
1773148840589511700,3.96251171875,0.185577392578125,1.7141265869140625,1.0112152099609375
1773148840599548700,3.972548583984375,-0.3347625732421875,1.6638641357421875,0.83831787109375
1773148840609585400,3.98258544921875,-0.4799957275390625,1.600799560546875,0.4866790771484375
1773148840619622700,3.99262255859375,-0.251190185546875,1.4835357666015625,0.2163848876953125
1773148840629659600,4.00265966796875,-0.0707550048828125,1.2762298583984375,0.0176849365234375
1773148840639696600,4.012696533203125,0.20770263671875,1.27978515625,-0.189422607421875
1773148840649733000,4.022733154296875,0.4967498779296875,1.10894775390625,-0.2706756591796875
1773148840659769000,4.03276904296875,0.497650146484375,1.138702392578125,-0.3902435302734375
1773148840669806000,4.04280615234375,0.3885345458984375,1.38525390625,-0.3372344970703125
1773148840679843000,4.052843017578125,0.2371978759765625,1.511383056640625,-0.2787017822265625
1773148840689879800,4.0628798828125,0.2221527099609375,1.7420501708984375,-0.1520538330078125
1773148840699917000,4.0729169921875,0.1154022216796875,1.70404052734375,-0.0088958740234375
1773148840709954000,4.0829541015625,0.0280303955078125,1.56512451171875,0.0694732666015625
1773148840719991000,4.092990966796875,-0.0128936767578125,1.4114837646484375,0.0700531005859375
1773148840730027000,4.103027099609375,-0.0354766845703125,1.24334716796875,0.0255126953125
1773148840740064000,4.11306396484375,-0.012420654296875,1.0551300048828125,-0.0396881103515625
1773148840750101000,4.12310107421875,0.02545166015625,0.879425048828125,-0.096893310546875
1773148840760138000,4.133137939453125,0.0697174072265625,0.7515869140625,-0.112060546875
1773148840770175000,4.143175048828125,0.0947723388671875,0.63934326171875,-0.1247100830078125
1773148840780212000,4.1532119140625,0.1500091552734375,0.527557373046875,-0.1297760009765625
1773148840790249000,4.1632490234375,0.225372314453125,0.40899658203125,-0.1221771240234375
1773148840800286000,4.173285888671875,0.1881561279296875,0.43060302734375,-0.1113128662109375
1773148840810322000,4.183322021484375,0.091583251953125,0.464813232421875,-0.10601806640625
1773148840820359000,4.19335888671875,0.1782989501953125,0.494873046875,-0.154205322265625
1773148840830396000,4.20339599609375,0.2198638916015625,0.5695343017578125,-0.1833648681640625
1773148840840433000,4.213432861328125,0.24822998046875,0.6474456787109375,-0.1907806396484375
1773148840850470100,4.22347021484375,0.2322540283203125,0.7519073486328125,-0.173431396484375
1773148840860507100,4.233507080078125,0.1892547607421875,0.81756591796875,-0.1442718505859375
1773148840870544000,4.2435439453125,0.169464111328125,0.869384765625,-0.119781494140625
1773148840880579800,4.253579833984375,0.184051513671875,0.9000091552734375,-0.097442626953125
1773148840890616800,4.263616943359375,0.2167816162109375,0.966033935546875,-0.09356689453125
1773148840900654000,4.273654052734375,0.2360687255859375,1.019744873046875,-0.087432861328125
1773148840910691000,4.283691162109375,0.265899658203125,1.0649261474609375,-0.0840606689453125
1773148840920728000,4.29372802734375,0.2934417724609375,1.1064910888671875,-0.0832061767578125
1773148840930764800,4.303764892578125,0.2760772705078125,1.178009033203125,-0.056365966796875
1773148840940802000,4.313802001953125,0.20916748046875,1.212127685546875,0.0141448974609375
1773148840950839000,4.323839111328125,0.140960693359375,1.1621856689453125,0.071258544921875
1773148840960875000,4.333875,0.082427978515625,1.0872650146484375,0.088897705078125
1773148840970912000,4.343912109375,0.0363006591796875,1.034332275390625,0.0738677978515625
1773148840980949000,4.353948974609375,0.0170135498046875,1.0121917724609375,0.0623321533203125
1773148840990986000,4.363986083984375,0.0005645751953125,1.0200653076171875,0.0637359619140625
1773148841001023000,4.37402294921875,-0.0135345458984375,1.05316162109375,0.0555572509765625
1773148841011060000,4.38406005859375,-0.055145263671875,1.079254150390625,0.01434326171875
1773148841021097000,4.394096923828125,-0.1136627197265625,1.0563201904296875,-0.049652099609375
1773148841031133000,4.4041328125,-0.1532745361328125,1.0218963623046875,-0.09014892578125
1773148841041170000,4.414169921875,-0.1592864990234375,1.0084381103515625,-0.1163330078125
1773148841051207200,4.424207275390625,-0.138092041015625,1.019744873046875,-0.1394500732421875
1773148841061244000,4.434243896484375,-0.08929443359375,1.0338134765625,-0.1662750244140625
1773148841071281000,4.444281005859375,-0.03460693359375,1.0386962890625,-0.18658447265625
1773148841081318000,4.45431787109375,0.02459716796875,1.032989501953125,-0.1959381103515625
1773148841091355100,4.464355224609375,0.080780029296875,1.0251617431640625,-0.198516845703125
1773148841101391000,4.47439111328125,0.129852294921875,1.023345947265625,-0.191314697265625
1773148841111428000,4.484427978515625,0.1746368408203125,1.023406982421875,-0.184661865234375
1773148841121465000,4.494465087890625,0.22052001953125,1.03118896484375,-0.181427001953125
1773148841131501800,4.504501708984375,0.257659912109375,1.0302276611328125,-0.1831817626953125
1773148841141539000,4.5145390625,0.2787017822265625,1.0182037353515625,-0.182830810546875
1773148841151576000,4.524576171875,0.2738800048828125,1.0080413818359375,-0.17401123046875
1773148841161613000,4.534613037109375,0.229156494140625,0.9993133544921875,-0.15118408203125
1773148841171650000,4.544650146484375,0.167022705078125,0.99310302734375,-0.1232147216796875
1773148841181686000,4.55468603515625,0.1120452880859375,0.9996337890625,-0.0998077392578125
1773148841191722800,4.56472265625,0.0742645263671875,1.0079345703125,-0.07421875
1773148841201760000,4.574760009765625,0.053131103515625,1.0279998779296875,-0.045379638671875
1773148841211797000,4.584796875,0.0424041748046875,1.0522308349609375,-0.01861572265625
1773148841221834000,4.594833984375,0.0353546142578125,1.07989501953125,-0.0009307861328125
1773148841231871000,4.60487109375,0.0292510986328125,1.076141357421875,0.0069122314453125
1773148841241908000,4.614907958984375,0.02081298828125,1.040283203125,0.009246826171875
1773148841251944200,4.624944091796875,0.0106353759765625,1.0074005126953125,0.009002685546875
1773148841261981000,4.63498095703125,0.0052337646484375,0.9961395263671875,-0.004608154296875
1773148841272018000,4.645017822265625,0.003753662109375,0.999359130859375,-0.0307159423828125
1773148841282055000,4.655054931640625,-0.0006561279296875,1.0016632080078125,-0.05841064453125
1773148841292092200,4.665092041015625,-0.0080718994140625,0.9952239990234375,-0.093017578125
1773148841302129200,4.675129150390625,-0.0195770263671875,0.9832000732421875,-0.133270263671875
1773148841312166000,4.685165771484375,-0.0397796630859375,0.9701690673828125,-0.1717681884765625
1773148841322203000,4.695202880859375,-0.0672454833984375,0.9595489501953125,-0.2039337158203125
1773148841332238800,4.70523876953125,-0.097137451171875,0.97552490234375,-0.2320098876953125
1773148841342276000,4.715276123046875,-0.131317138671875,1.0111846923828125,-0.258026123046875
1773148841352313000,4.72531298828125,-0.1718597412109375,1.0626220703125,-0.279449462890625
1773148841362350000,4.73535009765625,-0.2203521728515625,1.1144561767578125,-0.2968597412109375
1773148841372386800,4.74538671875,-0.2794342041015625,1.1592864990234375,-0.297454833984375
1773148841382423800,4.755423828125,-0.3470001220703125,1.1800537109375,-0.2722320556640625
1773148841392461000,4.7654609375,-0.3940887451171875,1.1886444091796875,-0.2261199951171875
1773148841402497000,4.7754970703125,-0.385345458984375,1.1713104248046875,-0.16827392578125
1773148841412534000,4.785533935546875,-0.3221588134765625,1.1400909423828125,-0.119659423828125
1773148841422571000,4.795571044921875,-0.2273712158203125,1.1151123046875,-0.076416015625
1773148841432608000,4.80560791015625,-0.13775634765625,1.0777130126953125,-0.0148162841796875
1773148841442645000,4.81564501953125,-0.0905609130859375,1.0234832763671875,0.04754638671875
1773148841452682000,4.825681884765625,-0.07666015625,0.965972900390625,0.0835723876953125
1773148841462719000,4.835718994140625,-0.0553131103515625,0.91650390625,0.11004638671875
1773148841472756000,4.845755859375,-0.032135009765625,0.8792877197265625,0.123748779296875
1773148841482792000,4.8557919921875,-0.03277587890625,0.854339599609375,0.1325836181640625
1773148841492829200,4.8658291015625,-0.042144775390625,0.8512420654296875,0.13641357421875
1773148841502866000,4.875865966796875,-0.047515869140625,0.855133056640625,0.1371307373046875
1773148841512903000,4.88590283203125,-0.0613250732421875,0.848480224609375,0.144256591796875
1773148841522940000,4.89593994140625,-0.08697509765625,0.7984466552734375,0.14190673828125
1773148841532977200,4.90597705078125,-0.1043701171875,0.74310302734375,0.104705810546875
1773148841543014100,4.91601416015625,-0.12890625,0.7126617431640625,0.044281005859375
1773148841553051000,4.92605078125,-0.1514129638671875,0.6828765869140625,-0.0184478759765625
1773148841563087000,4.936087158203125,-0.15985107421875,0.676513671875,-0.0787200927734375
1773148841573123800,4.946123779296875,-0.1641082763671875,0.674346923828125,-0.1224822998046875
1773148841583160800,4.956160888671875,-0.1656341552734375,0.67041015625,-0.1427154541015625
1773148841593198000,4.966197998046875,-0.1595306396484375,0.6675567626953125,-0.1398162841796875
1773148841603235000,4.976235107421875,-0.159637451171875,0.6625518798828125,-0.1175994873046875
1773148841613272000,4.98627197265625,-0.174835205078125,0.6566619873046875,-0.0830078125
1773148841623308800,4.996308837890625,-0.2020416259765625,0.6575164794921875,-0.0414276123046875
1773148841633344800,5.0063447265625,-0.236663818359375,0.677490234375,0.0001068115234375
1773148841643382000,5.016382080078125,-0.2762451171875,0.7272491455078125,0.038665771484375
1773148841653419300,5.026419189453125,-0.2984161376953125,0.7666015625,0.0960845947265625
1773148841663456300,5.036456298828125,-0.327850341796875,0.8336334228515625,0.1332855224609375
1773148841673493200,5.0464931640625,-0.409881591796875,0.898345947265625,0.19573974609375
1773148841683530200,5.0565302734375,-0.5500030517578125,0.99102783203125,0.2139434814453125
1773148841693567200,5.066567138671875,-0.626068115234375,1.139007568359375,0.1781463623046875
1773148841703604200,5.076604248046875,-0.5725555419921875,1.317535400390625,0.103057861328125
1773148841713640200,5.08664013671875,-0.4504852294921875,1.41510009765625,0.0281219482421875
1773148841723677200,5.09667724609375,-0.2414703369140625,1.3799285888671875,-0.12286376953125
1773148841733714400,5.10671435546875,-0.0696868896484375,1.34283447265625,-0.3102264404296875
1773148841743751200,5.116751220703125,0.0028076171875,1.27685546875,-0.490325927734375
1773148841753788200,5.1267880859375,-0.0236968994140625,1.1708526611328125,-0.64935302734375
1773148841763825200,5.1368251953125,-0.086151123046875,1.0465087890625,-0.7462615966796875
1773148841773862100,5.146862060546875,-0.14288330078125,1.0087127685546875,-0.768035888671875
1773148841783898400,5.1568984375,-0.2075042724609375,1.00848388671875,-0.7115325927734375
1773148841793935400,5.166935302734375,-0.2173004150390625,0.9946441650390625,-0.626861572265625
1773148841803972400,5.176972412109375,-0.204864501953125,1.0098419189453125,-0.541595458984375
1773148841814009000,5.187009033203125,-0.1873931884765625,1.0402984619140625,-0.4733428955078125
1773148841824046000,5.197046142578125,-0.139007568359375,1.0731048583984375,-0.3937530517578125
1773148841834083300,5.207083251953125,-0.027008056640625,1.0908050537109375,-0.2462158203125
1773148841844120300,5.217120361328125,0.074371337890625,1.07574462890625,-0.0201263427734375
1773148841854157300,5.2271572265625,0.1191864013671875,1.03924560546875,0.170501708984375
1773148841864193300,5.237193359375,0.120574951171875,0.994842529296875,0.30035400390625
1773148841874230300,5.247230224609375,0.1017608642578125,0.9455718994140625,0.3789520263671875
1773148841884267300,5.257267333984375,0.0670166015625,0.89227294921875,0.3958587646484375
1773148841894304300,5.26730419921875,0.03631591796875,0.851959228515625,0.4044189453125
1773148841904341200,5.27734130859375,0.016845703125,0.8329010009765625,0.402008056640625
1773148841914378200,5.287378173828125,-0.0070953369140625,0.814361572265625,0.3238372802734375
1773148841924415200,5.297415283203125,-0.027557373046875,0.832427978515625,0.1789703369140625
1773148841934452200,5.3074521484375,-0.0236358642578125,0.9021148681640625,0.04693603515625
1773148841944488200,5.31748828125,-0.0178985595703125,0.9858856201171875,-0.0450592041015625
1773148841954525200,5.327525146484375,-0.01458740234375,1.0564727783203125,-0.111785888671875
1773148841964562200,5.337562255859375,-0.016876220703125,1.109161376953125,-0.162628173828125
1773148841974599200,5.34759912109375,-0.022369384765625,1.1421051025390625,-0.2030792236328125
1773148841984636400,5.357636474609375,-0.0313568115234375,1.148956298828125,-0.233551025390625
1773148841994673200,5.367673095703125,-0.0408935546875,1.129730224609375,-0.2459869384765625
1773148842004710100,5.377710205078125,-0.0484771728515625,1.0799407958984375,-0.2354736328125
1773148842014746000,5.38774609375,-0.0405120849609375,1.0271453857421875,-0.2125396728515625
1773148842024783000,5.397783203125,-0.0252838134765625,0.9970703125,-0.1958770751953125
1773148842034820400,5.4078203125,-0.01995849609375,0.992431640625,-0.193389892578125
1773148842044857300,5.417857421875,-0.0310516357421875,0.9934539794921875,-0.2001953125
1773148842054894300,5.427894287109375,-0.045013427734375,0.996368408203125,-0.2113037109375
1773148842064931000,5.43793115234375,-0.0570831298828125,0.9987335205078125,-0.20904541015625
1773148842074968300,5.44796826171875,-0.0595245361328125,0.999481201171875,-0.1925048828125
1773148842085005300,5.45800537109375,-0.04998779296875,0.99908447265625,-0.1719207763671875
1773148842095041300,5.468041259765625,-0.03485107421875,0.99554443359375,-0.1545867919921875
1773148842105078300,5.478078369140625,-0.0187530517578125,0.9929656982421875,-0.1410369873046875
1773148842115115300,5.488115234375,-0.000396728515625,0.9854278564453125,-0.130279541015625
1773148842125152300,5.49815234375,0.0149078369140625,0.9763641357421875,-0.118927001953125
1773148842135189200,5.508189208984375,0.0196075439453125,0.968414306640625,-0.10272216796875
1773148842145226200,5.518226318359375,0.0180816650390625,0.9604949951171875,-0.087738037109375
1773148842155263200,5.52826318359375,0.0211944580078125,0.953125,-0.074676513671875
1773148842165299200,5.53829931640625,0.0274200439453125,0.9435577392578125,-0.06658935546875
1773148842175336200,5.548336181640625,0.0350189208984375,0.9364776611328125,-0.065277099609375
1773148842185373200,5.558373291015625,0.0414276123046875,0.941986083984375,-0.0739288330078125
1773148842195410200,5.56841015625,0.0355377197265625,0.948699951171875,-0.0810089111328125
1773148842205447200,5.578447265625,0.029266357421875,0.9509124755859375,-0.0828094482421875
1773148842215484200,5.588484130859375,0.0273895263671875,0.9403533935546875,-0.0823974609375
1773148842225521400,5.598521484375,0.0287933349609375,0.930511474609375,-0.0801544189453125
1773148842235558100,5.60855810546875,0.0288543701171875,0.9229888916015625,-0.0769195556640625
1773148842245594400,5.618594482421875,0.0335845947265625,0.922607421875,-0.0751190185546875
1773148842255631000,5.628631103515625,0.0384063720703125,0.9256134033203125,-0.0755615234375
1773148842265668000,5.638668212890625,0.0417022705078125,0.9190521240234375,-0.081512451171875
1773148842275705300,5.648705322265625,0.0377655029296875,0.907135009765625,-0.0902099609375
1773148842285742300,5.658742431640625,0.02532958984375,0.919036865234375,-0.1060943603515625
1773148842295779300,5.668779296875,0.0146331787109375,0.9603271484375,-0.126922607421875
1773148842305816000,5.678816162109375,0.0046234130859375,1.014862060546875,-0.15350341796875
1773148842315852300,5.688852294921875,-0.0108642578125,1.067626953125,-0.180023193359375
1773148842325889300,5.69888916015625,-0.0215301513671875,1.1206207275390625,-0.2029876708984375
1773148842335926300,5.70892626953125,-0.024383544921875,1.165008544921875,-0.214752197265625
1773148842345963300,5.71896337890625,-0.03033447265625,1.1966705322265625,-0.2099151611328125
1773148842356000300,5.729000244140625,-0.0443115234375,1.20233154296875,-0.1957550048828125
1773148842366037200,5.739037353515625,-0.070465087890625,1.187408447265625,-0.1754302978515625
1773148842376074200,5.74907421875,-0.100677490234375,1.1619873046875,-0.1572418212890625
1773148842386111200,5.759111328125,-0.1160430908203125,1.1198272705078125,-0.15557861328125
1773148842396147200,5.769147216796875,-0.121307373046875,1.077606201171875,-0.1722869873046875
1773148842406184200,5.77918408203125,-0.1131134033203125,1.0408172607421875,-0.194244384765625
1773148842416221200,5.78922119140625,-0.087066650390625,1.0133819580078125,-0.2266082763671875
1773148842426258400,5.799258544921875,-0.04852294921875,0.9900665283203125,-0.246673583984375
1773148842436295200,5.809295166015625,-0.00286865234375,0.9722442626953125,-0.2553558349609375
1773148842446332200,5.819332275390625,0.0418243408203125,0.9660491943359375,-0.253936767578125
1773148842456369200,5.829369140625,0.08135986328125,0.966827392578125,-0.24188232421875
1773148842466406400,5.839406494140625,0.106353759765625,0.9700164794921875,-0.213104248046875
1773148842476442400,5.8494423828125,0.1087646484375,0.96820068359375,-0.17144775390625
1773148842486479400,5.859479248046875,0.0963134765625,0.964935302734375,-0.1275787353515625
1773148842496516400,5.869516357421875,0.0786285400390625,0.9651031494140625,-0.0845947265625
1773148842506553000,5.879552978515625,0.0634918212890625,0.9710845947265625,-0.046844482421875
1773148842516590000,5.889590087890625,0.051971435546875,0.9754486083984375,-0.0135955810546875
1773148842526627300,5.89962744140625,0.046234130859375,0.9737701416015625,0.013031005859375
1773148842536664300,5.909664306640625,0.0337371826171875,0.969512939453125,0.0330810546875
1773148842546700300,5.9197001953125,0.0238037109375,0.9658660888671875,0.0409698486328125
1773148842556737300,5.9297373046875,0.0166015625,0.9691925048828125,0.029266357421875
1773148842566774000,5.93977392578125,0.0121917724609375,0.975921630859375,-0.004547119140625
1773148842576811300,5.949811279296875,-0.0030975341796875,0.9770660400390625,-0.0420379638671875
1773148842586848300,5.95984814453125,-0.0213470458984375,0.977752685546875,-0.0752716064453125
1773148842596885200,5.96988525390625,-0.0348663330078125,0.98101806640625,-0.10638427734375
1773148842606922200,5.979922119140625,-0.039154052734375,0.9866485595703125,-0.136749267578125
1773148842616959200,5.989959228515625,-0.032623291015625,0.996429443359375,-0.1681976318359375
1773148842626995200,5.9999951171875,-0.02130126953125,1.0024871826171875,-0.201629638671875
1773148842637032200,6.0100322265625,-0.0029296875,1.0036468505859375,-0.2295989990234375
1773148842647069200,6.020069091796875,0.017181396484375,1.0077362060546875,-0.2489166259765625
1773148842657106200,6.030106201171875,0.0346221923828125,1.017608642578125,-0.2652435302734375
1773148842667143200,6.04014306640625,0.0344390869140625,1.016876220703125,-0.269866943359375
1773148842677180200,6.05018017578125,0.0275115966796875,1.00665283203125,-0.2766876220703125
1773148842687217000,6.060216796875,0.018890380859375,0.98309326171875,-0.2680816650390625
1773148842697254100,6.070254150390625,0.0103912353515625,0.9523162841796875,-0.242156982421875
1773148842707290000,6.0802900390625,0.0059356689453125,0.9403228759765625,-0.21624755859375
1773148842717327000,6.0903271484375,0.003753662109375,0.9652099609375,-0.1862945556640625
1773148842727364000,6.100364013671875,-0.0043182373046875,0.9964599609375,-0.1597900390625
1773148842737401000,6.110401123046875,-0.0062103271484375,1.0129547119140625,-0.136016845703125
1773148842747438000,6.12043798828125,-0.006072998046875,1.0148468017578125,-0.11474609375
1773148842757475000,6.13047509765625,-0.0037384033203125,1.0083465576171875,-0.0944671630859375
1773148842767512000,6.140511962890625,0.0016021728515625,1.00103759765625,-0.076080322265625
1773148842777548000,6.150548095703125,0.0085906982421875,0.9940643310546875,-0.0610504150390625
1773148842787585000,6.1605849609375,0.0095672607421875,0.98602294921875,-0.0419921875
1773148842797622300,6.170622314453125,0.0088043212890625,0.9799957275390625,-0.024932861328125
1773148842807659300,6.1806591796875,0.0087738037109375,0.9773406982421875,-0.009735107421875
1773148842817696000,6.190696044921875,0.007843017578125,0.979522705078125,-0.0008087158203125
1773148842827733000,6.20073291015625,0.008087158203125,0.987579345703125,0.000762939453125
1773148842837770200,6.210770263671875,0.0103607177734375,0.9901885986328125,0.00042724609375
1773148842847807200,6.22080712890625,0.00946044921875,0.982635498046875,-0.004974365234375
1773148842857843200,6.23084326171875,0.00537109375,0.975921630859375,-0.0143280029296875
1773148842867880200,6.240880126953125,-0.000457763671875,0.97406005859375,-0.034271240234375
1773148842877917000,6.2509169921875,-0.00347900390625,0.9930267333984375,-0.03814697265625
1773148842887954000,6.260953857421875,-0.0101165771484375,1.0027923583984375,-0.0429534912109375
1773148842897991200,6.2709912109375,-0.0197906494140625,1.0028533935546875,-0.0446014404296875
1773148842908028200,6.281028076171875,-0.02569580078125,1.003326416015625,-0.04632568359375
1773148842918065200,6.291065185546875,-0.0280609130859375,0.9985198974609375,-0.05194091796875
1773148842928102100,6.30110205078125,-0.0257568359375,0.9971466064453125,-0.0530242919921875
1773148842938138000,6.31113818359375,-0.023040771484375,0.9951019287109375,-0.0644378662109375
1773148842948175000,6.321175048828125,-0.019775390625,0.9965362548828125,-0.0753326416015625
1773148842958212000,6.331212158203125,-0.01812744140625,0.9958648681640625,-0.0828399658203125
1773148842968249000,6.3412490234375,-0.015899658203125,0.992279052734375,-0.087066650390625
1773148842978286000,6.3512861328125,-0.0126190185546875,0.9900970458984375,-0.08721923828125
1773148842988323300,6.3613232421875,-0.00836181640625,0.989227294921875,-0.08135986328125
1773148842998360000,6.371360107421875,-0.003570556640625,0.98931884765625,-0.0731964111328125
1773148843008397000,6.38139697265625,0.0015106201171875,0.9946136474609375,-0.060577392578125
1773148843018433000,6.39143310546875,0.00567626953125,1.000274658203125,-0.051483154296875
1773148843028470000,6.401469970703125,0.0079803466796875,1.0029449462890625,-0.044830322265625
1773148843038507300,6.41150732421875,0.0116424560546875,1.01043701171875,-0.042144775390625
1773148843048544300,6.421544189453125,0.01544189453125,1.0120391845703125,-0.0446624755859375
1773148843058581000,6.4315810546875,0.0214996337890625,1.00909423828125,-0.0523223876953125
1773148843068618000,6.441617919921875,0.0314178466796875,1.0043182373046875,-0.06427001953125
1773148843078655000,6.451655029296875,0.0454254150390625,1.00616455078125,-0.0775909423828125
1773148843088692200,6.461692138671875,0.0586700439453125,1.0129547119140625,-0.0931396484375
1773148843098728200,6.471728271484375,0.063446044921875,1.0172882080078125,-0.1101531982421875
1773148843108765200,6.48176513671875,0.0614776611328125,1.0137786865234375,-0.1283416748046875
1773148843118802200,6.49180224609375,0.0581207275390625,1.0069580078125,-0.1461944580078125
1773148843128839000,6.5018388671875,0.0530242919921875,1.001434326171875,-0.1614990234375
1773148843138876200,6.511876220703125,0.0467376708984375,0.998199462890625,-0.1728363037109375
1773148843148913200,6.5219130859375,0.0417022705078125,0.9986724853515625,-0.181304931640625
1773148843158950100,6.5319501953125,0.037750244140625,0.998321533203125,-0.1847076416015625
1773148843168987100,6.541987060546875,0.0378570556640625,0.9949493408203125,-0.1806793212890625
1773148843179023000,6.552023193359375,0.043182373046875,0.9898529052734375,-0.1740570068359375
1773148843189060000,6.56206005859375,0.0520782470703125,0.9873504638671875,-0.165679931640625
1773148843199097000,6.57209716796875,0.06494140625,0.9863433837890625,-0.1581268310546875
1773148843209134000,6.582134033203125,0.0742340087890625,0.9857025146484375,-0.152740478515625
1773148843219171000,6.592171142578125,0.0785980224609375,0.9866943359375,-0.1479339599609375
1773148843229208300,6.602208251953125,0.0816650390625,0.991607666015625,-0.1458282470703125
1773148843239245000,6.6122451171875,0.0753173828125,1.001800537109375,-0.147674560546875
1773148843249281300,6.62228125,0.06671142578125,1.01544189453125,-0.152496337890625
1773148843259318000,6.632318115234375,0.0572662353515625,1.025726318359375,-0.1607208251953125
1773148843269355000,6.64235498046875,0.0488128662109375,1.0286102294921875,-0.1716461181640625
1773148843279392000,6.65239208984375,0.0451507568359375,1.0223541259765625,-0.1777801513671875
1773148843289429200,6.66242919921875,0.0447235107421875,1.0102081298828125,-0.17730712890625
1773148843299466200,6.67246630859375,0.048919677734375,1.001434326171875,-0.176116943359375
1773148843309503000,6.6825029296875,0.0583648681640625,0.99652099609375,-0.1763916015625
1773148843319540000,6.6925400390625,0.071441650390625,0.9942779541015625,-0.1767730712890625
1773148843329576000,6.702575927734375,0.0821533203125,0.991912841796875,-0.1815338134765625
1773148843339613200,6.71261328125,0.08599853515625,0.990081787109375,-0.1899871826171875
1773148843349650200,6.722650146484375,0.0838470458984375,0.99542236328125,-0.2010345458984375
1773148843359687200,6.732687255859375,0.0796966552734375,1.00701904296875,-0.2122955322265625
1773148843369724200,6.74272412109375,0.0782623291015625,1.0263671875,-0.2240447998046875
1773148843379761200,6.75276123046875,0.0789337158203125,1.0366973876953125,-0.2339935302734375
1773148843389798100,6.762798095703125,0.0815887451171875,1.026702880859375,-0.239990234375
1773148843399835100,6.772835205078125,0.0829925537109375,1.003082275390625,-0.243194580078125
1773148843409871000,6.78287109375,0.074615478515625,0.9813079833984375,-0.244720458984375
1773148843419908000,6.792908203125,0.0602569580078125,0.97418212890625,-0.2494354248046875
1773148843429945300,6.8029453125,0.0446624755859375,0.9791412353515625,-0.252899169921875
1773148843439982000,6.812982177734375,0.030059814453125,0.994140625,-0.253326416015625
1773148843450019000,6.82301904296875,0.0132293701171875,1.01416015625,-0.2521514892578125
1773148843460056000,6.83305615234375,-0.0045166015625,1.03338623046875,-0.2519683837890625
1773148843470093000,6.843093017578125,-0.02093505859375,1.04864501953125,-0.248687744140625
1773148843480130300,6.85313037109375,-0.03387451171875,1.054779052734375,-0.2398223876953125
1773148843490166300,6.863166259765625,-0.0407562255859375,1.05389404296875,-0.2273712158203125
1773148843500203000,6.873203125,-0.05743408203125,1.040740966796875,-0.208831787109375
1773148843510240000,6.883239990234375,-0.0823974609375,1.0173187255859375,-0.186187744140625
1773148843520277000,6.893277099609375,-0.12359619140625,0.990753173828125,-0.15869140625
1773148843530314200,6.903314208984375,-0.1803741455078125,0.964263916015625,-0.12109375
1773148843540351200,6.913351318359375,-0.2702484130859375,0.95135498046875,-0.06964111328125
1773148843550388200,6.92338818359375,-0.3644866943359375,0.94305419921875,-0.0311126708984375
1773148843560425000,6.933425048828125,-0.355316162109375,0.9362640380859375,-0.0340423583984375
1773148843570461000,6.9434609375,-0.2126007080078125,0.9040374755859375,-0.0388031005859375
1773148843580498200,6.953498291015625,-0.0622100830078125,0.8436279296875,-0.0018768310546875
1773148843590535200,6.96353515625,-0.077362060546875,0.752899169921875,0.091583251953125
1773148843600572200,6.973572265625,-0.1735687255859375,0.6379852294921875,0.2439727783203125
1773148843610609200,6.983609130859375,-0.232452392578125,0.5409698486328125,0.2587127685546875
1773148843620646000,6.99364599609375,-0.3180389404296875,0.510528564453125,0.0660247802734375
1773148843630683100,7.00368310546875,-0.3355712890625,0.5064239501953125,-0.05364990234375
1773148843640720100,7.01372021484375,-0.2679443359375,0.52911376953125,-0.0667572021484375
1773148843650756600,7.023756591796875,-0.2044525146484375,0.6323699951171875,-0.0121917724609375
1773148843660793600,7.033793701171875,-0.1895294189453125,0.752410888671875,0.0722198486328125
1773148843670830800,7.043830810546875,-0.1819610595703125,0.8981475830078125,0.1490936279296875
1773148843680867600,7.05386767578125,-0.19744873046875,1.05633544921875,0.228424072265625
1773148843690904600,7.063904541015625,-0.2896270751953125,1.1922454833984375,0.3593902587890625
1773148843700941600,7.073941650390625,-0.38275146484375,1.308197021484375,0.485076904296875
1773148843710978600,7.083978515625,-0.39862060546875,1.3354644775390625,0.51214599609375
1773148843721014500,7.0940146484375,-0.47833251953125,1.2757415771484375,0.4532928466796875
1773148843731051800,7.1040517578125,-0.5161895751953125,1.1787872314453125,0.3370819091796875
1773148843741088500,7.114088623046875,-0.4460906982421875,1.0460052490234375,0.2111968994140625
1773148843751125500,7.12412548828125,-0.3841400146484375,0.8996124267578125,0.099761962890625
1773148843761162500,7.13416259765625,-0.3808441162109375,0.7680816650390625,0.0352020263671875
1773148843771199700,7.14419970703125,-0.42437744140625,0.6512451171875,0.00164794921875
1773148843781236700,7.15423681640625,-0.425628662109375,0.573089599609375,0.02679443359375
1773148843791273500,7.1642734375,-0.3613433837890625,0.5731658935546875,0.101318359375
1773148843801309700,7.174309814453125,-0.322845458984375,0.6499481201171875,0.19842529296875
1773148843811346400,7.184346435546875,-0.329010009765625,0.7389984130859375,0.258026123046875
1773148843821383700,7.1943837890625,-0.3319549560546875,0.813720703125,0.2600860595703125
1773148843831420700,7.204420654296875,-0.356964111328125,0.8437957763671875,0.238861083984375
1773148843841457700,7.214457763671875,-0.3837890625,0.848907470703125,0.204071044921875
1773148843851494700,7.22449462890625,-0.4233856201171875,0.8429718017578125,0.1908111572265625
1773148843861531400,7.234531494140625,-0.4364776611328125,0.85791015625,0.1985931396484375
1773148843871568600,7.244568603515625,-0.4416961669921875,0.8956146240234375,0.218994140625
1773148843881604600,7.2546044921875,-0.443267822265625,0.9505157470703125,0.2338104248046875
1773148843891641600,7.2646416015625,-0.407135009765625,1.005645751953125,0.2558746337890625
1773148843901678600,7.2746787109375,-0.3948516845703125,1.040863037109375,0.3043365478515625
1773148843911715600,7.284715576171875,-0.440826416015625,1.04180908203125,0.364715576171875
1773148843921752600,7.294752685546875,-0.5051727294921875,1.013580322265625,0.41058349609375
1773148843931789600,7.30478955078125,-0.5479888916015625,0.970672607421875,0.44677734375
1773148843941826600,7.31482666015625,-0.548553466796875,0.93402099609375,0.4502410888671875
1773148843951862500,7.324862548828125,-0.4657440185546875,0.9477691650390625,0.41485595703125
1773148843961899500,7.3348994140625,-0.3916015625,0.992431640625,0.3679656982421875
1773148843971936800,7.344936767578125,-0.350799560546875,0.980743408203125,0.4201202392578125
1773148843981973800,7.354973876953125,-0.369110107421875,0.9412689208984375,0.4456787109375
1773148843992010500,7.365010498046875,-0.4417266845703125,0.916534423828125,0.457275390625
1773148844002047500,7.375047607421875,-0.453521728515625,0.8819732666015625,0.4680328369140625
1773148844012084700,7.385084716796875,-0.4444122314453125,0.8216705322265625,0.447113037109375
1773148844022121700,7.395121826171875,-0.4205322265625,0.7728271484375,0.3891143798828125
1773148844032156700,7.40515673828125,-0.3530426025390625,0.7791290283203125,0.2976837158203125
1773148844042193700,7.415193603515625,-0.26739501953125,0.8206939697265625,0.2145843505859375
1773148844052229600,7.425229736328125,-0.248260498046875,0.8737640380859375,0.1620330810546875
1773148844062266600,7.4352666015625,-0.2976226806640625,0.91387939453125,0.16876220703125
1773148844072303600,7.4453037109375,-0.333740234375,0.9469146728515625,0.2266082763671875
1773148844082340600,7.455340576171875,-0.3363189697265625,0.9767913818359375,0.2742767333984375
1773148844092377600,7.465377685546875,-0.3450775146484375,1.0002899169921875,0.2924652099609375
1773148844102414600,7.47541455078125,-0.357177734375,1.0004119873046875,0.3107757568359375
1773148844112451600,7.48545166015625,-0.3347930908203125,0.98602294921875,0.3279266357421875
1773148844122487600,7.495487548828125,-0.297119140625,0.977325439453125,0.328857421875
1773148844132524800,7.50552490234375,-0.2716217041015625,0.9800872802734375,0.314453125
1773148844142561800,7.515561767578125,-0.249298095703125,0.98663330078125,0.28765869140625
1773148844152598500,7.5255986328125,-0.2467041015625,0.970916748046875,0.2750701904296875
1773148844162635500,7.535635498046875,-0.243621826171875,0.95465087890625,0.265045166015625
1773148844172672500,7.545672607421875,-0.22955322265625,0.9446563720703125,0.2506103515625
1773148844182709800,7.555709716796875,-0.20855712890625,0.956939697265625,0.2200164794921875
1773148844192746800,7.565746826171875,-0.1737213134765625,0.966339111328125,0.1847076416015625
1773148844202782700,7.57578271484375,-0.13909912109375,0.9676666259765625,0.1533966064453125
1773148844212819500,7.5858193359375,-0.1227264404296875,0.970489501953125,0.1319732666015625
1773148844222856400,7.5958564453125,-0.108306884765625,0.977386474609375,0.1268768310546875
1773148844232893700,7.605893798828125,-0.1142730712890625,0.971038818359375,0.1334381103515625
1773148844242930700,7.6159306640625,-0.1339874267578125,0.9503631591796875,0.115814208984375
1773148844252967700,7.6259677734375,-0.17462158203125,0.9316864013671875,0.07373046875
1773148844263004400,7.63600439453125,-0.213836669921875,0.9079742431640625,0.0108184814453125
1773148844273041700,7.646041748046875,-0.1673736572265625,0.882720947265625,-0.040924072265625
1773148844283077600,7.65607763671875,-0.1132354736328125,0.868896484375,-0.04510498046875
1773148844293114600,7.666114501953125,-0.0985870361328125,0.8548583984375,-0.02276611328125
1773148844303151600,7.676151611328125,-0.1430206298828125,0.839508056640625,0.0217742919921875
1773148844313188600,7.686188720703125,-0.2351837158203125,0.8214569091796875,0.0716552734375
1773148844323225600,7.6962255859375,-0.245452880859375,0.8322906494140625,0.0938568115234375
1773148844333262600,7.7062626953125,-0.1937255859375,0.855621337890625,0.1085968017578125
1773148844343299600,7.716299560546875,-0.1800384521484375,0.855010986328125,0.1414642333984375
1773148844353335600,7.72633544921875,-0.1634368896484375,0.8623809814453125,0.16650390625
1773148844363372500,7.73637255859375,-0.147705078125,0.883331298828125,0.1807708740234375
1773148844373409500,7.746409423828125,-0.151214599609375,0.9123687744140625,0.1861419677734375
1773148844383446800,7.75644677734375,-0.1863861083984375,0.9388427734375,0.19970703125
1773148844393483500,7.7664833984375,-0.1985931396484375,0.9860992431640625,0.1900177001953125
1773148844403520500,7.7765205078125,-0.169952392578125,1.0260772705078125,0.15704345703125
1773148844413557500,7.7865576171875,-0.1175537109375,1.0568695068359375,0.1300506591796875
1773148844423594800,7.7965947265625,-0.0767822265625,1.0734710693359375,0.1209716796875
1773148844433630700,7.806630615234375,-0.080657958984375,1.0836181640625,0.1377716064453125
1773148844443667700,7.816667724609375,-0.14263916015625,1.1036529541015625,0.1620025634765625
1773148844453704700,7.82670458984375,-0.211944580078125,1.1266021728515625,0.1602325439453125
1773148844463741400,7.836741455078125,-0.2359466552734375,1.147430419921875,0.087249755859375
1773148844473778700,7.84677880859375,-0.1992645263671875,1.133514404296875,-0.0016937255859375
1773148844483815700,7.856815673828125,-0.137481689453125,1.106689453125,-0.0714263916015625
1773148844493852700,7.866852783203125,-0.0991973876953125,1.0888671875,-0.1570281982421875
1773148844503889700,7.8768896484375,-0.0901031494140625,1.090606689453125,-0.2319488525390625
1773148844513925600,7.886925537109375,-0.08624267578125,1.1082763671875,-0.282623291015625
1773148844523962600,7.896962646484375,-0.084075927734375,1.1314697265625,-0.32830810546875
1773148844533999600,7.90699951171875,-0.0694122314453125,1.1585693359375,-0.3679351806640625
1773148844544036600,7.91703662109375,-0.03955078125,1.1630401611328125,-0.4061431884765625
1773148844554073600,7.927073486328125,-0.0336761474609375,1.1365966796875,-0.429534912109375
1773148844564110600,7.937110595703125,-0.053802490234375,1.109527587890625,-0.423370361328125
1773148844574147600,7.947147705078125,-0.1023406982421875,1.1036529541015625,-0.4044342041015625
1773148844584184600,7.9571845703125,-0.140625,1.110076904296875,-0.384979248046875
1773148844594221600,7.9672216796875,-0.1390228271484375,1.1202239990234375,-0.3737030029296875
1773148844604258600,7.977258544921875,-0.1306304931640625,1.1274566650390625,-0.36676025390625
1773148844614295800,7.9872958984375,-0.1231536865234375,1.1307373046875,-0.369598388671875
1773148844624332500,7.99733251953125,-0.105926513671875,1.131072998046875,-0.37799072265625
1773148844634368800,8.00736865234375,-0.0950927734375,1.1275634765625,-0.3835601806640625
1773148844644405500,8.017405517578124,-0.0959320068359375,1.1142120361328125,-0.3916168212890625
1773148844654442000,8.02744189453125,-0.088287353515625,1.0843658447265625,-0.4041290283203125
1773148844664479000,8.03747900390625,-0.0855865478515625,1.040252685546875,-0.416748046875
1773148844674516000,8.047515869140625,-0.078887939453125,0.999908447265625,-0.4142303466796875
1773148844684553200,8.05755322265625,-0.0534515380859375,0.9598236083984375,-0.410736083984375
1773148844694590200,8.067590087890625,-0.0285186767578125,0.9293365478515625,-0.4130859375
1773148844704627000,8.077626953125,-0.0243072509765625,0.9141082763671875,-0.4083404541015625
1773148844714663000,8.087662841796876,-0.041778564453125,0.9049835205078125,-0.404693603515625
1773148844724700000,8.097699951171874,-0.0532379150390625,0.905792236328125,-0.4057769775390625
1773148844734737000,8.10773681640625,-0.061798095703125,0.9146728515625,-0.402313232421875
1773148844744774100,8.117774169921875,-0.0632781982421875,0.9289093017578125,-0.390838623046875
1773148844754811100,8.12781103515625,-0.0789642333984375,0.9373626708984375,-0.3791961669921875
1773148844764847900,8.137847900390625,-0.0919036865234375,0.937530517578125,-0.3620147705078125
1773148844774884900,8.147884765625,-0.103240966796875,0.9248809814453125,-0.3574371337890625
1773148844784922000,8.157922119140625,-0.088775634765625,0.90362548828125,-0.356842041015625
1773148844794958000,8.1679580078125,-0.075347900390625,0.8776702880859375,-0.3532867431640625
1773148844804995000,8.1779951171875,-0.0602874755859375,0.852142333984375,-0.3405303955078125
1773148844815032000,8.188031982421874,-0.0477752685546875,0.8139190673828125,-0.337005615234375
1773148844825069000,8.198069091796874,-0.0283660888671875,0.77374267578125,-0.3379669189453125
1773148844835106000,8.20810595703125,-0.018646240234375,0.7540283203125,-0.3384857177734375
1773148844845143000,8.21814306640625,-0.014617919921875,0.73138427734375,-0.357208251953125
1773148844855180000,8.228179931640625,-0.0121612548828125,0.7130126953125,-0.3862152099609375
1773148844865217000,8.238217041015625,-0.01605224609375,0.6877593994140625,-0.42535400390625
1773148844875253000,8.2482529296875,-0.019622802734375,0.706512451171875,-0.47027587890625
1773148844885290200,8.258290283203126,-0.034332275390625,0.7513275146484375,-0.485626220703125
1773148844895327000,8.268326904296876,-0.0554962158203125,0.7969512939453125,-0.44183349609375
1773148844905364000,8.278364013671874,-0.0522918701171875,0.8241424560546875,-0.3591766357421875
1773148844915401000,8.28840087890625,-0.05029296875,0.84423828125,-0.2584686279296875
1773148844925438000,8.29843798828125,-0.066558837890625,0.85662841796875,-0.175994873046875
1773148844935475200,8.30847509765625,-0.0971527099609375,0.8795013427734375,-0.1240234375
1773148844945512000,8.318511962890625,-0.141143798828125,0.942352294921875,-0.083099365234375
1773148844955549000,8.328548828125,-0.1557769775390625,1.0366363525390625,-0.0467529296875
1773148844965585000,8.3385849609375,-0.14483642578125,1.1482391357421875,-0.00860595703125
1773148844975622000,8.348621826171875,-0.1297149658203125,1.2539520263671875,0.0181427001953125
1773148844985659100,8.3586591796875,-0.0936737060546875,1.3005218505859375,0.0111083984375
1773148844995696000,8.368696044921874,-0.0531158447265625,1.3203277587890625,-0.000823974609375
1773148845005733000,8.378733154296874,-0.03070068359375,1.31103515625,-0.0103759765625
1773148845015769900,8.388769775390625,-0.0373992919921875,1.1851043701171875,-0.0618896484375
1773148845025807000,8.39880712890625,-0.054718017578125,1.0651702880859375,-0.1171417236328125
1773148845035843000,8.408843017578125,-0.0594940185546875,1.0034942626953125,-0.1806182861328125
1773148845045880000,8.418880126953125,-0.05548095703125,0.9878387451171875,-0.248931884765625
1773148845055917000,8.4289169921875,-0.0424041748046875,1.0015716552734375,-0.304351806640625
1773148845065954000,8.4389541015625,-0.012237548828125,1.0213165283203125,-0.3392333984375
1773148845075991000,8.448990966796876,0.000335693359375,1.0289306640625,-0.344390869140625
1773148845086028000,8.459028076171874,-0.0194549560546875,1.032470703125,-0.3174285888671875
1773148845096065000,8.46906494140625,-0.042999267578125,1.0550537109375,-0.27093505859375
1773148845106102000,8.47910205078125,-0.063323974609375,1.075439453125,-0.2353668212890625
1773148845116138000,8.489137939453125,-0.068878173828125,1.091888427734375,-0.2235565185546875
1773148845126175000,8.499175048828125,-0.0476837158203125,1.109466552734375,-0.22119140625
1773148845136212200,8.509212158203125,-0.01080322265625,1.1281890869140625,-0.217529296875
1773148845146249000,8.5192490234375,0.0204925537109375,1.149749755859375,-0.2205657958984375
1773148845156286000,8.529285888671875,0.047943115234375,1.16009521484375,-0.222259521484375
1773148845166323000,8.539322998046876,0.0548553466796875,1.1578369140625,-0.2219390869140625
1773148845176360200,8.549360107421874,0.0401763916015625,1.1535491943359375,-0.2285003662109375
1773148845186397200,8.559397216796874,0.0175628662109375,1.140167236328125,-0.245941162109375
1773148845196433200,8.56943310546875,-0.0011444091796875,1.1239166259765625,-0.2724456787109375
1773148845206470000,8.579469970703125,-0.0112457275390625,1.1174163818359375,-0.30072021484375
1773148845216507000,8.5895068359375,-0.0137481689453125,1.1197357177734375,-0.3271636962890625
1773148845226544000,8.599544189453125,-0.010406494140625,1.11175537109375,-0.3445587158203125
1773148845236581000,8.6095810546875,-0.0100555419921875,1.08892822265625,-0.354644775390625
1773148845246618000,8.6196181640625,-0.0170440673828125,1.070404052734375,-0.3572235107421875
1773148845256655000,8.629655029296876,-0.02154541015625,1.05572509765625,-0.3463134765625
1773148845266691800,8.63969189453125,-0.016326904296875,1.0390167236328125,-0.3302459716796875
1773148845276727800,8.649727783203126,-0.00518798828125,1.0160064697265625,-0.3030242919921875
1773148845286765000,8.65976513671875,0.0092620849609375,0.9738616943359375,-0.2677459716796875
1773148845296802000,8.669802001953125,0.0173492431640625,0.9140625,-0.2301025390625
1773148845306839000,8.679839111328125,0.026458740234375,0.8549346923828125,-0.198455810546875
1773148845316876000,8.6898759765625,0.027587890625,0.80279541015625,-0.1761474609375
1773148845326913000,8.6999130859375,0.0041351318359375,0.7596588134765625,-0.1619873046875
1773148845336950000,8.709949951171875,-0.02191162109375,0.7367401123046875,-0.1563568115234375
1773148845346987000,8.719987060546876,-0.030914306640625,0.7494964599609375,-0.162994384765625
1773148845357023000,8.73002294921875,-0.026397705078125,0.80023193359375,-0.1831207275390625
1773148845367060000,8.74006005859375,-0.0222930908203125,0.8801116943359375,-0.222930908203125
1773148845377097200,8.75009716796875,-0.04022216796875,0.9428253173828125,-0.26910400390625
1773148845387134000,8.760134033203125,-0.07220458984375,0.9787445068359375,-0.3163604736328125
1773148845397171000,8.7701708984375,-0.08355712890625,0.993927001953125,-0.358856201171875
1773148845407208000,8.7802080078125,-0.0585784912109375,0.9673614501953125,-0.3845367431640625
1773148845417245000,8.790244873046875,-0.0055389404296875,0.8895416259765625,-0.38714599609375
1773148845427282200,8.8002822265625,0.0657501220703125,0.813262939453125,-0.374053955078125
1773148845437318100,8.810318115234375,0.1354522705078125,0.7861480712890625,-0.353363037109375
1773148845447355100,8.820355224609376,0.1691131591796875,0.8042144775390625,-0.351043701171875
1773148845457391900,8.830391845703126,0.116241455078125,0.798980712890625,-0.3819122314453125
1773148845467428900,8.840428955078124,-0.0033416748046875,0.7680816650390625,-0.4113922119140625
1773148845477466000,8.850466064453125,-0.1117706298828125,0.7773895263671875,-0.4420166015625
1773148845487503000,8.860503173828125,-0.14544677734375,0.810455322265625,-0.4627838134765625
1773148845497540000,8.8705400390625,-0.1037445068359375,0.8642730712890625,-0.422637939453125
1773148845507576800,8.880576904296875,-0.012725830078125,0.9028778076171875,-0.3289642333984375
1773148845517613000,8.890613037109375,0.087188720703125,0.90020751953125,-0.2519683837890625
1773148845527650000,8.900650146484375,0.17041015625,0.873504638671875,-0.201446533203125
1773148845537687000,8.91068701171875,0.22265625,0.849273681640625,-0.17120361328125
1773148845547724000,8.92072412109375,0.21875,0.8187255859375,-0.1825408935546875
1773148845557761000,8.930760986328124,0.188995361328125,0.8050537109375,-0.2154083251953125
1773148845567798000,8.940798095703125,0.154876708984375,0.8351898193359375,-0.245269775390625
1773148845577835000,8.9508349609375,0.1218109130859375,0.891357421875,-0.2812652587890625
1773148845587872000,8.9608720703125,0.0905914306640625,0.9766693115234375,-0.3027801513671875
1773148845597909000,8.970908935546875,0.0483856201171875,1.0732574462890625,-0.315277099609375
1773148845607945000,8.980945068359375,-0.0153350830078125,1.13885498046875,-0.3317718505859375
1773148845617982000,8.99098193359375,-0.09564208984375,1.1633758544921875,-0.355316162109375
1773148845628019200,9.001019287109376,-0.15447998046875,1.1285247802734375,-0.3577117919921875
1773148845638056000,9.011055908203126,-0.1802825927734375,1.065093994140625,-0.3418121337890625
1773148845648093000,9.021093017578124,-0.1779937744140625,1.0196685791015625,-0.3265838623046875
1773148845658130700,9.031130615234375,-0.1494598388671875,0.9953460693359375,-0.3061370849609375
1773148845668168000,9.04116796875,-0.1001129150390625,0.981109619140625,-0.26202392578125
1773148845678204700,9.05120458984375,-0.0471649169921875,0.9574737548828125,-0.2125244140625
1773148845688240600,9.06124072265625,-0.0105133056640625,0.9285736083984375,-0.1527252197265625
1773148845698277600,9.071277587890625,-0.00439453125,0.9048919677734375,-0.1071624755859375
1773148845708314600,9.081314697265626,0.0041961669921875,0.86566162109375,-0.08526611328125
1773148845718352000,9.091351806640626,0.0314483642578125,0.858428955078125,-0.0542755126953125
1773148845728388900,9.101388916015624,0.0486297607421875,0.9100494384765625,-0.00787353515625
1773148845738425900,9.11142578125,0.0461273193359375,1.00836181640625,0.0784454345703125
1773148845748462600,9.121462646484375,0.062408447265625,1.16741943359375,0.2376861572265625
1773148845758498600,9.13149853515625,0.1010284423828125,1.2606658935546875,0.3717041015625
1773148845768535800,9.141535888671875,0.065338134765625,1.2648162841796875,0.3787841796875
1773148845778572800,9.15157275390625,-0.0474853515625,1.275482177734375,0.3372802734375
1773148845788609800,9.16160986328125,-0.1571502685546875,1.2830352783203125,0.311676025390625
1773148845798646800,9.171646728515626,-0.2353363037109375,1.251220703125,0.309417724609375
1773148845808683500,9.18168359375,-0.264678955078125,1.1052093505859375,0.26678466796875
1773148845818720800,9.191720703125,-0.231964111328125,0.9223785400390625,0.150726318359375
1773148845828757800,9.2017578125,-0.146392822265625,0.8870086669921875,0.03167724609375
1773148845838793700,9.211793701171874,-0.051788330078125,0.9446258544921875,-0.03692626953125
1773148845848830700,9.221830810546875,0.0207977294921875,1.0091552734375,-0.0719757080078125
1773148845858867700,9.23186767578125,0.0894317626953125,1.0480194091796875,-0.0965423583984375
1773148845868904700,9.24190478515625,0.1576385498046875,1.0915374755859375,-0.1151275634765625
1773148845878941700,9.251941650390625,0.21832275390625,1.101348876953125,-0.1446075439453125
1773148845888978700,9.261978759765626,0.25823974609375,1.067596435546875,-0.1689453125
1773148845899015700,9.272015625,0.2691802978515625,1.00762939453125,-0.1817626953125
1773148845909053000,9.282052978515624,0.2344207763671875,0.936279296875,-0.192108154296875
1773148845919089000,9.2920888671875,0.1669464111328125,0.859100341796875,-0.1926727294921875
1773148845929126000,9.3021259765625,0.0920257568359375,0.8271026611328125,-0.1651153564453125
1773148845939162600,9.31216259765625,0.017852783203125,0.859222412109375,-0.14642333984375
1773148845949199600,9.32219970703125,-0.0305023193359375,0.93670654296875,-0.1291351318359375
1773148845959236600,9.332236572265625,-0.0599517822265625,0.9987640380859375,-0.0806884765625
1773148845969273900,9.34227392578125,-0.0756683349609375,1.018463134765625,-0.023345947265625
1773148845979310800,9.352310791015626,-0.093109130859375,1.0051116943359375,0.0180206298828125
1773148845989347600,9.36234765625,-0.1154937744140625,0.971923828125,0.040802001953125
1773148845999383800,9.3723837890625,-0.1331634521484375,0.9548187255859375,0.0531005859375
1773148846009420500,9.382420654296874,-0.1254425048828125,0.9687957763671875,0.0524139404296875
1773148846019457800,9.392457763671874,-0.090789794921875,0.9893646240234375,0.0332183837890625
1773148846029494800,9.402494873046875,-0.0325775146484375,0.9803466796875,0.0055084228515625
1773148846039531800,9.41253173828125,0.0065155029296875,0.9488983154296875,-0.0119781494140625
1773148846049568800,9.42256884765625,0.0123291015625,0.923095703125,-0.0213165283203125
1773148846059605800,9.432605712890625,-0.0037689208984375,0.914794921875,-0.0203094482421875
1773148846069642800,9.442642822265626,-0.025421142578125,0.932037353515625,-0.0072174072265625
1773148846079678700,9.4526787109375,-0.045196533203125,0.9575653076171875,0.0186004638671875
1773148846089715700,9.4627158203125,-0.052581787109375,0.973602294921875,0.0521697998046875
1773148846099752700,9.472752685546874,-0.0441131591796875,0.9831695556640625,0.0701141357421875
1773148846109790000,9.4827900390625,-0.016021728515625,0.990203857421875,0.070465087890625
1773148846119826700,9.49282666015625,0.0084686279296875,1.01031494140625,0.068023681640625
1773148846129863700,9.50286376953125,0.02850341796875,1.0218505859375,0.0469512939453125
1773148846139900700,9.512900634765625,0.038970947265625,1.028411865234375,0.010833740234375
1773148846149937700,9.522937744140625,0.0408477783203125,1.047760009765625,-0.0374908447265625
1773148846159973600,9.5329736328125,0.0426025390625,1.0786285400390625,-0.080413818359375
1773148846170011000,9.543010986328126,0.0563201904296875,1.10467529296875,-0.099090576171875
1773148846180048000,9.5530478515625,0.066741943359375,1.10528564453125,-0.11346435546875
1773148846190084600,9.563084716796874,0.0641937255859375,1.0894317626953125,-0.1266632080078125
1773148846200121600,9.57312158203125,0.0637054443359375,1.0668487548828125,-0.12628173828125
1773148846210158800,9.583158935546875,0.0640716552734375,1.0431365966796875,-0.11798095703125
1773148846220195800,9.59319580078125,0.069793701171875,1.0307464599609375,-0.100830078125
1773148846230232800,9.60323291015625,0.0797119140625,1.0207061767578125,-0.0822296142578125
1773148846240268800,9.613268798828125,0.0916900634765625,1.02691650390625,-0.0699615478515625
1773148846250305500,9.623305419921875,0.102935791015625,1.020721435546875,-0.0648193359375
1773148846260342800,9.6333427734375,0.1072998046875,1.0287322998046875,-0.0539703369140625
1773148846270379800,9.6433798828125,0.1098480224609375,1.0472259521484375,-0.0575408935546875
1773148846280416800,9.653416748046874,0.108245849609375,1.03912353515625,-0.0705718994140625
1773148846290453800,9.663453857421874,0.1000823974609375,1.0266265869140625,-0.0803680419921875
1773148846300490800,9.67349072265625,0.0899658203125,1.004669189453125,-0.0955963134765625
1773148846310527700,9.68352783203125,0.08538818359375,0.9844512939453125,-0.1075439453125
1773148846320563700,9.693563720703125,0.0752410888671875,0.9733123779296875,-0.1236114501953125
1773148846330600700,9.7036005859375,0.06524658203125,0.9532318115234375,-0.1539306640625
1773148846340637700,9.7136376953125,0.0596160888671875,0.937652587890625,-0.1900787353515625
1773148846350674700,9.7236748046875,0.0215911865234375,0.927093505859375,-0.2388458251953125
1773148846360712000,9.7337119140625,-0.037261962890625,0.9271392822265625,-0.2757720947265625
1773148846370748700,9.743748779296874,-0.0897369384765625,0.95361328125,-0.3106536865234375
1773148846380785700,9.75378564453125,-0.0963287353515625,1.014129638671875,-0.29449462890625
1773148846390822700,9.76382275390625,-0.0789031982421875,1.0430450439453125,-0.26055908203125
1773148846400860000,9.77385986328125,-0.075836181640625,1.0288238525390625,-0.232452392578125
1773148846410896000,9.783895751953125,-0.08294677734375,1.0049591064453125,-0.220367431640625
1773148846420932900,9.793932861328125,-0.1005859375,1.0106964111328125,-0.217926025390625
1773148846430969600,9.803969482421875,-0.1157379150390625,1.0423736572265625,-0.217620849609375
1773148846441006600,9.814006591796876,-0.1335601806640625,1.095428466796875,-0.2454681396484375
1773148846451043800,9.8240439453125,-0.1600189208984375,1.1609954833984375,-0.294586181640625
1773148846461080800,9.834080810546874,-0.2119903564453125,1.208221435546875,-0.3441162109375
1773148846471117800,9.844117919921874,-0.28753662109375,1.2302398681640625,-0.387786865234375
1773148846481153800,9.85415380859375,-0.3760223388671875,1.231475830078125,-0.3802490234375
1773148846491190800,9.864190673828125,-0.4546356201171875,1.211181640625,-0.32958984375
1773148846501227800,9.874227783203125,-0.4565277099609375,1.146392822265625,-0.274169921875
1773148846511264800,9.8842646484375,-0.420806884765625,1.060791015625,-0.2073822021484375
1773148846521301800,9.8943017578125,-0.37579345703125,0.98529052734375,-0.17437744140625
1773148846531338800,9.9043388671875,-0.3441009521484375,0.9240570068359375,-0.1447601318359375
1773148846541375700,9.914375732421876,-0.3094024658203125,0.8565216064453125,-0.100555419921875
1773148846551412700,9.924412841796874,-0.259552001953125,0.7724609375,-0.0376434326171875
1773148846561448700,9.93444873046875,-0.2268829345703125,0.695770263671875,0.0216064453125
1773148846571485700,9.944485595703124,-0.220977783203125,0.6514434814453125,0.0669708251953125
1773148846581522700,9.954522705078125,-0.21832275390625,0.6461639404296875,0.0996856689453125
1773148846591559700,9.9645595703125,-0.214630126953125,0.67462158203125,0.138397216796875
1773148846601597000,9.974596923828125,-0.215179443359375,0.7064208984375,0.1922607421875
1773148846611633700,9.984633544921875,-0.2310638427734375,0.7230682373046875,0.257080078125
1773148846621670700,9.994670654296876,-0.24945068359375,0.7218017578125,0.319183349609375
1773148846631707600,10.004707763671876,-0.2595367431640625,0.7177276611328125,0.3554229736328125
1773148846641743600,10.01474365234375,-0.261627197265625,0.7172698974609375,0.3393707275390625
1773148846651780900,10.02478076171875,-0.273712158203125,0.7547149658203125,0.2630767822265625
1773148846661817000,10.034817138671874,-0.2447662353515625,0.869415283203125,0.128326416015625
1773148846671854000,10.04485400390625,-0.2125244140625,1.0045928955078125,0.009368896484375
1773148846681891000,10.05489111328125,-0.2372589111328125,1.0760498046875,-0.061065673828125
1773148846691927800,10.064927734375,-0.303314208984375,1.079742431640625,-0.1117706298828125
1773148846701965000,10.074965087890625,-0.4088592529296875,1.087799072265625,-0.182708740234375
1773148846712002000,10.085001953125,-0.530059814453125,0.986663818359375,-0.2903594970703125
1773148846722038000,10.0950380859375,-0.6307525634765625,0.7787933349609375,-0.3829803466796875
1773148846732075000,10.105074951171876,-0.635772705078125,0.5855560302734375,-0.4444732666015625
1773148846742112000,10.115112060546876,-0.525238037109375,0.4818878173828125,-0.4886016845703125
1773148846752149000,10.12514892578125,-0.3345947265625,0.483642578125,-0.499267578125
1773148846762186000,10.13518603515625,-0.15130615234375,0.5555419921875,-0.489715576171875
1773148846772223000,10.145222900390625,-0.0403594970703125,0.63128662109375,-0.465789794921875
1773148846782260000,10.155260009765625,-0.023284912109375,0.6487579345703125,-0.47698974609375
1773148846792296000,10.1652958984375,-0.0457305908203125,0.653106689453125,-0.4334869384765625
1773148846802333200,10.175333251953125,-0.07855224609375,0.7037200927734375,-0.3169403076171875
1773148846812370200,10.1853701171875,-0.1384124755859375,0.81500244140625,-0.2150726318359375
1773148846822407000,10.195406982421876,-0.2335662841796875,0.9810791015625,-0.130523681640625
1773148846832444000,10.20544384765625,-0.3418121337890625,1.1726226806640625,-0.04364013671875
1773148846842481200,10.215481201171874,-0.44268798828125,1.3464202880859375,0.0540618896484375
1773148846852518100,10.22551806640625,-0.531585693359375,1.4865570068359375,0.136993408203125
1773148846862555100,10.23555517578125,-0.59197998046875,1.567413330078125,0.188232421875
1773148846872591000,10.245591064453125,-0.5682220458984375,1.60211181640625,0.1900634765625
1773148846882627800,10.2556279296875,-0.4373931884765625,1.5739593505859375,0.16522216796875
1773148846892665000,10.2656650390625,-0.3331451416015625,1.428070068359375,0.124420166015625
1773148846902702000,10.2757021484375,-0.3251495361328125,1.27740478515625,0.0514068603515625
1773148846912739000,10.285739013671876,-0.3736114501953125,1.160980224609375,-0.0860748291015625
1773148846922776000,10.295776123046876,-0.443389892578125,1.0652923583984375,-0.2442626953125
1773148846932813000,10.30581298828125,-0.4587249755859375,0.971038818359375,-0.35589599609375
1773148846942850000,10.31585009765625,-0.3888092041015625,0.8560333251953125,-0.3861846923828125
1773148846952886000,10.325885986328124,-0.263336181640625,0.74517822265625,-0.3602142333984375
1773148846962923000,10.335923095703125,-0.1229095458984375,0.6555328369140625,-0.3250732421875
1773148846972960000,10.3459599609375,-0.0190277099609375,0.61541748046875,-0.27813720703125
1773148846982997000,10.3559970703125,0.04443359375,0.6349334716796875,-0.21826171875
1773148846993034200,10.3660341796875,0.0824127197265625,0.71343994140625,-0.153472900390625
1773148847003071000,10.376071044921876,0.09375,0.8309783935546875,-0.088714599609375
1773148847013108000,10.38610791015625,0.0806884765625,0.9630584716796875,-0.0315704345703125
1773148847023144000,10.39614404296875,0.0531463623046875,1.076812744140625,0.0190887451171875
1773148847033181000,10.406180908203124,0.021636962890625,1.144927978515625,0.0697174072265625
1773148847043218200,10.41621826171875,0.00396728515625,1.1622314453125,0.1060333251953125
1773148847053255200,10.426255126953125,-0.003692626953125,1.13995361328125,0.1205291748046875
1773148847063292000,10.4362919921875,-0.0164794921875,1.099578857421875,0.1132354736328125
1773148847073329000,10.446328857421875,-0.05255126953125,1.052093505859375,0.0717315673828125
1773148847083366000,10.456365966796875,-0.0967559814453125,1.0400238037109375,0.018707275390625
1773148847093403100,10.466403076171876,-0.151092529296875,1.052398681640625,-0.0384979248046875
1773148847103439000,10.476439208984376,-0.2027740478515625,1.0603179931640625,-0.1108551025390625
1773148847113476000,10.48647607421875,-0.232269287109375,1.0671234130859375,-0.189727783203125
1773148847123513000,10.49651318359375,-0.2219696044921875,1.0680999755859375,-0.245391845703125
1773148847133549800,10.5065498046875,-0.1734161376953125,1.086639404296875,-0.2798004150390625
1773148847143587000,10.516587158203125,-0.096771240234375,1.1081085205078125,-0.3006439208984375
1773148847153624000,10.5266240234375,-0.0009002685546875,1.107208251953125,-0.2963714599609375
1773148847163661000,10.5366611328125,0.106170654296875,1.0951995849609375,-0.2870330810546875
1773148847173697000,10.546697021484375,0.2284393310546875,1.0563507080078125,-0.2418670654296875
1773148847183734000,10.556734130859375,0.31536865234375,1.0009765625,-0.1565093994140625
1773148847193771000,10.56677099609375,0.3581085205078125,0.9465789794921875,-0.0783843994140625
1773148847203808000,10.57680810546875,0.3866119384765625,0.88568115234375,-0.0231781005859375
1773148847213845000,10.586844970703124,0.3890380859375,0.846832275390625,0.0126190185546875
1773148847223882000,10.596882080078124,0.35601806640625,0.8565216064453125,0.0295257568359375
1773148847233919200,10.606919189453125,0.311004638671875,0.9009246826171875,0.0314788818359375
1773148847243956000,10.6169560546875,0.2471923828125,0.9366302490234375,0.021575927734375
1773148847253992200,10.6269921875,0.1617889404296875,0.95928955078125,0.003570556640625
1773148847264029000,10.63702880859375,0.0700225830078125,0.9873504638671875,-0.0263519287109375
1773148847274066000,10.64706591796875,-0.028411865234375,1.0127410888671875,-0.07110595703125
1773148847284103000,10.65710302734375,-0.120941162109375,1.03857421875,-0.126129150390625
1773148847294140200,10.66714013671875,-0.1909942626953125,1.0554656982421875,-0.17767333984375
1773148847304177200,10.67717724609375,-0.242523193359375,1.0508880615234375,-0.2181396484375
1773148847314214000,10.6872138671875,-0.26300048828125,1.0236663818359375,-0.2483978271484375
1773148847324249900,10.697249755859374,-0.24237060546875,0.99432373046875,-0.2671661376953125
1773148847334286800,10.707286865234375,-0.184112548828125,0.9723968505859375,-0.273529052734375
1773148847344324000,10.717323974609375,-0.1033935546875,0.95361328125,-0.2540283203125
1773148847354361000,10.727361083984375,-0.0446014404296875,0.9394989013671875,-0.220001220703125
1773148847364398000,10.737398193359375,-0.0271453857421875,0.9445953369140625,-0.193634033203125
1773148847374435000,10.74743505859375,-0.05224609375,0.9610443115234375,-0.16680908203125
1773148847384472000,10.75747216796875,-0.0840606689453125,0.9881744384765625,-0.1383209228515625
1773148847394509000,10.767509033203124,-0.11627197265625,1.029327392578125,-0.10162353515625
1773148847404545000,10.777544921875,-0.158782958984375,1.08367919921875,-0.0571441650390625
1773148847414582000,10.78758203125,-0.203704833984375,1.128204345703125,-0.0000152587890625
1773148847424619000,10.797618896484375,-0.22314453125,1.1601715087890625,0.0657501220703125
1773148847434656300,10.80765625,-0.2068328857421875,1.14208984375,0.13372802734375
1773148847444693000,10.81769287109375,-0.1855316162109375,1.0621337890625,0.1877288818359375
1773148847454730000,10.82772998046875,-0.180755615234375,0.9398193359375,0.1938934326171875
1773148847464767000,10.83776708984375,-0.1429290771484375,0.847930908203125,0.1255035400390625
1773148847474803000,10.847802978515626,-0.076507568359375,0.8257293701171875,0.014495849609375
1773148847484840000,10.85783984375,-0.0322265625,0.8456573486328125,-0.1014556884765625
1773148847494877200,10.867877197265624,-0.0243988037109375,0.879119873046875,-0.205841064453125
1773148847504914000,10.877913818359374,-0.059051513671875,0.9136199951171875,-0.2920379638671875
1773148847514951000,10.887950927734375,-0.145660400390625,0.955718994140625,-0.370819091796875
1773148847524988000,10.89798779296875,-0.234283447265625,1.01446533203125,-0.4507293701171875
1773148847535025200,10.908025146484375,-0.265045166015625,1.0511627197265625,-0.509185791015625
1773148847545062100,10.918062255859375,-0.2438507080078125,1.039276123046875,-0.5059661865234375
1773148847555098000,10.92809814453125,-0.2056427001953125,0.9824676513671875,-0.4464569091796875
1773148847565135000,10.938135009765626,-0.1801300048828125,0.9470062255859375,-0.3731842041015625
1773148847575171800,10.948171875,-0.1691131591796875,0.951812744140625,-0.3165435791015625
1773148847585209000,10.958208984375,-0.176422119140625,0.9656982421875,-0.270416259765625
1773148847595246000,10.96824609375,-0.2010040283203125,0.980560302734375,-0.2335357666015625
1773148847605283000,10.978282958984375,-0.2253875732421875,0.99615478515625,-0.2123565673828125
1773148847615320000,10.988320068359375,-0.232513427734375,1.0009307861328125,-0.1912841796875
1773148847625356000,10.99835595703125,-0.2247772216796875,0.9939727783203125,-0.164459228515625
1773148847635393000,11.00839306640625,-0.20172119140625,0.9775543212890625,-0.13812255859375
1773148847645430000,11.018429931640625,-0.1732177734375,0.96209716796875,-0.121063232421875
1773148847655467000,11.028467041015626,-0.143096923828125,0.95550537109375,-0.12042236328125
1773148847665504500,11.03850439453125,-0.1121826171875,0.9539794921875,-0.112823486328125
1773148847675541500,11.04854150390625,-0.0984954833984375,0.9517669677734375,-0.092193603515625
1773148847685578200,11.058578125,-0.1016845703125,0.94378662109375,-0.0714263916015625
1773148847695615200,11.068615234375,-0.11083984375,0.9349212646484375,-0.0564117431640625
1773148847705651500,11.0786513671875,-0.1273040771484375,0.9282073974609375,-0.0503387451171875
1773148847715688400,11.0886884765625,-0.1453094482421875,0.9207000732421875,-0.051727294921875
1773148847725725400,11.098725341796875,-0.169189453125,0.92108154296875,-0.08544921875
1773148847735762400,11.108762451171875,-0.2066650390625,0.9403076171875,-0.15008544921875
1773148847745799400,11.11879931640625,-0.253814697265625,0.962890625,-0.2017364501953125
1773148847755836400,11.12883642578125,-0.2927093505859375,0.9767303466796875,-0.217254638671875
1773148847765873400,11.138873291015624,-0.3131103515625,0.98516845703125,-0.2139892578125
1773148847775909400,11.148909423828124,-0.291595458984375,0.9776611328125,-0.198089599609375
1773148847785946400,11.1589462890625,-0.2257537841796875,0.98004150390625,-0.2014007568359375
1773148847795983400,11.1689833984375,-0.1691436767578125,0.986083984375,-0.201995849609375
1773148847806020600,11.1790205078125,-0.1419830322265625,0.95928955078125,-0.182830810546875
1773148847816057300,11.189057373046875,-0.1603240966796875,0.9058837890625,-0.1624908447265625
1773148847826094300,11.19909423828125,-0.185577392578125,0.887359619140625,-0.1342926025390625
1773148847836131300,11.20913134765625,-0.2158203125,0.890594482421875,-0.124847412109375
1773148847846168600,11.21916845703125,-0.2474822998046875,0.9182891845703125,-0.1280364990234375
1773148847856204500,11.22920458984375,-0.273834228515625,0.9330902099609375,-0.137725830078125
1773148847866241500,11.239241455078124,-0.290618896484375,0.8799896240234375,-0.1282958984375
1773148847876278500,11.249278564453125,-0.297637939453125,0.8397674560546875,-0.0726470947265625
1773148847886315300,11.259315185546875,-0.3174896240234375,0.8199005126953125,-0.0269927978515625
1773148847896352300,11.269352294921875,-0.332244873046875,0.822967529296875,-0.01922607421875
1773148847906389500,11.279389404296875,-0.302520751953125,0.84124755859375,-0.0083465576171875
1773148847916426500,11.289426513671875,-0.2565460205078125,0.8525543212890625,0.0088958740234375
1773148847926462500,11.29946240234375,-0.2021942138671875,0.8413848876953125,-0.00225830078125
1773148847936499500,11.30949951171875,-0.2148895263671875,0.80267333984375,-0.0160980224609375
1773148847946536200,11.3195361328125,-0.230255126953125,0.778350830078125,0.0149688720703125
1773148847956573400,11.329573486328124,-0.26153564453125,0.7680511474609375,0.0500946044921875
1773148847966610400,11.3396103515625,-0.2865447998046875,0.7909698486328125,0.0475616455078125
1773148847976647400,11.3496474609375,-0.2972869873046875,0.826629638671875,0.0317840576171875
1773148847986684400,11.359684326171875,-0.2700347900390625,0.8702392578125,0.0499114990234375
1773148847996721400,11.369721435546875,-0.2158660888671875,0.8916473388671875,0.098785400390625
1773148848006757400,11.37975732421875,-0.2201385498046875,0.8978424072265625,0.099578857421875
1773148848016794400,11.38979443359375,-0.2771453857421875,0.8914794921875,0.0725555419921875
1773148848026831400,11.399831298828126,-0.305206298828125,0.9062347412109375,0.0373077392578125
1773148848036867300,11.409867431640626,-0.2760162353515625,0.9005584716796875,0.05126953125
1773148848046904300,11.419904296875,-0.279388427734375,0.844757080078125,0.0611419677734375
1773148848056941600,11.429941650390624,-0.2957916259765625,0.8228912353515625,0.09967041015625
1773148848066978600,11.439978515625,-0.3170013427734375,0.8137969970703125,0.0971221923828125
1773148848077015300,11.450015380859375,-0.296905517578125,0.8087615966796875,0.0607147216796875
1773148848087052300,11.46005224609375,-0.251007080078125,0.8420867919921875,0.071014404296875
1773148848097089300,11.47008935546875,-0.279144287109375,0.8360595703125,0.089996337890625
1773148848107125500,11.48012548828125,-0.3643798828125,0.79315185546875,0.07293701171875
1773148848117162500,11.49016259765625,-0.4012298583984375,0.7513275146484375,0.0300750732421875
1773148848127199500,11.500199462890626,-0.311065673828125,0.728240966796875,0.0318145751953125
1773148848137236500,11.510236572265624,-0.2021942138671875,0.76629638671875,0.07177734375
1773148848147273200,11.520273193359374,-0.1761016845703125,0.830169677734375,0.0934600830078125
1773148848157310500,11.530310546875,-0.265228271484375,0.8763427734375,0.1176605224609375
1773148848167347500,11.540347412109375,-0.464508056640625,0.8985443115234375,0.1337738037109375
1773148848177383400,11.550383544921875,-0.5540924072265625,0.8887786865234375,0.110595703125
1773148848187420400,11.56042041015625,-0.430084228515625,0.9239959716796875,0.1345672607421875
1773148848197457400,11.57045751953125,-0.2571563720703125,0.9372711181640625,0.1988983154296875
1773148848207494400,11.580494384765625,-0.260772705078125,0.8234100341796875,0.1923980712890625
1773148848217531400,11.590531494140626,-0.3546295166015625,0.7552490234375,0.218780517578125
1773148848227568400,11.600568359375,-0.4449462890625,0.7969970703125,0.2314910888671875
1773148848237605400,11.61060546875,-0.469482421875,0.823577880859375,0.2210235595703125
1773148848247642600,11.620642578125,-0.349578857421875,0.8576812744140625,0.2400360107421875
1773148848257678600,11.6306787109375,-0.3687591552734375,0.8502655029296875,0.2330322265625
1773148848267715300,11.64071533203125,-0.419891357421875,0.7352447509765625,0.2196502685546875
1773148848277752300,11.65075244140625,-0.4320068359375,0.688934326171875,0.2603607177734375
1773148848287789300,11.660789306640625,-0.4566802978515625,0.7583160400390625,0.28271484375
1773148848297826300,11.670826416015625,-0.4950103759765625,0.7814788818359375,0.2565155029296875
1773148848307863600,11.680863525390626,-0.4890289306640625,0.8427276611328125,0.23974609375
1773148848317900500,11.690900634765624,-0.419219970703125,0.858184814453125,0.247039794921875
1773148848327936500,11.7009365234375,-0.5262451171875,0.7660980224609375,0.2411041259765625
1773148848337973200,11.71097314453125,-0.60968017578125,0.754547119140625,0.273101806640625
1773148848348010200,11.72101025390625,-0.536346435546875,0.7961578369140625,0.292327880859375
1773148848358048500,11.731048583984375,-0.4722747802734375,0.8134918212890625,0.300872802734375
1773148848368085500,11.74108544921875,-0.4893951416015625,0.8660430908203125,0.3109130859375
1773148848378122200,11.751122314453125,-0.57489013671875,0.8926239013671875,0.350006103515625
1773148848388159500,11.761159423828126,-0.6436309814453125,0.808990478515625,0.4017791748046875
1773148848398196500,11.771196533203126,-0.58245849609375,0.7921142578125,0.4306640625
1773148848408233500,11.7812333984375,-0.5199737548828125,0.76202392578125,0.375579833984375
1773148848418269400,11.79126953125,-0.5401458740234375,0.7914886474609375,0.3290252685546875
1773148848428306400,11.801306396484375,-0.61865234375,0.7853240966796875,0.330413818359375
1773148848438343200,11.81134326171875,-0.601898193359375,0.768951416015625,0.359954833984375
1773148848448380400,11.82138037109375,-0.612274169921875,0.7722625732421875,0.3486785888671875
1773148848458417400,11.83141748046875,-0.6045074462890625,0.8133697509765625,0.345458984375
1773148848468454400,11.841454345703125,-0.6460723876953125,0.8409576416015625,0.352630615234375
1773148848478491400,11.851491455078126,-0.697540283203125,0.84552001953125,0.3748931884765625
1773148848488527400,11.86152734375,-0.6994781494140625,0.80389404296875,0.42388916015625
1773148848498564600,11.871564697265624,-0.7104339599609375,0.7809600830078125,0.415313720703125
1773148848508601300,11.881601318359374,-0.7319488525390625,0.8115692138671875,0.4158477783203125
1773148848518638300,11.891638427734375,-0.7209320068359375,0.7654876708984375,0.5094451904296875
1773148848528675300,11.90167529296875,-0.7260284423828125,0.691009521484375,0.5791168212890625
1773148848538712600,11.911712646484375,-0.6952667236328125,0.64068603515625,0.5359344482421875
1773148848548749600,11.92174951171875,-0.6935882568359375,0.610382080078125,0.49224853515625
1773148848558786300,11.931786376953125,-0.7330780029296875,0.6111602783203125,0.4683990478515625
1773148848568822300,11.941822265625,-0.7502593994140625,0.58660888671875,0.4262847900390625
1773148848578859300,11.951859375,-0.7445526123046875,0.5851287841796875,0.4118804931640625
1773148848588896500,11.961896484375,-0.7039794921875,0.575164794921875,0.4035797119140625
1773148848598933500,11.97193359375,-0.64764404296875,0.5647735595703125,0.4710693359375
1773148848608970500,11.981970458984375,-0.682708740234375,0.5670928955078125,0.519744873046875
1773148848619007200,11.99200732421875,-0.712921142578125,0.503265380859375,0.5372772216796875
1773148848629044200,12.002044189453125,-0.728424072265625,0.528564453125,0.507843017578125
1773148848639080200,12.012080078125,-0.7673187255859375,0.5524444580078125,0.48614501953125
1773148848649117400,12.022117431640625,-0.854278564453125,0.53607177734375,0.49761962890625
1773148848659158500,12.032158447265624,-0.7703857421875,0.5206451416015625,0.5165252685546875
1773148848669195500,12.042195556640625,-0.683380126953125,0.49127197265625,0.5650634765625
1773148848679232300,12.052232177734375,-0.709564208984375,0.4573211669921875,0.62060546875
1773148848689269200,12.062269287109375,-0.7594451904296875,0.4374847412109375,0.6677398681640625
1773148848699306200,12.07230615234375,-0.7539520263671875,0.474945068359375,0.642425537109375
1773148848709343500,12.082343505859376,-0.7713470458984375,0.5136566162109375,0.6143951416015625
1773148848719379500,12.09237939453125,-0.7998199462890625,0.5499267578125,0.5262908935546875
1773148848729416400,12.10241650390625,-0.838409423828125,0.53662109375,0.475982666015625
1773148848739453400,12.112453369140624,-0.661041259765625,0.4842987060546875,0.420135498046875
1773148848749490200,12.122490234375,-0.693206787109375,0.40496826171875,0.51165771484375
1773148848759527400,12.13252734375,-0.8260498046875,0.3732147216796875,0.6075286865234375
1773148848769564400,12.142564453125,-0.76544189453125,0.3856964111328125,0.6623077392578125
1773148848779601400,12.152601318359375,-0.8008575439453125,0.449432373046875,0.6679534912109375
1773148848789637400,12.162637451171875,-0.8578338623046875,0.5088958740234375,0.6719818115234375
1773148848799674400,12.17267431640625,-0.8486480712890625,0.5582427978515625,0.6055450439453125
1773148848809711400,12.18271142578125,-0.871856689453125,0.561492919921875,0.4821014404296875
1773148848819748400,12.192748291015626,-0.8060302734375,0.5065155029296875,0.460540771484375
1773148848829785300,12.202785400390624,-0.7372283935546875,0.432708740234375,0.507476806640625
1773148848839822300,12.212822265625,-0.776824951171875,0.3646392822265625,0.639495849609375
1773148848849859600,12.222859619140625,-0.8246002197265625,0.3443145751953125,0.7296600341796875
1773148848859895600,12.2328955078125,-0.8481597900390625,0.375244140625,0.72833251953125
1773148848869932300,12.242932373046875,-0.80224609375,0.42340087890625,0.721588134765625
1773148848879969300,12.25296923828125,-0.821563720703125,0.4721527099609375,0.6103057861328125
1773148848890006300,12.26300634765625,-0.832427978515625,0.4486083984375,0.525482177734375
1773148848900043300,12.273043212890625,-0.783721923828125,0.382415771484375,0.473907470703125
1773148848910080500,12.28308056640625,-0.7683258056640625,0.31494140625,0.5193939208984375
1773148848920117500,12.293117431640624,-0.789764404296875,0.29364013671875,0.57244873046875
1773148848930154200,12.303154296875,-0.795806884765625,0.30072021484375,0.5915069580078125
1773148848940190200,12.313190185546874,-0.787811279296875,0.3444671630859375,0.6085968017578125
1773148848950227200,12.323227294921875,-0.84112548828125,0.399505615234375,0.6015625
1773148848960264400,12.333264404296875,-0.843170166015625,0.4275665283203125,0.5880126953125
1773148848970301400,12.343301513671875,-0.846221923828125,0.4551544189453125,0.5565643310546875
1773148848980338400,12.35333837890625,-0.8488616943359375,0.4483642578125,0.5622711181640625
1773148848990375200,12.363375244140625,-0.79022216796875,0.38916015625,0.6004180908203125
1773148849000412400,12.373412353515626,-0.815185546875,0.324859619140625,0.6318206787109375
1773148849010448400,12.383448486328126,-0.8179931640625,0.2957000732421875,0.6241912841796875
1773148849020485400,12.3934853515625,-0.7895660400390625,0.307342529296875,0.622467041015625
1773148849030522400,12.4035224609375,-0.8147430419921875,0.361907958984375,0.564422607421875
1773148849040559400,12.413559326171875,-0.801055908203125,0.387725830078125,0.5184173583984375
1773148849050596400,12.423596435546875,-0.78936767578125,0.3639984130859375,0.478485107421875
1773148849060633300,12.43363330078125,-0.7636260986328125,0.3140411376953125,0.499176025390625
1773148849070670300,12.44367041015625,-0.7645416259765625,0.3006134033203125,0.56854248046875
1773148849080707300,12.453707275390625,-0.787628173828125,0.3196868896484375,0.6020965576171875
1773148849090743300,12.463743408203126,-0.80792236328125,0.340789794921875,0.6478118896484375
1773148849100780300,12.4737802734375,-0.802337646484375,0.383453369140625,0.6210174560546875
1773148849110817500,12.483817626953124,-0.7972259521484375,0.3836822509765625,0.5647735595703125
1773148849120854300,12.493854248046874,-0.7767791748046875,0.3677825927734375,0.58441162109375
1773148849130891300,12.503891357421875,-0.819976806640625,0.3681182861328125,0.6198577880859375
1773148849140928300,12.51392822265625,-0.8349761962890625,0.3718414306640625,0.630584716796875
1773148849150965500,12.523965576171875,-0.7921142578125,0.36279296875,0.6472015380859375
1773148849161001500,12.53400146484375,-0.807098388671875,0.366973876953125,0.6301727294921875
1773148849171038500,12.54403857421875,-0.8046875,0.3793792724609375,0.585052490234375
1773148849181075500,12.554075439453126,-0.796112060546875,0.392303466796875,0.5682830810546875
1773148849191112200,12.5641123046875,-0.814910888671875,0.386749267578125,0.580780029296875
1773148849201149400,12.5741494140625,-0.7985382080078125,0.3688507080078125,0.576324462890625
1773148849211186400,12.5841865234375,-0.8152923583984375,0.3704376220703125,0.5847320556640625
1773148849221223400,12.594223388671875,-0.8583831787109375,0.374267578125,0.624237060546875
1773148849231259400,12.60425927734375,-0.8601531982421875,0.376556396484375,0.6389923095703125
1773148849241296400,12.61429638671875,-0.8524932861328125,0.387054443359375,0.68402099609375
1773148849251333400,12.62433349609375,-0.8491668701171875,0.4229888916015625,0.73828125
1773148849261370400,12.634370361328125,-0.9119720458984375,0.4873046875,0.683135986328125
1773148849271407400,12.644407470703126,-0.87030029296875,0.503997802734375,0.6458892822265625
1773148849281444400,12.6544443359375,-0.8561248779296875,0.4797821044921875,0.61065673828125
1773148849291481300,12.6644814453125,-0.864288330078125,0.443939208984375,0.5406646728515625
1773148849301518300,12.674518310546874,-0.794677734375,0.3948974609375,0.544525146484375
1773148849311554300,12.68455419921875,-0.80426025390625,0.37347412109375,0.555267333984375
1773148849321591300,12.69459130859375,-0.8008270263671875,0.3996124267578125,0.5754547119140625
1773148849331628300,12.704628173828125,-0.78131103515625,0.4415435791015625,0.65753173828125
1773148849341665300,12.714665283203125,-0.843994140625,0.45147705078125,0.6596527099609375
1773148849351702500,12.72470263671875,-0.8013916015625,0.4747467041015625,0.6568450927734375
1773148849361739500,12.734739501953126,-0.8009490966796875,0.4668121337890625,0.61285400390625
1773148849371776300,12.7447763671875,-0.7816162109375,0.45733642578125,0.594940185546875
1773148849381812200,12.754812255859376,-0.7628021240234375,0.4555206298828125,0.582000732421875
1773148849391849200,12.76484912109375,-0.7223968505859375,0.4312744140625,0.556121826171875
1773148849401886500,12.774886474609374,-0.745574951171875,0.4275054931640625,0.5736083984375
1773148849411923500,12.78492333984375,-0.765106201171875,0.4471435546875,0.5620269775390625
1773148849421960400,12.79496044921875,-0.7161102294921875,0.45684814453125,0.5331573486328125
1773148849431997200,12.8049970703125,-0.762237548828125,0.455718994140625,0.4962921142578125
1773148849442034200,12.8150341796875,-0.7953338623046875,0.448974609375,0.45428466796875
1773148849452071400,12.825071533203126,-0.7577056884765625,0.433502197265625,0.44195556640625
1773148849462107400,12.835107421875,-0.7430267333984375,0.4313201904296875,0.4715728759765625
1773148849472144400,12.845144287109376,-0.74755859375,0.4419403076171875,0.5217437744140625
1773148849482181400,12.855181396484374,-0.7608795166015625,0.45037841796875,0.55316162109375
1773148849492218400,12.86521826171875,-0.7889404296875,0.4626922607421875,0.53558349609375
1773148849502255400,12.87525537109375,-0.7702789306640625,0.473541259765625,0.4964141845703125
1773148849512292400,12.885292236328125,-0.7741851806640625,0.495819091796875,0.4521942138671875
1773148849522329300,12.895329345703125,-0.772705078125,0.5219879150390625,0.42144775390625
1773148849532365300,12.905365234375,-0.7393035888671875,0.5313720703125,0.40277099609375
1773148849542402300,12.91540234375,-0.7980499267578125,0.5306396484375,0.4170379638671875
1773148849552439600,12.925439453125,-0.8015899658203125,0.5303802490234375,0.4316558837890625
1773148849562476300,12.935476318359376,-0.7562255859375,0.544158935546875,0.418609619140625
1773148849572513300,12.94551318359375,-0.7455902099609375,0.5548858642578125,0.4223785400390625
1773148849582550300,12.95555029296875,-0.7375640869140625,0.562408447265625,0.4210205078125
1773148849592587500,12.96558740234375,-0.7247314453125,0.566925048828125,0.4201507568359375
1773148849602623500,12.97562353515625,-0.7752685546875,0.56005859375,0.3946533203125
1773148849612660500,12.985660400390625,-0.7704620361328125,0.551422119140625,0.334014892578125
1773148849622697500,12.995697509765625,-0.692352294921875,0.56982421875,0.3758087158203125
1773148849632734200,13.005734130859375,-0.690643310546875,0.6004791259765625,0.35150146484375
1773148849642771200,13.015771240234375,-0.7156219482421875,0.62225341796875,0.31781005859375
1773148849652808400,13.025808349609376,-0.69281005859375,0.636688232421875,0.321563720703125
1773148849662845400,13.035845458984374,-0.7198638916015625,0.6591796875,0.3266143798828125
1773148849672882400,13.04588232421875,-0.7212677001953125,0.6610107421875,0.338409423828125
1773148849682918700,13.055918701171874,-0.676788330078125,0.63653564453125,0.3370208740234375
1773148849692955400,13.065955322265625,-0.704620361328125,0.66064453125,0.3689727783203125
1773148849702992400,13.075992431640625,-0.6461334228515625,0.6800079345703125,0.3781890869140625
1773148849713029400,13.086029296875,-0.550384521484375,0.69732666015625,0.36639404296875
1773148849723066600,13.096066650390625,-0.5902252197265625,0.7329254150390625,0.38385009765625
1773148849733103600,13.106103515625,-0.689300537109375,0.7627410888671875,0.39801025390625
1773148849743140400,13.116140380859376,-0.722625732421875,0.7387542724609375,0.3875732421875
1773148849753176600,13.126176513671876,-0.6376190185546875,0.7033843994140625,0.3863372802734375
1773148849763213300,13.13621337890625,-0.489501953125,0.70391845703125,0.3825836181640625
1773148849773250600,13.14625048828125,-0.530426025390625,0.735687255859375,0.384368896484375
1773148849783287600,13.15628759765625,-0.642791748046875,0.769744873046875,0.3822479248046875
1773148849793324500,13.166324462890625,-0.6561279296875,0.7643585205078125,0.33868408203125
1773148849803361500,13.176361572265625,-0.5887451171875,0.7564239501953125,0.3063507080078125
1773148849813398500,13.1863984375,-0.5228271484375,0.774871826171875,0.2973175048828125
1773148849823434500,13.1964345703125,-0.55120849609375,0.7967071533203125,0.32080078125
1773148849833471500,13.206471435546876,-0.6142425537109375,0.802520751953125,0.3372344970703125
1773148849843508500,13.216508544921876,-0.6132965087890625,0.8011016845703125,0.327178955078125
1773148849853545500,13.22654541015625,-0.555267333984375,0.805419921875,0.324188232421875
1773148849863582500,13.23658251953125,-0.4960174560546875,0.8131103515625,0.3292999267578125
1773148849873619500,13.246619384765625,-0.5016326904296875,0.843536376953125,0.31927490234375
1773148849883656400,13.256656494140625,-0.5547027587890625,0.863616943359375,0.3062286376953125
1773148849893693400,13.266693359375,-0.523773193359375,0.8490753173828125,0.2921142578125
