time,seconds_elapsed,z,y,x
1773148836927323400,0.300323486328125,-9.640005731859803,-1.7494132255554198,0.42452480447590346
1773148836937360400,0.3103603515625,-9.626497430989145,-1.8071055360674857,0.4850762672787532
1773148836947397400,0.3203974609375,-9.611048517444729,-1.8726874307855963,0.5396041589431464
1773148836957434400,0.330434326171875,-9.595376316538452,-1.9389858032099903,0.5826388524189591
1773148836967471400,0.340471435546875,-9.582863456445931,-1.9913084033824502,0.6113980600439012
1773148836977507300,0.35050732421875,-9.578439210262895,-2.0108669442027804,0.616687398623675
1773148836987544300,0.36054443359375,-9.586323241510987,-1.9828134006291627,0.5841548830050974
1773148836997581600,0.37058154296875,-9.606311552050709,-1.9035316279910504,0.5154913523519411
1773148837007618300,0.380618408203125,-9.633621583780645,-1.7833173948533831,0.4283661727370694
1773148837017655300,0.3906552734375,-9.661501524353026,-1.6437850055225192,0.3517774385752156
1773148837027691300,0.400691162109375,-9.684426472866535,-1.5121389855273066,0.30936778166256845
1773148837037728300,0.410728271484375,-9.699545131543278,-1.4110354033119976,0.3133481200030073
1773148837047765500,0.420765625,-9.705811790722608,-1.3534377853460609,0.3685277535744011
1773148837057802500,0.430802490234375,-9.703074474713206,-1.3397019593298434,0.47531877030897884
1773148837067839500,0.440839599609375,-9.69133610612452,-1.3583075833395122,0.6351286258518696
1773148837077875500,0.45087548828125,-9.66897346766889,-1.3946388336539268,0.8580907012805342
1773148837087912400,0.460912353515625,-9.62963865162432,-1.4443014208368956,1.1638021523926407
1773148837097949400,0.470949462890625,-9.566188800498843,-1.5239565568320452,1.5283903014957905
1773148837107986400,0.480986328125,-9.470750988960265,-1.6433923529431222,1.9428133986741303
1773148837118023400,0.4910234375,-9.332335036438703,-1.8052096393182873,2.41228720581457
1773148837128059400,0.501059326171875,-9.139883542346954,-2.0090387058623134,2.9320100217238068
1773148837138096400,0.511096435546875,-8.883314088609815,-2.243914944837987,3.4959918122068045
1773148837148133600,0.521133544921875,-8.562218678948282,-2.491868253660202,4.080366110116243
1773148837158170400,0.53117041015625,-8.211259461420774,-2.7008877284541724,4.631501570768654
1773148837168207400,0.541207275390625,-7.86325558656752,-2.7973370551228522,5.149222837597131
1773148837178244400,0.551244384765625,-7.545155267068743,-2.784901059658825,5.611180423888563
1773148837188280300,0.5612802734375,-7.262849899050593,-2.697372998331487,6.012119770115613
1773148837198317300,0.5713173828125,-6.998522670793533,-2.568503165051341,6.371331852203607
1773148837208354600,0.5813544921875,-6.769293059402703,-2.4226591083556412,6.669166797786951
1773148837218391300,0.591391357421875,-6.6047764509409665,-2.264356259842217,6.88621848012805
1773148837228428300,0.60142822265625,-6.479661878541112,-2.0832000667467714,7.06007399482131
1773148837238464300,0.61146435546875,-6.385327059808373,-1.8777695563554764,7.202219781520962
1773148837248501200,0.621501220703125,-6.32470103393197,-1.6591829195320604,7.308602180922031
1773148837258538500,0.63153857421875,-6.311207930630445,-1.4371234920315443,7.367069567459821
1773148837268575500,0.641575439453125,-6.33637568963468,-1.2184561181221156,7.384855984041095
1773148837278612500,0.651612548828125,-6.366614760553836,-1.019273708340153,7.38902420963645
1773148837288648400,0.6616484375,-6.398069637003541,-0.8403069150477648,7.384373753482103
1773148837298685400,0.671685546875,-6.443339688315987,-0.6945569663763046,7.360118433147669
1773148837308722400,0.681722412109375,-6.496635809695721,-0.6430360379755496,7.317828274428844
1773148837318759400,0.691759521484375,-6.5597279334247105,-0.6924987186722457,7.25677613209486
1773148837328796400,0.70179638671875,-6.616477994650602,-0.7731625933185219,7.196861469358206
1773148837338833400,0.71183349609375,-6.656282181772589,-0.7911888100050389,7.158094224068522
1773148837348869400,0.721869384765625,-6.645217766922712,-0.739437068523094,7.173890343615413
1773148837358906600,0.73190673828125,-6.553115821808576,-0.6265835003465414,7.26873018926084
1773148837368943400,0.741943359375,-6.399255631917715,-0.47555919146873055,7.415777776527404
1773148837378980400,0.75198046875,-6.230134744530916,-0.31362507378086446,7.566865579095483
1773148837389017300,0.762017333984375,-6.0630818955898285,-0.15123832608782686,7.7062676200449465
1773148837399053300,0.77205322265625,-5.902261219036578,0.00905080829267681,7.831578591799736
1773148837409090600,0.782090576171875,-5.765861282512545,0.1622507824216038,7.930883600160479
1773148837419127600,0.79212744140625,-5.626467424869537,0.30287286668531593,8.026301537954806
1773148837429164300,0.802164306640625,-5.485569007882476,0.42694205821808423,8.117673415228724
1773148837439201300,0.812201171875,-5.379444382634759,0.5303762753380462,8.182337902840972
1773148837449237200,0.8222373046875,-5.3240293694049114,0.6177210525203496,8.212399863627553
1773148837459274200,0.832274169921875,-5.3010401234835385,0.6965969477713108,8.220955510526895
1773148837469311500,0.8423115234375,-5.30491608813405,0.7887065647352486,8.21012782704234
1773148837479348500,0.852348388671875,-5.307971968573331,0.9123062755927442,8.195334747058153
1773148837489385500,0.862385498046875,-5.286673744478821,1.0809155601955949,8.188594625148177
1773148837499422200,0.872422119140625,-5.225834952634573,1.2996823758915066,8.19584386562407
1773148837509458200,0.882458251953125,-5.111878318586945,1.5631209847457705,8.221662197491526
1773148837519495400,0.892495361328125,-4.955573658153415,1.863183981642127,8.254770101845263
1773148837529532400,0.902532470703125,-4.772469838121533,2.188934085241705,8.282662317377328
1773148837539569400,0.9125693359375,-4.594055344949663,2.5261267893537878,8.28756470246613
1773148837549606400,0.9226064453125,-4.458220348832011,2.8622046640917658,8.252419739326834
1773148837559642400,0.932642333984375,-4.378990744772553,3.1936466957226393,8.17284760544002
1773148837569679600,0.9426796875,-4.345698423762619,3.5284374532595275,8.052044466498494
1773148837579716400,0.95271630859375,-4.332963445352018,3.8774884990781544,7.896891898709535
1773148837589753300,0.96275341796875,-4.312348819607496,4.247305854071676,7.715856117123365
1773148837599790300,0.972790283203125,-4.2597228525742885,4.643341646166146,7.514289004161953
1773148837609827600,0.98282763671875,-4.1672836383298035,5.07309587572813,7.284767131826281
1773148837619863600,0.992863525390625,-4.028382532639801,5.541973616671562,7.0163412360787385
1773148837629900500,1.002900634765625,-3.853087340532243,6.029617432883382,6.705805214354395
1773148837639937300,1.012937255859375,-3.672093936783075,6.516174622902274,6.342364700916409
1773148837649971000,1.022970947265625,-3.5140056078031656,6.982313878792524,5.921946162715554
1773148837660008000,1.033008056640625,-3.379795874799788,7.397818925988673,5.479018271064758
1773148837670045000,1.043044921875,-3.2800092204019426,7.751157732129096,5.033038590627909
1773148837680081000,1.053080810546875,-3.2042923006385564,8.05229522638917,4.5894902289912105
1773148837690118000,1.063117919921875,-3.1084654897823927,8.309304240587354,4.178908317410945
1773148837700155100,1.073155029296875,-2.9625553821131585,8.526827632093429,3.8323438277110453
1773148837710191900,1.08319189453125,-2.763664794884622,8.712548941147327,3.5530291659414766
1773148837720228900,1.093228759765625,-2.5208567399963737,8.871277613857387,3.334079248763621
1773148837730264800,1.103264892578125,-2.241543685662001,9.005772009021044,3.168900377000868
1773148837740301800,1.1133017578125,-1.9296055420547722,9.120432407423854,3.0438004176482556
1773148837750338800,1.1233388671875,-1.5937787194684148,9.218637345588206,2.940577066799998
1773148837760376000,1.1333759765625,-1.248226037159562,9.300902371820808,2.847020538963377
1773148837770412800,1.143412841796875,-0.9111191116347909,9.365918741610646,2.76040433178395
1773148837780449800,1.15344970703125,-0.5968450724259019,9.411256012940406,2.691175604996085
1773148837790485800,1.16348583984375,-0.29844427312072364,9.436586269029974,2.6518232532948254
1773148837800522800,1.173522705078125,0.009355319651850732,9.441892558744549,2.6497102066636082
1773148837810560000,1.18356005859375,0.3418016957448795,9.427395831358432,2.6791367921561
1773148837820597000,1.193596923828125,0.6964283132061362,9.395071186336875,2.7236057562187312
1773148837830634000,1.203634033203125,1.0713150073532014,9.345178151398896,2.7731419405430553
1773148837840670000,1.213669921875,1.4699612011417746,9.276187617281078,2.821685314437747
1773148837850706700,1.223706787109375,1.883791154732555,9.186005826574563,2.8703698503687978
1773148837860744000,1.233743896484375,2.274149777973443,9.08522490044236,2.908144577489793
1773148837870781000,1.243781005859375,2.600446701800823,8.994023119038342,2.918154222589731
1773148837880818000,1.25381787109375,2.8507430666178464,8.92677621371746,2.8907287477865813
1773148837890855000,1.26385498046875,3.0316204427719113,8.884073967066406,2.8377640503183006
1773148837900891000,1.273890869140625,3.160399967420101,8.85452521649897,2.789196418765187
1773148837910928100,1.28392822265625,3.2468364341184497,8.830444083687663,2.766161872397363
1773148837920964900,1.29396484375,3.2982547789275642,8.802222197809815,2.795133115337789
1773148837931001900,1.304001953125,3.317233327902853,8.762427363038062,2.895903227815032
1773148837941038800,1.314038818359375,3.309255773152411,8.70821646490097,3.063690236249566
1773148837951075800,1.324075927734375,3.28092750429064,8.635884803661703,3.290498465712368
1773148837961112000,1.334112060546875,3.241376122885942,8.540681385400891,3.5666023487418888
1773148837971149000,1.344149169921875,3.196080937132239,8.425142450597882,3.8694247273489832
1773148837981185800,1.354185791015625,3.155311704370379,8.30155289580822,4.159157030497491
1773148837991222800,1.364222900390625,3.1324706347480413,8.174649101904034,4.41962641428262
1773148838001259800,1.374259765625,3.1325580207705497,8.032556506696343,4.672848603418469
1773148838011297000,1.384297119140625,3.1512492772370577,7.863981562754511,4.939415135034919
1773148838021333000,1.3943330078125,3.18108444353044,7.678200632467865,5.205415849462152
1773148838031370000,1.404369873046875,3.212377991938591,7.494588278391957,5.448137979632616
1773148838041407000,1.414406982421875,3.2383333941891785,7.348837745198607,5.628335556828976
1773148838051443700,1.424443603515625,3.2561341315567494,7.27154641572535,5.7177416869878765
1773148838061481000,1.43448095703125,3.2563848914474245,7.248878656843305,5.746311947911978
1773148838071518000,1.44451806640625,3.2209201948344703,7.247234981289505,5.768331472018361
1773148838081554000,1.454553955078125,3.116991910587251,7.248694532448053,5.823331474706531
1773148838091591000,1.4645908203125,2.938760957288742,7.226288054850697,5.942629469782114
1773148838101628000,1.4746279296875,2.7249147929906843,7.17290542423129,6.106937988451123
1773148838111665000,1.484664794921875,2.5144918811395764,7.100147062012553,6.279781111231446
1773148838121702000,1.494701904296875,2.326334430979937,7.011639926519989,6.449453787282109
1773148838131739000,1.50473876953125,2.1659980308122933,6.9161875019341705,6.60644759902358
1773148838141774800,1.51477490234375,2.027806826957315,6.8218497605919834,6.746906455549597
1773148838151811800,1.524811767578125,1.9205334700658916,6.729890438818932,6.869536225396394
1773148838161849000,1.53484912109375,1.8253677534669637,6.635480216762423,6.986330128696561
1773148838171886000,1.544885986328125,1.7267010430097578,6.528149138334393,7.111409629783034
1773148838181922800,1.5549228515625,1.6384822229392826,6.389088458168506,7.257088266783953
1773148838191958800,1.564958740234375,1.5520448794580994,6.234571850195526,7.4088897705793375
1773148838201995800,1.574995849609375,1.4827118155129253,6.088301092520356,7.543511006993055
1773148838212032800,1.58503271484375,1.4546537418946623,5.961489068552852,7.649511713600158
1773148838222070000,1.595070068359375,1.464910055232048,5.855218312832712,7.72921945656538
1773148838232107000,1.60510693359375,1.4761916199639438,5.7587306999802585,7.7992481015592805
1773148838242143700,1.615143798828125,1.4545533502601087,5.66573794350624,7.87108993345499
1773148838252180000,1.625179931640625,1.3965321000546216,5.584466019964218,7.939383717480301
1773148838262216700,1.635216796875,1.3120542200781404,5.5243555423945185,7.995647456493973
1773148838272254000,1.64525390625,1.2233330765087156,5.505318833491206,8.022797913748025
1773148838282291000,1.655291015625,1.1385535832371563,5.541617642840743,8.01027745487094
1773148838292328000,1.665327880859375,1.079384478170797,5.613938782685994,7.967998402068019
1773148838302365000,1.675364990234375,1.040537226447463,5.710502383384108,7.904291361311078
1773148838312401000,1.68540087890625,1.0212649552226065,5.813975032818317,7.8310326483547685
1773148838322438000,1.69543798828125,0.9670011578544974,5.933906649622321,7.747519083365797
1773148838332475000,1.705474853515625,0.8636785844154655,6.084322252017259,7.642349566885828
1773148838342511900,1.715511962890625,0.7579255689591169,6.254696354335546,7.5149635424226515
1773148838352548900,1.725548828125,0.664207128559053,6.426361080986261,7.377742937165499
1773148838362586000,1.735586181640625,0.5703600202780217,6.601219050720334,7.229729135215282
1773148838372622000,1.7456220703125,0.4493697612665593,6.791849174603819,7.0596911329835645
1773148838382659000,1.7556591796875,0.29035821649450805,7.003143900853395,6.858721401393413
1773148838392695800,1.76569580078125,0.1227227270935662,7.244860653373599,6.608124592325091
1773148838402732800,1.77573291015625,-0.08420878984467126,7.516493820729851,6.298065540462732
1773148838412769800,1.785769775390625,-0.3855635709840804,7.794999211943149,5.937990704065561
1773148838422807000,1.79580712890625,-0.7719652002274989,8.051711873543262,5.544764124172926
1773148838432844000,1.805843994140625,-1.1972634732939302,8.269141741546989,5.13402585298717
1773148838442880000,1.8158798828125,-1.6006500665426253,8.43402426071167,4.740837267017365
1773148838452916700,1.825916748046875,-1.9156927520364522,8.546479842546582,4.411144124880432
1773148838462953700,1.83595361328125,-2.1035537034675476,8.634927941328286,4.145296262927353
1773148838472991000,1.845990966796875,-2.1363800144009293,8.726468160906434,3.9312861402392385
1773148838483028000,1.856028076171875,-2.031194277438521,8.824791757014394,3.7639991902813312
1773148838493065000,1.86606494140625,-1.8346600440777838,8.918933099001645,3.64102338347584
1773148838503101000,1.876100830078125,-1.605260336817056,9.00180544347763,3.5441558313950896
1773148838513138000,1.886137939453125,-1.3990370686128735,9.069027798879146,3.459162256981432
1773148838523175000,1.8961748046875,-1.252715895924717,9.112373604130745,3.4008445080474017
1773148838533212000,1.9062119140625,-1.1874185172364116,9.125014474517107,3.3903628615215418
1773148838543249000,1.916248779296875,-1.2007470776259899,9.107619687601924,3.4321833569020033
1773148838553286000,1.926285888671875,-1.281158292685449,9.068948888424039,3.5047383055031296
1773148838563321900,1.93632177734375,-1.4052050897233188,9.018470162552594,3.5865015196934342
1773148838573359000,1.946359130859375,-1.5293971404507756,8.964261602503061,3.6706054517909883
1773148838583395800,1.956395751953125,-1.616267468521744,8.913936605888605,3.7549703729122874
1773148838593432800,1.966432861328125,-1.657984941919148,8.87082870104611,3.8379552378520367
1773148838603469800,1.9764697265625,-1.6652093402147292,8.8363249584198,3.9136709885716434
1773148838613506800,1.9865068359375,-1.6576522028334437,8.810404335221648,3.9748379894569514
1773148838623542800,1.996542724609375,-1.6566251978732645,8.792575248542427,4.01454748403281
1773148838633580000,2.006580078125,-1.6738411210902033,8.780963721203804,4.0327781372502445
1773148838643617000,2.016616943359375,-1.7053985811315475,8.772571740433573,4.037821099853516
1773148838653653200,2.0266533203125,-1.7419363138034938,8.766500896087289,4.035406147666276
1773148838663690000,2.03668994140625,-1.7776634607449173,8.764339334139228,4.024503937640786
1773148838673727000,2.04672705078125,-1.8104228439219294,8.768359091174602,4.001076008041203
1773148838683764000,2.056763916015625,-1.836113019365072,8.778838984134794,3.9662379188939925
1773148838693800000,2.066800048828125,-1.8464999733448026,8.794204895570873,3.927184550139308
1773148838703837000,2.0768369140625,-1.8315379665344953,8.811507328027487,3.8952769614860414
1773148838713874200,2.086874267578125,-1.7880834402114152,8.829248736423253,3.875245396326482
1773148838723911200,2.0969111328125,-1.7262636745058,8.845943850636482,3.8651872359097004
1773148838733948000,2.106947998046875,-1.6674299388736487,8.862482312983275,3.853113059495389
1773148838743985000,2.11698486328125,-1.6220773238442838,8.882497511529921,3.8262916880652305
1773148838754020900,2.127020751953125,-1.5907124637655914,8.909317129394411,3.776784145313501
1773148838764058000,2.13705810546875,-1.5652460140757263,8.944254002740978,3.7041464868649836
1773148838774095000,2.14709521484375,-1.5499803481437264,8.987410422900318,3.6047722126603126
1773148838784132000,2.157132080078125,-1.5509208438642321,9.040799483260512,3.4682813829824326
1773148838794168800,2.1671689453125,-1.547030120036006,9.105290952393412,3.297084273843467
1773148838804206000,2.1772060546875,-1.5318854501351713,9.17726488623619,3.0986294476836918
1773148838814242000,2.187241943359375,-1.5029863956481218,9.249386119595169,2.8914126383975147
1773148838824279000,2.197279052734375,-1.461997821047157,9.310140740287304,2.7118650495424865
1773148838834316000,2.20731591796875,-1.4277313943080603,9.352858184507488,2.5799264763414858
1773148838844353000,2.21735302734375,-1.4214897234395145,9.38159444964826,2.476985157305002
1773148838854390300,2.227390380859375,-1.4502290573202072,9.40410731022954,2.372762566286325
1773148838864427000,2.237427001953125,-1.4972615882605314,9.423449139559269,2.264334194140881
1773148838874463000,2.247462890625,-1.5290341523572801,9.438753676196932,2.1776986977390944
1773148838884500000,2.2575,-1.5240793064288793,9.450819961565733,2.128274449356645
1773148838894537000,2.267536865234375,-1.4911537729047237,9.457018816205858,2.1240632614023984
1773148838904574000,2.277573974609375,-1.459280671042949,9.451977314907312,2.16818589624539
1773148838914611200,2.287611083984375,-1.4532159641765057,9.436994265308975,2.2364443166963754
1773148838924648000,2.29764794921875,-1.492276347193867,9.420600764390826,2.2794218731574714
1773148838934685000,2.307684814453125,-1.5823029473386705,9.407932421475648,2.271014256426692
1773148838944721000,2.317720947265625,-1.7035938697971402,9.39925460950136,2.2185968175776303
1773148838954758000,2.3277578125,-1.8141040166527032,9.393622741094232,2.153899889000505
1773148838964795100,2.337795166015625,-1.8697177673250436,9.389193234214186,2.12546757524237
1773148838974832000,2.34783203125,-1.8764802471973,9.383877007627486,2.142911900387704
1773148838984869000,2.357869140625,-1.8751054517127572,9.377683998206257,2.171041285676509
1773148838994905900,2.36790576171875,-1.8630531948693096,9.373454397812486,2.199495519005507
1773148839004941800,2.37794189453125,-1.7871248243123292,9.373290731683372,2.26229392048493
1773148839014979000,2.38797900390625,-1.6183927901126443,9.382529100149869,2.3493260149888693
1773148839025016000,2.39801611328125,-1.3929929661430418,9.400313763165473,2.421586364557594
1773148839035053000,2.408052978515625,-1.198857902878523,9.432468896839023,2.400345423608273
1773148839045090000,2.418090087890625,-1.0762219224866478,9.486942245304585,2.238316394178569
1773148839055127000,2.428126953125,-1.0192445553109049,9.558400046318768,1.9412614930570125
1773148839065164000,2.4381640625,-1.0219203503914176,9.628574821785092,1.5545444411888718
1773148839075200000,2.448199951171875,-1.076296449027583,9.681237905958294,1.1338472321771085
1773148839085237000,2.458237060546875,-1.1561479843776672,9.713556705760956,0.6932018254403024
1773148839095274000,2.46827392578125,-1.2430331446915863,9.724888831636308,0.22754215149423107
1773148839105311000,2.47831103515625,-1.3191593759082256,9.714147657391429,-0.2559928411592729
1773148839115348200,2.48834814453125,-1.3663709166772662,9.682881581512094,-0.7383874864049256
1773148839125385000,2.498385009765625,-1.3764511427953838,9.636395724669098,-1.189808992569521
1773148839135421000,2.5084208984375,-1.3502959801889955,9.58529448298514,-1.5713656659997999
1773148839145458000,2.5184580078125,-1.3004445924356578,9.541267709732056,-1.8556433570042252
1773148839155495000,2.528494873046875,-1.23873690880239,9.513511687800287,-2.0320020866900683
1773148839165532200,2.5385322265625,-1.174028874309361,9.507339136645196,-2.0982275400087236
1773148839175569200,2.548569091796875,-1.107502392217517,9.520715920090675,-2.0735982717953623
1773148839185606000,2.55860595703125,-1.033825892240554,9.544529926398395,-2.0008841871097682
1773148839195643000,2.568642822265625,-0.9457022761728614,9.568172667792439,-1.9303150054983793
1773148839205678800,2.578678955078125,-0.7780700199086219,9.56436509220302,-2.021860047382116
1773148839215716000,2.588716064453125,-0.5262463724590838,9.507877481305599,-2.3438662882782517
1773148839225753000,2.598753173828125,-0.33765414761137214,9.428916757315397,-2.6743025038674473
1773148839235790000,2.6087900390625,-0.21246387962680308,9.360245956671237,-2.917367456126213
1773148839245827000,2.6188271484375,-0.12501576993418856,9.319535760620235,-3.049756403443217
1773148839255864000,2.628864013671875,-0.007908087406292907,9.308048151922225,-3.0871582055985924
1773148839265900000,2.638900146484375,0.1654723748166114,9.316516705060005,-3.0570445146247742
1773148839275937000,2.64893701171875,0.3245993626618758,9.341390449553728,-2.967063799448311
1773148839285974000,2.65897412109375,0.41801681082136927,9.372673476567863,-2.854582498650253
1773148839296011000,2.669010986328125,0.48151163359973576,9.386960945117472,-2.797048593570292
1773148839306048000,2.679048095703125,0.5311230020521208,9.374678386649489,-2.8290768859937785
1773148839316085000,2.6890849609375,0.5726458661928773,9.349695921084285,-2.902696541216969
1773148839326122000,2.6991220703125,0.6220409615460782,9.324112567016481,-2.9739509286135433
1773148839336158000,2.709157958984375,0.6905219387065619,9.299216026169061,-3.0361349975869056
1773148839346195000,2.71919482421875,0.7877499946627765,9.275766761520504,-3.0838258463054893
1773148839356232000,2.72923193359375,0.8954908960007131,9.262781023219228,-3.0934353861719366
1773148839366269200,2.739269287109375,0.977534023110941,9.265140153566003,-3.061367930781841
1773148839376306200,2.74930615234375,0.9356908775072544,9.294742680147289,-2.9837247191309926
1773148839386343000,2.759343017578125,0.7992477594286203,9.333669499912858,-2.9007208572298286
1773148839396380000,2.7693798828125,0.6472290326859802,9.36035233965516,-2.8522385658726095
1773148839406416000,2.779415771484375,0.5043877014702186,9.364432886967062,-2.867646562884748
1773148839416453000,2.789453125,0.3672854984283447,9.347348481175302,-2.9432231973946092
1773148839426490000,2.799489990234375,0.23015907426066695,9.315886005941033,-3.0547780309975145
1773148839436527000,2.809527099609375,0.09926885933512822,9.276781491521,-3.1783453739553686
1773148839446563800,2.819563720703125,-0.015768358182063093,9.238534470713137,-3.289317146973312
1773148839456601000,2.82960107421875,-0.10535290108970366,9.210510737755895,-3.3653768888249993
1773148839466637000,2.839636962890625,-0.15898155149258672,9.198487707006931,-3.396013434629142
1773148839476674000,2.849674072265625,-0.17010929563594981,9.202366594266891,-3.3849498965620994
1773148839486711000,2.8597109375,-0.1422499046612531,9.215858528524636,-3.349341699825227
1773148839496748000,2.869748046875,-0.12360016751522197,9.204926215621828,-3.380003672331571
1773148839506785000,2.879784912109375,-0.14322117911251261,9.150052469661832,-3.5251126927509904
1773148839516822000,2.889822021484375,-0.18295131461760028,9.123605776762961,-3.5912039982959625
1773148839526859000,2.89985888671875,-0.17187531892778352,9.136801942944526,-3.5580475786253807
1773148839536895000,2.90989501953125,-0.05180112901504617,9.155748635476828,-3.5128289652392266
1773148839546932000,2.919931884765625,0.1304331462072674,9.15941475676894,-3.501215099813044
1773148839556969000,2.929968994140625,0.3006630634150468,9.14580182648003,-3.526230883125961
1773148839567006200,2.940006103515625,0.43270146199502046,9.117941175130008,-3.5841751225724816
1773148839577043000,2.95004296875,0.538637432802841,9.072871614825726,-3.682831311635673
1773148839587080000,2.960079833984375,0.6160854141425341,9.01663301025331,-3.806727155895531
1773148839597117000,2.970116943359375,0.6455556195810437,8.958381312292813,-3.937133989484608
1773148839607153000,2.98015283203125,0.6286539499450474,8.902783928233385,-4.06394104501605
1773148839617190100,2.990190185546875,0.5705851708034053,8.851649368801713,-4.182477992591261
1773148839627227100,3.00022705078125,0.4792931173000484,8.80668852956891,-4.287525636257231
1773148839637264100,3.01026416015625,0.37506687301956115,8.766733535799384,-4.378821233424544
1773148839647301600,3.020301513671875,0.27305328155355524,8.736592664557694,-4.446098241622746
1773148839657338600,3.030338623046875,0.17918419890273363,8.717980903068185,-4.48721468038708
1773148839667375600,3.040375732421875,0.10580600601891055,8.696510829538106,-4.530995369924605
1773148839677411600,3.05041162109375,0.06211506342433858,8.67244489429593,-4.577690777865052
1773148839687448600,3.060448486328125,0.05573998913420364,8.65357302056551,-4.613344275048375
1773148839697485600,3.070485595703125,0.09116545884846709,8.647908418932557,-4.623388699200749
1773148839707522600,3.0805224609375,0.12419928418584167,8.666098740139603,-4.588429321761429
1773148839717559600,3.0905595703125,0.13126327688847667,8.706104002791642,-4.511861922648549
1773148839727596500,3.100596435546875,0.14376708602486177,8.75271494731903,-4.420374602301418
1773148839737632500,3.110632568359375,0.17101497577140107,8.798909712260961,-4.32670292365253
1773148839747669800,3.120669677734375,0.19281636361507698,8.83580005776286,-4.249923050832749
1773148839757706800,3.130706787109375,0.21142012446122244,8.867128677484393,-4.18326534357667
1773148839767743500,3.140743408203125,0.23958454453079028,8.912521478393673,-4.084109680558741
1773148839777780500,3.150780517578125,0.2855449709938839,8.973836655578017,-3.944504225991666
1773148839787817700,3.160817626953125,0.313570165255852,9.045216715180873,-3.7757264529541135
1773148839797854700,3.170854736328125,0.28755090398881583,9.122943513461946,-3.5860271801799533
1773148839807890700,3.180890625,0.19859200614076106,9.199429956293105,-3.3913740843906997
1773148839817927700,3.190927734375,0.04418538418116513,9.266175341832637,-3.210359345592558
1773148839827964700,3.200964599609375,-0.10409268102869391,9.322116424763202,-3.0426462791770694
1773148839838001700,3.211001708984375,-0.21371976143941282,9.364749697831272,-2.9027877266317605
1773148839848038700,3.22103857421875,-0.3236033008292317,9.394057040858268,-2.7959567066803572
1773148839858075600,3.23107568359375,-0.4575480627534911,9.409760805946588,-2.723492651233077
1773148839868112600,3.241112548828125,-0.5706307635108009,9.41141441837251,-2.696300400663912
1773148839878148600,3.251148681640625,-0.6248483471170068,9.397107076078653,-2.7339181836575266
1773148839888185600,3.261185546875,-0.6306658012241124,9.368234617337585,-2.8299831871837378
1773148839898222600,3.27122265625,-0.6150534407462924,9.33474735827744,-2.9418723673075435
1773148839908259600,3.281259521484375,-0.5992771949436515,9.30362098312974,-3.0420234711036085
1773148839918296600,3.291296630859375,-0.593221036709845,9.276450067609549,-3.125055682316422
1773148839928333600,3.30133349609375,-0.5881011729454622,9.25643603810668,-3.184798203356564
1773148839938370800,3.311370849609375,-0.5869456097021699,9.242415111538767,-3.2254721590504047
1773148839948406800,3.32140673828125,-0.6027321577031165,9.242287101244926,-3.2229251049160954
1773148839958443500,3.331443603515625,-0.6153161102704704,9.268398863101005,-3.1446058936998247
1773148839968480500,3.34148046875,-0.5894092598693444,9.31637875789404,-3.0046754449620843
1773148839978517500,3.351517578125,-0.516407626946643,9.36619288237691,-2.859747918589413
1773148839988554800,3.3615546875,-0.42441064004432405,9.402881567826867,-2.752463309651613
1773148839998591700,3.371591796875,-0.3441389430534094,9.416527815863489,-2.7167905232459306
1773148840008628500,3.38162841796875,-0.28752737698275593,9.40488998503983,-2.7632866092219945
1773148840018664700,3.391664794921875,-0.25586028255447746,9.370991807091235,-2.8791379709750413
1773148840028701400,3.401701416015625,-0.24157946294136343,9.32103856639862,-3.038134646971524
1773148840038738700,3.41173876953125,-0.22927166043426842,9.261721869555116,-3.21532632035017
1773148840048775700,3.421775634765625,-0.21127238655360414,9.199957779559492,-3.389182127304375
1773148840058812700,3.431812744140625,-0.19526560166440904,9.145169958317279,-3.535271683193743
1773148840068849700,3.441849609375,-0.19155649974709377,9.107449007210136,-3.6315403925985095
1773148840078886400,3.451886474609375,-0.21171107023181393,9.093269675210118,-3.6657907449856397
1773148840088922600,3.461922607421875,-0.25023142808834087,9.095906453454495,-3.6568092738896607
1773148840098959600,3.471959716796875,-0.2936467366458848,9.10171426295042,-3.6390894928038118
1773148840108996600,3.48199658203125,-0.33565460782460865,9.108025930315256,-3.6196094240471717
1773148840119033600,3.49203369140625,-0.3693646062573418,9.113380150824785,-3.602814941112697
1773148840129070600,3.502070556640625,-0.3869863337961957,9.116123312053084,-3.5940132104977964
1773148840139107600,3.512107666015625,-0.3867589913137257,9.116602035480737,-3.5928210781037806
1773148840149144600,3.52214453125,-0.3884413914427161,9.123608114850521,-3.574809620594978
1773148840159180500,3.5321806640625,-0.39239831237494943,9.147150318479538,-3.5136923040702936
1773148840169217500,3.542217529296875,-0.39042832747623324,9.182472391751409,-3.420547571904957
1773148840179254500,3.552254638671875,-0.3960564330236986,9.222706202462316,-3.309866598527133
1773148840189291800,3.562291748046875,-0.41877811405006793,9.265560424804686,-3.1850249978497622
1773148840199328800,3.572328857421875,-0.45793676981013265,9.308446211329102,-3.051803983622789
1773148840209365500,3.582365478515625,-0.5155637965336441,9.351953929144143,-2.9061162865325807
1773148840219402500,3.592402587890625,-0.5893338565455749,9.396048506936431,-2.7454186518371104
1773148840229438500,3.6024384765625,-0.6689397100389003,9.434919212600589,-2.589439570096135
1773148840239475700,3.612475830078125,-0.7413418792311102,9.465791905248164,-2.453482408903539
1773148840249512700,3.6225126953125,-0.8060091433223336,9.49036169835925,-2.335333145471662
1773148840259549700,3.6325498046875,-0.8665949102535844,9.512297051313519,-2.221620987704396
1773148840269586700,3.642586669921875,-0.9160125096995383,9.536553540691733,-2.0941421703912315
1773148840279623400,3.65262353515625,-0.9432773140482604,9.564873041725159,-1.9477743820823727
1773148840289660700,3.66266064453125,-0.9356873703759163,9.598117139679193,-1.7807424297988415
1773148840299696600,3.672696533203125,-0.9149383045967667,9.641230305218697,-1.5427088958360253
1773148840309733600,3.682733642578125,-0.9239997090611606,9.676316231647133,-1.298280984660983
1773148840319770600,3.6927705078125,-0.9735949300963431,9.701396896889806,-1.051380765088275
1773148840329807600,3.7028076171875,-1.0395655318710952,9.720613638535141,-0.7741926670186221
1773148840339844600,3.7128447265625,-1.1006563987802713,9.733147541415692,-0.4741230577183887
1773148840349881600,3.722881591796875,-1.145523056923598,9.738522804713249,-0.1390759781997185
1773148840359918600,3.732918701171875,-1.1572723122324793,9.73488357142806,0.2512604058098979
1773148840369954600,3.74295458984375,-1.1517550101157277,9.71416227043867,0.6920263519201427
1773148840379991600,3.752991455078125,-1.163364491627738,9.669390816298126,1.1488438719093799
1773148840390028800,3.76302880859375,-1.1501940444093197,9.608573651763797,1.5883121246255933
1773148840400065500,3.7730654296875,-1.0771059387795627,9.54541664610505,1.9736361147001384
1773148840410102500,3.7831025390625,-0.9569600216377526,9.495029105648397,2.2581008527092634
1773148840420139500,3.793139404296875,-0.8394402882810682,9.468324054074287,2.4117554370254277
1773148840430176500,3.803176513671875,-0.7569831004772335,9.460064759773015,2.4707334034338593
1773148840440212700,3.813212646484375,-0.6991879141125827,9.454453349632024,2.5089485677987335
1773148840450249700,3.823249755859375,-0.6477287258364259,9.451202238881587,2.534880589173734
1773148840460286700,3.83328662109375,-0.5742011328108608,9.457582295307516,2.5288009769991038
1773148840470323500,3.843323486328125,-0.4548157882453874,9.480841005820036,2.465196519833803
1773148840480360400,3.8533603515625,-0.2691250935254618,9.510147764325142,2.3780387531235814
1773148840490397700,3.863397705078125,-0.014330773401795886,9.540002804362773,2.2712409047894178
1773148840500434700,3.8734345703125,0.2896177003255114,9.577633154577017,2.0869695022828876
1773148840510471700,3.8834716796875,0.6156191848702728,9.619566170421242,1.8042516079410909
1773148840520507600,3.893507568359375,0.920031243821606,9.660892452543973,1.4110612684056163
1773148840530544600,3.903544677734375,1.165855723921582,9.691439566498994,0.9418986461061983
1773148840540581600,3.91358154296875,1.354377404283732,9.70138637549579,0.46813605573065575
1773148840550618600,3.92361865234375,1.4981690584942697,9.69141267849207,0.04875277886167168
1773148840560655600,3.933655517578125,1.5994424443185329,9.671601478084922,-0.26884223972978066
1773148840570692600,3.943692626953125,1.7951487024225294,9.62898924780488,-0.47999859868828204
1773148840580729600,3.9537294921875,2.0519002347283064,9.57186392352581,-0.5826799516143277
1773148840590765800,3.963765869140625,2.266358539575338,9.522090131053329,-0.6031697819354013
1773148840600802600,3.973802490234375,2.398129354993999,9.491956858596206,-0.5675580050019547
1773148840610839600,3.983839599609375,2.431095366659015,9.487942362257838,-0.48898792429715393
1773148840620876500,3.99387646484375,2.391259761485457,9.502793309909105,-0.38622068318594244
1773148840630913500,4.00391357421875,2.322851411169767,9.523972291538119,-0.26204682570230214
1773148840640950800,4.01395068359375,2.261998298539221,9.54077378873527,-0.16543149481695144
1773148840650987000,4.023987060546875,2.2254912532664832,9.550103342616557,-0.11435374360643327
1773148840661023000,4.03402294921875,2.1969833900541067,9.556544189319014,-0.12691365771107374
1773148840671060000,4.04406005859375,2.160378729625791,9.563613397052883,-0.20118174863932653
1773148840681097000,4.054096923828125,2.0978959699667987,9.573960603544116,-0.32942181438226253
1773148840691134000,4.064134033203125,2.0086858007714152,9.5845825353235,-0.5209267483389005
1773148840701171000,4.0741708984375,1.8990074285648761,9.59109177108705,-0.75835570400469
1773148840711208200,4.084208251953125,1.7700060778595506,9.592435586911439,-1.0112547986660152
1773148840721245000,4.094244873046875,1.6234354604549706,9.589762568309903,-1.2534969632998108
1773148840731281200,4.10428125,1.4672214009143412,9.58531026507616,-1.4626925253130494
1773148840741318000,4.11431787109375,1.3050005021743476,9.584578443670273,-1.6134510959267616
1773148840751355000,4.12435498046875,1.1372357055716216,9.590852701634168,-1.7007839269429443
1773148840761391900,4.134391845703125,0.9675092535071075,9.604043607118726,-1.7310900717489421
1773148840771429000,4.14442919921875,0.800787463151291,9.623141106298565,-1.7100475759811697
1773148840781466000,4.154466064453125,0.6397214335348457,9.64657517337799,-1.6446050897337496
1773148840791502800,4.1645029296875,0.48464467092845587,9.6717727429986,-1.5467156472593544
1773148840801539800,4.174539794921875,0.3650243850959465,9.69271557778418,-1.4451288115717469
1773148840811575800,4.184575927734375,0.2945751766024157,9.707010060596465,-1.3629261830508708
1773148840821613000,4.194613037109375,0.2632541008665226,9.714697107967734,-1.313671592146903
1773148840831650000,4.204650146484375,0.2657508495857008,9.715495564869046,-1.3072514959715307
1773148840841687000,4.21468701171875,0.29688798358943314,9.709804659751057,-1.3423496973596512
1773148840851724000,4.22472412109375,0.34721886195540425,9.699314245396852,-1.4046759512826799
1773148840861761000,4.234760986328125,0.4078879597885534,9.686621352562307,-1.474236978764832
1773148840871798000,4.244798095703125,0.4710380973150953,9.674725747585295,-1.5323707494340837
1773148840881834000,4.254833984375,0.5320107081394643,9.666042674914001,-1.5668262690044938
1773148840891871000,4.26487109375,0.5855712891416623,9.661634795343875,-1.574894132386893
1773148840901908000,4.274907958984375,0.6276810132596642,9.661694416576623,-1.5582178690046071
1773148840911945200,4.2849453125,0.6584727496255188,9.665045480570196,-1.5243604614578186
1773148840921982000,4.29498193359375,0.6862942380089312,9.668989249759912,-1.4866184675626455
1773148840932019000,4.30501904296875,0.7412151110462843,9.668987496194243,-1.460019652841985
1773148840942056000,4.315055908203125,0.8487598322249948,9.661789693644643,-1.449075941762328
1773148840952093000,4.325093017578125,0.9959734967734664,9.648007836529612,-1.447195096451789
1773148840962129000,4.33512890625,1.150485647767037,9.631403907731174,-1.443199450944364
1773148840972166100,4.345166259765625,1.2810766057513654,9.617450201180576,-1.4261410563766956
1773148840982203000,4.355202880859375,1.3699690872997046,9.61004021718502,-1.3930885354720055
1773148840992239900,4.365239990234375,1.416391815778613,9.609040100231766,-1.352973382704705
1773148841002276900,4.37527685546875,1.4316875845879315,9.611120413637162,-1.3217457391396163
1773148841012314000,4.385314208984375,1.4303022677093744,9.61341407753229,-1.3064736434668303
1773148841022351000,4.39535107421875,1.4197786817379294,9.616331426283717,-1.2964490930587051
1773148841032387000,4.405386962890625,1.400730282396823,9.621343116965889,-1.2798792126603424
1773148841042424000,4.415424072265625,1.3722335251003503,9.628868251773714,-1.253898675968498
1773148841052460800,4.425460693359375,1.3339094935335218,9.638121233287453,-1.2238143572196363
1773148841062498000,4.435498046875,1.2868626418069005,9.648150459870696,-1.1947978138327597
1773148841072535000,4.44553515625,1.233229835818708,9.658190792369842,-1.1700033451203256
1773148841082572000,4.455572021484375,1.1762229502875357,9.667515085554122,-1.1515416596259922
1773148841092609000,4.465609130859375,1.1182277113061398,9.675871995010972,-1.1390527649309485
1773148841102645000,4.47564501953125,1.062032945875451,9.682982119277119,-1.1323944760855287
1773148841112682000,4.485681884765625,1.009337859128788,9.688901572453975,-1.1299656415034085
1773148841122719000,4.495718994140625,0.9619877136066556,9.693710434040426,-1.1300316924769431
1773148841132756000,4.505755859375,0.9214716518882662,9.697533791720867,-1.1309817597433924
1773148841142793000,4.51579296875,0.8884230034410953,9.700566291284561,-1.1314084607228636
1773148841152830000,4.525829833984375,0.8616003899019211,9.702854694482683,-1.1325292083811014
1773148841162867000,4.535866943359375,0.8383188099704683,9.704604753020405,-1.1350124034989624
1773148841172904000,4.545904052734375,0.8170566070374101,9.706100544536113,-1.1377290420465171
1773148841182940000,4.55593994140625,0.7981250390090048,9.707741297480464,-1.137170969772339
1773148841192977000,4.565976806640625,0.781794666454941,9.709590724739432,-1.1327236349746583
1773148841203014000,4.576013916015625,0.7658911410108208,9.711593296733499,-1.1263882944732904
1773148841213051100,4.586051025390625,0.7458665901139379,9.713758950334787,-1.1211486402541397
1773148841223088000,4.596088134765625,0.7162518616382032,9.716112819984554,-1.1200616487350314
1773148841233124900,4.606124755859375,0.6750837657518685,9.719058810308574,-1.1200648636054247
1773148841243161900,4.616161865234375,0.6239858850687742,9.723037650811671,-1.1151469156213103
1773148841253197800,4.62619775390625,0.5651995687749236,9.728241649195551,-1.1010101806540042
1773148841263235000,4.636235107421875,0.49859724496789276,9.734534611859917,-1.0773113251585513
1773148841273272000,4.64627197265625,0.4222444384537637,9.741611418378353,-1.04551779133901
1773148841283309000,4.65630908203125,0.3342024727875367,9.749141813883185,-1.0064406033173203
1773148841293346000,4.666345947265625,0.23421134532615542,9.756645905902982,-0.9609243952240795
1773148841303382800,4.6763828125,0.12418513692948036,9.763571321251987,-0.9097495768472552
1773148841313420000,4.686419921875,0.00642843759956595,9.769420047280192,-0.85368779014647
1773148841323457000,4.69645703125,-0.11710789201962761,9.77382441971898,-0.7930967625182122
1773148841333493000,4.706492919921875,-0.2457011825138703,9.77647230387926,-0.7284115243788808
1773148841343530000,4.716530029296875,-0.38041992448531087,9.776934076172113,-0.6612197102461009
1773148841353567000,4.72656689453125,-0.5238466909062117,9.774648011061549,-0.5934875056263059
1773148841363604000,4.73660400390625,-0.6792529411952942,9.768870012181997,-0.527427910393849
1773148841373641000,4.746640869140625,-0.8520462334845215,9.758526312822102,-0.4643022497214377
1773148841383678000,4.756677978515625,-1.0476015388105064,9.742199447399377,-0.40309378431458026
1773148841393715000,4.76671484375,-1.268994976682961,9.718196055999398,-0.34159104866888373
1773148841403751000,4.7767509765625,-1.5101364135332405,9.685633510568737,-0.2799116960809566
1773148841413788200,4.7867880859375,-1.757573005004972,9.645390347507595,-0.21861593598313628
1773148841423825200,4.7968251953125,-1.9974286398284136,9.59978244254291,-0.15759303800994529
1773148841433862000,4.80686181640625,-2.219243006526679,9.551781504961848,-0.0939477008449845
1773148841443899000,4.81689892578125,-2.4160594178296626,9.504320081084966,-0.0308181311824359
1773148841453936000,4.82693603515625,-2.5854253660187125,9.459660855147241,0.027889601166581266
1773148841463973000,4.83697314453125,-2.726429873728752,9.41967897337079,0.08134766479250974
1773148841474010000,4.847010009765625,-2.8419299378260967,9.38491511850357,0.13114883846226147
1773148841484046000,4.857046142578125,-2.9349031128168104,9.35557738033831,0.17290595888346433
1773148841494082800,4.867082763671875,-3.0085785898804662,9.331571066328882,0.20156269251462072
1773148841504119800,4.877119873046875,-3.0655273885488508,9.312752968612314,0.21342220326494424
1773148841514157000,4.887156982421875,-3.107847650144994,9.298872327297925,0.2064802203736268
1773148841524194000,4.897194091796875,-3.1362998376473783,9.289750278687476,0.18588959655920043
1773148841534231000,4.90723095703125,-3.151263013501465,9.285186331772804,0.1589145506709814
1773148841544267800,4.917267822265625,-3.1528216411203145,9.285153014025092,0.1266017330845352
1773148841554305000,4.927304931640625,-3.138495301865041,9.290462226349115,0.08690746347727253
1773148841564341000,4.937341064453125,-3.1063924829006195,9.301571064862609,0.03840555410413071
1773148841574378000,4.9473779296875,-3.055707420802116,9.318403541719913,-0.019590317348216195
1773148841584415000,4.9574150390625,-2.985889495949447,9.340628817531465,-0.08658358355145901
1773148841594452000,4.967451904296875,-2.897096529252827,9.367574692124128,-0.16050845053261145
1773148841604489200,4.9774892578125,-2.790576474946737,9.398172074961662,-0.23961340529909356
1773148841614526000,4.98752587890625,-2.6672759662315246,9.431451828750967,-0.3220616243451834
1773148841624563000,4.99756298828125,-2.5284251294240354,9.46639922349155,-0.405866975354962
1773148841634599000,5.007598876953125,-2.3736117304615676,9.502341474488377,-0.4917956751942634
1773148841644636000,5.017635986328125,-2.2034999323412774,9.538133503359555,-0.5822167545493692
1773148841654673400,5.02767333984375,-2.021958685451001,9.571991933819652,-0.6775139155082405
1773148841664710400,5.03771044921875,-1.8383843252979217,9.601513211858272,-0.7756623011797666
1773148841674747100,5.0477470703125,-1.6639989415116607,9.624879474398494,-0.8736144336268306
1773148841684784000,5.0577841796875,-1.5120818485125898,9.641046180823444,-0.9665482264552265
1773148841694821000,5.067821044921875,-1.3954757228694856,9.650397362014651,-1.0454056362014263
1773148841704858400,5.0778583984375,-1.3174364976383746,9.655109192967414,-1.1016456290133296
1773148841714894300,5.087894287109375,-1.2629763009153305,9.658730890595912,-1.1332209169723093
1773148841724931300,5.097931396484375,-1.2119793963886796,9.664007954216002,-1.1438728054985403
1773148841734968000,5.107968017578125,-1.155129308854416,9.671000589582324,-1.1435958151880652
1773148841745005000,5.118005126953125,-1.0898107412476092,9.67889864935577,-1.1408891135126351
1773148841755042300,5.128042236328125,-1.0183059592865407,9.687021165534853,-1.138009028031677
1773148841765079300,5.138079345703125,-0.9487096412952989,9.694009124726056,-1.1386379005197436
1773148841775116300,5.1481162109375,-0.8893423102430998,9.698827338662744,-1.1455068364411591
1773148841785152300,5.15815234375,-0.8435976271562278,9.701659347218275,-1.1560839792307465
1773148841795189200,5.168189208984375,-0.8141670961409807,9.70302712844014,-1.165660639740899
1773148841805226200,5.178226318359375,-0.8041600813895463,9.7029727679044,-1.1730558645587414
1773148841815263200,5.18826318359375,-0.8129370428893715,9.701716630363464,-1.1773724125836045
1773148841825300200,5.19830029296875,-0.8357418721545488,9.69980173665285,-1.1771873383402824
1773148841835337200,5.208337158203125,-0.8676245455622672,9.697609779566525,-1.172176816701889
1773148841845374500,5.21837451171875,-0.9080552670847624,9.694611766794324,-1.1663330591097474
1773148841855411200,5.2284111328125,-0.957332727407664,9.69034826413095,-1.162345962234959
1773148841865447200,5.238447265625,-1.0117867866508663,9.684933837866783,-1.1613416805632413
1773148841875484200,5.248484130859375,-1.0616768259141594,9.679317167028785,-1.1636381209373474
1773148841885521200,5.258521240234375,-1.0961628867533058,9.674577279025316,-1.171052269651368
1773148841895558100,5.26855810546875,-1.1093869638551026,9.671945176956058,-1.1803064932741225
1773148841905595400,5.278595458984375,-1.102752713472396,9.672404611161351,-1.1827539594914764
1773148841915632000,5.288632080078125,-1.0834440557599068,9.676283498421311,-1.1687933117434381
1773148841925669000,5.298669189453125,-1.059853775205463,9.682484691148996,-1.1386760405730456
1773148841935706000,5.3087060546875,-1.0359067901678383,9.68967547943592,-1.0988359784200787
1773148841945742000,5.3187421875,-1.011041228980571,9.696925304433703,-1.0572577673628927
1773148841955779300,5.328779296875,-0.982876772378385,9.70383201508224,-1.0197870646897702
1773148841965816300,5.33881640625,-0.949444750636816,9.710271108219027,-0.9897273689255118
1773148841975853300,5.348853271484375,-0.9096692050874232,9.716132109206914,-0.9693735860742628
1773148841985890000,5.35889013671875,-0.8638840438596904,9.721224463909865,-0.9601522418078035
1773148841995927300,5.36892724609375,-0.8147882237140088,9.725252404251695,-0.962284869922325
1773148842005964300,5.37896435546875,-0.7659166407782584,9.728274382421374,-0.9718212714873253
1773148842016000300,5.389000244140625,-0.7209275252990425,9.730570968925953,-0.9831810890872031
1773148842026037200,5.399037353515625,-0.6823237269427627,9.732415135487914,-0.9924416693855076
1773148842036074200,5.40907421875,-0.6498042900014668,9.733906250828504,-0.9996018433384597
1773148842046111200,5.419111328125,-0.6209026051659137,9.735008074590564,-1.007220282452926
1773148842056148200,5.429148193359375,-0.5922577811682597,9.735707747292517,-1.0176608663160354
1773148842066185200,5.439185302734375,-0.5621470128038898,9.735943894135952,-1.0323713095180689
1773148842076222200,5.44922216796875,-0.531738211341016,9.735589673870802,-1.0516412426553665
1773148842086259200,5.45925927734375,-0.5023484507275745,9.734610015183687,-1.0748884819258004
1773148842096295200,5.469295166015625,-0.47479211608637123,9.733114223667979,-1.1006588829983026
1773148842106332400,5.47933251953125,-0.4483825768601149,9.731334354513884,-1.1271649779342114
1773148842116369200,5.489369140625,-0.4225011531611904,9.72945687020421,-1.153073764564097
1773148842126406100,5.49940625,-0.396291556953825,9.727566526412962,-1.1780353334717453
1773148842136443100,5.509443115234375,-0.36877705216035245,9.725711838456988,-1.2020417205464093
1773148842146480400,5.51948046875,-0.3404299324676394,9.723894559901952,-1.2248848359953612
1773148842156517400,5.529517333984375,-0.31190559304449705,9.722095401525497,-1.2465813386924565
1773148842166553300,5.53955322265625,-0.28273170367144046,9.720440620055793,-1.2662791418530046
1773148842176590000,5.549590087890625,-0.2515837377464399,9.719057641264795,-1.2833639860361814
1773148842186627000,5.559626953125,-0.2169196899918839,9.717896196269988,-1.2983940896466373
1773148842196664300,5.569664306640625,-0.17789028663467615,9.716781513026357,-1.3125856966063378
1773148842206701300,5.579701416015625,-0.13561026571737603,9.715521868354081,-1.326894646335393
1773148842216738300,5.58973828125,-0.09210113226338289,9.714072838589548,-1.341156395921856
1773148842226775300,5.599775390625,-0.05002906870807055,9.712405197638272,-1.3553968104593455
1773148842236812300,5.609812255859375,-0.011778675482899416,9.710599609521031,-1.3691330748669803
1773148842246848300,5.61984814453125,0.020966405174124517,9.70873732278049,-1.3821663055717943
1773148842256885200,5.62988525390625,0.04863126680727582,9.7069288120538,-1.3941148097798228
1773148842266922200,5.639922119140625,0.07313045606729573,9.705320792335272,-1.4042062879443167
1773148842276959200,5.649959228515625,0.09976987679298036,9.704008540692925,-1.4116224094197154
1773148842286996200,5.659996337890625,0.135000645919051,9.702925421631335,-1.4161210360132157
1773148842297033200,5.670033203125,0.1837345374171622,9.702017074614762,-1.4168547571152448
1773148842307070200,5.6800703125,0.2503079821895808,9.701058458715677,-1.4132184464395046
1773148842317106200,5.690106201171875,0.3352740840744227,9.699835638922453,-1.4039856309309602
1773148842327143200,5.70014306640625,0.43280568955447524,9.698083242297171,-1.389329767460376
1773148842337180200,5.71018017578125,0.5321445636522024,9.695728788125514,-1.3711515750825405
1773148842347217400,5.720217529296875,0.6207353588402271,9.692979781678318,-1.3532256039001047
1773148842357254100,5.730254150390625,0.6867533068880438,9.690679103520512,-1.33772189142853
1773148842367291100,5.740291015625,0.7205654870536178,9.690119716072083,-1.3239147537417708
1773148842377328000,5.750328125,0.715079676053673,9.692550742611289,-1.3090119297727942
1773148842387365400,5.760365478515625,0.6706190414279699,9.698224112072586,-1.290392277237773
1773148842397401300,5.7704013671875,0.5956441722035407,9.706206342998147,-1.2669462274596095
1773148842407438300,5.780438232421875,0.5035763120220974,9.714975340387225,-1.2393709689222276
1773148842417475300,5.790475341796875,0.40618707415480165,9.722911978605389,-1.2125809424784033
1773148842427512000,5.800511962890625,0.31217670160345734,9.72904653583765,-1.1910367807988076
1773148842437549300,5.81054931640625,0.22780591699695213,9.733086751139163,-1.177081174552068
1773148842447586300,5.82058642578125,0.15700424180394038,9.73523896073699,-1.1708367272045463
1773148842457623300,5.830623291015625,0.1016568687165156,9.735884272903203,-1.171585572810471
1773148842467660300,5.840660400390625,0.06245369339471217,9.735381584078073,-1.1784891416538505
1773148842477696300,5.8506962890625,0.03845064448802732,9.73400445050597,-1.1908233572438358
1773148842487733200,5.860733154296875,0.027998856527602763,9.731857501605152,-1.2085331283923237
1773148842497770200,5.870770263671875,0.029677802040893583,9.728983991995452,-1.2314049584791062
1773148842507807200,5.88080712890625,0.04153738585645333,9.725462247610091,-1.2585806963048876
1773148842517844200,5.89084423828125,0.0605319315518951,9.721551211646199,-1.287692516759783
1773148842527881200,5.900881103515625,0.08368906768634915,9.717703888568282,-1.3151445873089134
1773148842537918200,5.910918212890625,0.10832160556903109,9.714533441838622,-1.3365953716166317
1773148842547954400,5.920954345703125,0.13101323851700872,9.712631407609582,-1.3483297946825623
1773148842557991200,5.9309912109375,0.14898492113784886,9.712068513029813,-1.3505233592040835
1773148842568028200,5.941028076171875,0.1605092359839007,9.712516256797313,-1.3459800166860223
1773148842578065200,5.951065185546875,0.16552032387787474,9.713823832264541,-1.3358940914794801
1773148842588102400,5.961102294921875,0.16520851798234507,9.715949153855442,-1.3203947629220782
1773148842598139400,5.971139404296875,0.16101968799037858,9.7188080504179,-1.2997129171602426
1773148842608176000,5.981176025390625,0.15457149823168292,9.722155607280135,-1.2752220345042644
1773148842618213000,5.991213134765625,0.14656414199802092,9.725665076705813,-1.249139937134087
1773148842628249000,6.0012490234375,0.13713096334547734,9.729069916713238,-1.2234290842290967
1773148842638286300,6.011286376953125,0.12626057323035783,9.732181911253928,-1.1996068946149199
1773148842648323300,6.0213232421875,0.11339031453491188,9.734826288282871,-1.1792751043997705
1773148842658360000,6.031360107421875,0.09955041622286662,9.736846395933627,-1.163759993751347
1773148842668397300,6.041397216796875,0.08636571215023287,9.738291334044932,-1.1526488171502947
1773148842678434000,6.05143408203125,0.07528925066953525,9.739282683169842,-1.1450267247740178
1773148842688471000,6.061470947265625,0.06744604005559812,9.7397725125134,-1.1413418987814337
1773148842698508000,6.071508056640625,0.0625505185324233,9.73988298715055,-1.140681754372269
1773148842708544000,6.0815439453125,0.059917507714289234,9.739691263970732,-1.1424637424182147
1773148842718581200,6.091581298828125,0.05811820777393877,9.739168116879462,-1.1469885994315148
1773148842728618200,6.1016181640625,0.056691819099476556,9.738363230237365,-1.1538839849684386
1773148842738655000,6.111655029296875,0.0556022154981736,9.737313428923487,-1.1627622879508883
1773148842748692000,6.12169189453125,0.05496751605751924,9.736153737494348,-1.172454099273309
1773148842758729200,6.131729248046875,0.0544847283761017,9.734904614216088,-1.1828186952907591
1773148842768766200,6.14176611328125,0.05322483254207763,9.733564890044928,-1.1938362022589892
1773148842778802200,6.15180224609375,0.05062276485147885,9.732203538563846,-1.2050170100301503
1773148842788839200,6.161839111328125,0.04681371425760444,9.73087316674292,-1.2158616446495056
1773148842798876200,6.171876220703125,0.042744980681082234,9.729674896869064,-1.225554698080942
1773148842808913200,6.1819130859375,0.039695233155065214,9.728694653660058,-1.2334069459512829
1773148842818950100,6.1919501953125,0.0392428999774158,9.728009009483456,-1.2388232719115913
1773148842828987100,6.201987060546875,0.04186238916027359,9.727543730059265,-1.2423885631777345
1773148842839024000,6.212024169921875,0.047625642561842686,9.727282448774575,-1.2442232312589883
1773148842849061000,6.22206103515625,0.05513284898733254,9.727266666683555,-1.2440414449512958
1773148842859097000,6.23209716796875,0.06312133612374309,9.727727269932627,-1.2400586589254439
1773148842869134000,6.242134033203125,0.07069507757995742,9.728559044581651,-1.2330949573926626
1773148842879171000,6.252171142578125,0.07697866506120189,9.729258717283606,-1.227183249130845
1773148842889208000,6.2622080078125,0.08232628230000845,9.729781279852986,-1.2226871067553757
1773148842899245000,6.2722451171875,0.08784916477417573,9.73029565911591,-1.218204627579078
1773148842909282300,6.2822822265625,0.09371013836259953,9.730834588298201,-1.2134533413987607
1773148842919319000,6.292319091796875,0.09934044500030577,9.731315649813412,-1.2091351128734646
1773148842929356000,6.30235595703125,0.10382905252329074,9.731690328344703,-1.205748539175093
1773148842939392000,6.31239208984375,0.10722823910806327,9.7320305200845,-1.2026943392362446
1773148842949429000,6.322428955078125,0.11037450124453753,9.732299400153755,-1.200241831517592
1773148842959466200,6.33246630859375,0.11450145411458797,9.732471249589324,-1.1984467647943644
1773148842969503200,6.342503173828125,0.12052973796078004,9.732503982815146,-1.1975946049444377
1773148842979540200,6.352540283203125,0.12848245966406538,9.732360190430283,-1.1979318740747869
1773148842989577000,6.362576904296875,0.13814912741207516,9.732019998690486,-1.199613543551415
1773148842999614000,6.372614013671875,0.14897844573128968,9.731536599087715,-1.2022548518404363
1773148843009651200,6.382651123046875,0.16068225446324794,9.730994162774085,-1.2051193013608454
1773148843019687200,6.392687255859375,0.17279654369223862,9.730586166495085,-1.206751067281142
1773148843029724200,6.40272412109375,0.18497321236664427,9.730347681564092,-1.2068615419182926
1773148843039761200,6.41276123046875,0.19702609026459975,9.730208565354348,-1.2060757253028451
1773148843049798000,6.4227978515625,0.2086464036978781,9.730101013326644,-1.2049835461519658
1773148843059835100,6.432835205078125,0.21959820675244554,9.730089322888851,-1.203131926935911
1773148843069872000,6.4428720703125,0.22944334547305478,9.730252404496072,-1.1999712709479033
1773148843079909000,6.4529091796875,0.2379443943746388,9.730579736754297,-1.1956555997058749
1773148843089946000,6.462946044921875,0.24498614784600212,9.731053784006834,-1.190357274102047
1773148843099982000,6.472982177734375,0.25053382683470843,9.73169325095415,-1.1839553711704909
1773148843110019300,6.483019287109375,0.2546213518766686,9.732468911501766,-1.17669086006023
1773148843120056000,6.49305615234375,0.25805477865776044,9.733349201467632,-1.1686458660967647
1773148843130093000,6.503093017578125,0.26062342356937007,9.734226568824052,-1.1607412304520606
1773148843140130000,6.513130126953125,0.26275276374826206,9.734963066405058,-1.1540537885773927
1773148843150167300,6.523167236328125,0.26447114850608633,9.735510763415693,-1.1490358873501418
1773148843160204300,6.533204345703125,0.26553222013264893,9.735898301428556,-1.145496388112381
1773148843170241000,6.543240966796875,0.2652391554702073,9.736195823070407,-1.143040592458099
1773148843180277000,6.553277099609375,0.2628697046588175,9.736500943496823,-1.1409675855763255
1773148843190314000,6.56331396484375,0.258495800423529,9.736870361331105,-1.1388240707416086
1773148843200351000,6.57335107421875,0.25236149891959503,9.737302323007583,-1.1365114098850637
1773148843210388200,6.58338818359375,0.24533189254375173,9.737821962967514,-1.133586754610017
1773148843220425200,6.59342529296875,0.23857083744360133,9.73840823842287,-1.1299799622897058
1773148843230462000,6.6034619140625,0.23276735706292093,9.739103819471596,-1.1251930202741176
1773148843240499000,6.6134990234375,0.22787083545932546,9.739883571672438,-1.119439059857279
1773148843250535000,6.623534912109375,0.22235066553205252,9.740745156937837,-1.1130291928149758
1773148843260572200,6.633572265625,0.21468314484516157,9.74165175038874,-1.106590245808661
1773148843270609200,6.643609130859375,0.2038847239877097,9.742564189058541,-1.1005742734547703
1773148843280646100,6.653646240234375,0.18970396721558644,9.743512868085503,-1.094689014808461
1773148843290683100,6.66368310546875,0.17267258851900696,9.744473822072148,-1.0889407534800468
1773148843300720000,6.67372021484375,0.15348468937566503,9.745486798506974,-1.082729477749765
1773148843310757000,6.683757080078125,0.13281046066470442,9.746548290258646,-1.075890644705668
1773148843320794000,6.693794189453125,0.10990189703041688,9.74773194708526,-1.0677238509934395
1773148843330830000,6.703830078125,0.08435848224735819,9.749105573526025,-1.0574415264319628
1773148843340867000,6.7138671875,0.057204919720767064,9.750652218446135,-1.0449288855351506
1773148843350904300,6.723904296875,0.02965530936458381,9.752261407208442,-1.030974302201718
1773148843360941000,6.733941162109375,0.002089007883092563,9.753834940135478,-1.0164067015364766
1773148843370978000,6.74397802734375,-0.025914958359056616,9.755269941374658,-1.0022139255329965
1773148843381015000,6.75401513671875,-0.055627226641844024,9.756492176645994,-0.9890235315050929
1773148843391052000,6.764052001953125,-0.08741635371432639,9.757490540033578,-0.9768026400964707
1773148843401089300,6.77408935546875,-0.12109094290696083,9.758334589642285,-0.9646839669533074
1773148843411125200,6.784125244140625,-0.15568988953605292,9.75912544775903,-0.9516473752476274
1773148843421162200,6.794162353515625,-0.19060738232871516,9.75989175595641,-0.9373184787090867
1773148843431199000,6.804198974609375,-0.2258556414457038,9.760586752483247,-0.9221272662527858
1773148843441236000,6.814236083984375,-0.2618817348010838,9.761151985150574,-0.9064822456143796
1773148843451273200,6.824273193359375,-0.2994894530584104,9.76147756384313,-0.8911977288514376
1773148843461310200,6.834310302734375,-0.33960389343965797,9.761492176890373,-0.876554213405773
1773148843471347200,6.84434716796875,-0.38355471537970004,9.761063722345233,-0.8630814953051507
1773148843481384000,6.854384033203125,-0.4334131904609501,9.76007821843922,-0.8505483961421996
1773148843491420000,6.864419921875,-0.49226088155321773,9.758429282188414,-0.8373505494602024
1773148843501457200,6.87445703125,-0.5637027178132906,9.755967275989056,-0.820805438176915
1773148843511494100,6.884494140625,-0.6518842380806803,9.752352008101344,-0.7981751617610454
1773148843521531100,6.89453125,-0.761343487643823,9.746907771220803,-0.7671663485784083
1773148843531568000,6.904568115234375,-0.8992804975420237,9.738440387126802,-0.724200774816051
1773148843541605000,6.914605224609375,-1.0714219748590141,9.725318455225228,-0.6637786009486765
1773148843551642000,6.92464208984375,-1.270411127091199,9.70644073627591,-0.5843479578917846
1773148843561679000,6.93467919921875,-1.4730278952360152,9.68279390322864,-0.49407004986703396
1773148843571715000,6.944715087890625,-1.6562505193419754,9.657295304834841,-0.40479295291528106
1773148843581752000,6.954751953125,-1.8084958213821052,9.633079147467017,-0.3217182177349925
1773148843591789000,6.9647890625,-1.9336174080446362,9.611292847594619,-0.2336166856349446
1773148843601826300,6.974826416015625,-2.0475214351221918,9.589749708828329,-0.1213814959519077
1773148843611863000,6.984863037109375,-2.1619676062524316,9.565359363937377,0.013384052294836146
1773148843621900000,6.994900146484375,-2.276966004437953,9.537608018180727,0.14090102906925603
1773148843631937000,7.00493701171875,-2.383391366197914,9.509612926796079,0.23893148744953796
1773148843641974300,7.014974365234375,-2.4688807613044976,9.486017531675099,0.30082422705981876
1773148843652010800,7.0250107421875,-2.532196756917238,9.468301257720588,0.33112452664691955
1773148843662047700,7.0350478515625,-2.5836943044424054,9.453673012909293,0.3506985938299447
1773148843672084500,7.04508447265625,-2.6326675941869615,9.439046521663665,0.37926450737249107
1773148843682121500,7.05512158203125,-2.6827339398652312,9.422943528124689,0.4260026219435036
1773148843692158700,7.06515869140625,-2.734158422154188,9.40485082207322,0.49350872618984426
1773148843702195700,7.07519580078125,-2.7837703020632265,9.385404947847128,0.578945075934939
1773148843712232700,7.085232666015625,-2.8321491330459714,9.364430548879504,0.6758293964873999
1773148843722268700,7.0952685546875,-2.8897736390188333,9.339511211678385,0.77014952910766
1773148843732305400,7.105305419921875,-2.9646698900490995,9.309169264906645,0.8488228144586086
1773148843742342700,7.1153427734375,-3.0511002192676067,9.275623553657532,0.9077397713948041
1773148843752379600,7.125379638671875,-3.138240450321138,9.242530262351035,0.9473405448991805
1773148843762416600,7.135416748046875,-3.2207357781782746,9.211578074726463,0.9716494951169937
1773148843772453600,7.14545361328125,-3.296811594381928,9.182699186244607,0.9896683322146534
1773148843782490600,7.15549072265625,-3.3614228905022143,9.156778563046455,1.0122321923308073
1773148843792527600,7.165527587890625,-3.4084389086991544,9.135502550783754,1.0466748524196445
1773148843802563600,7.1755634765625,-3.4398324103504416,9.118326375055313,1.0927356157183648
1773148843812600600,7.1856005859375,-3.460072942085564,9.104133599051833,1.145870993578434
1773148843822637600,7.195637451171875,-3.473094628483057,9.09210998378098,1.20064449403435
1773148843832674600,7.205674560546875,-3.482732517661154,9.081027448752522,1.2553498976901172
1773148843842711800,7.2157119140625,-3.491920324984193,9.069335841915011,1.3130264261111617
1773148843852748500,7.22574853515625,-3.500447038049996,9.056552348187566,1.3769891951948403
1773148843862785500,7.23578564453125,-3.503836972749233,9.04408741889,1.4484424661643802
1773148843872822500,7.245822509765625,-3.496527818779647,9.03437032699585,1.5247368935547767
1773148843882858500,7.2558583984375,-3.472810550844669,9.030393824580312,1.6006098806627094
1773148843892895700,7.265895751953125,-3.432868416556716,9.032701517000794,1.6721522912204265
1773148843902932700,7.2759326171875,-3.3823958281651136,9.039747928380965,1.735720946419984
1773148843912969500,7.285969482421875,-3.3279853158026933,9.04949307732582,1.7892971999153493
1773148843923006500,7.29600634765625,-3.2770404337242245,9.060282766887545,1.8282982539609074
1773148843933043700,7.306043701171875,-3.236569307126105,9.070147742819785,1.8513291470669209
1773148843943080700,7.316080810546875,-3.2069235259249806,9.078750735992193,1.8607310355320572
1773148843953116700,7.32611669921875,-3.179520262953639,9.088529202684759,1.8600189417399464
1773148843963153700,7.336153564453125,-3.1481957348853347,9.101140262454747,1.8516135169662533
1773148843973190700,7.346190673828125,-3.113341571386158,9.114843209114671,1.8431256746061144
1773148843983227600,7.3562275390625,-3.0779291894823313,9.129678959196806,1.829119507215917
1773148843993264600,7.3662646484375,-3.0484184328377246,9.144258104169369,1.8055679512366651
1773148844003301600,7.376301513671875,-3.031108401596546,9.156454153397679,1.7726050083115696
1773148844013338600,7.386338623046875,-3.0269004285126924,9.165529440256952,1.7324343259647488
1773148844023375600,7.396375732421875,-3.0296938586235043,9.173017750185728,1.6873371470011769
1773148844033410600,7.40641064453125,-3.0280989906474947,9.181662828934192,1.6425855666048823
1773148844043447600,7.416447509765625,-3.0111729902878404,9.194318312367797,1.6024163455627858
1773148844053484800,7.42648486328125,-2.9757337203770873,9.211857476189731,1.5675072370059788
1773148844063521500,7.436521484375,-2.9256632830455898,9.232720815998315,1.5387413073793053
1773148844073558500,7.44655859375,-2.8676939091578126,9.254553293099999,1.5165680540159343
1773148844083595500,7.456595458984375,-2.810869905912876,9.27508345543146,1.4974102029509841
1773148844093631500,7.466631591796875,-2.7637644558668133,9.292945275336503,1.4741653748333454
1773148844103668700,7.476668701171875,-2.7289167221084236,9.308293651115894,1.4419022507406771
1773148844113705700,7.486705810546875,-2.7035122317388653,9.32225144931972,1.3989403302401304
1773148844123742500,7.496742431640625,-2.6845260839790104,9.335704220610856,1.3447504748910666
1773148844133779500,7.506779541015625,-2.669897546906769,9.349194985824823,1.2785162537440657
1773148844143816700,7.516816650390625,-2.659489257878065,9.362410441228747,1.2011497401427478
1773148844153853700,7.526853759765625,-2.652639245852828,9.374701767525076,1.1175191977106034
1773148844163890700,7.536890625,-2.6463056589171288,9.386000575652718,1.0346255912508815
1773148844173926700,7.5469267578125,-2.636013982005417,9.397268404120206,0.9556083878330885
1773148844183963600,7.556963623046875,-2.618574479165673,9.409642148002982,0.8786955362834036
1773148844194000600,7.567000732421875,-2.594937875251472,9.422932422208785,0.8031345377340913
1773148844204037600,7.57703759765625,-2.5693358164831994,9.435913484334945,0.7296915542520582
1773148844214074600,7.58707470703125,-2.5453058293372393,9.44763607083261,0.6587908025987446
1773148844224111600,7.597111572265625,-2.5222999245420095,9.458449141269922,0.5883284423626959
1773148844234148600,7.607148681640625,-2.498812665970623,9.468813298895954,0.517604033656977
1773148844244184600,7.6171845703125,-2.473971654702723,9.478958260813355,0.4463428146608174
1773148844254221600,7.6272216796875,-2.4474223782122135,9.489024896797538,0.3727294065153226
1773148844264258600,7.637258544921875,-2.4174798060216007,9.499397237730026,0.2960378695661202
1773148844274295600,7.647295654296875,-2.3817256249427796,9.510498477458952,0.21955977443819863
1773148844284332500,7.65733251953125,-2.344149927525222,9.521180614992975,0.14984147403510287
1773148844294369800,7.667369873046875,-2.3067810047261417,9.531047929012775,0.0909305541140493
1773148844304406500,7.677406494140625,-2.2697947976343333,9.540260578516126,0.04300280963336117
1773148844314443500,7.687443603515625,-2.231032666911185,9.549496024373173,0.0038791632524735175
1773148844324479500,7.6974794921875,-2.185900124373287,9.559876548612117,-0.031109346381085923
1773148844334516500,7.7075166015625,-2.1335021208770573,9.571530161526798,-0.0660036318280967
1773148844344553700,7.7175537109375,-2.0774391651324926,9.583552607753873,-0.10067414128948002
1773148844354590700,7.7275908203125,-2.02127011866495,9.59513841612935,-0.13473902670764362
1773148844364627700,7.737627685546875,-1.9667808419778943,9.605897126030921,-0.1699616125272587
1773148844374664400,7.74766455078125,-1.9168544892922044,9.615225510868429,-0.2085448978184722
1773148844384701700,7.75770166015625,-1.8744402658022938,9.622537879708409,-0.25230169502375643
1773148844394738700,7.76773876953125,-1.839670857977122,9.627729018610715,-0.30469500407855954
1773148844404774700,7.777774658203125,-1.811630173885077,9.630820554885268,-0.3683271895010024
1773148844414811600,7.787811767578125,-1.7896188330851495,9.631905427512526,-0.4405211227700114
1773148844424848600,7.7978486328125,-1.776039658935368,9.630836336976289,-0.5128949061179533
1773148844434885400,7.807885498046875,-1.7728087141901254,9.627782210102676,-0.5773614600053056
1773148844444922600,7.817922607421875,-1.777063449025154,9.623500002738833,-0.6329898602575064
1773148844454959600,7.827959716796875,-1.7829150976628063,9.618639118704198,-0.6880201119534671
1773148844464996600,7.83799658203125,-1.7835346908658742,9.61369815517068,-0.7524716874673962
1773148844475033600,7.84803369140625,-1.776044919632375,9.608764790421723,-0.8292809325121343
1773148844485069600,7.858069580078125,-1.7624262902550398,9.60347545184195,-0.9151546507611871
1773148844495106800,7.86810693359375,-1.7477923463553189,9.59730231616497,-1.0036924005877226
1773148844505143600,7.8781435546875,-1.7360833499915898,9.589966566449403,-1.0903883219398558
1773148844515180500,7.8881806640625,-1.7279700400322675,9.581801964694261,-1.171991011806205
1773148844525217500,7.898217529296875,-1.7188886156931518,9.573889291873574,-1.2475718110345304
1773148844535254800,7.9082548828125,-1.7037052212171255,9.567261982688308,-1.317292851383984
1773148844545291800,7.918291748046875,-1.6817432725168764,9.562232756349443,-1.380517223190516
1773148844555327700,7.92832763671875,-1.6564897349253296,9.558724455967544,-1.4343018587395548
1773148844565364500,7.938364501953125,-1.6290419021598994,9.55675695528686,-1.4781773869536816
1773148844575401500,7.9484013671875,-1.597449370805174,9.556150806087254,-1.516088307674974
1773148844585438700,7.958438720703125,-1.5577495208404957,9.557039279359579,-1.5513932836815714
1773148844595475700,7.968475830078125,-1.509300693361461,9.558974046814441,-1.5869526728406547
1773148844605512700,7.9785126953125,-1.455733499955386,9.560565115398168,-1.6269029904350638
1773148844615549400,7.988549560546875,-1.4023410785943269,9.56072936604917,-1.6722032907553017
1773148844625586400,7.99858642578125,-1.351370185291767,9.559225975748896,-1.7220263291969895
1773148844635622400,8.008622314453126,-1.3034922895684837,9.55630979604125,-1.774325548493862
1773148844645659600,8.01865966796875,-1.2584217063508927,9.552492868101597,-1.826650194492936
1773148844655696000,8.02869580078125,-1.2148126470532268,9.548948911884427,-1.8740860455371438
1773148844665733000,8.038733154296875,-1.1714800666093825,9.546822421249747,-1.9121255610741674
1773148844675770000,8.04877001953125,-1.1264274574398994,9.546177109083533,-1.9421802153371273
1773148844685807000,8.05880712890625,-1.0795775895901023,9.546559970921278,-1.9667517620138824
1773148844695843800,8.06884375,-1.0320715959191322,9.54739466817975,-1.9880815502904354
1773148844705881000,8.078881103515625,-0.9848943958111107,9.548321135374904,-2.0074698491103944
1773148844715917000,8.0889169921875,-0.9386305842209607,9.549119007754324,-2.025751647993177
1773148844725954000,8.0989541015625,-0.8940703616783022,9.549559737259148,-2.0437530224993825
1773148844735991000,8.108990966796876,-0.8501910340718924,9.549866611251234,-2.06097669063136
1773148844746028000,8.119028076171874,-0.806012723518908,9.55045347122848,-2.075949364966154
1773148844756065000,8.12906494140625,-0.7612602663397788,9.551288753008842,-2.0889567305773493
1773148844766102000,8.13910205078125,-0.7164768295004963,9.552257305780053,-2.100338394682854
1773148844776139000,8.149138916015625,-0.6748625972818583,9.553177343234418,-2.109910525148362
1773148844786176000,8.159176025390625,-0.639895840253681,9.554135959133506,-2.116459362269938
1773148844796212000,8.1692119140625,-0.6133114924497902,9.555046644237636,-2.120223829369992
1773148844806249200,8.179249267578125,-0.5957431025333703,9.55584159400761,-2.1216487476065753
1773148844816286200,8.1892861328125,-0.5861863157674669,9.556782089728117,-2.1200680542863903
1773148844826323000,8.199322998046876,-0.58269668355342,9.558087327107787,-2.1151422883220015
1773148844836360000,8.20935986328125,-0.5830510864816606,9.559996960121392,-2.1063938953295347
1773148844846397000,8.21939697265625,-0.5846620288096368,9.56211000675261,-2.096333981347084
1773148844856434200,8.22943408203125,-0.5849722638025879,9.56412426918447,-2.087038768126815
1773148844866471200,8.23947119140625,-0.5837756013639271,9.565702478286623,-2.080129280999303
1773148844876507100,8.249507080078125,-0.5818572005219758,9.566132686397433,-2.0786926723249257
1773148844886544000,8.2595439453125,-0.5799224695997313,9.565395604294539,-2.0826190519884227
1773148844896580900,8.269580810546875,-0.5778140626110136,9.564639232969283,-2.0866696425534785
1773148844906618000,8.2796181640625,-0.5758793316887691,9.564610591396688,-2.087335705246776
1773148844916655000,8.289655029296876,-0.5749546545919031,9.565326046189666,-2.084310512206703
1773148844926692000,8.299692138671874,-0.5759548811430111,9.567279518344998,-2.075053439039737
1773148844936728800,8.309728759765624,-0.5788146544883027,9.570973696687817,-2.057138573773205
1773148844946766000,8.31976611328125,-0.5818854037031531,9.576209259253739,-2.0317536648869514
1773148844956803000,8.329802978515625,-0.5836825893182307,9.582407529371975,-2.0017925341263414
1773148844966839000,8.339839111328125,-0.5835174984170124,9.589138883453607,-1.969345431768894
1773148844976876000,8.3498759765625,-0.582698108325526,9.595940380162,-1.9361760064862668
1773148844986913000,8.3599130859375,-0.5844073964614421,9.602067338609695,-1.9050364795960484
1773148844996950000,8.369949951171876,-0.5927148407533764,9.606184126278757,-1.8815677795946597
1773148845006987000,8.379987060546876,-0.6084055636970326,9.607158524268865,-1.8715642719745635
1773148845017024000,8.39002392578125,-0.6265651609722525,9.606209845241903,-1.8704324914656578
1773148845027061000,8.40006103515625,-0.6398617187883705,9.60595791630745,-1.8672256582483648
1773148845037097000,8.410096923828124,-0.6444839717615395,9.607851182708144,-1.8558558307111261
1773148845047134000,8.420134033203125,-0.6410322238724678,9.611553544357418,-1.8377971730597316
1773148845057171200,8.430171142578125,-0.6326573403675109,9.615801264929772,-1.8183767255358396
1773148845067208000,8.4402080078125,-0.6232108090430498,9.619266895213723,-1.803247253204137
1773148845077245000,8.450244873046875,-0.6150962569747119,9.621255438682436,-1.7954093991853295
1773148845087282000,8.460281982421876,-0.6085237101839855,9.621834115353225,-1.794542407092452
1773148845097319200,8.470319091796876,-0.6018469723664224,9.621664019483328,-1.7977043782547115
1773148845107356200,8.480356201171874,-0.5941961288196965,9.621455345168709,-1.8013611471965907
1773148845117392100,8.49039208984375,-0.5854822956839576,9.621515550923347,-1.8038940266750751
1773148845127429000,8.50042919921875,-0.5766480510389432,9.621859834316373,-1.804905980196595
1773148845137465900,8.5104658203125,-0.5686292509626597,9.62221873075664,-1.8055397480554878
1773148845147503000,8.520503173828125,-0.5610465407487004,9.622381812363862,-1.8070409463986754
1773148845157540000,8.5305400390625,-0.5534110409015789,9.62233329704702,-1.8096499598532914
1773148845167577000,8.5405771484375,-0.5452864788958802,9.62227367581427,-1.81243169952631
1773148845177614000,8.550614013671876,-0.53644675435815,9.622499301263689,-1.813866846895963
1773148845187650800,8.56065087890625,-0.5269775362778455,9.623204234662651,-1.8129050161264835
1773148845197686800,8.570686767578126,-0.5172132442411035,9.624351651132105,-1.8096259944558142
1773148845207724000,8.58072412109375,-0.5073496565483511,9.625763856017588,-1.8048999888472257
1773148845217761000,8.590760986328124,-0.4982701319053769,9.627025254255532,-1.8007010758526623
1773148845227798000,8.600798095703125,-0.49149523094296454,9.627759998270868,-1.7986252924919128
1773148845237835000,8.6108349609375,-0.487570129921101,9.627877487170696,-1.7990622226044535
1773148845247872000,8.6208720703125,-0.4870854151440784,9.627484688460827,-1.8012971420496702
1773148845257909000,8.630908935546875,-0.4904867845527827,9.626695583909749,-1.8045887309409676
1773148845267946000,8.640946044921876,-0.49699116147812455,9.62574398227334,-1.807879589179903
1773148845277982000,8.65098193359375,-0.5055123946512118,9.624964230072498,-1.8096708565108477
1773148845288019000,8.66101904296875,-0.514784300061129,9.62453168387413,-1.8093547762989997
1773148845298056200,8.67105615234375,-0.5231430361488834,9.624297875118256,-1.8082047294810413
1773148845308093200,8.68109326171875,-0.5290647178154438,9.623978141644596,-1.8081861709110438
1773148845318130000,8.6911298828125,-0.5321294026156888,9.623381344795227,-1.8104547003649174
1773148845328167000,8.7011669921875,-0.5332833584237844,9.622885670232773,-1.812754063348472
1773148845338204200,8.7112041015625,-0.5344572610413655,9.623400634017585,-1.8096711487717925
1773148845348241200,8.7212412109375,-0.5366988294230773,9.625678515821695,-1.7968451310768723
1773148845358277000,8.731277099609375,-0.5388050079220905,9.62977250713706,-1.7741336791835725
1773148845368314000,8.741314208984376,-0.5376012216228991,9.63540320650041,-1.7436717592939734
1773148845378350800,8.751350830078126,-0.5313295574748889,9.642220485299825,-1.7075383696392177
1773148845388387800,8.761387939453124,-0.520986515702121,9.649626962164044,-1.6684367778286338
1773148845398425000,8.771425048828124,-0.5089207052573561,9.656862758636475,-1.6298375825822353
1773148845408462000,8.781462158203125,-0.4963259390350431,9.663611063852906,-1.5933204543069004
1773148845418499000,8.7914990234375,-0.4841481561157852,9.669949034702777,-1.5582203532226382
1773148845428536000,8.8015361328125,-0.4745530831661075,9.675864980748296,-1.5240765299499035
1773148845438572000,8.811572021484375,-0.467933738091588,9.681398649477957,-1.4906203966803848
1773148845448609000,8.821609130859375,-0.4608944140393287,9.686513800534605,-1.4592517372094094
1773148845458646000,8.83164599609375,-0.44874267887677993,9.691332598993181,-1.430769300699234
1773148845468683000,8.84168310546875,-0.4293990594487637,9.695556354168057,-1.407909087985009
1773148845478720000,8.851719970703124,-0.40397363588903096,9.69929729426205,-1.389537711122632
1773148845488757200,8.86175732421875,-0.3770768246024847,9.702740712714194,-1.3729624238967895
1773148845498794000,8.8717939453125,-0.35363417235780503,9.70540028731227,-1.3603417195156216
1773148845508831000,8.8818310546875,-0.336640732785128,9.706679805728793,-1.3555112306192516
1773148845518867000,8.891866943359375,-0.32638566155675797,9.706475807589293,-1.3594779422931373
1773148845528904000,8.901904052734375,-0.3189834955414757,9.705270523452759,-1.3697995759516954
1773148845538941200,8.911941162109375,-0.3075730072002858,9.704135381942987,-1.3804117169894277
1773148845548978200,8.921978271484376,-0.28573821027735247,9.703861825698613,-1.3870165220819413
1773148845559015000,8.932014892578126,-0.25003802440809086,9.704639239811897,-1.388482356850803
1773148845569052000,8.942052001953124,-0.20146964393630623,9.70614438367784,-1.3858407563008368
1773148845579089000,8.9520888671875,-0.14272593380832113,9.708090257048607,-1.3794953327968715
1773148845589126100,8.962126220703125,-0.07691435852018184,9.71008113860488,-1.370692871529609
1773148845599163100,8.9721630859375,-0.006607304151920834,9.711651164400577,-1.3616877272970973
1773148845609199000,8.98219921875,0.062260924468701705,9.712478847396373,-1.3543451094493268
1773148845619236000,8.992236083984375,0.12120160020720212,9.712857033059,-1.3476153628028928
1773148845629272800,9.00227294921875,0.1611693073278293,9.713204239061474,-1.3409233178183435
1773148845639310000,9.01231005859375,0.17861257302723824,9.713858903577924,-1.3339515791095793
1773148845649347000,9.02234716796875,0.17866435801340266,9.714747376850246,-1.3274525724790989
1773148845659384800,9.032384765625,0.17003520748643203,9.715254741850496,-1.3248729312494396
1773148845669421600,9.042421630859375,0.16028605821989475,9.714677818745374,-1.3303056238226592
1773148845679458600,9.05245849609375,0.1550227308642119,9.712471248611807,-1.3469370251499115
1773148845689494800,9.062494873046875,0.15815648057898504,9.708087918961047,-1.3778252076275646
1773148845699531800,9.07253173828125,0.17055154124442487,9.701969143819808,-1.4188384782783687
1773148845709568800,9.08256884765625,0.18720473427837714,9.695932201743126,-1.4574686531849204
1773148845719605800,9.092605712890625,0.2019014594823122,9.69068085708618,-1.4900748916268347
1773148845729642800,9.102642822265626,0.2145961972140707,9.685320791357755,-1.522788828226924
1773148845739679700,9.1126796875,0.2332418792394921,9.678848380473255,-1.5607232759542762
1773148845749716700,9.122716796875,0.25664427253901956,9.672056820636987,-1.598691187559813
1773148845759752700,9.132752685546874,0.26167271342659365,9.666855744862556,-1.6290509622491895
1773148845769789700,9.142789794921875,0.23537920179544014,9.665151863554119,-1.643109444348514
1773148845779826700,9.15282666015625,0.1870529595164582,9.666843469902872,-1.6393739110819994
1773148845789864000,9.162864013671875,0.13784480157010257,9.670032036811113,-1.6253832335218785
1773148845799900700,9.172900634765625,0.10331184198246336,9.672401104030012,-1.6137975712768733
1773148845809937700,9.182937744140625,0.08497218456575646,9.674503629267216,-1.6022252069048581
1773148845819974700,9.192974609375,0.07781044884338043,9.677633159464596,-1.5835796892762184
1773148845830012000,9.203011962890624,0.07550969762033782,9.681717798429727,-1.5585222587786614
1773148845840047900,9.2130478515625,0.07324317746045998,9.686643564394116,-1.5277351985879242
1773148845850084900,9.2230849609375,0.06980028416470159,9.691994862294196,-1.4935696018747984
1773148845860121600,9.23312158203125,0.06579965195490513,9.696554133033752,-1.463859669396281
1773148845870158600,9.24315869140625,0.06213800590850878,9.698708680719136,-1.4496800451353191
1773148845880195800,9.25319580078125,0.06005003891962114,9.698167997971176,-1.4533825529150664
1773148845890232800,9.26323291015625,0.06102463783912826,9.69614730579853,-1.4667670812755822
1773148845900269800,9.273269775390625,0.06599404658242128,9.694235919219254,-1.4791256275892257
1773148845910306800,9.283306884765626,0.07632527918638661,9.693393623176217,-1.4841497393615544
1773148845920342800,9.2933427734375,0.09530686036897823,9.693636784282326,-1.4814507095359264
1773148845930379500,9.303379638671874,0.12550305112763308,9.694159346851706,-1.4757735406823456
1773148845940416800,9.313416748046874,0.16322545440634711,9.694532271817327,-1.469615456444025
1773148845950453800,9.323453857421875,0.19837882004780694,9.694715811690688,-1.4640693666242062
1773148845960490800,9.33349072265625,0.22294411964686586,9.694665542808174,-1.4608696938000618
1773148845970527700,9.34352783203125,0.2345616931337863,9.69433879507184,-1.4612174843244254
1773148845980564700,9.353564697265625,0.23539326685341075,9.694113754144311,-1.4625712370209396
1773148845990601700,9.363601806640625,0.22930101439291609,9.694444009011983,-1.4613520704895258
1773148846000637700,9.3736376953125,0.2210453368208371,9.695578565999865,-1.4550919871814547
1773148846010674700,9.3836748046875,0.21327627372192218,9.697298813921213,-1.4447557404756546
1773148846020711700,9.393711669921874,0.20381136649055406,9.699181558927894,-1.433438958299905
1773148846030749000,9.4037490234375,0.1887332772862166,9.70120400466621,-1.4217692710332572
1773148846040785700,9.41378564453125,0.1643841046558693,9.70342109619379,-1.4096046398565172
1773148846050822700,9.42382275390625,0.13040361871868372,9.70573521835506,-1.3971705440886317
1773148846060859600,9.433859619140625,0.09036537624564953,9.708249247002602,-1.3827990505173802
1773148846070896600,9.443896728515625,0.04844915627259761,9.711004098668694,-1.3654489795267581
1773148846080932900,9.453932861328125,0.0071222776407113995,9.713942490208149,-1.3452391351908444
1773148846090969900,9.463969970703126,-0.03315007669476326,9.71705331570506,-1.3221866147749126
1773148846101006800,9.4740068359375,-0.07138327903982718,9.720221424347162,-1.2971493502825497
1773148846111043600,9.484043701171874,-0.10532763878428376,9.723293086877465,-1.2715639503881335
1773148846121080600,9.49408056640625,-0.13445083001656458,9.726037417149543,-1.2476024984337388
1773148846131117800,9.504117919921875,-0.1600582042807713,9.728434541419148,-1.2256848272666334
1773148846141154800,9.51415478515625,-0.1832036636771634,9.730549926137924,-1.205493833761662
1773148846151191800,9.52419189453125,-0.20344012202536685,9.732401106962561,-1.1871730911079794
1773148846161227800,9.534227783203125,-0.22014694494269788,9.733870594993233,-1.1720456646028905
1773148846171264800,9.5442646484375,-0.2338131397888064,9.734670220938325,-1.1627146494168787
1773148846181301800,9.5543017578125,-0.24586884896466507,9.734755561134218,-1.1595036514811217
1773148846191338800,9.5643388671875,-0.25805068700453265,9.734159933328629,-1.1618677502639592
1773148846201375700,9.574375732421874,-0.27130093972720204,9.73298329076469,-1.1686871479552239
1773148846211412700,9.584412841796874,-0.2855609174816869,9.731486330205202,-1.1777125312581658
1773148846221449700,9.59444970703125,-0.30196472059814256,9.729907536581159,-1.1866367192089557
1773148846231486700,9.60448681640625,-0.32278975595664233,9.728280227640271,-1.194460325506702
1773148846241522700,9.614522705078125,-0.3491667446201667,9.726575177288055,-1.2009182694744318
1773148846251559700,9.6245595703125,-0.3785301286833361,9.725303257656098,-1.2023245560757816
1773148846261596700,9.6345966796875,-0.407192597935535,9.724089790213107,-1.2027619976449757
1773148846271633700,9.644633544921875,-0.43208647190183397,9.722695120984316,-1.2053563249871133
1773148846281671000,9.6546708984375,-0.45239561189375815,9.721365918207168,-1.2086243868723512
1773148846291707600,9.664707763671874,-0.4704095536205917,9.720220255303383,-1.2109726304989308
1773148846301744600,9.67474462890625,-0.489550782344304,9.71917805277407,-1.211740692261979
1773148846311781600,9.68478173828125,-0.5120108167598024,9.71810077893138,-1.2111014445103705
1773148846321817600,9.694817626953125,-0.5388556786634028,9.71664415038228,-1.211136661954224
1773148846331854800,9.704854736328125,-0.5716929859148339,9.714638655778765,-1.2121753573521972
1773148846341891800,9.714891845703125,-0.6119236913532018,9.712339731186628,-1.2109483728405088
1773148846351928800,9.7249287109375,-0.6583405015479773,9.710273446306585,-1.203151362288743
1773148846361965600,9.734965576171875,-0.7065015981268137,9.70886884020567,-1.1870568443171678
1773148846372002800,9.7450029296875,-0.7529243996709585,9.707979782411455,-1.1655960500720888
1773148846382039800,9.755039794921874,-0.7978004101645201,9.706569331091641,-1.1473469844151287
1773148846392076800,9.765076904296874,-0.8451330930951982,9.703855395957827,-1.1363586304761468
1773148846402113800,9.77511376953125,-0.8990524609398096,9.699610597994923,-1.1312132304117082
1773148846412149800,9.785149658203125,-0.9592525164891034,9.6942616381824,-1.1276161557678133
1773148846422186800,9.795186767578125,-1.0245189155172556,9.688120066687464,-1.1229833083353935
1773148846432223700,9.8052236328125,-1.095095184456557,9.681131522974372,-1.1166348160915076
1773148846442260700,9.8152607421875,-1.1719156084824354,9.672989717572927,-1.1091786548666656
1773148846452297700,9.825297607421875,-1.257779901316017,9.662948800551892,-1.1026322288978845
1773148846462334700,9.835334716796876,-1.3576977808780968,9.649832713869214,-1.098988903959468
1773148846472371700,9.845371826171874,-1.4735318992353974,9.632990300139785,-1.0975300103880465
1773148846482408000,9.855407958984374,-1.6047250608965753,9.611652328556776,-1.1006236655544488
1773148846492444700,9.865444580078124,-1.7485016636684536,9.585370470830798,-1.1107670200366526
1773148846502481700,9.875481689453125,-1.9013702121734617,9.554340541794895,-1.126840787481144
1773148846512518700,9.8855185546875,-2.0607773686669764,9.51900794712901,-1.1454512337964027
1773148846522556000,9.895555908203125,-2.2224771661423146,9.480673248037695,-1.160954800137505
1773148846532593000,9.905593017578125,-2.3796380050137635,9.440759170800447,-1.1746473715338854
1773148846542629600,9.915629638671875,-2.5273548698440194,9.400964336028695,-1.1852154542341828
1773148846552666600,9.92566650390625,-2.6634116920188067,9.362828374379873,-1.189142199223861
1773148846562702600,9.93570263671875,-2.7857848567560315,9.327629050704836,-1.1853766361452638
1773148846572739800,9.94573974609375,-2.8916046538382765,9.296516704082489,-1.1763441655144096
1773148846582776800,9.95577685546875,-2.9779581184282895,9.270463978937268,-1.1664620923168956
1773148846592813800,9.965813720703125,-3.0425843198567626,9.250209710937737,-1.1604643862720578
1773148846602850600,9.9758505859375,-3.085736063840985,9.235850346195697,-1.160899343623221
1773148846612887600,9.985887451171875,-3.109237350937724,9.227240923282503,-1.1666364259704947
1773148846622924800,9.9959248046875,-3.1127327918380496,9.225098650556802,-1.1742325801879168
1773148846632961800,10.0059619140625,-3.0942347198560833,9.230672651296853,-1.179316240127757
1773148846642997800,10.015997802734375,-3.0527932869210836,9.244641555416584,-1.177896290327236
1773148846653034800,10.02603466796875,-2.989396042765677,9.266520209747553,-1.1685524156596512
1773148846663071000,10.036071044921876,-2.911643233260512,9.292685163095593,-1.1570367499109357
1773148846673108200,10.046108154296874,-2.827892060123384,9.318739641806483,-1.1552102651361376
1773148846683145000,10.05614501953125,-2.746545610040426,9.340953811702132,-1.171948049447313
1773148846693182000,10.066181884765625,-2.6788345943391323,9.35602453958392,-1.207907324644178
1773148846703219000,10.076218994140625,-2.6366683542609213,9.361559961879253,-1.256798489063233
1773148846713256200,10.086256103515625,-2.616962952315807,9.359469127079844,-1.312335813498497
1773148846723292200,10.096292236328125,-2.5940306972786784,9.357608593904972,-1.3698713260136544
1773148846733329200,10.1063291015625,-2.5416031754270194,9.363249230140447,-1.4283574172519147
1773148846743366000,10.116365966796875,-2.4543138912916183,9.377226902088521,-1.488076265155524
1773148846753403000,10.12640283203125,-2.3435732966810465,9.39545287913084,-1.5503237547539173
1773148846763440000,10.136440185546874,-2.2257113257579504,9.412416873413324,-1.6195711862422526
1773148846773477000,10.14647705078125,-2.1112914581127464,9.424883556276558,-1.6983530465342103
1773148846783514000,10.15651416015625,-2.0015780145928264,9.433643201315402,-1.7805781791478394
1773148846793550000,10.166550048828125,-1.8904492974475025,9.442484679418802,-1.8536703033655881
1773148846803587000,10.176587158203125,-1.7711480875015257,9.454803478243946,-1.907904582378268
1773148846813624000,10.1866240234375,-1.642675875236839,9.471912433955072,-1.9377461784124372
1773148846823661000,10.1966611328125,-1.5187847071520983,9.491583933630585,-1.9425496331714092
1773148846833698000,10.206697998046875,-1.4169040030844509,9.511011687678097,-1.9244306236349045
1773148846843735000,10.216735107421876,-1.3355892633140087,9.529871870970725,-1.8889472223214805
1773148846853772000,10.22677197265625,-1.2609991556234657,9.548368481647968,-1.8463310465186833
1773148846863809000,10.23680908203125,-1.187388195163384,9.565601940521598,-1.8054798345617948
1773148846873845000,10.246844970703124,-1.1298247717279941,9.57848363392651,-1.773850039936602
1773148846883882000,10.256882080078125,-1.1090527634646743,9.585891864356398,-1.7467250093847513
1773148846893919000,10.2669189453125,-1.127391480166465,9.590272271397708,-1.7105699924200772
1773148846903956000,10.2769560546875,-1.1691126068256794,9.593770050385594,-1.662262034716457
1773148846913993200,10.2869931640625,-1.214005568454042,9.59763841625154,-1.6068291935689747
1773148846924030000,10.297030029296875,-1.2493009729146958,9.602306408062576,-1.5509196748204528
1773148846934067000,10.30706689453125,-1.2744476891309022,9.606778000518679,-1.50199665395841
1773148846944104000,10.31710400390625,-1.2951529157683253,9.609975335255264,-1.4633340380869806
1773148846954140000,10.327139892578124,-1.3133954055540262,9.611933483585714,-1.4339166588142513
1773148846964177200,10.33717724609375,-1.325640700751543,9.61321183295846,-1.4139419384084642
1773148846974214100,10.347214111328125,-1.3276236912623047,9.614780105188489,-1.401355428557843
1773148846984251100,10.357251220703125,-1.3152229132421314,9.617618543484806,-1.393550015503913
1773148846994287900,10.367287841796875,-1.2902630979001521,9.621800213083624,-1.388007578945905
1773148847004324900,10.377324951171875,-1.2574929010681808,9.626703182694316,-1.3840801763691006
1773148847014362000,10.387362060546875,-1.2211354203339666,9.632023500934242,-1.3796180823937059
1773148847024398000,10.397398193359376,-1.1854863070648163,9.637708560833333,-1.3709825021259485
1773148847034435000,10.40743505859375,-1.153530641486123,9.643374916031956,-1.3583333023026585
1773148847044472000,10.41747216796875,-1.12704661225155,9.64855319545269,-1.3437125101454555
1773148847054508800,10.4275087890625,-1.1044257612511514,9.653286069193483,-1.3284291624262927
1773148847064546000,10.437546142578125,-1.077539946282655,9.65886649967432,-1.3098144783273338
1773148847074583000,10.4475830078125,-1.0393209094602613,9.666521982863545,-1.2839670664958656
1773148847084620000,10.4576201171875,-0.9913725788492709,9.676072486019134,-1.2494799827434122
1773148847094657000,10.467656982421875,-0.9430648403413593,9.685623573696613,-1.2123241181731224
1773148847104693000,10.47769287109375,-0.9061117318015545,9.692973936459422,-1.1813665967863052
1773148847114730200,10.487730224609376,-0.8901995846595615,9.69648165231943,-1.1645490983024238
1773148847124767000,10.49776708984375,-0.8954928687620908,9.695703653684259,-1.1669666077729315
1773148847134804000,10.507803955078124,-0.9127402830958365,9.691301619333029,-1.1899370028633625
1773148847144841000,10.517841064453124,-0.9300867738898843,9.684517073759435,-1.2310384632542728
1773148847154878200,10.527878173828125,-0.9393133788533509,9.676423783674835,-1.286432433696091
1773148847164915200,10.537915283203125,-0.9363638083327561,9.668227617737651,-1.3486980434730649
1773148847174951200,10.547951171875,-0.9244031752955167,9.66054349297583,-1.41058356789127
1773148847184988000,10.55798779296875,-0.9117966455701738,9.653031802171467,-1.4690060923740267
1773148847195025000,10.56802490234375,-0.9053911624420433,9.645899466073512,-1.5189694160692393
1773148847205062000,10.578061767578125,-0.9069127459861338,9.640258245316147,-1.5534854336552322
1773148847215099100,10.58809912109375,-0.9159256351336836,9.636610828724503,-1.570725614530593
1773148847225136000,10.59813623046875,-0.9325254722788929,9.63437737058401,-1.5746557935863732
1773148847235172900,10.6081728515625,-0.9566639613006264,9.632814943572878,-1.5697295892305672
1773148847245209900,10.6182099609375,-0.9852828106068074,9.632081368601321,-1.556475263120979
1773148847255245800,10.628245849609375,-1.0124516803003847,9.632952890738844,-1.5334820716768502
1773148847265283000,10.638282958984375,-1.0313685622163116,9.636011109265684,-1.5013225540891288
1773148847275320000,10.648320068359375,-1.0372733292806893,9.641330842983722,-1.4625962253317235
1773148847285357000,10.658357177734375,-1.031518345950544,9.64821943345368,-1.4206415821775793
1773148847295394000,10.66839404296875,-1.0206649435028434,9.655201547425985,-1.3804767450496553
1773148847305431000,10.67843115234375,-1.010731432379037,9.661009941443801,-1.3467353650979696
1773148847315468000,10.688468017578124,-1.0050020218815654,9.665256492972373,-1.3202996319845317
1773148847325504000,10.69850390625,-1.0046461941812186,9.668009006550907,-1.3002609064318238
1773148847335541000,10.708541015625,-1.0105506689846515,9.669130119535327,-1.287284958872199
1773148847345578000,10.718577880859375,-1.0209624651446938,9.6687121863842,-1.2821838363409042
1773148847355615200,10.728615234375,-1.0316644033577294,9.6672216555655,-1.2848618233785032
1773148847365652000,10.73865185546875,-1.03927465916574,9.665278120282291,-1.2933254080802201
1773148847375689000,10.74868896484375,-1.0440936037547885,9.663087916761636,-1.305752343454957
1773148847385726000,10.758725830078125,-1.048158368975669,9.660593761858344,-1.3208546355187891
1773148847395763000,10.768762939453126,-1.0544341613095254,9.657740710514783,-1.3366431562811136
1773148847405799000,10.778798828125,-1.0676483015391975,9.654018475121259,-1.3529444488711655
1773148847415836200,10.788836181640624,-1.0913169810920953,9.648733812716603,-1.3716178774200378
1773148847425873200,10.798873046875,-1.125772281466797,9.641580433830619,-1.3939013131596147
1773148847435910000,10.808909912109375,-1.1642078105840832,9.632955228826402,-1.4216788162708283
1773148847445947000,10.81894677734375,-1.1974715630866586,9.624099722197652,-1.4536708683371542
1773148847455984000,10.828984130859375,-1.2188548351161181,9.616896074429153,-1.4832751484841107
1773148847466021000,10.839021240234375,-1.2285621362686157,9.612324528729916,-1.5047460987970231
1773148847476057000,10.84905712890625,-1.2315301922939716,9.610123219293355,-1.5163285461716354
1773148847486094000,10.859093994140625,-1.2323980611696839,9.6096105935961,-1.5188713625222443
1773148847496130800,10.869130859375,-1.2324869084969161,9.610474516949058,-1.5133229346148669
1773148847506168000,10.87916796875,-1.2311848859876393,9.612545478004217,-1.5011819765746592
1773148847516205000,10.889205078125,-1.2280145853884517,9.61537573299408,-1.4855673510745167
1773148847526242000,10.899241943359375,-1.2236333746295422,9.618025955241919,-1.4719656728319823
1773148847536279000,10.909279052734375,-1.2201050543729215,9.619359834194183,-1.4661593246407807
1773148847546316000,10.91931591796875,-1.2190955850694327,9.618908583295346,-1.4699652927950024
1773148847556352300,10.929352294921875,-1.2207612532593308,9.617247956606745,-1.4794200804911553
1773148847566389000,10.939388916015625,-1.2240824335712939,9.615216158518194,-1.4898381602615116
1773148847576426000,10.949426025390625,-1.2284002237051725,9.613225861483812,-1.4991042935177683
1773148847586463000,10.959462890625,-1.234230098902434,9.611303368988633,-1.5066270902380345
1773148847596500000,10.9695,-1.2421950864322482,9.609345805180073,-1.5125434746749697
1773148847606537200,10.979537109375,-1.25317708369568,9.606996611705421,-1.5184046217933296
1773148847616574000,10.989573974609375,-1.2669209468878806,9.60405237494707,-1.5256125073455273
1773148847626610000,10.99960986328125,-1.2828981220901012,9.600423663055896,-1.5350670027807354
1773148847636647000,11.00964697265625,-1.3015825104244052,9.596112229597567,-1.5462569437064229
1773148847646684000,11.019683837890625,-1.3223929510019719,9.59129576922655,-1.558433119190484
1773148847656721200,11.02972119140625,-1.3437008197076619,9.586591537058354,-1.5691079502008853
1773148847666758400,11.03975830078125,-1.3653463959351182,9.582254969158768,-1.5768974350333214
1773148847676795400,11.04979541015625,-1.3888153881974517,9.57816974567175,-1.5812215818427502
1773148847686832400,11.059832275390624,-1.4132619933202861,9.574602408578992,-1.5811672213070094
1773148847696869400,11.069869384765624,-1.4356132335990666,9.57197381364107,-1.576930606650561
1773148847706905300,11.0799052734375,-1.4552994924522935,9.570298573905228,-1.5690446757063268
1773148847716942300,11.0899423828125,-1.4740652754597365,9.569335281831025,-1.5573551146954296
1773148847726979600,11.0999794921875,-1.494471957542002,9.568872925016283,-1.5406493329577147
1773148847737016300,11.110016357421875,-1.5181554693378507,9.568614566341042,-1.5189441354975104
1773148847747053300,11.12005322265625,-1.5458226439423859,9.568124152475596,-1.493928498315066
1773148847757090300,11.13009033203125,-1.576457582311332,9.567243862509727,-1.467318431548029
1773148847767127600,11.14012744140625,-1.6085886044569313,9.566203998067975,-1.4389496845453977
1773148847777163500,11.15016357421875,-1.63797880346179,9.564954874789715,-1.4138864088289438
1773148847787200500,11.160200439453124,-1.6651213696703313,9.563065115520358,-1.394832602660358
1773148847797237500,11.170237548828124,-1.6958685362420975,9.559803483375907,-1.3800684565097092
1773148847807274200,11.180274169921875,-1.7360741437718272,9.554968902826309,-1.3634563444048164
1773148847817311200,11.190311279296875,-1.7837566630534827,9.549981177541612,-1.3365899647891522
1773148847827348500,11.200348388671875,-1.8311901760101317,9.546026886957883,-1.3001976319372652
1773148847837385500,11.210385498046875,-1.8780400438599287,9.542633152866363,-1.257579994829744
1773148847847422500,11.22042236328125,-1.9300149996384977,9.538359713330864,-1.210427271575853
1773148847857458400,11.23045849609375,-1.990545894577354,9.532494620689748,-1.1574315213821829
1773148847867495400,11.240495361328126,-2.0556591488704083,9.525858543676136,-1.0966546157930046
1773148847877532400,11.250532470703124,-2.123096169935912,9.518839020302892,-1.026910706024617
1773148847887569400,11.2605693359375,-2.1890862070634958,9.511806637448071,-0.9507055643528699
1773148847897606400,11.2706064453125,-2.2506471757024524,9.504622863423824,-0.8758589246179908
1773148847907643400,11.280643310546875,-2.31022529996112,9.496369998863338,-0.8075855257935821
1773148847917680400,11.290680419921875,-2.371549391104281,9.486136189618707,-0.7479127820540219
1773148847927716600,11.300716552734375,-2.4356046607770026,9.474035417458415,-0.6934627413988113
1773148847937753300,11.31075341796875,-2.501230248506367,9.46109877899587,-0.6339105552989989
1773148847947790300,11.320790283203126,-2.569530462272465,9.447406938251852,-0.5607235558720305
1773148847957827300,11.330827392578126,-2.6392139470905063,9.432975092795491,-0.47319560414254663
1773148847967864600,11.340864501953124,-2.7031889911338687,9.419122508531808,-0.3785182555824518
1773148847977901600,11.350901611328124,-2.7607208503872154,9.405834572413562,-0.2812275644524954
1773148847987938300,11.360938232421875,-2.8140494127318263,9.392437915223836,-0.18335110932383686
1773148847997975300,11.370975341796875,-2.863568645921349,9.37881680162847,-0.09035442559337242
1773148848008011300,11.38101123046875,-2.9107842783436175,9.364702351558208,-0.007219999540032586
1773148848018048300,11.39104833984375,-2.9653248468264937,9.347329776474833,0.06818352858386934
1773148848028085500,11.40108544921875,-3.0312434261530634,9.325360521250962,0.14003845742316917
1773148848038122500,11.41112255859375,-3.1057971473559736,9.299425285005569,0.2123772790555842
1773148848048159500,11.421159423828126,-3.1849051708623763,9.270561009570956,0.28891802762355656
1773148848058196200,11.4311962890625,-3.2633383638471365,9.240382144406437,0.3692539124244824
1773148848068233500,11.4412333984375,-3.338459655804932,9.209944920566677,0.4494316109890118
1773148848078269400,11.45126953125,-3.410416930773854,9.179164582377672,0.5314018189935014
1773148848088306400,11.461306396484375,-3.4789489074692126,9.14811477959752,0.6158759361103177
1773148848098343400,11.471343505859375,-3.548632684548199,9.115300889754295,0.6992141445323824
1773148848108380400,11.48138037109375,-3.6271395272910594,9.078032358589768,0.7769108399361372
1773148848118417400,11.49141748046875,-3.7127331134244796,9.036669251587986,0.8512493840184062
1773148848128454400,11.501454345703126,-3.7920553642034527,8.995606004315615,0.9326273252181708
1773148848138491400,11.511491455078126,-3.859799989913404,8.956067190131545,1.0301308371149003
1773148848148527400,11.52152734375,-3.9222614145234225,8.914986991724371,1.1442378394186496
1773148848158564400,11.531564453125,-3.9859851141542193,8.870430057117343,1.2640329703614115
1773148848168601600,11.5416015625,-4.057985936003923,8.82129280898273,1.3740155862115322
1773148848178638300,11.551638427734375,-4.139895280666649,8.767703842136264,1.4693654272057115
1773148848188675300,11.56167529296875,-4.219660599038004,8.714346345958113,1.5572507775381206
1773148848198712300,11.57171240234375,-4.288285806974768,8.66422067130804,1.6468987536288797
1773148848208749300,11.581749267578125,-4.349575265195965,8.615173439544439,1.7407969345100223
1773148848218786600,11.59178662109375,-4.415936327593029,8.561239604783058,1.8371397320643066
1773148848228822500,11.601822509765626,-4.493329363875091,8.499825643399356,1.932185037153959
1773148848238859500,11.611859619140626,-4.573310370823741,8.434988137307762,2.026372994761914
1773148848248896300,11.621896240234374,-4.6450288686007255,8.371282265594601,2.1250261150851846
1773148848258933200,11.631933349609374,-4.709805584415793,8.308661266508699,2.225818293263763
1773148848268970500,11.641970458984375,-4.769172842402756,8.246032668638229,2.329875026196241
1773148848279007500,11.652007568359375,-4.823699966882169,8.18250682966709,2.4390333200514314
1773148848289044500,11.66204443359375,-4.8753696561038495,8.118747766461968,2.5469763928979634
1773148848299080400,11.67208056640625,-4.929112352207302,8.052701469102502,2.6510823717996477
1773148848309117400,11.682117431640625,-4.985059280356764,7.984378458982706,2.751230552986264
1773148848319154400,11.692154541015626,-5.042707751727104,7.91211986297965,2.8530387763395906
1773148848329191400,11.70219140625,-5.106068171003461,7.834795215758681,2.9520214208781717
1773148848339228400,11.712228515625,-5.168035674616694,7.757704377293586,3.046281713069975
1773148848349265400,11.722265380859374,-5.219215242233872,7.6834835413068525,3.145515409760177
1773148848359302400,11.732302490234375,-5.263029834040999,7.609286670717596,3.2511019826084375
1773148848369339400,11.74233935546875,-5.316640428197384,7.526442967814207,3.3550530632093545
1773148848379376400,11.75237646484375,-5.393880319744349,7.4303317870587104,3.444794708932936
1773148848389413400,11.762413330078125,-5.483739454367757,7.329888130056857,3.5173458581417796
1773148848399450400,11.772450439453126,-5.5656449996382,7.237064884930849,3.580344750629365
1773148848409487400,11.7824873046875,-5.6350569740384815,7.149993919721245,3.6461093084380027
1773148848419523600,11.792523681640626,-5.705699367016553,7.057124497365951,3.7165006492644546
1773148848429560300,11.802560302734374,-5.785690018576383,6.959625661644339,3.776214236471057
1773148848439597300,11.812597412109374,-5.8679550448089834,6.863541368895769,3.8248236613392828
1773148848449634300,11.82263427734375,-5.943298162823915,6.769988640451431,3.8748993593677876
1773148848459671600,11.832671630859375,-6.006896482509374,6.678822514882683,3.9345790443047877
1773148848469708500,11.84270849609375,-6.06524053492844,6.5862570439100265,4.000558413907886
1773148848479745300,11.852745361328125,-6.125915076121688,6.491411353045701,4.0626501284226775
1773148848489781500,11.862781494140625,-6.188420924395323,6.396275154802203,4.118433974964916
1773148848499818200,11.872818359375,-6.250072201666235,6.300925021547079,4.171968289014697
1773148848509855500,11.88285546875,-6.3110407573699945,6.204793967047333,4.223942514140903
1773148848519892500,11.892892578125,-6.375244641733169,6.107534785300493,4.269036039842665
1773148848529929500,11.902929443359374,-6.442918832555413,6.013706162524223,4.300525110822916
1773148848539966500,11.912966552734375,-6.513112312722206,5.921204404437542,4.323087655764818
1773148848550003200,11.923003173828125,-6.583278904882073,5.825407696458697,4.346889971634745
1773148848560040400,11.93304052734375,-6.6522817139595745,5.727592634394765,4.371752025690674
1773148848570076400,11.943076416015625,-6.716738111779093,5.628703221097588,4.40153546179682
1773148848580113400,11.953113525390625,-6.775528154399991,5.531972447139024,4.433946323797106
1773148848590150400,11.963150390625,-6.825711112195253,5.44055673072338,4.469942935329676
1773148848600187400,11.9731875,-6.868363674485683,5.350518732401729,4.51308211209327
1773148848610224400,11.983224365234374,-6.910577260836958,5.259584662023187,4.5553351536720985
1773148848620261400,11.993261474609374,-6.954150445103645,5.168370021137595,4.593270039790869
1773148848630298400,12.00329833984375,-6.993537868118286,5.078227977919578,4.633834397630393
1773148848640334300,12.013334228515625,-7.028827792686224,4.9891947727262975,4.676954577432572
1773148848650371300,12.023371337890625,-7.058845329809189,4.904807347512245,4.720801025682688
1773148848660412400,12.033412353515626,-7.078959897077083,4.829690439468622,4.767892739464342
1773148848670449200,12.04344921875,-7.093181899175048,4.759994095169008,4.816597441400587
1773148848680486400,12.053486328125,-7.110939089661836,4.691201129449904,4.857731415821611
1773148848690523400,12.0635234375,-7.131320198911428,4.622462816527485,4.893617844977975
1773148848700560400,12.073560302734375,-7.152440143829583,4.551786229018867,4.928916537374258
1773148848710597400,12.083597412109375,-7.176158288547397,4.4769118975594635,4.962902393606305
1773148848720633300,12.09363330078125,-7.200163433513045,4.402027921488881,4.995014272660017
1773148848730670300,12.10367041015625,-7.221357028189301,4.33170058580935,5.025808639374375
1773148848740707300,12.113707275390626,-7.230850832721591,4.273665160948038,5.0617164035797115
1773148848750744300,12.123744384765626,-7.23090753134489,4.219929771368205,5.106520006424188
1773148848760781300,12.13378125,-7.227497430640459,4.175018031974137,5.148095294871926
1773148848770818600,12.143818603515625,-7.2239260018944735,4.128250435580313,5.19064790391922
1773148848780855300,12.153855224609375,-7.224982232949137,4.07914095223546,5.227869673332572
1773148848790891500,12.1638916015625,-7.2298740966439246,4.026760192134976,5.261607692283391
1773148848800928300,12.17392822265625,-7.239175008952617,3.9730025907233357,5.289610382452607
1773148848810965200,12.18396533203125,-7.252868603262304,3.919578166788816,5.3106671990066765
1773148848821002200,12.194002197265625,-7.261860888013243,3.8744586298629637,5.331447536706924
1773148848831039500,12.20403955078125,-7.263927172893285,3.837109726938605,5.355590044316649
1773148848841076500,12.214076416015626,-7.26803928438723,3.8020863443523645,5.374954085478186
1773148848851113200,12.22411328125,-7.279312958073616,3.7671938946694135,5.384257335874438
1773148848861149200,12.234149169921874,-7.294808633369207,3.729543670710921,5.38949406748414
1773148848871186200,12.244186279296875,-7.311825234621763,3.68819809936583,5.3948851128727195
1773148848881223400,12.254223388671875,-7.333096570709348,3.643794309493899,5.3961880121648305
1773148848891260400,12.264260498046875,-7.35373720767796,3.601406827880442,5.396555091911554
1773148848901297400,12.27429736328125,-7.368893860277533,3.564188273337483,5.400587708428501
1773148848911334400,12.28433447265625,-7.374613991490006,3.533794596378505,5.4127399185150855
1773148848921371400,12.294371337890626,-7.373218153217435,3.510112692017853,5.430023646271229
1773148848931408400,12.304408447265626,-7.366679106837511,3.4899767897009846,5.451833327019214
1773148848941444400,12.3144443359375,-7.358319859293103,3.4705662790492173,5.475462039887905
1773148848951481300,12.3244814453125,-7.353011231490969,3.4502298857241867,5.49540884937346
1773148848961518300,12.334518310546875,-7.350812844663858,3.4280645234063267,5.512196318045258
1773148848971555600,12.3445556640625,-7.352600897124409,3.405210302041471,5.523965081772208
1773148848981592300,12.35459228515625,-7.357464703768492,3.3846997211933134,5.530090871176124
1773148848991629300,12.36462939453125,-7.364194304284453,3.3681048524841666,5.531265760174393
1773148849001666300,12.374666259765625,-7.37412182405889,3.3554823945373293,5.525708126047253
1773148849011702300,12.384702392578125,-7.385260473188757,3.3435727610349653,5.518045628595352
1773148849021739300,12.3947392578125,-7.396119136333465,3.3300077615410086,5.511701228004694
1773148849031776500,12.404776611328124,-7.407292856776714,3.315232509474456,5.505599403998255
1773148849041813200,12.414813232421874,-7.416452314788103,3.301578954914212,5.501471510413289
1773148849051850200,12.424850341796875,-7.4224530165076255,3.290547857812047,5.499989162901044
1773148849061887200,12.43488720703125,-7.422386381012201,3.281088832332194,5.505726829770207
1773148849071924500,12.444924560546875,-7.420289116472006,3.2736364704996346,5.512984253552555
1773148849081961500,12.45496142578125,-7.419215934282541,3.2689427597254515,5.517212684902549
1773148849091997400,12.46499755859375,-7.4181602877497665,3.264663182710111,5.52116405287683
1773148849102034400,12.475034423828125,-7.420443430250883,3.2609757263690233,5.520275579604506
1773148849112071200,12.4850712890625,-7.424993348640203,3.257321880036592,5.516313690236211
1773148849122108400,12.4951083984375,-7.42947487796843,3.254851690530777,5.511735130274295
1773148849132145400,12.5051455078125,-7.437723650875687,3.252982389527559,5.501704734647274
1773148849142182400,12.515182373046875,-7.4468340090483425,3.253254484467208,5.489205903080105
1773148849152219400,12.525219482421875,-7.45351450972557,3.25580592251569,5.478617289048433
1773148849162255400,12.53525537109375,-7.459096109250187,3.2602719620138405,5.4683542537093155
1773148849172292400,12.545292236328125,-7.463775791499018,3.2668890420660373,5.458009385305643
1773148849182329300,12.555329345703125,-7.467117503142356,3.2763764168575404,5.447742842835187
1773148849192366300,12.565366455078125,-7.470421805384754,3.2897739508301016,5.435123599758744
1773148849202403300,12.5754033203125,-7.472046191716194,3.3065415457576512,5.4227019250810145
1773148849212440300,12.5854404296875,-7.4710735472917555,3.3259637468472123,5.4121542275816195
1773148849222477300,12.595477294921874,-7.467766322439909,3.349646235729754,5.402103958210349
1773148849232513500,12.605513427734374,-7.464484816551208,3.3766485166847704,5.3898143854796885
1773148849242550300,12.61555029296875,-7.460320098087191,3.4062998508438467,5.376907557633519
1773148849252587300,12.625587158203125,-7.458261996513604,3.4354829829692837,5.361172228363156
1773148849262624300,12.635624267578125,-7.464120074892044,3.462564466640353,5.335536267325282
1773148849272661500,12.64566162109375,-7.472459448692202,3.490358190234005,5.305670705893635
1773148849282698500,12.655698486328125,-7.483906140857934,3.521372044917941,5.268916553992033
1773148849292735200,12.6657353515625,-7.495969503617286,3.5572771787747737,5.227486226972937
1773148849302772200,12.675772216796876,-7.502280586460232,3.601134440679848,5.188256624868512
1773148849312808200,12.68580810546875,-7.50355250609219,3.6506828999638556,5.1516597093552345
1773148849322845400,12.695845458984374,-7.500678996482491,3.702269879338145,5.118925899010897
1773148849332882400,12.70588232421875,-7.49594261561036,3.7578850913152095,5.085227043026685
1773148849342919400,12.71591943359375,-7.49290310178399,3.817093067087233,5.045452081999183
1773148849352956400,12.725956298828125,-7.491384513914585,3.8783965538337823,5.000758369269967
1773148849362993400,12.735993408203125,-7.492135040020942,3.9411148758143186,4.950344525328278
1773148849373030400,12.746030517578125,-7.489601722151041,4.005339510704577,4.902397656022012
1773148849383066400,12.75606640625,-7.483180749192833,4.07469186387211,4.854819620028138
1773148849393103400,12.766103271484376,-7.47305975267291,4.147529721067846,4.808508827491105
1773148849403140400,12.776140380859376,-7.460474996387958,4.222439708362519,4.762636134110391
1773148849413177300,12.78617724609375,-7.447481074780225,4.297465430991351,4.715633559916913
1773148849423214300,12.79621435546875,-7.4342486682415005,4.371260150520503,4.668449199415743
1773148849433251300,12.806251220703125,-7.419782335993647,4.446595962011814,4.620065692257881
1773148849443288300,12.816288330078125,-7.399631528368592,4.525631212542951,4.575423709715903
1773148849453325300,12.8263251953125,-7.37048492886126,4.610246309033036,4.5378369063824415
1773148849463361300,12.836361328125,-7.332633044850826,4.699457501141727,4.507546105276048
1773148849473398500,12.8463984375,-7.2900599775373935,4.791378244470059,4.479744490636885
1773148849483435500,12.856435546875,-7.247778586646914,4.883176822723448,4.449120219792426
1773148849493472300,12.86647216796875,-7.209098435118794,4.9745390553861855,4.410582399344444
1773148849503509200,12.87650927734375,-7.172550034922361,5.064903216922283,4.367111798669398
1773148849513546500,12.88654638671875,-7.134998595163226,5.154791577640175,4.323227648757398
1773148849523583500,12.89658349609375,-7.092929385718703,5.246368037575483,4.282097765989602
1773148849533619500,12.906619384765625,-7.045679558765888,5.34044391311109,4.243635933387279
1773148849543656400,12.916656494140625,-6.996935109341144,5.434259676405787,4.205010434655845
1773148849553693200,12.926693115234375,-6.947665759259462,5.526619395673275,4.1661502503857015
1773148849563730400,12.93673046875,-6.8973395936012265,5.617675046604871,4.127810290597379
1773148849573767400,12.946767333984376,-6.846086960747837,5.706726371976733,4.0908118085458876
1773148849583804400,12.956804443359376,-6.79524173965156,5.7943432806313035,4.052241839393973
1773148849593841400,12.96684130859375,-6.745772483083606,5.881420675581693,4.009217813442647
1773148849603877400,12.97687744140625,-6.699864133867621,5.966853225934505,3.959655617894232
1773148849613914400,12.986914306640625,-6.654271426472067,6.050871233314275,3.908711028076708
1773148849623951400,12.996951416015625,-6.60312809921205,6.1336933089077466,3.8661210096284746
1773148849633988400,13.00698828125,-6.548524402365088,6.216789525267481,3.8260605096578595
1773148849644025300,13.017025390625,-6.491295617711543,6.30140608306229,3.784937641152739
1773148849654062300,13.027062255859375,-6.4324681656897065,6.384522757688164,3.745878134918213
1773148849664099300,13.037099365234376,-6.376399072465301,6.46506169078052,3.703362643010914
1773148849674136300,13.04713623046875,-6.321280411833524,6.543872192645073,3.6591704500630495
1773148849684172300,13.05717236328125,-6.26513357719779,6.620112551760673,3.618368484075367
1773148849694209500,13.06720947265625,-6.207798409560322,6.696122609251737,3.5770883791819212
1773148849704246500,13.07724658203125,-6.148184775596857,6.772024530193209,3.536931433099508
