time,seconds_elapsed,roll,rotationRateZ,quaternionY,rotationRateY,quaternionZ,quaternionW,yaw,devicelocation,accelerationZ,pitch,gravityX,gravityZ,quaternionX,rotationRateX,accelerationX,gravityY,accelerationY
1773148837444953300,0.817953369140625,-0.09655472559453573,-1.1401723623275757,-0.048258565252682954,0.03215361759066582,6.258052615376342e-17,0.9988346789865012,-0.00007350108586964158,left,-0.035008907318115234,-0.0015212921566056614,-0.9454064350314437,-9.760961431014538,-0.0007615332155637844,0.9943394660949707,0.002713218331336975,0.014918769315135432,-0.10736894607543945
1773148837484953300,0.857953369140625,-0.09230698511754601,-1.0201448202133179,-0.04675285332382687,0.05771475285291672,-0.025916710945115214,0.9982588936381239,-0.04949891700620178,left,-0.034148335456848145,0.052238806658184825,-0.9027039691846818,-9.751579854685067,0.02493926717202204,0.9732370972633362,0.01080121099948883,-0.5120546924341469,-0.04606980085372925
1773148837657795000,1.030795166015625,-0.06260327147495891,-0.19852641224861145,-0.03795578373106375,-0.188272163271904,-0.08172064723433942,0.9923924466703596,-0.15887443999266243,left,-0.23091982305049896,0.1735874134540917,-0.604306823141314,-9.640348846209049,0.08389494046499478,0.8052303194999695,0.1441611498594284,-1.6937744865722952,-0.07325386255979538
1773148837697794800,1.070794921875,-0.056188704425292973,-0.21220269799232483,-0.03538890706269212,-0.03254257142543793,-0.08524563710376162,0.9918571797143397,-0.1663665979107768,left,-0.08398336172103882,0.18109361061826576,-0.5417268867181614,-9.63106137790382,0.0877504905769034,0.6713414192199707,0.17604392766952515,-1.7662305048435925,0.016107559204101562
1773148837737794800,1.110794921875,-0.04970811977824006,-0.2258789837360382,-0.03282082949855485,0.12318702042102814,-0.08876762996600349,0.9912880311059244,-0.1739179318497947,left,0.06286865472793579,0.18855210897316785,-0.4786331555539742,-9.620945057559013,0.09160304684268267,0.5374525785446167,0.20787431299686432,-1.8381275740578769,0.10541198402643204
1773148837777794800,1.150794921875,-0.044012572630245224,-0.1792009472846985,-0.030562345613336355,0.029228799045085907,-0.09141222536190666,0.9907831439628464,-0.17968921734223342,left,0.11913472414016724,0.19542620702131758,-0.4232631870422512,-9.610664486563206,0.09517577274870082,0.5080922245979309,0.20351926982402802,-1.9043007126674054,0.10454916208982468
1773148837817794800,1.190794921875,-0.039801750179365755,-0.10299483686685562,-0.02896901665364134,0.01386111881583929,-0.09343380683117049,0.9903246423864327,-0.18410759300899135,left,0.10081756114959717,0.2017316645859951,-0.3823053729057312,-9.600172318643331,0.09842873705464815,0.40823498368263245,0.1928740292787552,-1.964920747194439,0.0919937863945961
1773148837959627500,1.33262744140625,-0.032110494783134595,0.04228733852505684,-0.02586615406462799,-0.06700059026479721,-0.09494779733296997,0.9896584126957539,-0.1878598991892573,left,0.05258530378341675,0.21309283330241813,-0.3077208181731403,-9.579897592377662,0.10436526039014186,0.13520990312099457,0.15133970975875854,-2.073947231363505,-0.013431968167424202
1773148837999627500,1.37262744140625,0.03308724589754586,0.12834447622299194,0.006287272512804622,-0.1213294118642807,-0.0953560324395669,0.9899247644190092,-0.19549999220265707,left,0.09458595514297485,0.20713982613538742,0.31748098202403635,-9.591762217694521,0.1044830772474954,0.1514476239681244,0.06484916806221008,-2.0168521560922263,-0.10502365231513977
1773148838039627800,1.412627685546875,0.04163223259197218,0.07682307064533234,0.010138357642021794,-0.11999309808015823,-0.09491764061000503,0.9894995246596247,-0.1957473770640955,left,0.12523233890533447,0.21449518676811682,0.39880164007861163,-9.573618073716759,0.1085290205542621,0.21899479627609253,0.0444256067276001,-2.087386558651179,-0.10172449052333832
1773148838079627800,1.452627685546875,0.03695029178168225,0.07959455996751785,0.007475647050536457,-0.1762908697128296,-0.0939976578920431,0.9891178852134851,-0.19364848327232348,left,0.1318609118461609,0.22387362015985543,0.353235601494275,-9.55539618832767,0.11293578974266434,0.17937660217285156,0.041450921446084976,-2.177156845947355,-0.079189732670784
1773148838119627800,1.492627685546875,0.03223789353858901,0.08236604928970337,0.004812731541930706,-0.23258861899375916,-0.09307502911969247,0.9887089491017703,-0.19149975630344626,left,0.13838499784469604,0.2332422986532884,0.3075320541353896,-9.53614905154407,0.11733944929244935,0.1397584080696106,0.03849025070667267,-2.2666424710832533,-0.05668400228023529
1773148838159627800,1.532627685546875,0.025633894816726364,0.10850676894187927,0.0014504310882801645,-0.19996967911720276,-0.09162594569719379,0.9885087465535956,-0.18794119606678228,left,0.08771681785583496,0.23970216987186993,0.24416869398327543,-9.523135840713977,0.12022104874862591,0.14538052678108215,0.0352340042591095,-2.3282291586853563,-0.07857483625411987
1773148838199627500,1.57262744140625,0.018995682056999644,0.13464748859405518,-0.001911904377942201,-0.16735073924064636,-0.0901749221010648,0.9882870818250798,-0.18433315183539373,left,0.036971449851989746,0.24613901811467484,0.18065878323363138,-9.50936567403674,0.12310004047041967,0.1510026454925537,0.03199271112680435,-2.3894996199451386,-0.10049791634082794
1773148838239627500,1.61262744140625,0.020397142018186216,0.12509657442569733,-0.0015716898178283797,-0.08068704605102539,-0.08874091808483454,0.987712992984636,-0.18184632462062505,left,0.015054881572723389,0.25720530918918766,0.19343440418187527,-9.482084283879399,0.1286304046262437,0.14123034477233887,0.029279883950948715,-2.4946035238429904,-0.1023053526878357
1773148838279627800,1.652627685546875,0.020251318087946654,0.002985924482345581,-0.002347780518788954,-0.010177664458751678,-0.08865842852734812,0.9867144245989424,-0.1819985240343242,left,-0.08135354518890381,0.2723967413912614,0.19126215644301844,-9.443130576106906,0.13612057866759011,0.15879550576210022,0.025132721289992332,-2.638386556355655,-0.13776320219039917
1773148838319627800,1.692627685546875,0.020107265315961038,-0.11912471801042557,-0.003123744761872422,0.060331717133522034,-0.08857086894127378,0.9856589915478849,-0.18214918951381467,left,-0.177984356880188,0.28758825038348806,0.18907409008052198,-9.40199718620777,0.14360291351890714,0.17636066675186157,0.020987169817090034,-2.781561393842101,-0.17328312993049622
1773148838359627800,1.732627685546875,0.019964950587715184,-0.24123536050319672,-0.003899524611778014,0.13084109127521515,-0.08847819619995775,0.9845467349751802,-0.1822982679050079,left,-0.27483636140823364,0.30277979491134593,0.18687082614889367,-9.35869288201034,0.15107695988269162,0.19392581284046173,0.016843177378177643,-2.924094718554616,-0.20886844396591187
1773148838399627800,1.772627685546875,0.028816618768035426,-0.31074270606040955,-0.000511651390222683,0.13912370800971985,-0.09197118904684305,0.9836745852571886,-0.19094590376875575,left,-0.11911171674728394,0.3093088982053711,0.269146629503835,-9.337389397218823,0.15467833285143712,0.10036499798297882,-0.047854386270046234,-2.9851480299323794,-0.047824591398239136
1773148838439627500,1.81262744140625,0.03148742590608543,-0.257875919342041,0.000046244338946315106,0.02995731681585312,-0.09662192747291862,0.9832221738812812,-0.20081897068899246,left,-0.0870705246925354,0.3091417667044956,0.29409972284408287,-9.337135714718698,0.15472094931063013,0.031186968088150024,-0.06643913686275482,-2.983586771965027,-0.013708293437957764
1773148838479627500,1.85262744140625,0.03415620739153889,-0.20500914752483368,0.0006041432859463314,-0.07920905947685242,-0.10127048282895773,0.9827478730243372,-0.21069085293198256,left,-0.055028557777404785,0.30894944789496065,0.3190370158270001,-9.33689080004692,0.15476011923532282,-0.037991054356098175,-0.08502227067947388,-2.98178995167613,0.02038407325744629
1773148838519627800,1.892627685546875,0.028342934285918595,-0.27005088329315186,-0.002757462764696329,0.004840917885303497,-0.10595144232822909,0.9825125302450658,-0.21921759233431917,left,-0.0082283616065979,0.30616648708606053,0.2649881581175141,-9.346846376872062,0.1530877710112868,-0.01088622398674488,-0.07161937654018402,-2.955779019846022,0.026931673288345337
1773148838559627800,1.932627685546875,0.02251010462269067,-0.33509257435798645,-0.0061189458865760745,0.08889089524745941,-0.11062859780955243,0.9822417691172375,-0.22775378617351422,left,0.03851878643035889,0.30343088569071125,0.21064661933807655,-9.356281729215382,0.1514098971288917,0.016218604519963264,-0.05818663537502289,-2.930188651515543,0.03352215886116028
1773148838599627800,1.972627685546875,0.020658944855278135,-0.3836846649646759,-0.0075822688815232395,0.122216135263443,-0.11507098109634187,0.9818756860091832,-0.23646574218246388,left,0.0823286771774292,0.3016562692082315,0.19343339953487737,-9.361839947864413,0.15040452726303843,0.04132021218538284,-0.04921650141477585,-2.9135759548887608,0.02927038073539734
1773148838639627800,2.012627685546875,0.018792634371774333,-0.43227678537368774,-0.009045431395283528,0.15554137527942657,-0.1195106523936096,0.9814868999624181,-0.24517618621264256,left,0.12612801790237427,0.29989704426826524,0.17605702505921944,-9.367294706138967,0.14939567554327415,0.06642182171344757,-0.04022973030805588,-2.897098282818496,0.025032371282577515
1773148838679627800,2.052627685546875,0.030635843427269955,-0.40983930230140686,-0.00525465493066582,0.09975534677505493,-0.13112586661434578,0.9798155261563356,-0.27072628493366124,left,0.11232316493988037,0.3014314279602441,0.28684439968727526,-9.360098657155037,0.15079846590824006,0.031399231404066086,-0.06281964480876923,-2.9114705070421096,0.028507500886917114
1773148838719627500,2.09262744140625,0.03664329075440209,-0.36486372351646423,-0.0033499032637456837,0.07455205172300339,-0.13744956097641595,0.9789071180576823,-0.2845621202589314,left,0.0791405439376831,0.30132636266252405,0.343080373911187,-9.358512264746427,0.15112066204770003,0.0003503914922475815,-0.06636367738246918,-2.9104864644408224,0.01575261354446411
1773148838759627500,2.13262744140625,0.04341681027113895,-0.3878549039363861,-0.0011453242786996665,0.059502579271793365,-0.14494050976284611,0.9778835540232991,-0.3008505688419965,left,0.05294477939605713,0.29969076546457946,0.4066681722026318,-9.360717081314325,0.15078112343646827,-0.013741347007453442,-0.07160815596580505,-2.895165561190247,0.0012763738632202148
1773148838799627800,2.172627685546875,0.05015807784079287,-0.41084611415863037,0.0010593398326090946,0.044453106820583344,-0.15242247590177907,0.9767991968317966,-0.31711863288112146,left,0.026734769344329834,0.2979500504029434,0.470013503507711,-9.362782197150587,0.1504322130916765,-0.027833085507154465,-0.07682792097330093,-2.8788515552490948,-0.01330113410949707
1773148838839627800,2.212627685546875,0.04951188841468363,-0.3239143192768097,-0.000346960118433023,0.09461934864521027,-0.15850744839371395,0.9756981562264363,-0.32957658979490384,left,-0.009382665157318115,0.2998072053045254,0.46369785408750175,-9.357727836370467,0.1512896298679291,0.019695527851581573,-0.06462875008583069,-2.8962565712973474,-0.03575754165649414
1773148838879627800,2.252627685546875,0.048889622723463366,-0.23698249459266663,-0.0017532421696751922,0.14478559792041779,-0.1645859410412712,0.9745571655056121,-0.3420405094675546,left,-0.04550713300704956,0.3016719396254744,0.45761005860641596,-9.352603917485474,0.1521408647303768,0.06722413748502731,-0.052452825009822845,-2.913722669883072,-0.05820772051811218
1773148838919627800,2.292627685546875,0.04821923351099513,-0.19345618784427643,-0.002871917919614234,0.16295427083969116,-0.16729842996889194,0.9737863379647731,-0.3477142831544296,left,0.009600341320037842,0.30580373826694357,0.45075591839533297,-9.340803589576483,0.1540886203736669,0.14939910173416138,-0.05290624499320984,-2.9523870393201705,-0.04019424319267273
1773148839114574000,2.487573974609375,0.053560136025900866,-0.04432019218802452,-0.0018484391430319846,0.1180473193526268,-0.16991393543357916,0.9723426549826831,-0.3545783947871452,left,-0.09994884580373764,0.3175466402330745,0.49874706523474305,-9.303000220882891,0.16023602767475834,-0.11365196853876114,0.12546348571777344,-3.061996584074199,-0.07811421900987625
1773148839154573800,2.52757373046875,0.061871682626271976,-0.048815131187438965,0.0022505569855593905,0.09814061969518661,-0.1716739178606169,0.9723000467304608,-0.3592841043704106,left,-0.023670732975006104,0.3127239270662049,0.5769576649773865,-9.313164472022653,0.1586055218226095,-0.0988868996500969,0.1389630138874054,-3.017031068666279,-0.021014243364334106
1773148839194573800,2.56757373046875,0.07014642270556246,-0.05331006646156311,0.00634950558368326,0.07823391258716583,-0.17342999066642056,0.972235466211709,-0.3639401981276559,left,0.05253177881240845,0.30786424415854646,0.655020928671211,-9.3225869648844,0.156971428345093,-0.08412183076143265,0.15247753262519836,-2.971649958194792,0.03604328632354736
1773148839234573800,2.60757373046875,0.07662770044593296,-0.05058765411376953,0.009559083553021997,0.07707053422927856,-0.17451557364486886,0.9721745015014499,-0.36700600539089984,left,0.05224686861038208,0.3046327809275128,0.7161603839624673,-9.327671720802783,0.1559798686387222,-0.07693668454885483,0.15975356101989746,-2.9414345604121683,0.03304558992385864
1773148839274574000,2.647573974609375,0.0805840375554317,0.007204461842775345,0.01164190933246239,0.09032373875379562,-0.17478982852792402,0.9722455839387742,-0.3680293906037139,left,0.028206050395965576,0.30206506518800447,0.7536636006657034,-9.33226314024627,0.15508539556128173,-0.08201899379491806,0.16626286506652832,-2.9174036964833734,0.03625553846359253
1773148839314574000,2.687573974609375,0.08453453037960253,0.06499658524990082,0.013724690063443627,0.10357694327831268,-0.17506323030377433,0.9723117137553815,-0.3690414980478397,left,0.00414508581161499,0.2994935699287295,0.7911554922573268,-9.336656991291045,0.1541901278018478,-0.0871012955904007,0.1727733314037323,-2.893317887496948,0.03945988416671753
1773148839354574000,2.727573974609375,0.10155802161135731,0.3603498339653015,0.02417859115871734,0.1739104688167572,-0.16521433421486983,0.9742768005004037,-0.35085121271342523,left,0.018478870391845703,0.2909990533093947,0.9524331187978387,-9.345950889337063,0.1513423692757112,-0.15429040789604187,0.1464206576347351,-2.8136200814038514,0.05352848768234253
1773148839394573800,2.76757373046875,0.11869773990927313,0.655703067779541,0.034627209142050634,0.24424400925636292,-0.1553294638740266,0.9760292363558694,-0.33255789502533173,left,0.03236335515975952,0.2828030211128541,1.1151656933870167,-9.350839245900511,0.1484615721212075,-0.22147953510284424,0.11991959810256958,-2.7365298274606467,0.06786304712295532
1773148839434573800,2.80757373046875,0.126320556490131,0.7399908304214478,0.040608999910768884,0.3044680953025818,-0.1436523625441821,0.9780463293907086,-0.3092506913317829,left,0.02604818344116211,0.2762439472929168,1.1886481320966034,-9.359671956175566,0.14539755519696798,-0.26440244913101196,0.12307732552289963,-2.674704070405662,0.04743623733520508
1773148839474573800,2.84757373046875,0.13408607832458366,0.8242785334587097,0.0465832466504605,0.36469218134880066,-0.1319485873972556,0.9798819347333437,-0.2859344829158453,left,0.019569039344787598,0.2698574277909156,1.2635522011071443,-9.366897231253981,0.1423065393548427,-0.3073253929615021,0.12609007954597473,-2.6143939786106345,0.027163997292518616
1773148839514574000,2.887573974609375,0.14564675086840861,0.7765008807182312,0.05637380125879138,0.2864493727684021,-0.10929474591918578,0.9831626176225954,-0.2402196693335449,left,0.049645423889160156,0.25624035698719905,1.3767923574484884,-9.386019280353189,0.1351598291194061,-0.27814432978630066,0.10339237749576569,-2.485450787833333,0.016450732946395874
1773148839554574000,2.927573974609375,0.15079203727947477,0.7275257706642151,0.06105827028057829,0.25165149569511414,-0.09616311119404626,0.984743502981874,-0.2136667789186706,left,0.03345930576324463,0.24993375243756985,1.4273939790472387,-9.394121338266133,0.13154840641731613,-0.249858558177948,0.10179370641708374,-2.4255742651499808,-0.005892053246498108
1773148839594574000,2.967573974609375,0.15609999497986884,0.678550660610199,0.06572993001629006,0.21685361862182617,-0.08301129844347516,0.986117674072206,-0.18712255462738142,left,0.017150700092315674,0.2437616564116259,1.4795365464776753,-9.401022788217663,0.127909394632762,-0.22157278656959534,0.10003793239593506,-2.366881545423716,-0.028114184737205505
1773148839634573800,3.00757373046875,0.16342240394007881,0.699737548828125,0.07179167242650518,0.25288739800453186,-0.06526438669704498,0.9874340565039078,-0.151684675833578,left,-0.008564174175262451,0.2392547386192071,1.5500542901627719,-9.400366954657434,0.1247422737352259,-0.20444272458553314,0.09304843842983246,-2.3239665328048167,-0.0014194399118423462
1773148839674573800,3.04757373046875,0.16891925648209233,0.7307344079017639,0.07612385121140566,0.2826576232910156,-0.05277281146545368,0.9880793283547235,-0.1268908984740682,left,-0.008212685585021973,0.23717340659247643,1.6025126455441117,-9.396451827040314,0.12296110004151262,-0.19330817461013794,0.0939803421497345,-2.3041320976525546,-0.013325750827789307
1773148839714573800,3.08757373046875,0.17446488609300267,0.7617312669754028,0.08044247129959978,0.3124278485774994,-0.04027184824690165,0.9885484518076327,-0.10209782894162493,left,-0.007933974266052246,0.2352251853939579,1.6553730058550833,-9.391823582717775,0.12115800150596664,-0.18217362463474274,0.09487123787403107,-2.2855570149116216,-0.025103628635406494
1773148839754574000,3.127573974609375,0.18232197088450372,0.7305192351341248,0.08651174243411613,0.2798512876033783,-0.021850079398981388,0.9887801938070175,-0.06579729715269786,left,0.006655097007751465,0.23529682420792145,1.7290838464930653,-9.37836671977341,0.11980024449117563,-0.160010427236557,0.07211333513259888,-2.286240174870193,-0.04264935851097107
1773148839794574000,3.167573974609375,0.19017161507469452,0.6993072628974915,0.09254831178945158,0.2472747415304184,-0.00342003320692051,0.9886380900974178,-0.029496604511062775,left,0.021123111248016357,0.2356457278916839,1.8024958503149449,-9.363720939305423,0.11839719484026187,-0.13784722983837128,0.04938587546348572,-2.2895674195967612,-0.059925422072410583
1773148839834574000,3.207573974609375,0.193648082804037,0.6812881827354431,0.09574169914220344,0.21920448541641235,0.009310447845936308,0.9883550168515027,-0.004292585721028787,left,0.0171012282371521,0.23705806204805482,1.834413375840336,-9.35421602885723,0.11790358002581121,-0.11437365412712097,0.03892308473587036,-2.303032611978054,-0.06262961030006409
1773148840029766700,3.4027666015625,0.19394279065569692,0.5074625611305237,0.10279041412849028,0.12859602272510529,0.06724432748809253,0.985537828670128,0.11216040983851626,left,-0.030281901359558105,0.24640868450068323,1.8329395038954912,-9.33213512995243,0.11673755682028938,-0.1518932580947876,0.007418870460242033,-2.392064355866611,-0.043198391795158386
1773148840069766400,3.442766357421875,0.1950244096983272,0.578374981880188,0.1041901394192776,0.19504982233047485,0.07442660311303564,0.9848902833121737,0.12649433384549547,left,-0.01904517412185669,0.24771749767744497,1.8424239560775457,-9.327067909690737,0.11660320923027422,-0.08965975046157837,0.00013308227062225342,-2.4045097036808727,-0.028056621551513672
1773148840109766400,3.482766357421875,0.20084457464301553,0.6556941270828247,0.10975809534476746,0.3343907594680786,0.09570549094669192,0.9822533618105235,0.16832016089154506,left,0.004820525646209717,0.25600678759437384,1.89263599383682,-9.296335502296685,0.11820300966039592,0.05008479952812195,0.008136123418807983,-2.483234865349531,-0.0793357789516449
1773148840251950300,3.624950439453125,0.21501875488533592,0.1832108348608017,0.12188607367602847,0.01192800048738718,0.13051116775483837,0.9758117625384845,0.2353193560797941,left,0.040355365723371506,0.28162904581281445,2.009970872145891,-9.203379570701717,0.126103161667772,-0.014683796092867851,-0.011763249523937702,-2.72547271913439,-0.0740208551287651
1773148840291950300,3.664950439453125,0.2126827226349779,-0.018150106072425842,0.12065214519432886,-0.05081208795309067,0.1284691286963882,0.9759619632434214,0.2311238272855731,left,0.0353010892868042,0.28509812635568005,1.9864583330027759,-9.198753079944849,0.12820759185819527,0.037550829350948334,-0.012291595339775085,-2.758136094591021,-0.08135652542114258
1773148840331950000,3.7049501953125,0.2103594345028488,-0.21951106190681458,0.11941696788675757,-0.11355217546224594,0.12642567189968257,0.9761020792646345,0.2269321823860036,left,0.030224204063415527,0.2885764483864895,1.9630663514994084,-9.193905055391788,0.13031069742139678,0.08978545665740967,-0.012832239270210266,-2.790852953800559,-0.08868670463562012
1773148840371950000,3.7449501953125,0.20804894622061584,-0.4208719730377197,0.11818056442808192,-0.1762922704219818,0.12438101498095247,0.9762324005910793,0.2227448287784104,left,0.025124788284301758,0.2920641108067681,1.9397965350709854,-9.188836666086315,0.132412476177004,0.1420200765132904,-0.01338532567024231,-2.8236238812848926,-0.09601140022277832
1773148840411950300,3.784950439453125,0.20452915492072096,-0.5887857675552368,0.1151681789128582,-0.3225308656692505,0.11330386534631014,0.9773808699696833,0.2000951066606562,left,0.05071711540222168,0.297229571015769,1.9044540035329758,-9.181203394728898,0.13647411800975934,0.17594708502292633,-0.03624734282493591,-2.8720968202918766,-0.0361500084400177
1773148840451950300,3.824950439453125,0.1965250550646616,-0.6742609739303589,0.10951684856729603,-0.43985798954963684,0.09972444480754952,0.9790115332045017,0.17318364630984617,left,-0.002257406711578369,0.30044872573512343,1.8290915962956844,-9.18703750770986,0.13999112258924434,0.07452555745840073,-0.016788527369499207,-2.902266625367105,-0.017041832208633423
1773148840491950300,3.864950439453125,0.19118781195547435,-0.7991901636123657,0.104501269267889,-0.387944757938385,0.08346179961339698,0.9811723666762802,0.14121352091052455,left,-0.007850468158721924,0.29513460776527933,1.7829380401469765,-9.211680950579046,0.1393358199761139,0.005814991891384125,-0.005540221929550171,-2.852446655665338,-0.03901404142379761
1773148840531950300,3.904950439453125,0.18568438149118563,-0.9241192936897278,0.09945487392956728,-0.33603155612945557,0.06717460112591293,0.9830440224162855,0.1092646953655941,left,-0.013510823249816895,0.2899862358280168,1.7349036386877297,-9.235664468234777,0.13863944363435837,-0.06289557367563248,0.005899861454963684,-2.804103772778809,-0.060835570096969604
1773148840571950000,3.9449501953125,0.1856174973672966,-1.1629796028137207,0.09572730003162414,-0.36745575070381165,0.04124325037843631,0.9849008328207803,0.05709388166305531,left,-0.008617699146270752,0.28396972874050613,1.7373681291051208,-9.252194162753224,0.13822324611392955,0.014983922243118286,-0.005416885018348694,-2.747515039594471,-0.0768187940120697
1773148840611950000,3.9849501953125,0.18522456036815163,-1.4018399715423584,0.09193367771420996,-0.3988799452781677,0.015283431223906824,0.9860781275918802,0.005013075043349671,left,-0.0037040114402770996,0.2779647304395608,1.7367397680737078,-9.268925517323613,0.1377116776945444,0.09286341816186905,-0.01641826331615448,-2.6909353664994238,-0.0928010642528534
1773148840651950000,4.0249501953125,0.1845083271965333,-1.640700340270996,0.08807662927364177,-0.4303041398525238,-0.010686998950122858,0.9865751492644685,-0.0469823362172255,left,0.0012255311012268066,0.2719875130776541,1.733020455289632,-9.285812939238548,0.13710509825671807,0.1707429140806198,-0.027104437351226807,-2.6345211130991575,-0.10876652598381042
1773148840691950300,4.064950439453125,0.18693800873447675,-1.8574951887130737,0.0844158105385882,-0.49402710795402527,-0.047432865609968365,0.9858944429525899,-0.1210626248180956,left,0.06704998016357422,0.26423443620017184,1.7593202870637177,-9.301365313157438,0.13651487799024914,0.1327955275774002,-0.09582004696130753,-2.5612059937804936,-0.05134701728820801
1773148840731950300,4.104950439453125,0.18138071953098353,-1.7554439306259155,0.07690665561673032,-0.6809384822845459,-0.08499605924095734,0.9840760548637074,-0.19582677656732464,left,0.01719719171524048,0.2571254183268274,1.7108442793168126,-9.328672422277927,0.13585080677151126,0.1582636535167694,-0.06945100426673889,-2.4938456912130116,-0.017933756113052368
1773148840771950300,4.144950439453125,0.17152096915346754,-1.7042635679244995,0.0676986365067893,-0.6707658767700195,-0.12094202395739276,0.9811785076355516,-0.2668980294160563,left,-0.005125164985656738,0.250076016627052,1.6217445847585796,-9.362177216994763,0.13445709938462244,0.10199287533760071,-0.0005514472723007202,-2.4269261181503534,-0.0059166401624679565
1773148840811950000,4.1849501953125,0.16499741079924962,-1.6742355823516846,0.06041569983122323,-0.4925828278064728,-0.15578983981690267,0.9769571016203541,-0.33645991670166353,left,-0.004194498062133789,0.24302929908900345,1.5634059391669928,-9.389193818736075,0.1327941157706019,0.10839720070362091,0.030058056116104126,-2.359911268019676,-0.005024164915084839
1773148840851950000,4.2249501953125,0.16022709668834034,-1.437171459197998,0.05416854024299302,-0.5565257668495178,-0.18787547131744356,0.971727023210232,-0.4012602804337103,left,0.04257994890213013,0.239124438699922,1.5200576496973632,-9.405570368519426,0.13234475495553938,0.23022225499153137,0.026317834854125977,-2.3227250083111226,0.03159724175930023
1773148840891950000,4.2649501953125,0.15165218986433235,-1.2930757999420166,0.045881142710031644,-0.5033738613128662,-0.21589724031718469,0.9660379549547577,-0.45823498161156534,left,-0.025973498821258545,0.24215184519421687,1.4382818682864307,-9.411264780768752,0.13436504553973147,0.31600117683410645,0.0922953337430954,-2.3515583040855823,-0.006572827696800232
1773148840931950300,4.304950439453125,0.1458217034146507,-0.9925723075866699,0.03913930692986742,-0.3840104937553406,-0.2396604093192444,0.9603291594421456,-0.5072694004050964,left,-0.024842262268066406,0.2470857451530083,1.3816827598385513,-9.407896765640377,0.13710899903118914,0.2746484875679016,0.09431405365467072,-2.3985028644815087,0.04446275532245636
1773148840971950300,4.344950439453125,0.13897449661298805,-0.7606724500656128,0.032604447331168476,-0.39006713032722473,-0.25743689025149263,0.95561783611075,-0.5439588509922583,left,-0.0010117888450622559,0.252488447370491,1.3154188742056487,-9.404165762418508,0.13949166879814015,0.23903727531433105,0.10606686770915985,-2.4498408375307914,0.005768567323684692
1773148841011950300,4.384950439453125,0.13222228456717441,-0.6300711035728455,0.026545602639164,-0.3617371916770935,-0.27189740670081625,0.9514909014853113,-0.57384237228282,left,0.016178011894226074,0.25774923608003825,1.2501739563569425,-9.39992797871828,0.14153585045836134,0.2263323813676834,0.0884774923324585,-2.4997616372585294,0.013389825820922852
1773148841051950300,4.424950439453125,0.12561890633777925,-0.5050004124641418,0.020798958744018055,-0.2988733649253845,-0.28385060794318845,0.9478226534667766,-0.5986209990746738,left,-0.0040132999420166016,0.26349615017201294,1.1862563415892422,-9.39357013412416,0.14362666450056552,0.23221395909786224,0.09928783774375916,-2.5542162810236215,-0.0009540319442749023
1773148841091950000,4.4649501953125,0.1221033434172441,-0.3273467421531677,0.0169160910032761,-0.193360835313797,-0.29278660835211473,0.9448253774094951,-0.6175484654942797,left,-0.02355217933654785,0.2690832905445892,1.1514692519769072,-9.383371396192908,0.14592825471264684,0.16315186023712158,0.08591417968273163,-2.6070763490736484,0.025680631399154663
1773148841131950000,4.5049501953125,0.12046378962672037,-0.03525209426879883,0.014929421546056396,-0.08468597382307053,-0.29700454515541164,0.9433097253627516,-0.6265981059886283,left,-0.029922962188720703,0.27262023901262766,1.1349679067701102,-9.376033892911671,0.1474192584325419,0.089095838367939,0.07152801007032394,-2.6404972648993135,0.035799115896224976
1773148841171950300,4.544950439453125,0.11863738732999335,0.11480896174907684,0.014398174013058592,-0.05381216108798981,-0.2935719055201564,0.9443402935798026,-0.61918329209294,left,-0.01910090446472168,0.27401346688360123,1.1174051428768783,-9.374428795802592,0.1477492495547547,0.0496385432779789,0.04262813180685043,-2.6536530990704894,0.007879585027694702
1773148841211950300,4.584950439453125,0.11679960956531796,0.2648700177669525,0.013866738294457675,-0.022938348352909088,-0.29013542812901844,0.9453583768877095,-0.6117630684290696,left,-0.008279204368591309,0.27539362337100526,1.0997473211113362,-9.372820191562175,0.14807729000384878,0.010181251913309097,0.01373794674873352,-2.6666803384259343,-0.020053058862686157
1773148841251950300,4.624950439453125,0.11515716582529714,0.07381083071231842,0.01382975412545442,-0.07609532028436661,-0.2867497938483574,0.9465251692253815,-0.6042262105145249,left,0.046006977558135986,0.27418513424744645,1.0847210168931634,-9.37780850136876,0.1472195177189613,-0.026770271360874176,-0.025259889662265778,-2.6552736860096453,-0.049965858459472656
1773148841291950300,4.664950439453125,0.11253922102938257,-0.1824774295091629,0.012396285102877495,-0.15271428227424622,-0.28822925820328277,0.9461535950331543,-0.6069428302327964,left,0.07479584217071533,0.27415214713152386,1.0601765774190426,-9.380703053766489,0.1468454963687122,0.03776003420352936,-0.05891862511634827,-2.6549624281033872,-0.0644926130771637
1773148841331950000,4.7049501953125,0.10713106144037074,-0.2723918557167053,0.008768548838313201,-0.23967018723487854,-0.29357357160929826,0.944524797324062,-0.617595319896333,left,0.028904616832733154,0.2760448656528528,1.0088898231003434,-9.381285822090506,0.14700557505903164,0.05142701417207718,-0.09316876530647278,-2.672825709313154,-0.0541113018989563
1773148841371950000,4.7449501953125,0.1026561721899881,-0.14288443326950073,0.00565969043289701,-0.08505627512931824,-0.2981404967684319,0.9430628884088204,-0.6267768799192739,left,-0.0057912468910217285,0.278121396250763,0.9663288115508853,-9.380165293627977,0.1473520424122421,-0.012943863868713379,-0.10446957498788834,-2.6924127455756066,-0.026682019233703613
1773148841411950300,4.784950439453125,0.0974222997917701,0.06397061049938202,0.0033014182188768923,-0.07978571206331253,-0.29882844941989145,0.943048132049527,-0.6273297922791845,left,-0.005619704723358154,0.2771574309669362,0.9174732299018651,-9.387673477301002,0.1461196811275718,-0.12173906713724136,-0.1232445240020752,-2.6833213843643664,-0.029336243867874146
1773148841451950300,4.824950439453125,0.09206502398073792,0.19524437189102173,0.0017255707500604856,-0.0019782111048698425,-0.2961852054296837,0.9442265754677696,-0.6206278487341993,left,-0.031303465366363525,0.2741506438316201,0.8679057736564427,-9.400445280590652,0.1439016764847816,-0.12552841007709503,-0.12337766587734222,-2.65494810731709,-0.07875648140907288
1773148841491950300,4.864950439453125,0.08834730304916669,0.46407148241996765,0.0014302486994671976,0.1014256551861763,-0.29027595018899,0.946381076298932,-0.6072693047362145,left,-0.05111342668533325,0.2708197566690098,0.8337273174617439,-9.412363681921363,0.14177784452754233,-0.1368904858827591,-0.1417061686515808,-2.623488554692268,-0.037027209997177124
1773148841531950300,4.904950439453125,0.08598440664822167,1.2053027153015137,0.003296797265974439,0.4275076985359192,-0.2739844621830441,0.9515268155541666,-0.5722810062099122,left,-0.08817291259765625,0.26723665628307847,0.8122866161566227,-9.42361280568838,0.13970900743084813,-0.2340123951435089,-0.07920055836439133,-2.5896140498802063,0.05354125797748566
1773148841571950000,4.9449501953125,0.10172162123715961,1.4707777500152588,0.015603042350006781,0.5814059972763062,-0.2382680092810185,0.9605624785496435,-0.5000917268712847,left,-0.02607738971710205,0.2695669146275865,0.9598658991470932,-9.403634432020782,0.14249433764168135,-0.16065648198127747,-0.10324175655841827,-2.611647894772887,0.04849426448345184
1773148841611950000,4.9849501953125,0.11725589312290759,1.7362526655197144,0.02788562708148426,0.7353042960166931,-0.20219027753359164,0.9681416007317303,-0.42789186534280865,left,0.03550940752029419,0.27298573003017446,1.1047718712750823,-9.37866716402471,0.14506359832449497,-0.08730058372020721,-0.12701034545898438,-2.6439491589188573,0.04449419677257538
1773148841651950000,5.0249501953125,0.13251056728027374,2.00172758102417,0.04012592503772089,0.8892026543617249,-0.1658059267051376,0.974252483460047,-0.3556751507981691,left,0.09660297632217407,0.27747536451696575,1.2461254116185008,-9.34886297739148,0.14741285909640459,-0.013944700360298157,-0.15041667222976685,-2.6863202739194034,0.04152098298072815
1773148841691950300,5.064950439453125,0.1392896143423896,2.1812078952789307,0.04920912180010578,0.7460528612136841,-0.12213909272401541,0.9798142216908586,-0.26816438576577073,left,-0.006817221641540527,0.28664579075970015,1.3059972581267356,-9.315411958688497,0.15041483402820852,-0.12153607606887817,-0.12568673491477966,-2.772697411645949,-0.0067112743854522705
1773148841731950300,5.104950439453125,0.13978971296170242,2.0730721950531006,0.055963062321300217,0.6515610218048096,-0.07757320371040805,0.983992072590116,-0.1778861765942947,left,-0.0663919448852539,0.29134067388562634,1.308827513116598,-9.301764541608094,0.15036662214273558,-0.27610236406326294,-0.09306670725345612,-2.8168291065782305,-0.07532668113708496
1773148841771950300,5.144950439453125,0.1415267792798893,1.8223333358764648,0.06270580022041872,0.5961751341819763,-0.039078746883617406,0.9863632944498255,-0.09984153489093571,left,-0.017304718494415283,0.2892354895656763,1.3258167879708112,-9.305327202525735,0.14706573328052094,-0.24108898639678955,-0.06165522336959839,-2.7970480090484022,-0.09697505831718445
1773148841811950000,5.1849501953125,0.14342867477648583,1.571594476699829,0.06935173481507201,0.5407891869544983,-0.0005240000497474431,0.9872117653945305,-0.02184042833340727,left,0.03171432018280029,0.28726637906658004,1.3442968859046698,-9.308221754923462,0.14353777730100162,-0.20607560873031616,-0.0303957462310791,-2.778534447236359,-0.1184941828250885
1773148841851950000,5.2249501953125,0.14646262581020353,1.1729580163955688,0.07496672661980767,0.43328434228897095,0.0282310057219135,0.9865716490255464,0.03585827917359542,left,0.06683975458145142,0.28909183622110457,1.3717888500727713,-9.299067557609082,0.14233588256123017,-0.10257404297590256,-0.0049241334199905396,-2.795697763483226,-0.09458532929420471
1773148841891950000,5.2649501953125,0.15024709706560072,0.8371129631996155,0.07979055335629212,0.31354838609695435,0.0489376297127253,0.9854198206465259,0.07711137101424331,left,0.08384543657302856,0.2919543130464861,1.4057673997811972,-9.285858531945943,0.14207896947571028,-0.032824791967868805,-0.006923481822013855,-2.8225927846714853,-0.05694746971130371
1773148841931950300,5.304950439453125,0.15226603347170495,0.644500195980072,0.08300846000897145,0.2868187129497528,0.06416545475308058,0.9842122579763887,0.10749815283815861,left,0.004235744476318359,0.2955217205220298,1.422975578083098,-9.272989698022604,0.14254366393121493,-0.005678409710526466,0.04159434139728546,-2.8560785824269055,-0.0671689510345459
1773148841971950300,5.344950439453125,0.1593444902279182,0.5694693326950073,0.08831045820770037,0.41103705763816833,0.07670690890607809,0.9827615415953351,0.13170536835743143,left,-0.019044995307922363,0.29940155467341134,1.4868084371767938,-9.251674522793293,0.1431681952657158,0.0039005260914564133,0.06488645076751709,-2.89245571770966,-0.03644058108329773
1773148842011950300,5.384950439453125,0.1681647938960542,0.8883019089698792,0.09492184794163842,0.48364388942718506,0.09200105609092432,0.9806871147860452,0.16118178646774728,left,-0.01822686195373535,0.3048954530106112,1.565668769532442,-9.222394652295112,0.14414772406248952,0.011374526657164097,0.0827236920595169,-2.9438918904364106,0.016732394695281982
1773148842051950300,5.424950439453125,0.17805006920769698,1.0144023895263672,0.10325462095252726,0.5334526300430298,0.11455851538969682,0.9772846522848376,0.20522370765436646,left,0.024572908878326416,0.3128534893046085,1.6525550258249044,-9.183118872961401,0.1453606539438287,0.017314301803708076,0.0716126561164856,-3.0182401521950957,-0.008194983005523682
1773148842091950000,5.4649501953125,0.18758300017472176,1.1405029296875,0.11152635374063587,0.5832613110542297,0.1370482874757457,0.9733043136939242,0.2492988330531823,left,0.06716668605804443,0.32121863746752244,1.7352514292120933,-9.141822985976933,0.14648764266676986,0.02325407788157463,0.06092885136604309,-3.0961855616629124,-0.032755523920059204
1773148842131950000,5.5049501953125,0.19275583337016447,1.1071223020553589,0.11807157550281322,0.42871198058128357,0.16034434677122406,0.9686630969962585,0.29574360781946474,left,0.07221817970275879,0.3315207138251735,1.7763121922664342,-9.100933926227688,0.1484608500234207,0.07906972616910934,0.02783772349357605,-3.191881147354841,-0.06283155083656311
1773148842171950300,5.544950439453125,0.19314692861905022,0.9919313788414001,0.12237038291957143,0.326925128698349,0.18167625319798103,0.9638235366322575,0.33896928495744344,left,0.05626434087753296,0.3439502753808378,1.7721188322298227,-9.060600162273644,0.15186651111750032,0.10194884240627289,0.021555915474891663,-3.306886705933511,-0.057586729526519775
1773148842211950300,5.584950439453125,0.1921954335056478,0.8200454711914062,0.12547941581392305,0.26696693897247314,0.20001294172010334,0.9594756616042289,0.37669274224996674,left,0.05258828401565552,0.3526015148941705,1.7579663882367311,-9.033861792951821,0.15380558053950055,-0.005342856049537659,0.0061674565076828,-3.386632442821562,-0.053067922592163086
1773148842251950300,5.624950439453125,0.19068199526451513,0.6148957014083862,0.12754073036036284,0.1754530519247055,0.21455974458718635,0.9559374543225247,0.4070013034962918,left,0.05851542949676514,0.35776509072100054,1.7409546092897652,-9.019221273180841,0.15453495223512428,-0.02251332625746727,-0.013458743691444397,-3.4341093565285203,-0.05574387311935425
1773148842291950300,5.664950439453125,0.18656082030299487,0.36405330896377563,0.12743555045737645,0.006842941045761108,0.22440742962012797,0.9536443062935263,0.4281601567767878,left,0.034462034702301025,0.36018724507333677,1.7022222891829908,-9.018119449418784,0.15480326290353164,-0.07115739583969116,-0.02936933934688568,-3.456348368604481,-0.053489089012145996
1773148842331950000,5.7049501953125,0.1811435929155514,0.11434221267700195,0.12573902486740518,-0.10461084544658661,0.2289400781999898,0.9527313260423229,0.4385065990105816,left,-0.013628244400024414,0.36104590899790845,1.6528091467164456,-9.024285570833086,0.15517464938469394,-0.006112344563007355,-0.050186723470687866,-3.464227431416511,-0.10523024201393127
1773148842371950000,5.7449501953125,0.17782139079882125,-0.4019397497177124,0.12356449735805604,-0.18453285098075867,0.22384887103316337,0.9538897429684066,0.42826288172717963,left,-0.005064725875854492,0.3631914151542014,1.621501131391525,-9.022391135388613,0.157219283086406,0.044657088816165924,-0.051416218280792236,-3.4839030227452517,-0.17022117972373962
1773148842411950300,5.784950439453125,0.17452018201243033,-0.918221652507782,0.12138550180769016,-0.26445484161376953,0.21874951735469086,0.9550136972866081,0.41801831232570563,left,0.003468930721282959,0.36536865310492767,1.5903867389425634,-9.020203269955516,0.15925823830282032,0.0954265296459198,-0.05266547203063965,-3.503853339362144,-0.23518413305282593
1773148842451950300,5.824950439453125,0.18421535047984583,-3.4082398414611816,0.11868515650606867,-0.966320276260376,0.1790454259264978,0.9635418499205795,0.334078434828645,left,0.19877785444259644,0.35745504517685145,1.6827894205689429,-9.031337242910265,0.15951108461826102,0.31288594007492065,-0.16227348148822784,-3.4312609813600776,-0.5839838981628418
1773148842491950300,5.864950439453125,0.18738820533831121,-6.022682189941406,0.10282365974213263,-2.3130435943603516,0.07852593260789659,0.9780624992390257,0.12776486259417275,left,0.14421862363815308,0.34214835454174647,1.7210196363724768,-9.076495066019891,0.1632631068850492,0.7213221788406372,-0.4563707709312439,-3.290245367734134,-0.4249996244907379
1773148842531950300,5.904950439453125,0.17857361155530455,-6.978565692901611,0.07512887280674395,-2.612302780151367,-0.06211768183862912,0.980953393304577,-0.1559260198923249,left,-0.0030021071434020996,0.3260335958780785,1.6501526408582925,-9.142308139145374,0.16801092085050165,0.8495023250579834,-0.5416106581687927,-3.1409529241502283,-0.0717131495475769
1773148842571950000,5.9449501953125,0.17334500448225013,-6.171579360961914,0.049694704063418624,-2.1052474975585938,-0.20153950698450104,0.9633870803078384,-0.4397776204012647,left,-0.06393808126449585,0.31197633955320925,1.6097857052870095,-9.19339710586965,0.16969869793265155,0.7967178225517273,-0.5207241773605347,-3.0100545076519247,0.24448859691619873
1773148842611950000,5.9849501953125,0.1615675802342376,-4.425044536590576,0.02664391782539604,-1.6464053392410278,-0.3103990369088767,0.9354070951954461,-0.6653343279966221,left,-0.2359929084777832,0.3007758624811867,1.5067311351343988,-9.244414176401495,0.16720090207320598,0.4239857792854309,-0.22083954513072968,-2.905330689112842,0.40856263041496277
1773148842651950000,6.0249501953125,0.16347133603533376,-2.9012513160705566,0.019151235093590575,-0.9026660919189453,-0.36374346192226775,0.9164171117921122,-0.7799745558149935,left,-0.18068277835845947,0.2942572940340193,1.527377178930491,-9.260019157290458,0.16584228760931768,0.304580420255661,-0.09942179173231125,-2.844213957110047,0.3058432638645172
1773148842691950300,6.064950439453125,0.16458126410864996,-1.3774579763412476,0.011596024306654764,-0.15892696380615234,-0.4159006044924714,0.894435699989731,-0.8943751929162408,left,-0.1252461075782776,0.28757339511647373,1.5407345270231365,-9.276864493629336,0.16394230085978415,0.1851750612258911,0.022739216685295105,-2.781421693110466,0.202953040599823
1773148842731950300,6.104950439453125,0.1775333953807228,-0.7237282395362854,0.013455094868386273,0.1855713427066803,-0.43437698041838446,0.8849254577816056,-0.9384937349925812,left,-0.05804961919784546,0.28868186914553373,1.6602115319274364,-9.253090819332003,0.16745933264197702,0.20337234437465668,0.03189717233181,-2.7918440106645224,0.06979481875896454
1773148842771950300,6.144950439453125,0.1922625226992425,-0.3666403293609619,0.01696148740936472,0.23688271641731262,-0.44289673377265454,0.8795943567915085,-0.9613998012412953,left,-0.007336556911468506,0.2931907970754747,1.7938928571425377,-9.215184574785829,0.1728255180394044,0.20652097463607788,0.02534438669681549,-2.83420314296633,0.021066784858703613
1773148842811950000,6.1849501953125,0.20599606966561462,-0.2568266689777374,0.020230556940136934,0.221400648355484,-0.44752537707115386,0.8759906244375052,-0.975816785519194,left,0.03246438503265381,0.29952112170876444,1.9165686580881476,-9.171933462080359,0.17875194630960875,0.2285567969083786,0.010453686118125916,-2.893575953911245,-0.017223834991455078
1773148842851950000,6.2249501953125,0.21707384960083942,-0.18413329124450684,0.02286303275391341,0.1864890605211258,-0.4507703980645732,0.8732558732708968,-0.9865010318710782,left,0.0251467227935791,0.30473563349418664,2.0147765188619493,-9.135281016987562,0.1835962208203746,0.1217174082994461,0.019037291407585144,-2.9423966834425923,-0.004771232604980469
1773148842891950000,6.2649501953125,0.2257894017772005,-0.13827206194400787,0.02546746464162409,0.14512456953525543,-0.4529187603856116,0.8714343979143302,-0.9937004323245524,left,0.023875772953033447,0.3069404579663903,2.092860606148094,-9.111029788306356,0.18659631431628068,0.05291213095188141,0.05632105469703674,-2.963015108579397,-0.005435526371002197
1773148842931950300,6.304950439453125,0.23348213200505322,-0.08486418426036835,0.02839129553958222,0.1304977685213089,-0.4543840614700395,0.8702063353258842,-0.998687675728134,left,0.035664916038513184,0.30676784816285324,2.1630048403456805,-9.095157680913806,0.18833468150698982,-0.0029512085020542145,0.06091946363449097,-2.961401535902917,0.010266304016113281
1773148842971950300,6.344950439453125,0.23825245521652166,0.03834544122219086,0.030851104821871273,0.14574897289276123,-0.453431307658139,0.8704864037351171,-0.997321480188795,left,0.021501898765563965,0.3057171028523482,2.2071001487903295,-9.087754711180924,0.18894885463049285,-0.033936381340026855,0.08280602097511292,-2.9515765997201204,0.02257874608039856
1773148843011950300,6.384950439453125,0.24302277324025998,0.16155505180358887,0.03331070770196847,0.16100017726421356,-0.45247520633782407,0.8707600274390194,-0.9959505569183288,left,0.007314085960388184,0.3046726010128118,2.2511669617928565,-9.080110333907603,0.18956164664950909,-0.0649215430021286,0.10469548404216766,-2.9418069008558985,0.034896790981292725
1773148843051950300,6.424950439453125,0.2456314508682897,0.41730645298957825,0.03533311548360751,0.10852447152137756,-0.44712026800328547,0.8732766232048196,-0.9844149349282817,left,-0.007282733917236328,0.30554559000167836,2.2742209435135123,-9.071712507918477,0.19032333807295448,-0.04233112186193466,0.09108419716358185,-2.9499726716548205,0.0569993257522583
1773148843091950000,6.4649501953125,0.24495408600741822,0.7081605792045593,0.03706815582725813,0.09969699382781982,-0.43716226653319584,0.8783017901763556,-0.9616415762527113,left,-0.012800037860870361,0.30610836846691686,2.2676726909138263,-9.071638858160377,0.19000291596434912,-0.13963592052459717,0.0915984958410263,-2.9552357067495585,0.10647191107273102
1773148843131950000,6.5049501953125,0.23979874321116554,1.3284835815429688,0.03848276100636629,0.247609481215477,-0.4193094455536357,0.8872159125100727,-0.9202825554631844,left,-0.08263206481933594,0.3070791332115727,2.2201928545974194,-9.08041779242158,0.18853813668706543,-0.2676863372325897,0.13610194623470306,-2.964311578130722,0.22717872262001038
1773148843171950300,6.544950439453125,0.23673024249030764,2.2965006828308105,0.04361154016868569,0.7748022079467773,-0.38406557259553986,0.9028840490354376,-0.8416862451188375,left,-0.04197800159454346,0.31121547081917605,2.1894249374985693,-9.075190413162112,0.18812788150199308,-0.33537930250167847,0.13610273599624634,-3.002952274431288,0.20385757088661194
1773148843211950300,6.584950439453125,0.23562583950239588,2.631500720977783,0.05066801435663698,0.7714812755584717,-0.33472660750427874,0.9213374237008002,-0.7356269579755129,left,0.027313172817230225,0.32389224284856555,2.1703389826260504,-9.039858403018117,0.19112362058460639,-0.2786029279232025,0.0748654305934906,-3.1210525841549037,0.05703815817832947
1773148843251950300,6.624950439453125,0.22404276083127922,2.3579773902893066,0.05402418359923386,0.544297993183136,-0.28590669697230975,0.9376417767542486,-0.6295970239752877,left,0.04273349046707153,0.3317957156055026,2.0599416484951973,-9.04005714046061,0.19017554926015953,-0.3769412636756897,0.022910073399543762,-3.194430831837654,-0.014097750186920166
1773148843291950300,6.664950439453125,0.21160876056124128,2.08445405960083,0.0572365664355048,0.3171147406101227,-0.23632588047772707,0.9514507166547922,-0.523207265168405,left,0.058520734310150146,0.33849215134352095,1.9428446705952285,-9.043854194656014,0.18872135983762148,-0.47527962923049927,-0.028362125158309937,-3.2564465585067865,-0.08639228343963623
1773148843331950000,6.7049501953125,0.19438367141131846,1.5437735319137573,0.05720952056528608,0.16383786499500275,-0.2002648415797781,0.9611010578746019,-0.44351195715173625,left,0.030697762966156006,0.3318300582984527,1.7909340073369442,-9.097060884186625,0.18140023139631498,-0.6230350732803345,-0.05837389826774597,-3.194749104006588,-0.07382506132125854
1773148843371950000,6.7449501953125,0.1813601008074808,1.0891565084457397,0.0581977521136601,0.15861821174621582,-0.1734552955267177,0.9683686927236772,-0.3832262199866566,left,0.020316660404205322,0.3135316869980472,1.6825727090783416,-9.175583216759563,0.16967168090186072,-0.806900143623352,-0.0586136132478714,-3.024567309390008,-0.08686301112174988
1773148843411950300,6.784950439453125,0.1765185183383391,0.723334550857544,0.06208071353774793,0.24075353145599365,-0.15425349245250988,0.9739402588254689,-0.3395561453005352,left,0.04820573329925537,0.28515187334156095,1.6525404127776622,-9.26441534642279,0.15424741204906658,-0.9518080353736877,-0.07869592308998108,-2.7586417060256,-0.10026711225509644
1773148843451950300,6.824950439453125,0.179501209890828,0.47178980708122253,0.06877368805465571,0.30465367436408997,-0.14063837493288195,0.9781785281108522,-0.3082546244042076,left,0.11876469850540161,0.2504938888464334,1.6962233410291372,-9.347938263761996,0.13659413689419161,-0.9836400151252747,-0.11241699010133743,-2.430896336955577,-0.1310441792011261
1773148843491950300,6.864950439453125,0.18932008230378136,0.2776709198951721,0.07772838135408346,0.5232551693916321,-0.13108718964071128,0.9810740181825117,-0.28621400604597746,left,0.1606019139289856,0.21566902674316812,1.8027704294726252,-9.40830183930993,0.11945041333814811,-0.9057838320732117,-0.1193990409374237,-2.0986327598087486,-0.16192232072353363
1773148843531950300,6.904950439453125,0.2119328168130573,0.2581489682197571,0.09188809058863921,0.6679356098175049,-0.12338140963040843,0.9823946351624138,-0.26978818375414637,left,0.35982340574264526,0.18666185502953775,2.0269944876611232,-9.420699548590182,0.10599321960642956,-0.694145679473877,-0.21175110340118408,-1.8199157716713845,-0.10577815771102905
1773148843571950000,6.9449501953125,0.2287761252441751,0.14731337130069733,0.10261738018387336,0.5319037437438965,-0.11700194917681998,0.9833259301444133,-0.2554768465618402,left,0.35601478815078735,0.1617074564992605,2.1949932391501963,-9.426528985396027,0.09407688871400974,-0.688475489616394,-0.22076451778411865,-1.5789059983767568,-0.1864187866449356
1773148843611950000,6.9849501953125,0.2459153210238892,0.03647777438163757,0.1133160171045143,0.39587193727493286,-0.11058753623077486,0.9839635274510073,-0.24079669158917846,left,0.3512008786201477,0.1369961313718995,2.365004061114043,-9.422498706966637,0.08213245947242985,-0.6828053593635559,-0.2299831509590149,-1.33927452769801,-0.2669188380241394
1773148843651950000,7.0249501953125,0.2619778070319841,-0.14501596987247467,0.12297759867239608,0.4535619914531708,-0.10939350753721597,0.9838495121337018,-0.23620795499932182,left,0.31371432542800903,0.11176298088592984,2.5239918231517073,-9.41294761928916,0.07035443681061729,-0.6033351421356201,-0.22925502061843872,-1.0937399704553186,-0.3486885726451874
1773148843691950300,7.064950439453125,0.2842618587164661,-0.3257904648780823,0.1352411990621559,0.5572286248207092,-0.11190949502724076,0.9826057219253315,-0.2395384582066988,left,0.38210034370422363,0.08893622061980502,2.739395446024835,-9.375895945745706,0.06059835114578723,-0.465069055557251,-0.2185894250869751,-0.8710169644795358,-0.32358139753341675
1773148843731950300,7.104950439453125,0.3052022727395369,-0.41856592893600464,0.14645671953046016,0.28388458490371704,-0.11721293411983201,0.9808094785626144,-0.2486504592537728,left,0.4275030493736267,0.069973520155191,2.9395509386226535,-9.330558089894057,0.05314471272523728,-0.2471817284822464,-0.19373470544815063,-0.6856458571027964,-0.19821080565452576
1773148843771950300,7.144950439453125,0.3131708534263496,-0.7082325220108032,0.15124112866148093,0.14701925218105316,-0.12691279808851108,0.9792726726522278,-0.2656860558959084,left,0.11816781759262085,0.05018479638635071,3.017397563891113,-9.31792306472659,0.045213455852077485,-0.4874517321586609,-0.02028033137321472,-0.49193807933963835,-0.060854408890008926
1773148843811950000,7.1849501953125,0.31816864803094236,-0.43478137254714966,0.1553350609721591,0.23132045567035675,-0.13593348625511764,0.9779115378637778,-0.2797850884678576,left,-0.07077538967132568,0.022109787681799352,3.067041300243139,-9.312176630029082,0.03289584825304066,-0.6069413423538208,0.1005992591381073,-0.2168052150330506,-0.03470294177532196
1773148843851950000,7.2249501953125,0.31313508407401114,-0.28515946865081787,0.15455622320159795,0.018784120678901672,-0.13941015448682212,0.977880066387567,-0.2828016775795931,left,-0.1724444031715393,-0.0026426910265945716,3.0208570566952226,-9.329744435423612,0.020682866614571464,-0.6154731512069702,0.12944063544273376,0.025915960722765884,-0.05462978407740593
1773148843891950000,7.2649501953125,0.3080249826345117,-0.13553759455680847,0.15375237466190197,-0.1937522143125534,-0.14286424044577353,0.9776903063633051,-0.2859439270044113,left,-0.27469688653945923,-0.027379592150726564,2.972037788468599,-9.34158977151811,0.008466515866318877,-0.6240049004554749,0.15855073928833008,0.2684685475791804,-0.0745394378900528
1773148843931950300,7.304950439453125,0.2994864910319277,0.07225660979747772,0.15129752729277082,-0.3017924129962921,-0.14210821564592852,0.978207929702449,-0.2806054172594749,left,-0.32837873697280884,-0.05251052090966489,2.8892639359310266,-9.357222224935889,-0.00484822755390313,-0.6316291093826294,0.14930298924446106,0.5147156918043271,0.0663033202290535
1773148843971950300,7.344950439453125,0.2902516457020495,0.3096580505371094,0.1482458539111307,-0.2737652063369751,-0.13646779923567393,0.9793181662268611,-0.26574058335735623,left,-0.45991748571395874,-0.07643025785824455,2.79840439209342,-9.36902489093244,-0.01832616695471204,-0.7168244123458862,0.1256704032421112,0.7487952639769763,0.030247874557971954
1773148844011950300,7.384950439453125,0.2783589938343421,0.38818639516830444,0.14360060776752237,-0.3423667848110199,-0.12804821276269585,0.9807829900395595,-0.24556544336913408,left,-0.3871344327926636,-0.10042948519607085,2.6810756512641905,-9.381657578012346,-0.03236452165126586,-0.5363390445709229,0.13281303644180298,0.9832220056194811,0.08210840076208115
1773148844051950300,7.424950439453125,0.2695763944734684,0.5115202069282532,0.13950257699420648,-0.2985796332359314,-0.11768348383210712,0.9823871613256248,-0.2232754002406601,left,-0.3114376664161682,-0.1117879602008292,2.5954361801624297,-9.393470765402913,-0.040066168887248094,-0.3219757676124573,0.14198198914527893,1.0939834968876092,0.03829849511384964
1773148844091950000,7.4649501953125,0.2745721935198284,1.1275701522827148,0.14116916613714856,0.5596655011177063,-0.102291114430913,0.9838634587349672,-0.1922156369261115,left,-0.44741231203079224,-0.10830753211733726,2.64334768589437,-9.383995665571094,-0.04025721368268745,-0.006291776895523071,0.10931798815727234,1.0600586501277982,0.09619379043579102
1773148844131950000,7.5049501953125,0.2926685138979071,1.1428236961364746,0.1487112350125178,-0.024547338485717773,-0.07790047941634114,0.9850940408575292,-0.14349163132919818,left,-0.15661698579788208,-0.09720863080358233,2.8159423868715763,-9.345316683086752,-0.03750213242081445,-0.15142002701759338,0.13548997044563293,0.9517902908496558,-0.12065108120441437
1773148844171950300,7.544950439453125,0.27732135690304927,0.7791075706481934,0.1402572806438471,-0.28666961193084717,-0.059946825518954076,0.9876375567141407,-0.10891082062206686,left,-0.2896023392677307,-0.0883298296691866,2.6744007035449147,-9.395189259758592,-0.036146385869328314,-0.01643514633178711,0.11871159076690674,0.8650937119103967,-0.09062599390745163
1773148844211950300,7.584950439453125,0.26168658040782644,0.4153915345668793,0.13174693367691157,-0.5487918853759766,-0.04196908518444226,0.9897839206291055,-0.07422257487666337,left,-0.4228491187095642,-0.07998549684124498,2.5289678579986092,-9.442496954378486,-0.034776095664934795,0.11854973435401917,0.10232999920845032,0.7835535658862441,-0.0611267127096653
1773148844251950300,7.624950439453125,0.24157271235364108,0.32202255725860596,0.12128775298064472,-0.7916211485862732,-0.03188477384128103,0.9916899685413223,-0.05642474950669037,left,-0.1854364275932312,-0.06471016441257917,2.3411343790963293,-9.50196445786953,-0.028703803226953435,0.4937855899333954,0.012928515672683716,0.6341470674686134,-0.0021299049258232117
1773148844291950300,7.664950439453125,0.21578883207166646,-0.039213716983795166,0.10815892258859151,-0.306241899728775,-0.032236858440039116,0.9935058839650088,-0.06100695296038263,left,-0.334800660610199,-0.03568337267512554,2.09844395923838,-9.57311421584785,-0.01444500392130966,0.9128730297088623,0.011728271842002869,0.3498600606465712,0.13002684712409973
1773148844331950000,7.7049501953125,0.19866051775783025,-0.2249169498682022,0.09884623831855796,-0.6258190870285034,-0.03669066745047295,0.9943724052640437,-0.0750901714524837,left,-0.21908336877822876,0.013315174627443242,1.9352333188086748,-9.612918987491726,0.01034232747710036,1.5594115257263184,0.06734591722488403,-0.13057337666186503,0.03409363329410553
1773148844371950000,7.7449501953125,0.18422472597137182,-0.058512985706329346,0.08991813958713778,-0.1197061538696289,-0.045146880705305564,0.9939972712101544,-0.09792761538712276,left,-0.17441946268081665,0.07737485054810199,1.7910509117148816,-9.611862756437063,0.042966272481727984,1.8587214946746826,0.11570638418197632,-0.7580310751602053,0.25151440501213074
1773148844411950300,7.784950439453125,0.17482172822272068,0.07254153490066528,0.08267538797856297,-0.34371089935302734,-0.04834552608043044,0.99209298438598,-0.11086719091428882,left,-0.07884299755096436,0.15355008267428807,1.6856274204738437,-9.543549683189392,0.0811120405382749,1.847219467163086,0.0899299830198288,-1.4999014352448283,0.19043698906898499
1773148844451950300,7.824950439453125,0.16454951091762585,0.308218777179718,0.07524522071692145,-0.15992587804794312,-0.04750368951772422,0.9894007890807739,-0.1143105856353816,left,-0.06037497520446777,0.22173318524088076,1.5670787824608385,-9.437338548702002,0.11475104893173779,1.5661686658859253,0.02595403790473938,-2.1566851358048615,0.18039919435977936
1773148844491950300,7.864950439453125,0.15234764684540428,0.12392957508563995,0.0671072191402296,-0.37995991110801697,-0.04639964445063083,0.9861542366177113,-0.11571826995456581,left,-0.17695468664169312,0.2822544557696634,1.4293575342051683,-9.309510041168332,0.14437351331639364,1.3319858312606812,-0.007906034588813782,-2.7313635307386517,0.10289168357849121
1773148844531950300,7.904950439453125,0.14390553340976642,0.21425911784172058,0.061071152934443554,-0.24077735841274261,-0.045499047449376724,0.9825210717769256,-0.1168812231731114,left,-0.034422218799591064,0.3344247789899344,1.3284518126495182,-9.167603323921561,0.1698605958785409,1.3285804986953735,-0.031654879450798035,-3.2187960422873494,0.1474340856075287
1773148844571950000,7.9449501953125,0.1299406238446261,0.14382919669151306,0.05249029338332903,-0.395359605550766,-0.04460707629852642,0.9784854960469141,-0.11649927370080516,left,0.01573789119720459,0.3853711459053922,1.177505025987327,-9.010810003188253,0.19447706015973026,1.1867586374282837,-0.014780856668949127,-3.6863495488896962,0.11709573864936829
1773148844611950000,7.9849501953125,0.1196870744672914,0.02329406887292862,0.04552587238688885,-0.27853628993034363,-0.04678458447302793,0.9746737915426263,-0.12180510927671864,left,0.03758847713470459,0.42540542152295957,1.0665659131299703,-8.868694611626863,0.2138920345559338,1.0116372108459473,0.001230768859386444,-4.047107106854021,0.11204740405082703
1773148844651950000,8.0249501953125,0.10947320140670681,-0.09724104404449463,0.03854119558471813,-0.16171297430992126,-0.04894117928604834,0.9704286269614582,-0.12675365469034425,left,0.057829201221466064,0.46548749006893675,0.9574261778447777,-8.710791868346929,0.23321188587831085,0.8365159034729004,0.017058923840522766,-4.401797619864344,0.10638037323951721
1773148844691950300,8.064950439453124,0.11101682232895392,-0.11160346865653992,0.0369683894264152,0.017332002520561218,-0.0522335678295647,0.966539952381095,-0.1361444818492762,left,0.037756383419036865,0.496473100175458,0.9552968376658856,-8.569592422586679,0.24840638921254746,0.6632207632064819,0.006127893924713135,-4.671175701770186,0.16550225019454956
1773148844731950300,8.104950439453125,0.11516770938776734,-0.13137035071849823,0.037165296014138635,-0.0931754931807518,-0.055076287466463196,0.9639898958079909,-0.14449195163806564,left,0.07383620738983154,0.5148122479480486,0.9808497235301882,-8.479019586735964,0.25750544498679867,0.3019580841064453,0.00794430822134018,-4.828513796904683,0.207133948802948
1773148844771950300,8.144950439453124,0.11882113997330608,0.02307814359664917,0.03802510748256257,-0.004915401339530945,-0.056758084992368604,0.9630237782815677,-0.14943733611170548,left,0.24132323265075684,0.5208668904386586,1.0083365000665188,-8.446195760020613,0.260610761167684,0.42135196924209595,-0.02180883288383484,-4.8801048679322,0.2523481249809265
1773148844811950000,8.1849501953125,0.12252196329549321,0.17752662301063538,0.03888438977794641,0.08334468305110931,-0.0584390651133437,0.9620440243200029,-0.15442555770568434,left,0.4087725877761841,0.526905703181355,1.0359667767267673,-8.41300309999287,0.26371240093014,0.5407458543777466,-0.051576629281044006,-4.9313826352268455,0.2975303828716278
1773148844851950000,8.2249501953125,0.11419766865493264,0.2400183379650116,0.034692417812886726,-0.1672670990228653,-0.0551827485585564,0.9590122574336215,-0.14738330750821105,left,0.208293616771698,0.5528291245722822,0.9510093696050346,-8.291514316874743,0.2757659632848976,0.5200746059417725,0.011906743049621582,-5.149442033305764,0.14208769798278809
1773148844891950000,8.2649501953125,0.11101161240513795,0.1369750052690506,0.0341174826722008,0.23478613793849945,-0.05069047934407537,0.9580924701820895,-0.13778472215782187,left,0.08294117450714111,0.5619264262731236,0.9193593359094112,-8.247602109912037,0.27986664417140433,-0.09291613101959229,0.030387140810489655,-5.225153400111198,0.06297445297241211
1773148844931950300,8.304950439453124,0.1148305577157621,-0.0721774697303772,0.03667620047130311,0.0023817718029022217,-0.0495684318138694,0.9595472228091114,-0.1357204272883398,left,0.09662342071533203,0.5510281598363875,0.957317822099477,-8.300110295784473,0.27471261180916057,-0.4069371819496155,-0.03537721559405327,-5.1344034541279076,0.04147696495056152
1773148844971950300,8.344950439453125,0.11190592749137664,-0.1437762975692749,0.03526733072302709,-0.21106649935245514,-0.05236017985865559,0.9612398539394428,-0.13970578053543778,left,0.003275275230407715,0.5378360694798059,0.9405215125340968,-8.369459726342559,0.26838877560508756,-0.18955977261066437,-0.018657676875591278,-5.023738262841105,-0.04514765739440918
1773148845011950300,8.384950439453124,0.10670706202942552,-0.11330050230026245,0.03227927026779309,-0.16100859642028809,-0.05603361331896529,0.9620266718518834,-0.14541494232941451,left,-0.10352742671966553,0.5312509332631378,0.900501271508634,-8.406948037737607,0.2651848034339434,-0.14122645556926727,0.00448097288608551,-4.968168351310491,-0.04756152629852295
1773148845051950300,8.424950439453125,0.105945472735744,-0.17358341813087463,0.031095603988435905,-0.15600664913654327,-0.060021572577184074,0.9624237154069893,-0.153146294540848,left,-0.13672542572021484,0.5264998219830006,0.8965843903258442,-8.431008712282777,0.2630042663774968,-0.18961568176746368,0.0009153187274932861,-4.92794213938415,-0.08170974254608154
1773148845091950000,8.4649501953125,0.10514362047785118,-0.233866348862648,0.02991125213739294,-0.15100470185279846,-0.06400818155442081,0.9627993106623398,-0.16086058249428786,left,-0.16994184255599976,0.5217538884481623,0.8922682076271623,-8.454888769564032,0.2608178854191606,-0.2380049228668213,-0.00260964035987854,-4.88764783065766,-0.11586472392082214
1773148845131950000,8.5049501953125,0.10567202740547543,-0.23330143094062805,0.029635907492738717,-0.1348121166229248,-0.0688197798610764,0.9642073455156541,-0.1699622076011737,left,-0.0916704535484314,0.5079625426632486,0.9037599810436368,-8.520641052412985,0.254342144708345,-0.3009469509124756,-0.025571882724761963,-4.769935058946907,-0.10716447234153748
1773148845171950300,8.544950439453125,0.1055129426607302,-0.20627665519714355,0.029220245559413886,-0.06889363378286362,-0.07330012765345408,0.9656337662469953,-0.1781438065123931,left,-0.1609324812889099,0.49379726998024775,0.9094296972431242,-8.587119311448932,0.24763872978444995,-0.38937538862228394,-0.027187056839466095,-4.648086210344731,-0.060159891843795776
1773148845211950300,8.584950439453126,0.10820628782358808,-0.15255364775657654,0.030443174133675782,0.05725773423910141,-0.07651045901973363,0.9669702267185799,-0.18442758410752616,left,-0.17652511596679688,0.48007988557459713,0.9393521764937788,-8.647215760493278,0.24122173658028717,-0.23846140503883362,-0.007476456463336945,-4.529201179984212,-0.009273707866668701
1773148845251950300,8.624950439453125,0.11353814034247299,-0.18099400401115417,0.032890059713424735,0.053233809769153595,-0.0786998054090022,0.9677490623503165,-0.18954782236405252,left,-0.11627423763275146,0.4708087496243759,0.9901591844715177,-8.68343273677826,0.23703669326844518,-0.2448224127292633,-0.01947130262851715,-4.448366478815674,0.035114139318466187
1773148845291950300,8.664950439453126,0.12121526011380267,-0.2679167687892914,0.03635800018184716,0.11194229125976562,-0.08350551372309734,0.9691601626886325,-0.19987559821737313,left,-0.007545411586761475,0.4531188651329255,1.0661425000861287,-8.752327409306169,0.22898381049942912,-0.5928568840026855,-0.048089466989040375,-4.293074210295081,0.1831357181072235
1773148845331950000,8.7049501953125,0.12852883865410064,-0.14721500873565674,0.04060336692553279,0.1515216827392578,-0.08587491813712281,0.9711358575171478,-0.20458310867857665,left,0.0823507308959961,0.43123062045000926,1.141896902315691,-8.835386800786852,0.21879672996258684,-0.4015670418739319,-0.03544003516435623,-4.099072271890938,0.12408426403999329
1773148845371950000,8.7449501953125,0.1394282362287218,-0.08515793085098267,0.04624097386704905,0.1925465315580368,-0.08604645264169414,0.9717991266269816,-0.20650462885827114,left,0.12111490964889526,0.42156473533168826,1.2435760193966328,-8.86124020396769,0.2146258562747702,-0.30909305810928345,-0.05046524852514267,-4.012769952966273,0.11883863806724548
1773148845411950300,8.784950439453125,0.15026076815955666,-0.02310086414217949,0.051876290561798405,0.2335713803768158,-0.08621368297547945,0.9724141915886075,-0.20830280119450933,left,0.15969181060791016,0.4118804261505228,1.3452452726706863,-8.885257039371133,0.2104443229449125,-0.21661905944347382,-0.06548946350812912,-3.9259272435545918,0.11353790760040283
1773148845451950300,8.824950439453126,0.1610292443294653,0.038956210017204285,0.05750904759268451,0.2745962142944336,-0.08637669539179271,0.972980970114591,-0.20997950727508172,left,0.19808101654052734,0.4021788754830228,1.4468850075893103,-8.907433215343952,0.20625232602591692,-0.12414506077766418,-0.08051066845655441,-3.838560802529752,0.10818374156951904
1773148845491950300,8.864950439453125,0.16524433761619103,0.07563960552215576,0.059936932433249136,0.044006019830703735,-0.0843376079719117,0.9730511171271765,-0.20662620611259647,left,0.1391521692276001,0.4016429303042634,1.4847558885611594,-8.903283109927177,0.20607392717941736,-0.017107360064983368,-0.05984662473201752,-3.8337235916316508,0.05739724636077881
1773148845531950300,8.904950439453126,0.16621175406375346,-0.052986085414886475,0.06083102043572202,0.08980372548103333,-0.08387263711959625,0.973547595951741,-0.20535357238533225,left,0.06495338678359985,0.39662459814969386,1.4965325433336198,-8.920704200327396,0.20364248070541716,-0.25254112482070923,-0.013964012265205383,-3.788379013778269,0.03227949142456055
1773148845571950000,8.9449501953125,0.1709514916404887,-0.05168745666742325,0.06403773567563761,0.11397713422775269,-0.08412065914255135,0.9747998065112401,-0.20524160646516307,left,0.045368492603302,0.38138215803889725,1.548441740399599,-8.969375584515928,0.19643903625740966,-0.5061029195785522,-0.04765300452709198,-3.6500709055453537,0.04552745819091797
1773148845611950000,8.9849501953125,0.17410147907835122,-0.06054987385869026,0.06693327529193159,0.08532725274562836,-0.08438042625790425,0.9766224873805094,-0.20411180761116487,left,0.027375340461730957,0.3597849462192397,1.5899740664884447,-9.039996350184083,0.18603333338906758,-0.5506545901298523,-0.0041128844022750854,-3.452655943827331,-0.038275450468063354
1773148845651950000,9.0249501953125,0.1793166210327905,-0.19179874658584595,0.07079447473233205,0.09384748339653015,-0.08586696044239121,0.9784023233202974,-0.2054690774160979,left,0.02791750431060791,0.3349352528721184,1.6518926163934171,-9.113205963301658,0.17419512705965712,-0.7347496151924133,0.023617088794708252,-3.2235242398530244,-0.045218974351882935
1773148845691950300,9.064950439453124,0.18131494074621682,-0.18428558111190796,0.07410363982142487,0.028933696448802948,-0.0879125092196264,0.9813004566287737,-0.2056322286420473,left,0.007010281085968018,0.29415758346083415,1.69240860504657,-9.231571061441302,0.1543681106520534,-1.3231546878814697,0.022183865308761597,-2.843278137564659,0.014056354761123657
1773148845731950300,9.104950439453125,0.18136934671254892,-0.2568807899951935,0.0779434921092175,0.1319916546344757,-0.08940967961012207,0.9852834939896181,-0.2020590250900377,left,-0.13030338287353516,0.2306265229531213,1.722056285943836,-9.390409624266624,0.12307387157610535,-1.876004934310913,0.04246155917644501,-2.241677395044267,-0.1253972351551056
1773148845771950300,9.144950439453124,0.18833717301113498,-0.21822111308574677,0.08586096466528922,0.07473970949649811,-0.09041875246982731,0.9885833344506864,-0.19683116740251516,left,0.040431201457977295,0.1523080487741162,1.8148022280499339,-9.521719544175266,0.08458909890560198,-1.8197338581085205,-0.011247187852859497,-1.487863499187678,-0.15136365592479706
1773148845811950000,9.1849501953125,0.19074892838008112,-0.24673010408878326,0.090656994586255,0.10888256877660751,-0.09209439757939855,0.9903099474531655,-0.19351007240529672,left,-0.09511828422546387,0.08412404431314999,1.8527097877703607,-9.594731588894128,0.05085420983905213,-1.612369418144226,0.060277774930000305,-0.8240022614568472,-0.0775575339794159
1773148845851950000,9.2249501953125,0.20133490503229134,-0.16799046099185944,0.09900752107967617,0.38938677310943604,-0.09317930682753085,0.9905051642328306,-0.1898039147636761,left,-0.0899810791015625,0.02188808614949967,1.9606391243524848,-9.606258945080638,0.020361954837149525,-1.3827688694000244,0.053705960512161255,-0.21463161558732388,-0.07127798348665237
1773148845891950000,9.2649501953125,0.21869744828193133,-0.12905171513557434,0.10981765617332674,0.4475328326225281,-0.09355210160291953,0.9895364490706797,-0.18574554388961922,left,-0.010916054248809814,-0.025291361519592773,2.1269534298859534,-9.570002805829047,-0.002395727955057813,-0.9795382022857666,0.010006710886955261,0.24799709316501392,-0.0880499929189682
1773148845931950300,9.304950439453124,0.2320520139551773,-0.030695952475070953,0.11776403775662,0.19918407499790192,-0.0930859555224101,0.9885187771595105,-0.18124719533663497,left,0.02447986602783203,-0.0560414502147915,2.251743884897977,-9.528815055394173,-0.017241839645143423,-0.5605801343917847,0.014947116374969482,0.5492912210252135,-0.09552748501300812
1773148845971950300,9.344950439453125,0.24069431252546886,-0.07080966234207153,0.12254247491353742,0.16639599204063416,-0.09371113269551086,0.9877677207591359,-0.18096050136329564,left,0.0406113862991333,-0.06791805897701021,2.332289978383481,-9.501993099442124,-0.02272734050049146,-0.3666134178638458,0.01422959566116333,0.665536623597145,-0.09555906802415848
1773148846011950300,9.384950439453124,0.2493476250308068,-0.11092337965965271,0.12731431159528062,0.1336079090833664,-0.09433123884382026,0.9869634253023674,-0.18057055449191223,left,0.05653470754623413,-0.07979173158094265,2.4123050337322054,-9.4731294085294,-0.02821161099981311,-0.17264671623706818,0.013566210865974426,0.781659495767951,-0.0955781638622284
1773148846051950300,9.424950439453125,0.253592366224996,-0.17906486988067627,0.1297348650753266,0.09980014711618423,-0.09694142341137761,0.9863191955599815,-0.18498261569367674,left,0.06936466693878174,-0.08592360412431486,2.451245589762181,-9.45798678445518,-0.030753001347706994,-0.08751514554023743,0.02822977304458618,0.84158621426858,-0.1145649403333664
1773148846091950000,9.4649501953125,0.2547883077409728,-0.2099946141242981,0.13055502008832723,-0.013734906911849976,-0.10076899153757356,0.9858033587543704,-0.19238338659002582,left,0.08708727359771729,-0.08854893088763445,2.4619898327469825,-9.45287747861743,-0.03150804004274066,0.01893877238035202,0.03991475701332092,0.8672339388094842,-0.09619329124689102
1773148846131950000,9.5049501953125,0.2527019645290763,-0.22893689572811127,0.12965613554282943,-0.07743718475103378,-0.1051848627980747,0.9854800329193734,-0.20144205332743093,left,0.027635037899017334,-0.0882874541318233,2.4423190637238323,-9.458212994426487,-0.03089716473454314,0.0868493840098381,0.06750671565532684,0.8646797973472624,-0.10619394481182098
1773148846171950300,9.544950439453125,0.2503086168985301,-0.2141023874282837,0.1285502379344607,-0.033418070524930954,-0.10974159941253907,0.9851650807665427,-0.21094345983453433,left,-0.029245078563690186,-0.08682291132293746,2.419986382015049,-9.465247715368866,-0.029690076551118865,0.08110283315181732,0.10600464046001434,0.8503725281186402,-0.11100780963897705
1773148846211950300,9.584950439453126,0.24934714313201808,-0.19759254157543182,0.12802483047912674,-0.04253697395324707,-0.11409835751276108,0.9848062155621778,-0.22025862855485367,left,-0.019887685775756836,-0.08317927494789688,2.411633271950483,-9.470510165941715,-0.02734982011429539,0.14270362257957458,0.11331817507743835,0.8147696651440113,-0.057356834411621094
1773148846251950300,9.624950439453125,0.24952093049028484,-0.3534143567085266,0.1274700904771276,0.03729422390460968,-0.1195008856795377,0.9844282396895431,-0.23300724175914972,left,-0.030463576316833496,-0.06849177259324946,2.4159737853728234,-9.48066506473124,-0.019286655770428783,0.7715163230895996,0.1562870740890503,0.6711497873038053,-0.05504901334643364
1773148846291950300,9.664950439453126,0.2507480297756065,-0.3313767611980438,0.12609437935096773,0.005684308707714081,-0.13068127668172838,0.9833731940255086,-0.2600769377035924,left,-0.004870176315307617,-0.03297662701833147,2.4319879315845667,-9.4948023111552,-0.0000072717097702127804,1.2139801979064941,0.07296569645404816,0.32333164428099986,0.20230430364608765
1773148846331950000,9.7049501953125,0.2450920346189275,0.2167777121067047,0.11977580844558164,-0.2616639733314514,-0.1350236850242439,0.9832281985432799,-0.27530153641526367,left,0.056479573249816895,0.019119768697005643,2.379105651702732,-9.511839370673894,0.02617080446799131,1.434428095817566,0.04662080109119415,-0.1874893964386545,0.12142157554626465
1773148846371950000,9.7449501953125,0.23767452074206188,0.4154239892959595,0.11219681693925224,-0.1109619289636612,-0.13154325046528997,0.983486014720416,-0.27498251167850185,left,0.04728841781616211,0.07581573551541158,2.3022759483918547,-9.503587675157188,0.053514026125234836,1.2689498662948608,0.04352107644081116,-0.7427862328205257,-0.04965798556804657
1773148846411950300,9.784950439453125,0.23610588622736214,0.30037209391593933,0.10845158412931774,0.03880421817302704,-0.1263658690765921,0.9831769191032367,-0.2699596629209302,left,0.03681915998458862,0.12046720394265494,2.2773300154447553,-9.465475678905845,0.07505525852495516,0.8327270746231079,0.011150717735290527,-1.1785242129672318,-0.13662737607955933
1773148846451950300,9.824950439453126,0.23793757019611947,0.11341874301433563,0.10756113875868405,-0.008043844252824783,-0.12391805133197822,0.9825144298082947,-0.2684947461334891,left,0.112759530544281,0.1467517481531507,2.286570868129283,-9.427919562971592,0.08797993212817588,0.4721565544605255,-0.0478682667016983,-1.4339828559182584,-0.1020582765340805
1773148846491950300,9.864950439453125,0.23287442996080332,-0.004061877727508545,0.1040137283407701,-0.18991123139858246,-0.123845300954829,0.9822826588829909,-0.26969897268213633,left,0.01260364055633545,0.16093611473189556,2.2338879102118314,-9.418636186319588,0.09468024095424418,0.2234017252922058,-0.07502445578575134,-1.57143990027979,-0.07091237604618073
1773148846531950300,9.904950439453126,0.2262396569135868,0.05217118188738823,0.10016659333846861,-0.19258683919906616,-0.12433101602021158,0.9823002853715611,-0.2709706657471849,left,0.06799215078353882,0.16832330755586594,2.1686853702001274,-9.421679791799187,0.09795233749116103,0.22024370729923248,-0.10763044655323029,-1.6429038387738166,-0.003629148006439209
1773148846571950000,9.9449501953125,0.217980212626997,0.10655790567398071,0.09548490272062306,-0.15391121804714203,-0.12326703732602763,0.9824625594482363,-0.2691938634947121,left,0.030430138111114502,0.17831812882347528,2.0871390136308965,-9.422767587035894,0.10225066739212375,0.21824446320533752,-0.13048875331878662,-1.7394506344676017,-0.019520804286003113
1773148846611950000,9.9849501953125,0.20968741389607956,0.1609446257352829,0.09079923900884004,-0.1152355968952179,-0.12219798808656736,0.9825841155593958,-0.2673299231203641,left,-0.007290244102478027,0.188298126403194,2.005213594616204,-9.422302307611703,0.10654474285633958,0.21624521911144257,-0.1533084213733673,-1.8356809115581214,-0.0354447215795517
1773148846651950000,10.0249501953125,0.20271208999347232,0.16248352825641632,0.08701354668552638,-0.08815637230873108,-0.11949822311664623,0.982837493713426,-0.26212515619570065,left,-0.10262787342071533,0.19741705111389515,1.9359911514386534,-9.419270977091788,0.11036063379279722,0.13686683773994446,-0.1685197949409485,-1.9234487729907035,-0.06352400779724121
1773148846691950300,10.064950439453124,0.19676252708061637,0.1566040962934494,0.08405854201456539,-0.01690816879272461,-0.11653366857334997,0.9832213191000678,-0.2560277280391745,left,-0.0873030424118042,0.2027919918340498,1.8778683405548333,-9.420347666412592,0.11238374669362212,0.055000729858875275,-0.16723693907260895,-1.9751070640355348,-0.0176437646150589
1773148846731950300,10.104950439453125,0.1946880143000343,0.12469975650310516,0.08311485932158306,0.04483291879296303,-0.11357149310450412,0.9834771650697208,-0.2501833690503014,left,-0.05526268482208252,0.20656301456882617,1.8568676381021736,-9.416848718380928,0.11386952463421884,0.05276070907711983,-0.16829857230186462,-2.0113161492750047,-0.018635347485542297
1773148846771950300,10.144950439453124,0.19255653317642885,0.138384148478508,0.08210485240043908,-0.02938814088702202,-0.11102715651028641,0.9836754316152629,-0.24517518247751174,left,-0.006953299045562744,0.21032555848771536,1.8353303445547817,-9.413290733638405,0.11538868632792947,0.08408057689666748,-0.14820104837417603,-2.047415490529686,0.01366320252418518
1773148846811950000,10.1849501953125,0.1897150720668629,0.12909744679927826,0.08067851922336773,0.006277456879615784,-0.1083441178565486,0.9838378880241777,-0.23994267240825715,left,-0.027223646640777588,0.2154618651748916,1.8065685065813362,-9.408016008105873,0.11754005700942846,0.12360724806785583,-0.12464339286088943,-2.0966481618627903,-0.013310432434082031
1773148846851950000,10.2249501953125,0.1839284446251333,0.14108985662460327,0.07772782932402678,-0.06451191753149033,-0.10587791774475036,0.9840300673581831,-0.23490616431625677,left,-0.03409111499786377,0.22179436712306902,1.7496344670906663,-9.405070602303743,0.12013845836596967,0.12200230360031128,-0.10826876014471054,-2.15727038834691,-0.028307199478149414
1773148846891950000,10.2649501953125,0.17810077993767207,0.15308228135108948,0.07477546732065492,-0.13530129194259644,-0.10340943641194134,0.9842009451208139,-0.22982483183326666,left,-0.04101872444152832,0.22809820434930764,1.6923526370756328,-9.401535998436808,0.12273427338315138,0.12039735168218613,-0.09185866266489029,-2.2175324032165107,-0.04334072768688202
1773148846931950300,10.304950439453124,0.1727409921178334,0.033811815083026886,0.07213214883614437,0.022987425327301025,-0.10168527217722231,0.9843893793539503,-0.22604326003832165,left,-0.04525524377822876,0.23199940777003397,1.640438763834536,-9.401877359220386,0.12423609102913998,0.028595678508281708,-0.03381700813770294,-2.254782229680568,-0.027766451239585876
1773148846971950300,10.344950439453125,0.17468667684722966,0.0008414089679718018,0.07313926814809459,0.11501343548297882,-0.1012707105421119,0.9843596412964869,-0.22542794736672966,left,0.02510654926300049,0.23181397909131674,1.6588013728685675,-9.399079252934456,0.12422141208089316,-0.05802132934331894,0.0007495284080505371,-2.2530124435290695,-0.0018241554498672485
1773148847011950300,10.384950439453124,0.1789152629521983,0.14521342515945435,0.07550148576761612,0.1088096871972084,-0.09966963426492922,0.9844358370111091,-0.22253577778414527,left,0.1049758791923523,0.23012693652179636,1.6992052794493733,-9.395708315196632,0.12349790475315221,-0.03884436935186386,-0.00033308565616607666,-2.236907550293952,-0.02003057301044464
1773148847051950300,10.424950439453125,0.1764282019799932,0.20044033229351044,0.07482332750667825,0.012003876268863678,-0.09507577577732843,0.9849559864756215,-0.21296964772270782,left,0.031123638153076172,0.23087626497709154,1.6755376958750188,-9.398252154460549,0.12338541052466075,-0.04228692874312401,0.1377900093793869,-2.2440616598322984,-0.08620169758796692
1773148847091950000,10.4649501953125,0.18135258140689645,0.029285818338394165,0.07759126688330342,0.1620582640171051,-0.09260551747372467,0.985039343552707,-0.20845423855777478,left,0.0643385648727417,0.2297441016751515,1.7222548772558568,-9.392380047556758,0.12288804345783788,-0.05430973321199417,0.2001684010028839,-2.2332520965263245,-0.0645952969789505
1773148847131950000,10.5049501953125,0.18597943637669043,-0.06059794872999191,0.07992672089148121,-0.002967625856399536,-0.09273048614785152,0.9849152605633423,-0.20910648372805124,left,0.04587668180465698,0.22803905478181133,1.7663950477555392,-9.388039972525835,0.12229025023282145,-0.03429141640663147,0.18212896585464478,-2.216967316679656,-0.07382729649543762
1773148847171950300,10.544950439453125,0.18375699896822195,0.012779675424098969,0.07892196774637933,-0.07137119770050049,-0.09242762316567286,0.9850763464562571,-0.20815735445725395,left,0.03423595428466797,0.2274774397436787,1.7457535340040922,-9.393165060454606,0.12187370516818571,-0.053829625248909,0.14757513999938965,-2.2116019902542234,-0.02908933162689209
1773148847211950300,10.584950439453126,0.18153537610799378,0.08615730702877045,0.07791710272595563,-0.13977476954460144,-0.09212462138687315,0.9852361643276754,-0.20720959273242467,left,0.022590577602386475,0.22691376986567605,1.7251060289032756,-9.398244555675983,0.12145699673689396,-0.07336783409118652,0.11302189528942108,-2.2062163516931235,0.015646561980247498
1773148847251950300,10.624950439453125,0.17816669222141737,-0.019384391605854034,0.07648226135469438,-0.1105164960026741,-0.09145943673252811,0.9855536064905702,-0.20525235966235722,left,-0.004316449165344238,0.22500890367861898,1.6941782450675964,-9.408121806567907,0.12029030633235283,-0.027154702693223953,0.09462428092956543,-2.188010832916945,-0.08135241270065308
1773148847291950300,10.664950439453126,0.17768369165889747,-0.16745534539222717,0.07584652823348483,-0.16078492999076843,-0.093980128654319,0.985254741394073,-0.21045875907212774,left,0.015034317970275879,0.22649063092248148,1.6890590023577212,-9.405737541779875,0.12119469965125758,0.12473410367965698,0.06687404215335846,-2.2021729215212167,-0.07515458762645721
1773148847331950000,10.7049501953125,0.17595667265490506,-0.23529154062271118,0.07420403257551922,-0.10239127278327942,-0.09867138343317074,0.9846750371685103,-0.22012023845234527,left,-0.060199618339538574,0.22995890852887918,1.6714656241305172,-9.401064289271831,0.12317827400033723,0.08045355975627899,0.07306595146656036,-2.235303183837235,-0.06487640738487244
1773148847371950000,10.7449501953125,0.17751249849186646,-0.15833503007888794,0.07439094373065555,-0.0812477320432663,-0.1031496115738764,0.9841436929736043,-0.2294218261931886,left,0.022547781467437744,0.23004023186267372,1.686057920845598,-9.398273197248578,0.12364225437898471,-0.0025400519371032715,0.005973026156425476,-2.2360797211676835,0.0336616188287735
1773148847411950300,10.784950439453125,0.17483380700063944,-0.03619354963302612,0.07289524481088762,-0.10479218512773514,-0.10516921169862065,0.9840918901179968,-0.2331085275538416,left,0.015194475650787354,0.22923614052848337,1.6611889986574648,-9.404523489814997,0.12324376722425759,-0.0290476456284523,-0.026233434677124023,-2.228401295494288,0.039790794253349304
1773148847451950300,10.824950439453126,0.1719486365783862,-0.02746204473078251,0.07133455095830438,-0.05925636738538742,-0.10529557464128235,0.9840787589603722,-0.23321827098575124,left,0.003211498260498047,0.23138469933852424,1.6332254714548586,-9.404538102862238,0.12415061426806824,0.09269615262746811,-0.029139772057533264,-2.248915091212839,-0.01716238260269165
1773148847491950300,10.864950439453125,0.16906229413526705,-0.018730539828538895,0.06977363701084188,-0.013720553368330002,-0.10542167585423626,0.9840624175967615,-0.23332187842273433,left,-0.008784234523773193,0.23353356838607978,1.605257268077135,-9.404427628225088,0.12505706598495425,0.21443995833396912,-0.03204561769962311,-2.269421434277296,-0.0741163045167923
1773148847531950300,10.904950439453126,0.1704552422234046,-0.08549097180366516,0.0698072960172296,0.04899843409657478,-0.10682738331826236,0.9834633279291826,-0.2370151364920062,left,0.0027115941047668457,0.24015769956611682,1.6157700403936206,-9.387161436125636,0.12851036607551303,0.1422228217124939,-0.03482574224472046,-2.3325683569334448,-0.024209633469581604
1773148847571950000,10.9449501953125,0.1732650707479314,-0.03282490000128746,0.07078740099247527,0.06541978567838669,-0.10791270105801475,0.98302664025432,-0.23992726082790086,left,0.017325401306152344,0.24348425443657168,1.6407931302301584,-9.374888814529776,0.1303948815610752,0.021091178059577942,-0.05125803500413895,-2.364241552308947,-0.010049298405647278
1773148847611950000,10.9849501953125,0.17512921681989932,-0.01597299426794052,0.07166240174892016,0.03426418825984001,-0.1080543606818999,0.9829260107107167,-0.2404718967038994,left,0.040458083152770996,0.2435722490933111,1.6582301488518714,-9.371609062206744,0.13055806378441398,-0.014732927083969116,-0.04906730353832245,-2.365079026046395,-0.01458713412284851
1773148847651950000,11.0249501953125,0.17532413961974466,-0.008171914145350456,0.07177829729194801,-0.0054679326713085175,-0.10807596065490245,0.9829361311162979,-0.24050626938400563,left,0.038709402084350586,0.2432263088465921,1.6601994030982254,-9.372090708243846,0.13040025130532323,-0.014528479427099228,-0.06392879784107208,-2.3617864142417906,-0.01985548436641693
1773148847691950300,11.064950439453124,0.1733667936889064,0.005531763657927513,0.07088392984993212,-0.030000492930412292,-0.1081299297225075,0.9830630755778447,-0.24027386690883618,left,0.037140727043151855,0.24241190060470685,1.642183123283833,-9.37721404260695,0.1298869108534011,-0.027390969917178154,-0.056482866406440735,-2.3540341926798223,-0.0029436349868774414
1773148847731950300,11.104950439453125,0.17326965230887997,-0.02754642628133297,0.07082066896345804,0.02833086997270584,-0.10812847433525871,0.9830532605550554,-0.24028167409090978,left,0.06563723087310791,0.24264475858208287,1.6411775995030997,-9.376833518856763,0.12999611443809267,0.021960193291306496,-0.06074446439743042,-2.3562508458159863,-0.021367326378822327
1773148847771950300,11.144950439453124,0.17590838807133077,-0.04733221232891083,0.07207147321055296,0.0591350719332695,-0.10914343833057709,0.982920777449568,-0.24253701151083767,left,0.11889791488647461,0.241097858804268,1.66655081795156,-9.376047336915136,0.12946167052935723,-0.01952552981674671,-0.06743617355823517,-2.341522501631081,-0.016765505075454712
1773148847811950000,11.1849501953125,0.1785425056051111,-0.06711800396442413,0.07332207378313045,0.08993927389383316,-0.11015800725033024,0.9827853761099916,-0.24478710729812264,left,0.1721515655517578,0.23954519524434298,1.6918861886076628,-9.375191596868634,0.12892685725638622,-0.06101125478744507,-0.07412402331829071,-2.326733659430593,-0.012169837951660156
1773148847851950000,11.2249501953125,0.18447129223261274,-0.1454053521156311,0.07631167774173891,0.15484651923179626,-0.11185014525978054,0.9826088779936905,-0.24850139672011207,left,0.21921372413635254,0.2347946876554391,1.749447273955494,-9.375755660492182,0.1270669650357125,-0.14799660444259644,-0.08557356894016266,-2.281451333158463,-0.011455520987510681
1773148847891950000,11.2649501953125,0.192037009646097,-0.2085060179233551,0.0805106705821773,0.23226028680801392,-0.11425616020406865,0.9826309654437534,-0.2531125761980224,left,0.18249595165252686,0.2233469659759768,1.825196342422813,-9.387275417894124,0.12206636001075534,-0.42035022377967834,-0.08175718039274216,-2.1721206053458153,-0.026094362139701843
1773148847931950300,11.304950439453124,0.20160293990602557,-0.20924100279808044,0.0862606483126582,0.12567508220672607,-0.11681163485321687,0.9828730959431483,-0.25732119668479386,left,0.248649001121521,0.2043140133216142,1.9228404318340122,-9.40819136467278,0.11346733616684712,-0.40748968720436096,-0.07896873354911804,-1.9897247874528168,-0.029751896858215332
1773148847971950300,11.344950439453125,0.20849764099207502,-0.26993873715400696,0.09048167942611827,0.11165306717157364,-0.12077451827603773,0.9828863707311976,-0.26414139094888467,left,0.2261124849319458,0.18690792232778855,1.9945280960813163,-9.427169036865234,0.10564666083838746,-0.3838968276977539,-0.05428004264831543,-1.822286884716898,0.07317274808883667
1773148848011950300,11.384950439453124,0.21191547825583656,-0.17388877272605896,0.0928895918492114,0.08981676399707794,-0.12435227663378526,0.9829106928497306,-0.2700621094414209,left,0.19266319274902344,0.172304449632637,2.0321179681546986,-9.445307920145988,0.0989689064072434,-0.20682159066200256,0.0035509467124938965,-1.681380576684326,0.05912204086780548
1773148848051950300,11.424950439453125,0.21231189820813248,-0.07732173800468445,0.0930168710397913,0.035271454602479935,-0.1252214384798239,0.9827915158374494,-0.27183712676229704,left,0.1764199137687683,0.17202033443433123,2.035962660884112,-9.44496831292808,0.09893686653277585,-0.05019308626651764,0.0031645745038986206,-1.6786356618903577,0.03921602666378021
1773148848091950000,11.4649501953125,0.212707758542164,0.019245289266109467,0.09314406912002683,-0.019273851066827774,-0.12609044963159058,0.9826715764259167,-0.2736118328626711,left,0.16017663478851318,0.17173552094935024,2.0398022390469905,-9.444628121188282,0.09890473898004239,0.10643540322780609,0.0027787089347839355,-1.6758837328337133,0.01930929720401764
1773148848131950000,11.5049501953125,0.21314653089298027,0.04313516616821289,0.09302089659849534,-0.06240222230553627,-0.12609245303914107,0.9824628124321606,-0.27417164893700624,left,0.1789347529411316,0.176040336684625,2.0424010233685372,-9.43659386781454,0.10106792536670427,0.14478088915348053,-0.019701659679412842,-1.717462820673734,0.030642405152320862
1773148848171950300,11.544950439453125,0.20927898873015605,0.03278590366244316,0.09067331991087128,-0.06486520916223526,-0.12592031497101003,0.9824128512559058,-0.27415135423826814,left,0.09186583757400513,0.18224419693770427,2.0036372852101922,-9.43381797336042,0.10386279326738701,0.12338482588529587,-0.004615381360054016,-1.777328237441182,0.03004346787929535
1773148848211950300,11.584950439453126,0.20591442752701472,0.13115903735160828,0.08884229743464561,-0.08399265259504318,-0.12477940492043663,0.9825461228645231,-0.2719455720051325,left,0.05926167964935303,0.18631650901074168,1.9703890956029295,-9.433342757064104,0.10554812204852598,0.07551504671573639,-0.017519265413284302,-1.816587796292454,0.033524543046951294
1773148848251950300,11.624950439453125,0.20153459442191382,0.14185766875743866,0.08660738151058069,-0.02120593935251236,-0.12191960298964248,0.9828730961275474,-0.26627208399442237,left,0.004076242446899414,0.19172925170140442,1.9270573188766835,-9.432110584920645,0.1076817649321271,0.09586943686008453,0.006136298179626465,-1.8687230571992695,0.017781570553779602
1773148848291950300,11.664950439453126,0.1997195247538694,0.14884240925312042,0.08568011660870878,-0.08394444733858109,-0.1189716449713446,0.9830890995774982,-0.26062852820438037,left,0.01520681381225586,0.19662456839847406,1.9080964516885577,-9.426513203305005,0.10972915197998952,0.10566563159227371,-0.02304115891456604,-1.9158274843320249,-0.0026960372924804688
1773148848331950000,11.7049501953125,0.19473847584003653,0.05650893598794937,0.08316750723495858,-0.06672169268131256,-0.11725176455274396,0.9833498943113078,-0.2570001774492055,left,-0.04939150810241699,0.20046919384761852,1.8596800651744008,-9.428604622626304,0.11116705525532965,0.0556192547082901,0.013094261288642883,-1.952789726026356,0.0005018264055252075
1773148848371950000,11.7449501953125,0.19163268445721524,0.02289285883307457,0.08141341581545891,-0.07021544873714447,-0.11779542501637762,0.9833093564882656,-0.2580258595781157,left,-0.08381199836730957,0.20295187411185947,1.82945882217288,-9.42954628739059,0.11224430469115938,0.08485451340675354,0.023181453347206116,-1.9766427491702139,-0.0040543824434280396
1773148848411950300,11.784950439453125,0.1885278854112198,-0.010723214596509933,0.07965894742481824,-0.07370920479297638,-0.11833855755664993,0.9832643795985149,-0.2590442033244116,left,-0.11824917793273926,0.2054376632754547,1.799246785391122,-9.430325455069541,0.11332104260318938,0.11408977210521698,0.03326775133609772,-2.0005136002317068,-0.008608818054199219
1773148848451950300,11.824950439453126,0.18884998836982972,0.00537637434899807,0.07940032741652248,0.013123393058776855,-0.11876540822317097,0.9829474422378162,-0.26047521801706025,left,-0.10693418979644775,0.21029492932960575,1.8004387716546653,-9.42008989225924,0.11577850228534939,0.10182785242795944,0.028890594840049744,-2.047121622149646,0.0018315017223358154
1773148848491950300,11.864950439453125,0.18783344624160184,0.005250965245068073,0.07881455084109827,-0.08712852001190186,-0.11852394088078741,0.9829395680919325,-0.2600383139605699,left,-0.07452255487442017,0.2119080597368548,1.7902429563328623,-9.418658982673287,0.11649163916960725,-0.036437712609767914,0.018802672624588013,-2.0625899710468945,-0.012797504663467407
1773148848531950300,11.904950439453126,0.183124671655063,0.08120808005332947,0.07689513543276949,-0.10977038741111755,-0.11757849006732882,0.9834449769447496,-0.25720242535554577,left,-0.08473074436187744,0.2085339498436539,1.747130375315249,-9.433773549696802,0.11444883398425035,-0.07353310286998749,0.050480931997299194,-2.030229670190066,-0.05453634262084961
1773148848571950000,11.9449501953125,0.1786140193705092,0.13192777335643768,0.07511698667382005,-0.046182483434677124,-0.11554101058908327,0.9840111567079761,-0.25229079190479203,left,-0.09632200002670288,0.20614449530428225,1.7054172858320176,-9.446305699011683,0.1128268417629563,-0.10371468961238861,0.03680157661437988,-2.0072990225881338,-0.025912299752235413
1773148848611950000,11.9849501953125,0.17457695074825821,0.047154515981674194,0.0735369820282025,-0.03223634883761406,-0.11367999731394654,0.9845239846307441,-0.2478113844505026,left,-0.1455554962158203,0.20379276165108662,1.6680834343463182,-9.457736024564504,0.11127429252251629,-0.0891619324684143,0.023282349109649658,-1.9847190881200134,-0.05001361668109894
1773148848651950000,12.0249501953125,0.17062772799180623,0.004211053252220154,0.0717152489788798,-0.01980232074856758,-0.11366662479067652,0.9847626244236639,-0.2472051793577499,left,-0.18465054035186768,0.20243474305875,1.631175991579145,-9.466897236141563,0.11036071286931885,-0.07992292940616608,0.028157874941825867,-1.9716753360211847,-0.045647621154785156
1773148848691950300,12.064950439453124,0.16668047499411098,-0.03873240947723389,0.06989322214451082,-0.007368295453488827,-0.11365275755599392,0.9849972053580305,-0.24660461319615765,left,-0.22376203536987305,0.2010744455147298,1.5942385920651256,-9.475898288720845,0.10944668560757692,-0.07068391889333725,0.0330364853143692,-1.95860586495921,-0.04128429293632507
1773148848731950300,12.104950439453125,0.1696204397223078,-0.15243837237358093,0.07125463641683608,-0.009679106995463371,-0.1156650135284969,0.9847486867085168,-0.25080615386487615,left,-0.14518237113952637,0.1988992030815789,1.6228057842493055,-9.475347084578871,0.10869458179265741,-0.050486743450164795,-0.05105111747980118,-1.93769927053079,-0.012695834040641785
1773148848771950300,12.144950439453124,0.17457834007599335,-0.028738416731357574,0.07387659951374204,0.271871417760849,-0.11679577542482174,0.9846310279161516,-0.253186514212366,left,-0.1618422269821167,0.194248361702102,1.6713107258297502,-9.475957909953594,0.10678418147817972,0.08577477931976318,0.018748417496681213,-1.8929684406615792,-0.09746924042701721
1773148848811950000,12.1849501953125,0.18199788859933552,0.059453703463077545,0.07750302019329024,0.16994497179985046,-0.11659452477566987,0.9843240579697493,-0.2535905628897963,left,-0.18514716625213623,0.19431038241204332,1.741550237095356,-9.463181430488824,0.10726284454799666,-0.16981041431427002,0.03850118815898895,-1.8935652375109493,0.04926922917366028
1773148848851950000,12.2249501953125,0.1854813922399688,0.012891609221696854,0.07975087359226547,0.04009939730167389,-0.11454974337126206,0.9846254369381194,-0.2493310854880873,left,-0.1322791576385498,0.18969335326858516,1.7760979649938642,-9.465548744142055,0.10502909744202038,-0.051669664680957794,0.02362006902694702,-1.8491196543239057,-0.06303466856479645
1773148848891950000,12.2649501953125,0.18227714061342135,-0.11047296226024628,0.07827900320486185,-0.19236460328102112,-0.11664332080767614,0.9847263866288577,-0.2527971445748861,left,-0.14043980836868286,0.185383687104935,1.7471872200690208,-9.478940725156665,0.10286365251336767,-0.10987304151058197,-0.0017147809267044067,-1.807597411237657,0.007570788264274597
1773148848931950300,12.304950439453124,0.17833851271328022,-0.08589404821395874,0.07615516823031479,-0.04105757176876068,-0.11862888363952218,0.9846662786299558,-0.25641659412983553,left,-0.16295725107192993,0.18536281679962827,1.7098465004511176,-9.485785476484894,0.10276149227968578,0.10123872756958008,0.02774009108543396,-1.8073961895771324,-0.012802913784980774
1773148848971950300,12.344950439453125,0.1802029050210151,-0.10092287510633469,0.07682823632095129,-0.02687305398285389,-0.12069253821286322,0.9843206979168889,-0.2608300381841864,left,-0.08975517749786377,0.1856193516271859,1.7274455777667461,-9.482124615889788,0.10316783518855094,0.04663844406604767,0.04423552751541138,-1.809868863300979,-0.03168974816799164
1773148849011950300,12.384950439453124,0.1820685114837292,-0.11595169454813004,0.07750092486896959,-0.012688536196947098,-0.12275555134640284,0.9839701274052691,-0.26524407690561946,left,-0.016555190086364746,0.18586779932062197,1.745050938692689,-9.47844329702854,0.10357366926903155,-0.007961835712194443,0.06073032319545746,-1.81226335722208,-0.05058450996875763
1773148849051950300,12.424950439453125,0.17931429721243877,-0.06427739560604095,0.07627698253647995,-0.10345898568630219,-0.12486100599990313,0.9840321491567027,-0.2687786314354131,left,-0.005612492561340332,0.1814141539440787,1.7203611724637449,-9.491060786539316,0.10135275666825685,-0.11692260205745697,0.04128120839595795,-1.7693224795095621,-0.023643985390663147
1773148849091950000,12.4649501953125,0.1769994186795161,-0.025198843330144882,0.07539977920113604,-0.03818901628255844,-0.12573661464368108,0.9842230732496843,-0.2698676397489821,left,-0.034176647663116455,0.1769282106330483,1.6997664204634726,-9.502735442242026,0.09904644800333935,-0.1466500163078308,0.019750967621803284,-1.7260346880555153,-0.005078241229057312
1773148849131950000,12.5049501953125,0.17699898947005416,0.04976102337241173,0.07581378842086725,0.001716122031211853,-0.12503058418606003,0.9845116032013651,-0.2679737989602959,left,-0.042632222175598145,0.1723565259806098,1.7011339094243942,-9.510404369434713,0.0967294428861343,-0.0272967666387558,0.005125850439071655,-1.6818837039008736,-0.022777408361434937
1773148849171950300,12.544950439453125,0.17761140093250963,0.034011147916316986,0.07619774242953001,0.035918522626161575,-0.12425749905327961,0.9845878891997117,-0.2664507921511994,left,-0.08695322275161743,0.17222985198281965,1.7069954949341712,-9.50957084122002,0.09664750028325339,-0.032970406115055084,0.025709837675094604,-1.6806598611943422,0.0059054940938949585
1773148849211950300,12.584950439453126,0.1776663679796165,0.04450568929314613,0.07631590837168797,-0.016659189015626907,-0.12321917334550028,0.9847098731897248,-0.2643614274953697,left,-0.08455705642700195,0.1723718219700284,1.707476118057966,-9.509241755396127,0.09664098739905776,0.01193777471780777,0.024586647748947144,-1.6820315879389642,-0.06381936371326447
1773148849251950300,12.624950439453125,0.17492344490473014,0.04764918237924576,0.07521554057085911,-0.018643103539943695,-0.12208506516524843,0.9850449912024176,-0.2616190175486097,left,-0.1325276494026184,0.17064788915427198,1.681888672336936,-9.516730649846792,0.09552165292965488,-0.06271029263734818,0.020947962999343872,-1.6653735908657312,-0.04901672899723053
1773148849291950300,12.664950439453126,0.17218610695760034,0.05079267546534538,0.07411486993839156,-0.020627018064260483,-0.1209504994514162,0.9853762620239634,-0.2588822394313106,left,-0.18050795793533325,0.16891652065031873,1.6563234384477137,-9.524125436273216,0.09440193430235613,-0.13735836744308472,0.01730702817440033,-1.6486387291640043,-0.034221962094306946
1773148849331950000,12.7049501953125,0.16956802573050284,0.09029470384120941,0.07332063584851208,-0.05504082143306732,-0.11863345154127639,0.9859233844312265,-0.25357536868501684,left,-0.18273258209228516,0.1652064078359266,1.6324039259389043,-9.53439256326556,0.09222445427282928,-0.055221423506736755,0.021061226725578308,-1.6127615062274039,-0.04871751368045807
1773148849371950000,12.7449501953125,0.16821304548413876,-0.012327447533607483,0.07299140615534354,0.025901295244693756,-0.11789210285673299,0.9862222131618353,-0.25158902370915387,left,-0.22944635152816772,0.16144295236276898,1.6204881549566983,-9.542512156835198,0.09021941533625981,-0.16871345043182373,0.015198081731796265,-1.5763457924999296,0.006453081965446472
1773148849411950300,12.784950439453125,0.16565826240921033,-0.08818650990724564,0.07198770880593833,-0.13391661643981934,-0.11819117715819448,0.9864478846520494,-0.25159798713963594,left,-0.216530442237854,0.15753139569504004,1.5971084484130142,-9.552629646223783,0.08814316342500599,-0.01747104525566101,0.01309235394001007,-1.5384734502233564,-0.012409493327140808
1773148849451950300,12.824950439453126,0.1621875552123672,-0.09416627138853073,0.0701646563597148,-0.11349577456712723,-0.12106549910888052,0.9863136644909348,-0.25694612031709013,left,-0.1885114312171936,0.1556705845262813,1.5644041564241051,-9.560923427316546,0.08720940115307436,-0.01674685627222061,0.03301075100898743,-1.5204484025806189,0.07310204207897186
1773148849491950300,12.864950439453125,0.1582015561745674,-0.006210677325725555,0.0679427580175022,-0.05212196707725525,-0.12200937944538887,0.9862530331593748,-0.258744663526783,left,-0.21007812023162842,0.15831727154302153,1.5256426102228462,-9.563076221436262,0.0883323285319641,0.12965798377990723,0.05747154355049133,-1.5460843636184929,0.043004557490348816
1773148849531950300,12.904950439453126,0.16099833269801708,0.12374124675989151,0.06903754027234563,0.16493764519691467,-0.12141598489647346,0.9860314394787567,-0.25820950809032706,left,-0.151908278465271,0.16290351674863085,1.5512294714219867,-9.551672199368475,0.09074177389764743,0.11009810864925385,0.06166340410709381,-1.5904811392277478,0.06334277987480164
1773148849571950000,12.9449501953125,0.16384140083854482,0.0641702264547348,0.06990202584360818,0.09581076353788376,-0.12002500704061772,0.985703557014156,-0.2565028109033518,left,-0.07871979475021362,0.17209060206201948,1.5759291745230555,-9.532404604318737,0.09537473226443392,0.14455652236938477,0.048829540610313416,-1.6793145840652286,0.043318599462509155
1773148849611950000,12.9849501953125,0.16667320899080554,0.004599209874868393,0.07076482340208977,0.02668388932943344,-0.11863113527194881,0.9853517447330488,-0.25481990428822404,left,-0.005618751049041748,0.18128242202475986,1.6002882474929094,-9.512278931134938,0.10000538001401525,0.1790149211883545,0.03603038191795349,-1.7680517289213835,0.0232846736907959
1773148849651950000,13.0249501953125,0.16238010504731062,0.08955903351306915,0.06805032028033231,-0.06515078246593475,-0.1179143123198871,0.9851619009617352,-0.25383772269009286,left,-0.043445467948913574,0.19102318303907212,1.5565782851040362,-9.501614913779497,0.10450656854336915,0.2258593738079071,0.035571128129959106,-1.8619253598831593,0.005869761109352112
1773148849691950300,13.064950439453124,0.15692448358586938,0.15243041515350342,0.06491549213515349,-0.1640898883342743,-0.11595580431610751,0.9851364735249027,-0.2501682409861331,left,-0.023103415966033936,0.20073959444780468,1.5018198360867798,-9.491647646516562,0.10884217068487688,0.2409408986568451,0.005388468503952026,-1.9553882180869577,0.0061025470495224
1773148849731950300,13.104950439453125,0.15467206667676303,0.03265547752380371,0.06331814142602442,0.03786949813365936,-0.11447918878857534,0.9849112976790741,-0.24777699587915894,left,-0.08412843942642212,0.21021356400993654,1.477516584957391,-9.476276474383473,0.11329242884745412,0.21436858177185059,0.00909547507762909,-2.0463412854269145,-0.03470534086227417
1773148849771950300,13.144950439453124,0.1532306954428668,0.03489232435822487,0.062225722971112084,-0.04165303707122803,-0.11421119092554305,0.9846782208269717,-0.24760783506901432,left,-0.09906291961669922,0.21622337655245905,1.4619526667311786,-9.466071306711434,0.11615785815987682,0.05995386838912964,0.02243657410144806,-2.103942702785134,0.00618252158164978
1773148849811950000,13.1849501953125,0.15350423502539715,-0.03134041652083397,0.0623697534973269,0.11309461295604706,-0.1141321368848198,0.984678510714963,-0.24747710166569847,left,-0.12730920314788818,0.21619634994965367,1.4645507204003632,-9.46572702331841,0.11615611847062773,-0.08145734667778015,0.060626447200775146,-2.1036839057184755,-0.024844706058502197
1773148849851950000,13.2249501953125,0.15342836411029934,-0.0023958440870046616,0.06258589264701561,0.0663069635629654,-0.11350370763715949,0.984890536152062,-0.24596190851796873,left,-0.13407611846923828,0.21364529229035467,1.4646478971645236,-9.471111054444313,0.1148509244933255,-0.07202112674713135,0.04434753954410553,-2.079242122901231,-0.02397383749485016
1773148849891950000,13.2649501953125,0.15335647878035394,0.026548728346824646,0.06280189123215539,0.019519321620464325,-0.11287503400820587,0.9851004057543231,-0.24444775200820895,left,-0.14084982872009277,0.21109410296274886,1.4647725464574992,-9.476427865552902,0.11354546769796643,-0.06258491426706314,0.028065815567970276,-2.054785580906272,-0.023104488849639893
1773148849931950300,13.304950439453124,0.15477703471592627,0.05835163965821266,0.06394725418294867,0.06696000695228577,-0.11223556919924511,0.9854051732134124,-0.24281590543646198,left,-0.0623510479927063,0.20558169978093455,1.4799565254554152,-9.485384494468569,0.11086351273319331,-0.22830766439437866,-0.020814210176467896,-2.001896432892233,0.005988419055938721
1773148849971950300,13.344950439453125,0.1541391495756077,0.06810246407985687,0.06437042435195338,0.059817541390657425,-0.11046954686399361,0.9860251689066472,-0.23845562207151766,left,-0.06730270385742188,0.1976890367752346,1.476285581857711,-9.501644139873981,0.10680551285671572,-0.20591890811920166,-0.0035751014947891235,-1.9260640700556337,-0.04938971996307373
1773148850011950300,13.384950439453124,0.1570608752919836,0.06504993885755539,0.06645959269342222,0.12014271318912506,-0.10872958018405376,0.9864515955936474,-0.23459814065059478,left,0.010783731937408447,0.19053131129516052,1.506158303682506,-9.510663312631845,0.10331620242358144,-0.19489289820194244,-0.007976695895195007,-1.8571892712719738,-0.02716897428035736
1773148850051950300,13.424950439453125,0.16067557374761168,-0.02692858874797821,0.06859635907055729,0.06946912407875061,-0.10759349088828993,0.9866147024272859,-0.23232086990612327,left,0.0652470588684082,0.1866756324062561,1.541660701957345,-9.512155012494325,0.1015362721289038,0.015160739421844482,-0.026957839727401733,-1.8200484581403433,-0.08422954380512238
1773148850091950000,13.4649501953125,0.1600695675573954,-0.22693094611167908,0.06769305395715236,-0.11036787927150726,-0.11035220127341311,0.9861083689270611,-0.2382905553559386,left,0.11860501766204834,0.191475647409419,1.5344858418919145,-9.504353398832679,0.10406966532809683,0.19431576132774353,-0.023125573992729187,-1.866281655396521,-0.024272486567497253
1773148850131950000,13.5049501953125,0.15884656149354764,-0.22288012504577637,0.06611302169043853,-0.041817016899585724,-0.11567764401939132,0.9852564459357315,-0.24951420224439025,left,0.2437496781349182,0.19746074936097247,1.5210666806094348,-9.495023260429502,0.1073201075440407,0.15920445322990417,-0.05605750530958176,-1.9238688980989156,0.08600795269012451
1773148850171950300,13.544950439453125,0.16220081240441656,-0.09442716836929321,0.0674027995355169,0.07195424288511276,-0.11707498769393691,0.984826468077535,-0.25296649896443746,left,0.4033675193786621,0.20011830996501426,1.552075566857308,-9.484788866662978,0.10893677813010255,0.1121465414762497,-0.08239954710006714,-1.9494174731142817,0.11399728059768677
1773148850211950300,13.584950439453126,0.16556622144311328,0.03402577340602875,0.06869213685016325,0.18572551012039185,-0.11847163738537612,0.9843901501118573,-0.25642985885557135,left,0.5629686713218689,0.20276448488204324,1.5831312148563563,-9.474390222245454,0.11055275556190058,0.06508864462375641,-0.10874634981155396,-1.9748428601413963,0.1419740915298462
1773148850251950300,13.624950439453125,0.1712836675308722,0.08697463572025299,0.07124997928173499,0.13608747720718384,-0.11703938045455031,0.9840553519851022,-0.2546815298864308,left,0.5482726097106934,0.20800934021863784,1.6354864021241664,-9.454847901907563,0.11340351317905227,0.19258026778697968,-0.11816039681434631,-2.0251962060675024,0.04098418354988098
1773148850291950300,13.664950439453126,0.17491493911978184,0.10303911566734314,0.07235750637919794,0.00044761598110198975,-0.11543625570972642,0.9834768620357955,-0.25300904471689345,left,0.44592082500457764,0.21954375263799406,1.6656325340628624,-9.425215564709902,0.11921465466832287,0.34801530838012695,-0.1091555655002594,-2.135734702234715,-0.025123700499534607
1773148850331950000,13.7049501953125,0.17348796356024365,0.027040742337703705,0.07060897426068719,-0.09648957848548889,-0.1145365885264688,0.9827442672398522,-0.2526192120995324,left,0.22548919916152954,0.2354616189655739,1.646103803858906,-9.392903779169917,0.12692341341009686,0.4396442770957947,-0.06912058591842651,-2.2878116619706153,-0.13206352293491364
1773148850371950000,13.7449501953125,0.1674905635237332,-0.00703701376914978,0.0663140777883143,-0.24764908850193024,-0.11538108090652695,0.9818460105242015,-0.25528865441662374,left,0.04567837715148926,0.2527930392999875,1.582893022186309,-9.362101229149102,0.13515967794604983,0.42887142300605774,-0.0700235664844513,-2.4527330518409607,-0.0903087854385376
1773148850411950300,13.784950439453125,0.15924492206199356,-0.08177158236503601,0.06108817676550036,-0.14989973604679108,-0.11751475966854225,0.9811045226624686,-0.2597294226987618,left,-0.08450180292129517,0.26550195899166223,1.5005791883759199,-9.343301251611113,0.1410406284049261,0.17372581362724304,-0.005721136927604675,-2.573202721044421,0.003727346658706665
1773148850451950300,13.824950439453126,0.15630330075829563,-0.038730647414922714,0.05957384600234507,-0.0993783175945282,-0.11912594826632332,0.981136069123535,-0.2624280434944193,left,-0.04799860715866089,0.2637976822687565,1.4737687767311929,-9.351993092110753,0.14011426230543225,-0.21362712979316711,0.00005169212818145752,-2.5570713781937955,0.1148398220539093
1773148850491950300,13.864950439453125,0.15502302680663094,0.00846005231142044,0.059956654437628355,0.06195595860481262,-0.11907807862121707,0.9820273542072542,-0.2609121051442299,left,-0.046341121196746826,0.2507300443226745,1.4668288944654166,-9.386087084892392,0.13359622192466125,-0.3379350006580353,0.05521628260612488,-2.4331398780986664,0.06100215017795563
1773148850531950300,13.904950439453126,0.16006116072607746,0.03106493502855301,0.06312182712218808,0.1999005228281021,-0.11816981794524516,0.9824429130871949,-0.25896277701110665,left,-0.013927340507507324,0.24256746493564174,1.517213220051676,-9.397871630710362,0.12983650381413275,-0.023765504360198975,0.05013898015022278,-2.3555150788873433,-0.07727561891078949
1773148850571950000,13.9449501953125,0.16549202634892335,0.05781424045562744,0.06556953164224785,0.06764882802963257,-0.11705987043627882,0.9820988357218788,-0.25784295505956023,left,0.030206620693206787,0.24683490036577543,1.5665589963704347,-9.379493677976727,0.1322102893860273,0.17862488329410553,0.019495368003845215,-2.39611757678017,-0.07143329083919525
1773148850611950000,13.9849501953125,0.1684395096936453,0.10800877213478088,0.06678310186500847,0.06706757098436356,-0.1156367572703516,0.9818161920351679,-0.25587690078211,left,0.03415477275848389,0.25216443480195455,1.5920346522800624,-9.362112919586897,0.13492631853913586,0.04511633515357971,-0.025542840361595154,-2.446764060433954,-0.017564937472343445
1773148850651950000,14.0249501953125,0.1689926954476857,0.19396261870861053,0.06737034302516415,0.03130050003528595,-0.11233587587807539,0.9820632670158195,-0.24941113405865029,left,0.017398834228515625,0.25396606103941993,1.596469273726642,-9.356870342758297,0.13562312690653525,-0.013680532574653625,-0.06013192981481552,-2.4638693628832695,-0.010595470666885376
1773148850691950300,14.064950439453124,0.16921427255945048,0.15030398964881897,0.06799431818799292,0.18230532109737396,-0.10855678418183926,0.9824754384455151,-0.2417528230684579,left,-0.08873236179351807,0.25402304510081614,1.5985188997328281,-9.356377590805291,0.13540410459616173,-0.08000621944665909,0.008375048637390137,-2.46441004563123,0.0003941357135772705
1773148850731950300,14.104950439453125,0.17511167626611382,-0.06478805840015411,0.07115073736834977,0.14062625169754028,-0.10699765976491861,0.9824851676971865,-0.2392488607026246,left,-0.026109516620635986,0.2526293105788316,1.654265921396017,-9.350161200508476,0.1349519597399143,-0.01136218011379242,0.031450629234313965,-2.4511785158753394,-0.014505773782730103
1773148850771950300,14.144950439453124,0.17788322347398536,-0.16261421144008636,0.07164715836268862,0.048458538949489594,-0.11152120340578187,0.9816781191469288,-0.2491481069442906,left,-0.009947359561920166,0.2555477456845364,1.6789010348282754,-9.33845965679884,0.13688588630157936,0.08058931678533554,0.035676464438438416,-2.4788795927494762,-0.010303705930709839
1773148850811950000,14.1849501953125,0.18068665442066179,-0.2604403495788574,0.07214177001823541,-0.0437091588973999,-0.11604203555518253,0.9808465548534278,-0.25906345010990517,left,0.006201267242431641,0.25843948693881985,1.7037787248447536,-9.326626011142134,0.1388163773605964,0.1725408136844635,0.03987756371498108,-2.5063065288573503,-0.006129652261734009
1773148850851950000,14.2249501953125,0.18143012455637703,-0.15687546133995056,0.07137441902519619,-0.06819062680006027,-0.1207485358402864,0.9798733645073302,-0.26939151493436236,left,0.017114758491516113,0.26417677934996525,1.7080897199116647,-9.31105960869789,0.14203437846473468,0.19128936529159546,0.022265642881393433,-2.5606600503355263,-0.0065194666385650635
1773148850891950000,14.2649501953125,0.18181199310633211,-0.01986519992351532,0.07074857199780074,-0.0494336299598217,-0.12294959170147003,0.9791835042770762,-0.2745995624572721,left,0.04078465700149536,0.2701981738489601,1.7088262174926698,-9.295073519536853,0.14518189924424263,0.16547226905822754,-0.0032204538583755493,-2.617614401961863,0.0005074739456176758
1773148850931950300,14.304950439453124,0.17911117146945998,0.09035777300596237,0.06897099461289223,-0.11248855292797089,-0.12259911055398137,0.9788993718561848,-0.2741992575039661,left,0.055922091007232666,0.27678960642265354,1.6806052083976566,-9.282475319248437,0.1482177009411427,0.1644432693719864,-0.021702542901039124,-2.679851954688132,-0.01886400580406189
1773148850971950300,14.344950439453125,0.17296291933179747,0.1253107339143753,0.06573196882503907,-0.17884282767772675,-0.12102865621924058,0.9788961025778163,-0.2707662053991407,left,0.04048287868499756,0.283448900584622,1.6203956543676554,-9.274846724066137,0.1509759237884736,0.14501556754112244,-0.011350706219673157,-2.7426114854618904,-0.011056631803512573
1773148851011950300,14.384950439453124,0.16635725644129448,0.08528512716293335,0.06228094227191629,-0.1368548423051834,-0.11949723791966722,0.9788822004094504,-0.267306170504741,left,0.0014295578002929688,0.29012421365085145,1.556027811614424,-9.267086611458659,0.15372434542986968,0.16153684258460999,-0.014685764908790588,-2.805400242330134,-0.03752690553665161
1773148851051950300,14.424950439453125,0.1613409848516306,0.030119527131319046,0.05946840391186139,-0.11006132513284683,-0.11898576554238319,0.9786853421380197,-0.2661076765100319,left,0.0024517178535461426,0.2964282563153514,1.5066513478964567,-9.257135126286745,0.15646392449281515,0.1303832232952118,-0.01261971890926361,-2.8645822068780658,-0.02222996950149536
1773148851091950000,14.4649501953125,0.15798584462320928,0.04016941040754318,0.05753824754627112,-0.022108986973762512,-0.11862475841679226,0.9784937950862749,-0.26532186079914727,left,-0.012559890747070312,0.301351701909879,1.473347044187784,-9.24809841787219,0.15864290067128672,0.10807299613952637,0.0012500286102294922,-2.910723780328035,-0.02789968252182007
1773148851131950000,14.5049501953125,0.15735925481746962,0.07480211555957794,0.057055159853854516,-0.027268148958683014,-0.11765037348778565,0.9783064067385929,-0.26366053201544004,left,0.025159597396850586,0.30571436145574,1.465548060874641,-9.236389859899878,0.16068565512506297,0.07939925044775009,-0.005637466907501221,-2.951551173017919,0.000743478536605835
1773148851171950300,14.544950439453125,0.15488498935798528,0.11381809413433075,0.05593614826776327,-0.020406661555171013,-0.1158931957364332,0.9783839039488565,-0.25995176428829814,left,0.0007156133651733398,0.3086731391465556,1.4413368719428776,-9.231319132506847,0.16187919221963115,0.04150327295064926,0.0030777156352996826,-2.979208410750329,-0.00875285267829895
1773148851211950300,14.584950439453126,0.15134500657854189,0.10635873675346375,0.054456502858011985,-0.07881943881511688,-0.11373677448774652,0.9786155817190253,-0.25514945072149325,left,-0.0031624436378479004,0.3106580059999371,1.4077547742061316,-9.230499632817507,0.16251152723903478,0.0061746686697006226,-0.008495405316352844,-2.9977476915255186,-0.024071812629699707
1773148851251950300,14.624950439453125,0.14682419610592565,0.08551504462957382,0.05257260460387637,-0.07842837274074554,-0.11215839136629634,0.9789671849125938,-0.25116713014052117,left,0.0009768009185791016,0.31057874105618655,1.366046068637073,-9.237004192405939,0.16211097893610904,-0.03038845583796501,-0.012726455926895142,-2.997007394552231,-0.018267720937728882
