absolute_timestamp,accel_x,accel_y,accel_z
1775856275054,0.007,-0.804,-0.553
1775856275074,0.016,-0.812,-0.548
1775856275093,0.015,-0.812,-0.539
1775856275113,0.012,-0.838,-0.518
1775856275133,0.016,-0.854,-0.495
1775856275153,0.001,-0.851,-0.477
1775856275172,-0.002,-0.871,-0.453
1775856275192,-0.005,-0.883,-0.430
1775856275212,-0.014,-0.889,-0.416
1775856275232,-0.016,-0.900,-0.400
1775856275251,-0.020,-0.901,-0.402
1775856275271,-0.025,-0.891,-0.390
1775856275291,-0.027,-0.904,-0.372
1775856275311,-0.025,-0.900,-0.355
1775856275331,-0.027,-0.920,-0.352
1775856275350,-0.027,-0.915,-0.358
1775856275370,-0.031,-0.911,-0.364
1775856275390,-0.032,-0.920,-0.358
1775856275410,-0.035,-0.931,-0.358
1775856275429,-0.047,-0.918,-0.367
1775856275449,-0.051,-0.931,-0.362
1775856275469,-0.057,-0.958,-0.351
1775856275489,-0.065,-0.960,-0.331
1775856275508,-0.078,-0.946,-0.311
1775856275528,-0.087,-0.922,-0.293
1775856275548,-0.111,-0.926,-0.283
1775856275568,-0.121,-0.940,-0.286
1775856275587,-0.140,-0.957,-0.274
1775856275607,-0.147,-0.961,-0.267
1775856275627,-0.159,-0.975,-0.275
1775856275647,-0.160,-0.993,-0.287
1775856275666,-0.162,-0.972,-0.300
1775856275686,-0.159,-0.961,-0.303
1775856275706,-0.152,-0.978,-0.304
1775856275726,-0.140,-0.980,-0.278
1775856275745,-0.135,-0.975,-0.257
1775856275765,-0.133,-0.950,-0.246
1775856275785,-0.127,-0.942,-0.250
1775856275805,-0.131,-0.975,-0.242
1775856275824,-0.125,-0.973,-0.235
1775856275844,-0.138,-0.947,-0.235
1775856275864,-0.138,-0.926,-0.239
1775856275884,-0.140,-0.950,-0.229
1775856275903,-0.131,-0.952,-0.220
1775856275923,-0.132,-0.938,-0.224
1775856275943,-0.121,-0.944,-0.228
1775856275963,-0.125,-0.938,-0.225
1775856275982,-0.123,-0.909,-0.233
1775856276002,-0.132,-0.902,-0.245
1775856276022,-0.147,-0.921,-0.255
1775856276042,-0.159,-0.931,-0.277
1775856276062,-0.179,-0.929,-0.278
1775856276081,-0.190,-0.942,-0.286
1775856276101,-0.208,-0.947,-0.307
1775856276121,-0.221,-0.964,-0.312
1775856276141,-0.233,-0.952,-0.309
1775856276160,-0.229,-0.953,-0.309
1775856276180,-0.234,-0.957,-0.307
1775856276200,-0.234,-0.949,-0.298
1775856276220,-0.227,-0.946,-0.297
1775856276239,-0.221,-0.934,-0.296
1775856276259,-0.225,-0.928,-0.286
1775856276279,-0.212,-0.924,-0.279
1775856276299,-0.213,-0.919,-0.278
1775856276318,-0.208,-0.922,-0.278
1775856276338,-0.212,-0.925,-0.281
1775856276358,-0.209,-0.926,-0.277
1775856276378,-0.214,-0.918,-0.295
1775856276397,-0.214,-0.937,-0.305
1775856276417,-0.210,-0.942,-0.296
1775856276437,-0.210,-0.939,-0.313
1775856276457,-0.210,-0.929,-0.316
1775856276476,-0.212,-0.931,-0.325
1775856276496,-0.202,-0.931,-0.334
1775856276516,-0.205,-0.934,-0.331
1775856276536,-0.205,-0.931,-0.333
1775856276555,-0.202,-0.933,-0.343
1775856276575,-0.197,-0.940,-0.334
1775856276595,-0.199,-0.928,-0.342
1775856276615,-0.200,-0.924,-0.354
1775856276634,-0.200,-0.940,-0.344
1775856276654,-0.198,-0.940,-0.330
1775856276674,-0.197,-0.931,-0.343
1775856276694,-0.195,-0.924,-0.340
1775856276713,-0.200,-0.926,-0.336
1775856276733,-0.198,-0.930,-0.332
1775856276753,-0.203,-0.935,-0.328
1775856276773,-0.201,-0.927,-0.334
1775856276793,-0.198,-0.932,-0.333
1775856276812,-0.192,-0.927,-0.333
1775856276832,-0.195,-0.934,-0.330
1775856276852,-0.193,-0.927,-0.336
1775856276872,-0.191,-0.919,-0.339
1775856276891,-0.190,-0.933,-0.337
1775856276911,-0.185,-0.938,-0.335
1775856276931,-0.189,-0.937,-0.337
1775856276951,-0.187,-0.930,-0.338
1775856276970,-0.183,-0.933,-0.337
1775856276990,-0.184,-0.940,-0.334
1775856277010,-0.182,-0.922,-0.326
1775856277030,-0.183,-0.921,-0.343
1775856277049,-0.180,-0.948,-0.335
1775856277069,-0.180,-0.936,-0.325
1775856277089,-0.180,-0.930,-0.328
1775856277109,-0.178,-0.928,-0.324
1775856277128,-0.180,-0.923,-0.322
1775856277148,-0.181,-0.927,-0.325
1775856277168,-0.177,-0.929,-0.315
1775856277188,-0.180,-0.930,-0.314
1775856277207,-0.181,-0.920,-0.319
1775856277227,-0.178,-0.945,-0.310
1775856277247,-0.182,-0.927,-0.308
1775856277267,-0.181,-0.922,-0.328
1775856277286,-0.179,-0.935,-0.319
1775856277306,-0.184,-0.943,-0.309
1775856277326,-0.181,-0.931,-0.317
1775856277346,-0.182,-0.923,-0.319
1775856277365,-0.184,-0.930,-0.316
1775856277385,-0.180,-0.935,-0.316
1775856277405,-0.186,-0.932,-0.319
1775856277425,-0.183,-0.931,-0.320
1775856277445,-0.183,-0.933,-0.328
1775856277464,-0.182,-0.931,-0.322
1775856277484,-0.184,-0.933,-0.319
1775856277504,-0.179,-0.930,-0.320
1775856277524,-0.181,-0.926,-0.321
1775856277543,-0.185,-0.923,-0.322
1775856277563,-0.180,-0.930,-0.317
1775856277583,-0.185,-0.930,-0.317
1775856277603,-0.187,-0.928,-0.319
1775856277622,-0.189,-0.930,-0.318
1775856277642,-0.185,-0.938,-0.323
1775856277662,-0.185,-0.935,-0.322
1775856277682,-0.186,-0.931,-0.326
1775856277701,-0.188,-0.914,-0.334
1775856277721,-0.191,-0.943,-0.326
1775856277741,-0.189,-0.944,-0.332
1775856277761,-0.190,-0.934,-0.347
1775856277780,-0.184,-0.921,-0.348
1775856277800,-0.188,-0.927,-0.348
1775856277820,-0.184,-0.930,-0.353
1775856277840,-0.186,-0.929,-0.362
1775856277859,-0.184,-0.928,-0.373
1775856277879,-0.185,-0.926,-0.377
1775856277899,-0.186,-0.938,-0.385
1775856277919,-0.193,-0.934,-0.386
1775856277938,-0.203,-0.941,-0.377
1775856277958,-0.200,-0.949,-0.376
1775856277978,-0.200,-0.929,-0.361
1775856277998,-0.196,-0.920,-0.345
1775856278017,-0.187,-0.911,-0.339
1775856278037,-0.187,-0.895,-0.327
1775856278057,-0.189,-0.873,-0.308
1775856278077,-0.214,-0.894,-0.297
1775856278096,-0.212,-0.931,-0.301
1775856278116,-0.217,-0.944,-0.306
1775856278136,-0.207,-0.991,-0.316
1775856278156,-0.192,-1.017,-0.330
1775856278175,-0.160,-1.003,-0.353
1775856278195,-0.150,-0.982,-0.373
1775856278215,-0.124,-0.935,-0.407
1775856278235,-0.107,-0.895,-0.432
1775856278254,-0.085,-0.873,-0.390
1775856278274,-0.100,-0.912,-0.331
1775856278294,-0.087,-0.900,-0.339
1775856278314,-0.088,-0.908,-0.355
1775856278333,-0.080,-0.910,-0.320
1775856278353,-0.084,-0.901,-0.272
1775856278373,-0.076,-0.938,-0.263
1775856278393,-0.069,-0.944,-0.314
1775856278412,-0.054,-0.936,-0.357
1775856278432,-0.059,-0.928,-0.369
1775856278452,-0.064,-0.926,-0.400
1775856278472,-0.068,-0.869,-0.444
1775856278491,-0.081,-0.843,-0.450
1775856278511,-0.078,-0.885,-0.441
1775856278531,-0.074,-0.907,-0.424
1775856278551,-0.078,-0.914,-0.410
1775856278570,-0.062,-0.920,-0.394
1775856278590,-0.062,-0.886,-0.382
1775856278610,-0.049,-0.925,-0.387
1775856278630,-0.044,-0.923,-0.380
1775856278650,-0.035,-0.931,-0.395
1775856278669,-0.024,-0.930,-0.395
1775856278689,-0.023,-0.915,-0.408
1775856278709,-0.009,-0.913,-0.423
1775856278729,-0.003,-0.891,-0.424
1775856278748,0.003,-0.876,-0.427
1775856278768,0.006,-0.891,-0.434
1775856278788,0.004,-0.888,-0.439
1775856278808,0.001,-0.891,-0.451
1775856278827,0.002,-0.892,-0.474
1775856278847,-0.003,-0.883,-0.480
1775856278867,-0.015,-0.881,-0.472
1775856278887,-0.023,-0.885,-0.474
1775856278906,-0.035,-0.893,-0.462
1775856278926,-0.031,-0.910,-0.445
1775856278946,-0.041,-0.917,-0.445
1775856278966,-0.043,-0.904,-0.432
1775856278985,-0.037,-0.901,-0.433
1775856279005,-0.031,-0.894,-0.437
1775856279025,-0.015,-0.916,-0.431
1775856279045,-0.003,-0.909,-0.418
1775856279064,0.007,-0.902,-0.420
1775856279084,0.018,-0.897,-0.446
1775856279104,0.031,-0.888,-0.441
1775856279124,0.030,-0.860,-0.441
1775856279143,0.042,-0.883,-0.469
1775856279163,0.051,-0.889,-0.466
1775856279183,0.042,-0.875,-0.458
1775856279203,0.043,-0.877,-0.474
1775856279222,0.035,-0.868,-0.499
1775856279242,0.031,-0.875,-0.503
1775856279262,0.035,-0.881,-0.505
1775856279282,0.040,-0.879,-0.517
1775856279301,0.035,-0.863,-0.518
1775856279321,0.044,-0.879,-0.517
1775856279341,0.044,-0.859,-0.528
1775856279361,0.041,-0.843,-0.540
1775856279380,0.043,-0.852,-0.545
1775856279400,0.028,-0.842,-0.529
1775856279420,0.029,-0.834,-0.525
1775856279440,0.017,-0.834,-0.529
1775856279459,-0.008,-0.823,-0.519
1775856279479,-0.026,-0.851,-0.513
1775856279499,-0.026,-0.885,-0.517
1775856279519,-0.014,-0.919,-0.503
1775856279538,-0.008,-0.901,-0.471
1775856279558,0.008,-0.878,-0.474
1775856279578,0.038,-0.875,-0.491
1775856279598,0.046,-0.877,-0.479
1775856279617,0.060,-0.880,-0.462
1775856279637,0.067,-0.839,-0.490
1775856279657,0.061,-0.827,-0.517
1775856279677,0.055,-0.859,-0.515
1775856279696,0.057,-0.820,-0.515
1775856279716,0.040,-0.809,-0.542
1775856279736,0.028,-0.828,-0.547
1775856279756,0.003,-0.791,-0.529
1775856279775,0.004,-0.765,-0.562
1775856279795,-0.023,-0.720,-0.596
1775856279815,-0.031,-0.720,-0.629
1775856279835,-0.043,-0.750,-0.632
1775856279854,-0.040,-0.765,-0.633
1775856279874,-0.055,-0.778,-0.689
1775856279894,-0.067,-0.748,-0.689
1775856279914,-0.065,-0.720,-0.678
1775856279933,-0.059,-0.703,-0.714
1775856279953,-0.063,-0.727,-0.758
1775856279973,-0.074,-0.730,-0.770
1775856279993,-0.072,-0.710,-0.755
1775856280012,-0.072,-0.707,-0.747
1775856280032,-0.065,-0.683,-0.761
1775856280052,-0.066,-0.641,-0.772
1775856280072,-0.072,-0.644,-0.753
1775856280091,-0.070,-0.677,-0.745
1775856280111,-0.063,-0.688,-0.761
1775856280131,-0.066,-0.666,-0.737
1775856280151,-0.067,-0.641,-0.722
1775856280170,-0.076,-0.626,-0.748
1775856280190,-0.071,-0.597,-0.782
1775856280210,-0.073,-0.606,-0.793
1775856280230,-0.075,-0.624,-0.789
1775856280249,-0.062,-0.610,-0.799
1775856280269,-0.051,-0.600,-0.823
1775856280289,-0.058,-0.593,-0.813
1775856280309,-0.039,-0.612,-0.830
1775856280328,-0.035,-0.594,-0.810
1775856280348,-0.036,-0.597,-0.794
1775856280368,-0.023,-0.607,-0.825
1775856280387,-0.019,-0.597,-0.814
1775856280407,-0.003,-0.590,-0.825
1775856280427,0.006,-0.581,-0.852
1775856280447,0.014,-0.576,-0.858
1775856280466,0.029,-0.568,-0.846
1775856280486,0.031,-0.546,-0.853
1775856280506,0.024,-0.552,-0.858
1775856280526,0.026,-0.584,-0.828
1775856280545,0.018,-0.572,-0.796
1775856280565,0.015,-0.570,-0.777
1775856280585,0.014,-0.590,-0.765
1775856280605,-0.007,-0.491,-0.797
1775856280625,-0.023,-0.446,-0.832
1775856280644,-0.016,-0.507,-0.862
1775856280664,-0.019,-0.562,-0.870
1775856280684,0.003,-0.570,-0.891
1775856280704,0.018,-0.504,-0.890
1775856280723,0.040,-0.478,-0.914
1775856280743,0.074,-0.493,-0.904
1775856280763,0.109,-0.505,-0.864
1775856280783,0.151,-0.480,-0.861
1775856280802,0.192,-0.463,-0.875
1775856280822,0.201,-0.451,-0.864
1775856280842,0.214,-0.468,-0.860
1775856280862,0.215,-0.449,-0.856
1775856280881,0.204,-0.474,-0.853
1775856280901,0.198,-0.480,-0.847
1775856280921,0.198,-0.419,-0.857
1775856280941,0.198,-0.408,-0.876
1775856280960,0.198,-0.449,-0.890
1775856280980,0.208,-0.459,-0.905
1775856281000,0.218,-0.457,-0.888
1775856281020,0.216,-0.460,-0.878
1775856281039,0.229,-0.477,-0.873
1775856281059,0.230,-0.469,-0.869
1775856281079,0.218,-0.423,-0.874
1775856281099,0.199,-0.419,-0.868
1775856281118,0.197,-0.445,-0.864
1775856281138,0.200,-0.445,-0.892
1775856281158,0.184,-0.427,-0.875
1775856281178,0.174,-0.466,-0.847
1775856281197,0.190,-0.485,-0.858
1775856281217,0.200,-0.457,-0.880
1775856281237,0.207,-0.444,-0.866
1775856281257,0.219,-0.447,-0.868
1775856281276,0.218,-0.431,-0.880
1775856281296,0.211,-0.447,-0.884
1775856281316,0.208,-0.456,-0.888
1775856281336,0.216,-0.463,-0.903
1775856281355,0.216,-0.453,-0.904
1775856281375,0.211,-0.418,-0.900
1775856281395,0.212,-0.434,-0.906
1775856281415,0.208,-0.458,-0.902
1775856281434,0.207,-0.440,-0.894
1775856281454,0.208,-0.462,-0.881
1775856281474,0.219,-0.485,-0.869
1775856281494,0.215,-0.440,-0.858
1775856281513,0.215,-0.455,-0.887
1775856281533,0.219,-0.459,-0.884
1775856281553,0.212,-0.475,-0.853
1775856281573,0.201,-0.448,-0.846
1775856281592,0.208,-0.452,-0.863
1775856281612,0.255,-0.511,-0.853
1775856281632,0.270,-0.447,-0.828
1775856281652,0.260,-0.371,-0.840
1775856281671,0.269,-0.413,-0.832
1775856281691,0.309,-0.510,-0.833
1775856281711,0.345,-0.518,-0.823
1775856281731,0.325,-0.403,-0.826
1775856281750,0.307,-0.377,-0.871
1775856281770,0.269,-0.384,-0.902
1775856281790,0.249,-0.419,-0.915
1775856281810,0.205,-0.480,-0.908
1775856281829,0.170,-0.497,-0.884
1775856281849,0.153,-0.517,-0.852
1775856281869,0.166,-0.524,-0.821
1775856281889,0.178,-0.525,-0.851
1775856281908,0.188,-0.466,-0.901
1775856281928,0.180,-0.437,-0.905
1775856281948,0.133,-0.418,-0.915
1775856281968,0.117,-0.431,-0.930
1775856281987,0.094,-0.489,-0.912
1775856282007,0.068,-0.529,-0.884
1775856282027,0.070,-0.485,-0.867
1775856282047,0.062,-0.550,-0.825
1775856282066,0.095,-0.638,-0.770
1775856282086,0.080,-0.597,-0.741
1775856282106,0.121,-0.534,-0.792
1775856282126,0.169,-0.525,-0.818
1775856282145,0.214,-0.628,-0.811
1775856282165,0.167,-0.480,-0.812
1775856282185,0.117,-0.382,-0.856
1775856282205,0.122,-0.533,-0.898
1775856282224,0.096,-0.553,-0.850
1775856282244,0.059,-0.510,-0.861
1775856282264,0.018,-0.497,-0.898
1775856282284,-0.006,-0.579,-0.854
1775856282303,-0.028,-0.626,-0.799
1775856282323,-0.024,-0.630,-0.797
1775856282343,-0.029,-0.596,-0.807
1775856282363,-0.029,-0.613,-0.825
1775856282382,-0.020,-0.626,-0.814
1775856282402,-0.022,-0.649,-0.802
1775856282422,-0.016,-0.661,-0.803
1775856282442,0.011,-0.674,-0.801
1775856282461,0.023,-0.717,-0.781
1775856282481,0.027,-0.701,-0.726
1775856282501,0.014,-0.642,-0.687
1775856282521,0.018,-0.661,-0.703
1775856282541,0.003,-0.614,-0.699
1775856282560,-0.028,-0.588,-0.726
1775856282580,-0.039,-0.649,-0.796
1775856282600,-0.046,-0.692,-0.786
1775856282620,-0.041,-0.716,-0.759
1775856282639,-0.043,-0.709,-0.800
1775856282659,-0.064,-0.654,-0.780
1775856282679,-0.063,-0.713,-0.724
1775856282699,-0.061,-0.756,-0.678
1775856282718,-0.062,-0.762,-0.664
1775856282738,-0.059,-0.774,-0.635
1775856282758,-0.058,-0.813,-0.603
1775856282778,-0.051,-0.789,-0.577
1775856282797,-0.036,-0.800,-0.591
1775856282817,-0.035,-0.809,-0.576
1775856282837,-0.016,-0.848,-0.551
1775856282857,-0.021,-0.849,-0.562
1775856282876,-0.007,-0.767,-0.595
1775856282896,0.006,-0.744,-0.629
1775856282916,0.021,-0.815,-0.633
1775856282936,0.027,-0.803,-0.617
1775856282955,0.022,-0.776,-0.644
1775856282975,0.031,-0.747,-0.647
1775856282995,0.007,-0.730,-0.622
1775856283015,-0.023,-0.755,-0.602
1775856283034,-0.022,-0.772,-0.605
1775856283054,-0.044,-0.774,-0.601
1775856283074,-0.049,-0.783,-0.617
1775856283094,-0.063,-0.756,-0.618
1775856283113,-0.077,-0.807,-0.625
1775856283133,-0.095,-0.855,-0.653
1775856283153,-0.102,-0.833,-0.648
1775856283173,-0.097,-0.844,-0.625
1775856283192,-0.103,-0.850,-0.619
1775856283212,-0.097,-0.848,-0.608
1775856283232,-0.098,-0.785,-0.572
1775856283252,-0.093,-0.810,-0.556
1775856283271,-0.075,-0.840,-0.562
1775856283291,-0.076,-0.808,-0.551
1775856283311,-0.063,-0.778,-0.526
1775856283331,-0.069,-0.781,-0.538
1775856283350,-0.060,-0.773,-0.558
1775856283370,-0.062,-0.747,-0.566
1775856283390,-0.066,-0.733,-0.583
1775856283410,-0.067,-0.735,-0.609
1775856283429,-0.063,-0.747,-0.620
1775856283449,-0.070,-0.719,-0.636
1775856283469,-0.073,-0.702,-0.663
1775856283489,-0.077,-0.717,-0.676
1775856283508,-0.079,-0.757,-0.688
1775856283528,-0.086,-0.725,-0.692
1775856283548,-0.093,-0.719,-0.713
1775856283568,-0.101,-0.735,-0.727
1775856283587,-0.107,-0.736,-0.729
1775856283607,-0.113,-0.756,-0.727
1775856283627,-0.118,-0.731,-0.724
1775856283647,-0.121,-0.734,-0.710
1775856283666,-0.134,-0.726,-0.703
1775856283686,-0.127,-0.739,-0.718
1775856283706,-0.121,-0.729,-0.721
1775856283726,-0.114,-0.715,-0.722
1775856283745,-0.113,-0.724,-0.722
1775856283765,-0.102,-0.741,-0.716
1775856283785,-0.108,-0.727,-0.697
1775856283805,-0.106,-0.726,-0.697
1775856283824,-0.106,-0.748,-0.708
1775856283844,-0.098,-0.808,-0.710
1775856283864,-0.097,-0.803,-0.687
1775856283884,-0.102,-0.776,-0.668
1775856283903,-0.091,-0.783,-0.647
1775856283923,-0.098,-0.750,-0.611
1775856283943,-0.095,-0.749,-0.606
1775856283963,-0.096,-0.730,-0.592
1775856283982,-0.096,-0.748,-0.581
1775856284002,-0.089,-0.756,-0.586
1775856284022,-0.092,-0.790,-0.593
1775856284041,-0.087,-0.774,-0.602
1775856284061,-0.084,-0.729,-0.617
1775856284081,-0.081,-0.754,-0.629
1775856284101,-0.075,-0.761,-0.639
1775856284120,-0.074,-0.775,-0.667
1775856284140,-0.066,-0.788,-0.678
1775856284160,-0.065,-0.768,-0.658
1775856284180,-0.065,-0.745,-0.648
1775856284199,-0.067,-0.737,-0.650
1775856284219,-0.070,-0.728,-0.648
1775856284239,-0.074,-0.734,-0.659
1775856284259,-0.084,-0.743,-0.662
1775856284279,-0.084,-0.759,-0.672
1775856284298,-0.092,-0.757,-0.678
1775856284318,-0.093,-0.754,-0.672
1775856284338,-0.092,-0.777,-0.670
1775856284358,-0.095,-0.766,-0.656
1775856284377,-0.094,-0.781,-0.655
1775856284397,-0.103,-0.765,-0.641
1775856284417,-0.098,-0.776,-0.635
1775856284437,-0.098,-0.793,-0.624
1775856284456,-0.096,-0.798,-0.611
1775856284476,-0.101,-0.779,-0.606
1775856284496,-0.099,-0.776,-0.605
1775856284516,-0.098,-0.797,-0.603
1775856284535,-0.101,-0.789,-0.591
1775856284555,-0.095,-0.787,-0.597
1775856284575,-0.093,-0.791,-0.599
1775856284595,-0.086,-0.803,-0.599
1775856284614,-0.087,-0.787,-0.599
1775856284634,-0.090,-0.786,-0.607
1775856284654,-0.081,-0.796,-0.607
1775856284674,-0.087,-0.792,-0.600
1775856284693,-0.079,-0.801,-0.611
1775856284713,-0.082,-0.780,-0.615
1775856284733,-0.076,-0.794,-0.615
1775856284753,-0.075,-0.801,-0.609
1775856284772,-0.071,-0.790,-0.605
1775856284792,-0.074,-0.779,-0.603
1775856284812,-0.074,-0.791,-0.602
1775856284832,-0.073,-0.800,-0.605
1775856284851,-0.069,-0.796,-0.607
1775856284871,-0.074,-0.795,-0.603
1775856284891,-0.067,-0.800,-0.607
1775856284911,-0.068,-0.791,-0.604
1775856284930,-0.064,-0.780,-0.603
1775856284950,-0.065,-0.794,-0.611
1775856284970,-0.065,-0.790,-0.609
1775856284990,-0.060,-0.789,-0.611
1775856285009,-0.062,-0.795,-0.609
1775856285029,-0.064,-0.792,-0.613
1775856285049,-0.064,-0.785,-0.612
1775856285069,-0.058,-0.801,-0.607
1775856285088,-0.061,-0.791,-0.598
1775856285108,-0.058,-0.790,-0.600
1775856285128,-0.058,-0.793,-0.600
1775856285148,-0.058,-0.793,-0.588
1775856285167,-0.060,-0.801,-0.596
1775856285187,-0.064,-0.767,-0.595
1775856285207,-0.067,-0.780,-0.607
1775856285227,-0.072,-0.797,-0.601
1775856285246,-0.074,-0.789,-0.597
1775856285266,-0.078,-0.779,-0.596
1775856285286,-0.075,-0.785,-0.600
1775856285306,-0.082,-0.783,-0.610
1775856285325,-0.079,-0.796,-0.607
1775856285345,-0.081,-0.784,-0.613
1775856285365,-0.082,-0.770,-0.625
1775856285385,-0.084,-0.775,-0.625
1775856285404,-0.083,-0.786,-0.634
1775856285424,-0.090,-0.772,-0.639
1775856285444,-0.089,-0.752,-0.644
1775856285464,-0.093,-0.772,-0.664
1775856285483,-0.091,-0.775,-0.659
1775856285503,-0.094,-0.766,-0.662
1775856285523,-0.097,-0.750,-0.663
1775856285543,-0.098,-0.763,-0.662
1775856285562,-0.096,-0.768,-0.662
1775856285582,-0.097,-0.752,-0.662
1775856285602,-0.097,-0.745,-0.666
1775856285622,-0.097,-0.750,-0.676
1775856285641,-0.096,-0.752,-0.675
1775856285661,-0.102,-0.754,-0.665
1775856285681,-0.099,-0.754,-0.669
1775856285701,-0.103,-0.749,-0.666
1775856285720,-0.101,-0.749,-0.655
1775856285740,-0.105,-0.746,-0.662
1775856285760,-0.101,-0.750,-0.666
1775856285780,-0.102,-0.754,-0.663
1775856285799,-0.099,-0.736,-0.670
1775856285819,-0.103,-0.743,-0.668
1775856285839,-0.102,-0.759,-0.665
1775856285859,-0.106,-0.753,-0.660
1775856285878,-0.097,-0.746,-0.652
1775856285898,-0.096,-0.747,-0.651
1775856285918,-0.095,-0.756,-0.656
1775856285938,-0.097,-0.751,-0.658
1775856285957,-0.102,-0.744,-0.659
1775856285977,-0.091,-0.751,-0.665
1775856285997,-0.088,-0.744,-0.668
1775856286017,-0.078,-0.756,-0.669
1775856286036,-0.083,-0.736,-0.670
1775856286056,-0.085,-0.728,-0.674
1775856286076,-0.072,-0.748,-0.665
1775856286096,-0.076,-0.759,-0.665
1775856286115,-0.074,-0.741,-0.657
1775856286135,-0.070,-0.736,-0.655
1775856286155,-0.074,-0.744,-0.655
1775856286175,-0.072,-0.753,-0.658
1775856286194,-0.077,-0.739,-0.651
1775856286214,-0.087,-0.745,-0.650
1775856286234,-0.094,-0.754,-0.662
1775856286254,-0.090,-0.785,-0.662
1775856286273,-0.091,-0.782,-0.642
1775856286293,-0.089,-0.757,-0.647
1775856286313,-0.089,-0.772,-0.646
1775856286333,-0.082,-0.761,-0.634
1775856286352,-0.085,-0.768,-0.623
1775856286372,-0.085,-0.777,-0.616
1775856286392,-0.088,-0.786,-0.603
1775856286412,-0.086,-0.786,-0.593
1775856286431,-0.096,-0.772,-0.586
1775856286451,-0.102,-0.764,-0.593
1775856286471,-0.107,-0.788,-0.590
1775856286491,-0.117,-0.812,-0.576
1775856286510,-0.125,-0.788,-0.570
1775856286530,-0.129,-0.791,-0.570
1775856286550,-0.137,-0.828,-0.570
1775856286570,-0.149,-0.800,-0.573
1775856286589,-0.161,-0.839,-0.591
1775856286609,-0.180,-0.830,-0.589
1775856286629,-0.212,-0.822,-0.616
1775856286649,-0.210,-0.888,-0.651
1775856286668,-0.247,-0.885,-0.633
1775856286688,-0.269,-0.812,-0.650
1775856286708,-0.271,-0.858,-0.688
1775856286728,-0.268,-0.815,-0.656
1775856286747,-0.274,-0.690,-0.642
1775856286767,-0.247,-0.649,-0.665
1775856286787,-0.212,-0.695,-0.663
1775856286807,-0.193,-0.662,-0.632
1775856286826,-0.172,-0.604,-0.628
1775856286846,-0.142,-0.657,-0.629
1775856286866,-0.122,-0.687,-0.624
1775856286886,-0.114,-0.700,-0.618
1775856286905,-0.111,-0.699,-0.609
1775856286925,-0.113,-0.717,-0.613
1775856286945,-0.114,-0.792,-0.614
1775856286965,-0.115,-0.813,-0.607
1775856286984,-0.109,-0.787,-0.588
1775856287004,-0.112,-0.722,-0.575
1775856287024,-0.102,-0.734,-0.580
1775856287044,-0.121,-0.736,-0.574
1775856287064,-0.119,-0.720,-0.572
1775856287083,-0.140,-0.713,-0.587
1775856287103,-0.149,-0.741,-0.599
1775856287123,-0.156,-0.775,-0.638
1775856287142,-0.164,-0.773,-0.664
1775856287162,-0.168,-0.817,-0.680
1775856287182,-0.167,-0.805,-0.688
1775856287202,-0.158,-0.820,-0.690
1775856287221,-0.143,-0.801,-0.676
1775856287241,-0.144,-0.750,-0.680
1775856287261,-0.143,-0.728,-0.671
1775856287281,-0.130,-0.710,-0.642
1775856287300,-0.138,-0.717,-0.664
1775856287320,-0.162,-0.698,-0.682
1775856287340,-0.169,-0.739,-0.679
1775856287360,-0.167,-0.771,-0.656
1775856287379,-0.175,-0.804,-0.669
1775856287399,-0.187,-0.802,-0.665
1775856287419,-0.189,-0.786,-0.662
1775856287439,-0.176,-0.799,-0.671
1775856287458,-0.161,-0.794,-0.672
1775856287478,-0.143,-0.767,-0.664
1775856287498,-0.112,-0.773,-0.649
1775856287518,-0.099,-0.760,-0.647
1775856287537,-0.089,-0.720,-0.638
1775856287557,-0.085,-0.721,-0.623
1775856287577,-0.082,-0.720,-0.621
1775856287597,-0.072,-0.756,-0.625
1775856287616,-0.071,-0.775,-0.625
1775856287636,-0.067,-0.770,-0.624
1775856287656,-0.066,-0.752,-0.618
1775856287676,-0.070,-0.768,-0.617
1775856287696,-0.067,-0.778,-0.613
1775856287715,-0.067,-0.796,-0.613
1775856287735,-0.062,-0.803,-0.613
1775856287755,-0.070,-0.788,-0.609
1775856287775,-0.063,-0.796,-0.613
1775856287794,-0.066,-0.796,-0.592
1775856287814,-0.068,-0.797,-0.579
1775856287834,-0.066,-0.795,-0.586
1775856287854,-0.066,-0.796,-0.573
1775856287893,-0.072,-0.800,-0.569
1775856287913,-0.078,-0.794,-0.571
1775856287933,-0.081,-0.805,-0.571
1775856287952,-0.077,-0.810,-0.576
1775856287972,-0.082,-0.807,-0.577
1775856287992,-0.079,-0.798,-0.575
1775856288012,-0.079,-0.800,-0.579
1775856288031,-0.087,-0.818,-0.588
1775856288051,-0.080,-0.809,-0.585
1775856288071,-0.082,-0.805,-0.590
1775856288091,-0.083,-0.810,-0.591
1775856288110,-0.078,-0.816,-0.580
1775856288130,-0.079,-0.804,-0.584
1775856288150,-0.078,-0.794,-0.588
1775856288170,-0.074,-0.800,-0.584
1775856288189,-0.080,-0.801,-0.579
1775856288209,-0.079,-0.802,-0.577
1775856288229,-0.082,-0.813,-0.576
1775856288249,-0.076,-0.807,-0.584
1775856288268,-0.087,-0.808,-0.593
1775856288288,-0.083,-0.807,-0.597
1775856288308,-0.079,-0.816,-0.600
1775856288328,-0.078,-0.780,-0.604
1775856288347,-0.076,-0.779,-0.616
1775856288367,-0.075,-0.801,-0.618
1775856288387,-0.079,-0.791,-0.614
1775856288407,-0.075,-0.781,-0.631
1775856288426,-0.068,-0.787,-0.631
1775856288446,-0.061,-0.817,-0.610
1775856288466,-0.046,-0.814,-0.606
1775856288486,-0.043,-0.789,-0.602
1775856288505,-0.035,-0.810,-0.597
1775856288525,-0.034,-0.810,-0.578
1775856288545,-0.033,-0.802,-0.577
1775856288565,-0.033,-0.806,-0.568
1775856288584,-0.031,-0.805,-0.547
1775856288604,-0.030,-0.813,-0.561
1775856288624,-0.031,-0.816,-0.570
1775856288644,-0.031,-0.810,-0.579
1775856288663,-0.034,-0.775,-0.584
1775856288683,-0.045,-0.761,-0.585
1775856288703,-0.050,-0.835,-0.595
1775856288723,-0.063,-0.827,-0.582
1775856288742,-0.069,-0.829,-0.565
1775856288762,-0.072,-0.822,-0.568
1775856288782,-0.071,-0.834,-0.580
1775856288802,-0.066,-0.844,-0.550
1775856288821,-0.061,-0.842,-0.534
1775856288841,-0.050,-0.843,-0.549
1775856288861,-0.047,-0.812,-0.545
1775856288881,-0.037,-0.814,-0.546
1775856288900,-0.036,-0.827,-0.553
1775856288920,-0.032,-0.814,-0.547
1775856288940,-0.031,-0.812,-0.564
1775856288960,-0.024,-0.826,-0.567
1775856288979,-0.024,-0.820,-0.574
1775856288999,-0.036,-0.801,-0.586
1775856289019,-0.035,-0.807,-0.570
1775856289039,-0.039,-0.831,-0.570
1775856289058,-0.049,-0.794,-0.577
1775856289078,-0.054,-0.801,-0.594
1775856289098,-0.048,-0.833,-0.598
1775856289118,-0.058,-0.824,-0.588
1775856289137,-0.051,-0.803,-0.588
1775856289157,-0.063,-0.812,-0.610
1775856289177,-0.047,-0.837,-0.621
1775856289197,-0.068,-0.814,-0.606
1775856289216,-0.046,-0.794,-0.625
1775856289236,-0.049,-0.798,-0.617
1775856289256,-0.032,-0.842,-0.604
1775856289276,-0.024,-0.805,-0.606
1775856289295,-0.032,-0.771,-0.585
1775856289315,-0.024,-0.794,-0.558
1775856289335,-0.038,-0.761,-0.563
1775856289355,-0.036,-0.776,-0.575
1775856289374,-0.057,-0.790,-0.560
1775856289394,-0.055,-0.786,-0.549
1775856289414,-0.067,-0.785,-0.575
1775856289434,-0.069,-0.788,-0.597
1775856289453,-0.077,-0.783,-0.617
1775856289473,-0.076,-0.804,-0.646
1775856289493,-0.073,-0.810,-0.637
1775856289513,-0.073,-0.736,-0.626
1775856289532,-0.068,-0.726,-0.649
1775856289552,-0.054,-0.755,-0.647
1775856289572,-0.061,-0.743,-0.612
1775856289592,-0.034,-0.679,-0.567
1775856289611,-0.050,-0.715,-0.551
1775856289631,-0.045,-0.741,-0.562
1775856289651,-0.043,-0.710,-0.541
1775856289671,-0.040,-0.730,-0.505
1775856289690,-0.050,-0.712,-0.472
1775856289710,-0.045,-0.742,-0.472
1775856289730,-0.052,-0.739,-0.455
1775856289750,-0.066,-0.678,-0.439
1775856289770,-0.079,-0.680,-0.468
1775856289789,-0.080,-0.734,-0.481
1775856289809,-0.099,-0.797,-0.452
1775856289829,-0.106,-0.814,-0.437
1775856289849,-0.127,-0.759,-0.449
1775856289868,-0.128,-0.764,-0.450
1775856289888,-0.139,-0.806,-0.449
1775856289908,-0.145,-0.835,-0.454
1775856289928,-0.141,-0.817,-0.442
1775856289947,-0.164,-0.827,-0.449
1775856289967,-0.163,-0.825,-0.472
1775856289987,-0.166,-0.842,-0.459
1775856290007,-0.144,-0.852,-0.438
1775856290026,-0.182,-0.828,-0.407
1775856290046,-0.174,-0.860,-0.425
1775856290066,-0.181,-0.920,-0.435
1775856290086,-0.159,-0.947,-0.432
1775856290105,-0.141,-0.845,-0.365
1775856290125,-0.171,-0.808,-0.309
1775856290145,-0.154,-0.910,-0.382
1775856290165,-0.159,-0.954,-0.420
1775856290184,-0.136,-0.887,-0.353
1775856290204,-0.150,-0.815,-0.304
1775856290224,-0.139,-0.922,-0.348
1775856290244,-0.142,-0.957,-0.384
1775856290263,-0.150,-0.916,-0.344
1775856290283,-0.137,-0.904,-0.307
1775856290303,-0.146,-0.848,-0.278
1775856290323,-0.149,-0.932,-0.312
1775856290342,-0.156,-0.996,-0.351
1775856290362,-0.145,-1.029,-0.340
1775856290382,-0.146,-1.013,-0.284
1775856290402,-0.162,-1.004,-0.233
1775856290421,-0.130,-1.052,-0.263
1775856290441,-0.144,-1.024,-0.244
1775856290461,-0.131,-1.052,-0.183
1775856290481,-0.139,-1.022,-0.144
1775856290500,-0.136,-0.969,-0.097
1775856290520,-0.132,-1.015,-0.053
1775856290540,-0.142,-0.995,-0.027
1775856290560,-0.136,-1.055,-0.042
1775856290579,-0.134,-1.050,-0.055
1775856290599,-0.111,-1.147,-0.117
1775856290619,-0.147,-1.326,-0.154
1775856290639,-0.124,-1.399,-0.053
1775856290658,-0.139,-1.171,0.118
1775856290678,-0.124,-1.103,0.109
1775856290698,-0.231,-1.131,0.052
1775856290718,-0.183,-1.001,0.120
1775856290737,-0.108,-1.198,0.163
1775856290757,-0.139,-0.978,0.175
1775856290777,-0.112,-0.911,0.097
1775856290797,-0.129,-1.204,0.085
1775856290816,-0.112,-1.238,0.196
1775856290836,-0.138,-1.221,0.266
1775856290856,-0.130,-1.290,0.337
1775856290876,-0.168,-1.481,0.475
1775856290895,-0.162,-1.630,0.647
1775856290915,-0.121,-1.428,0.682
1775856290935,-0.122,-1.418,0.569
1775856290955,-0.019,-1.238,0.362
1775856290975,-0.031,-1.006,0.206
1775856290994,-0.053,-1.092,0.069
1775856291014,-0.086,-1.093,-0.058
1775856291034,-0.108,-1.070,-0.181
1775856291054,-0.096,-1.125,-0.322
1775856291073,-0.133,-1.248,-0.328
1775856291093,-0.143,-1.310,-0.174
1775856291113,-0.118,-1.269,-0.142
1775856291133,-0.109,-1.269,-0.136
1775856291152,-0.125,-1.205,0.039
1775856291172,-0.115,-1.123,0.096
1775856291192,-0.095,-1.074,-0.054
1775856291212,-0.089,-1.050,-0.153
1775856291231,-0.087,-0.984,-0.112
1775856291251,-0.083,-0.893,-0.142
1775856291271,-0.079,-0.755,-0.223
1775856291291,-0.077,-0.769,-0.319
1775856291310,-0.061,-0.799,-0.346
1775856291330,-0.072,-0.753,-0.267
1775856291350,-0.086,-0.708,-0.238
1775856291370,-0.070,-0.699,-0.306
1775856291389,-0.065,-0.702,-0.355
1775856291409,-0.056,-0.705,-0.357
1775856291429,-0.049,-0.639,-0.371
1775856291449,-0.046,-0.622,-0.420
1775856291468,-0.048,-0.648,-0.479
1775856291488,-0.049,-0.676,-0.500
1775856291508,-0.054,-0.684,-0.477
1775856291528,-0.062,-0.653,-0.467
1775856291547,-0.053,-0.682,-0.504
1775856291587,-0.072,-0.604,-0.598
1775856291607,-0.060,-0.651,-0.588
1775856291626,-0.065,-0.627,-0.595
1775856291646,-0.064,-0.591,-0.650
1775856291666,-0.051,-0.543,-0.704
1775856291686,-0.062,-0.523,-0.686
1775856291705,-0.049,-0.568,-0.689
1775856291725,-0.050,-0.529,-0.747
1775856291745,-0.051,-0.479,-0.781
1775856291765,-0.042,-0.490,-0.777
1775856291785,-0.042,-0.494,-0.787
1775856291804,-0.030,-0.488,-0.841
1775856291824,-0.038,-0.434,-0.884
1775856291844,-0.050,-0.396,-0.943
1775856291864,-0.056,-0.376,-1.013
1775856291883,-0.052,-0.449,-1.039
1775856291903,-0.043,-0.461,-1.034
1775856291923,-0.029,-0.417,-1.066
1775856291943,-0.030,-0.364,-1.101
1775856291962,-0.014,-0.391,-1.117
1775856291982,-0.029,-0.387,-1.095
1775856292002,-0.018,-0.407,-1.079
1775856292022,-0.034,-0.413,-1.073
1775856292041,-0.028,-0.447,-1.022
1775856292061,-0.044,-0.464,-0.951
1775856292081,-0.045,-0.470,-0.930
1775856292101,-0.047,-0.525,-0.915
1775856292120,-0.048,-0.513,-0.849
1775856292140,-0.040,-0.528,-0.803
1775856292160,-0.027,-0.525,-0.778
1775856292180,-0.037,-0.530,-0.730
1775856292199,-0.028,-0.583,-0.681
1775856292219,-0.029,-0.557,-0.614
1775856292239,-0.039,-0.524,-0.582
1775856292259,-0.023,-0.578,-0.603
1775856292278,-0.028,-0.607,-0.572
1775856292298,-0.040,-0.602,-0.529
1775856292318,-0.051,-0.612,-0.541
1775856292338,-0.051,-0.583,-0.545
1775856292357,-0.045,-0.635,-0.499
1775856292377,-0.065,-0.707,-0.438
1775856292397,-0.054,-0.694,-0.423
1775856292417,-0.061,-0.640,-0.407
1775856292436,-0.072,-0.750,-0.402
1775856292456,-0.056,-0.830,-0.413
1775856292476,-0.081,-0.809,-0.386
1775856292496,-0.077,-0.794,-0.352
1775856292515,-0.099,-0.769,-0.308
1775856292535,-0.081,-0.862,-0.359
1775856292555,-0.100,-0.886,-0.366
1775856292575,-0.104,-0.841,-0.279
1775856292594,-0.117,-0.882,-0.218
1775856292614,-0.117,-0.958,-0.232
1775856292634,-0.092,-0.893,-0.273
1775856292654,-0.116,-0.830,-0.222
1775856292673,-0.123,-0.958,-0.180
1775856292693,-0.110,-1.071,-0.242
1775856292713,-0.104,-1.050,-0.243
1775856292733,-0.130,-0.980,-0.154
1775856292752,-0.134,-0.933,-0.127
1775856292772,-0.139,-1.118,-0.209
1775856292792,-0.116,-1.213,-0.168
1775856292812,-0.126,-1.133,-0.013
1775856292831,-0.126,-1.006,0.030
1775856292851,-0.091,-1.063,-0.050
1775856292871,-0.079,-1.113,-0.007
1775856292891,-0.068,-1.055,0.083
1775856292910,-0.086,-0.916,0.127
1775856292930,-0.084,-1.053,0.129
1775856292950,-0.069,-1.138,0.124
1775856292970,-0.089,-1.140,0.164
1775856292989,-0.090,-1.189,0.227
1775856293009,-0.093,-1.385,0.251
1775856293029,-0.049,-1.121,0.321
1775856293068,-0.038,-1.049,0.419
1775856293088,-0.016,-0.948,0.426
1775856293108,-0.037,-0.880,0.392
1775856293128,-0.004,-0.953,0.381
1775856293147,-0.019,-0.947,0.398
1775856293167,-0.020,-1.092,0.461
1775856293187,-0.027,-1.055,0.474
1775856293206,-0.019,-0.972,0.441
1775856293226,-0.030,-0.976,0.474
1775856293246,-0.033,-1.010,0.560
1775856293266,-0.066,-1.203,0.642
1775856293285,-0.062,-1.094,0.647
1775856293305,-0.079,-0.985,0.547
1775856293325,-0.076,-1.136,0.532
1775856293345,-0.106,-1.078,0.636
1775856293364,-0.091,-1.184,0.728
1775856293384,-0.075,-1.213,0.772
1775856293404,-0.085,-1.363,0.901
1775856293424,-0.098,-1.488,1.058
1775856293443,-0.099,-1.303,1.053
1775856293463,-0.083,-1.253,0.838
1775856293483,-0.098,-1.017,0.670
1775856293503,-0.099,-0.888,0.448
1775856293522,-0.081,-0.827,0.227
1775856293542,-0.087,-0.898,0.048
1775856293562,-0.095,-0.968,-0.112
1775856293582,-0.119,-1.008,-0.199
1775856293601,-0.124,-1.084,-0.186
1775856293621,-0.145,-1.133,-0.148
1775856293641,-0.145,-1.224,-0.095
1775856293661,-0.126,-1.237,-0.057
1775856293680,-0.139,-1.186,-0.024
1775856293700,-0.142,-1.182,-0.013
1775856293720,-0.157,-1.146,-0.075
1775856293740,-0.161,-1.113,-0.103
1775856293759,-0.147,-1.095,-0.132
1775856293779,-0.133,-1.012,-0.154
1775856293799,-0.126,-0.938,-0.141
1775856293819,-0.119,-0.927,-0.156
1775856293838,-0.103,-0.860,-0.197
1775856293858,-0.096,-0.768,-0.227
1775856293878,-0.076,-0.694,-0.263
1775856293898,-0.073,-0.643,-0.316
1775856293917,-0.059,-0.628,-0.377
1775856293937,-0.049,-0.595,-0.406
1775856293957,-0.037,-0.530,-0.404
1775856293977,-0.035,-0.504,-0.424
1775856293996,-0.028,-0.489,-0.514
1775856294016,-0.016,-0.533,-0.606
1775856294036,-0.031,-0.567,-0.600
1775856294056,-0.025,-0.597,-0.577
1775856294075,-0.040,-0.560,-0.581
1775856294095,-0.041,-0.536,-0.613
1775856294135,-0.027,-0.559,-0.677
1775856294154,-0.025,-0.542,-0.727
1775856294174,-0.031,-0.469,-0.708
1775856294194,-0.025,-0.442,-0.766
1775856294214,0.004,-0.442,-0.881
1775856294233,-0.016,-0.433,-0.900
1775856294253,-0.012,-0.373,-0.862
1775856294273,-0.018,-0.362,-0.885
1775856294293,-0.022,-0.350,-0.954
1775856294312,-0.017,-0.337,-0.962
1775856294332,-0.011,-0.307,-0.974
1775856294352,0.003,-0.317,-1.062
1775856294372,0.019,-0.323,-1.115
1775856294391,0.035,-0.316,-1.099
1775856294411,0.011,-0.228,-1.062
1775856294431,0.007,-0.195,-1.113
1775856294451,-0.010,-0.295,-1.126
1775856294470,-0.014,-0.368,-1.080
1775856294490,-0.042,-0.364,-1.052
1775856294510,-0.040,-0.380,-1.030
1775856294530,-0.052,-0.412,-0.969
1775856294549,-0.058,-0.443,-0.923
1775856294569,-0.049,-0.460,-0.884
1775856294589,-0.045,-0.455,-0.845
1775856294609,-0.026,-0.503,-0.837
1775856294628,-0.014,-0.518,-0.806
1775856294648,-0.012,-0.516,-0.787
1775856294668,-0.006,-0.520,-0.772
1775856294688,0.005,-0.536,-0.738
1775856294707,-0.007,-0.572,-0.692
1775856294727,-0.017,-0.602,-0.628
1775856294747,-0.016,-0.620,-0.586
1775856294767,-0.016,-0.572,-0.580
1775856294786,-0.022,-0.588,-0.582
1775856294806,-0.025,-0.622,-0.571
1775856294826,-0.038,-0.692,-0.559
1775856294846,-0.031,-0.731,-0.531
1775856294865,-0.035,-0.721,-0.519
1775856294885,-0.052,-0.720,-0.540
1775856294905,-0.043,-0.716,-0.532
1775856294925,-0.045,-0.783,-0.516
1775856294944,-0.043,-0.762,-0.490
1775856294964,-0.042,-0.724,-0.458
1775856294984,-0.047,-0.797,-0.468
1775856295004,-0.064,-0.817,-0.468
1775856295023,-0.056,-0.807,-0.464
1775856295043,-0.060,-0.787,-0.453
1775856295063,-0.072,-0.841,-0.445
1775856295083,-0.070,-0.808,-0.442
1775856295102,-0.079,-0.785,-0.421
1775856295122,-0.080,-0.817,-0.386
1775856295142,-0.080,-0.856,-0.372
1775856295162,-0.098,-0.820,-0.393
1775856295181,-0.087,-0.839,-0.414
1775856295201,-0.091,-0.897,-0.343
1775856295221,-0.090,-0.935,-0.287
1775856295241,-0.115,-0.889,-0.287
1775856295260,-0.108,-0.899,-0.343
1775856295280,-0.085,-0.932,-0.312
1775856295300,-0.086,-0.993,-0.255
1775856295320,-0.091,-0.910,-0.240
1775856295339,-0.122,-0.861,-0.247
1775856295359,-0.108,-0.949,-0.267
1775856295379,-0.115,-1.057,-0.235
1775856295399,-0.098,-1.077,-0.181
1775856295418,-0.137,-0.982,-0.099
1775856295438,-0.103,-0.980,-0.086
1775856295458,-0.097,-1.045,-0.094
1775856295478,-0.094,-1.143,-0.085
1775856295497,-0.104,-1.128,-0.021
1775856295517,-0.126,-1.225,0.028
1775856295537,-0.161,-1.444,-0.029
1775856295557,-0.091,-1.507,-0.119
1775856295576,-0.149,-1.215,0.067
1775856295596,-0.108,-1.048,0.269
1775856295636,-0.096,-0.761,0.187
1775856295655,-0.118,-1.000,0.228
1775856295675,-0.119,-1.038,0.263
1775856295695,-0.107,-1.045,0.253
1775856295715,-0.119,-1.058,0.284
1775856295734,-0.125,-1.086,0.293
1775856295754,-0.130,-1.234,0.361
1775856295774,-0.156,-1.190,0.471
1775856295794,-0.144,-1.135,0.463
1775856295813,-0.160,-1.228,0.488
1775856295833,-0.173,-1.195,0.557
1775856295853,-0.172,-1.161,0.561
1775856295873,-0.246,-1.339,0.648
1775856295892,-0.259,-1.548,0.756
1775856295912,-0.218,-1.372,0.685
1775856295932,-0.242,-1.326,0.727
1775856295952,-0.171,-1.216,0.653
1775856295971,-0.119,-1.118,0.287
1775856295991,-0.114,-1.085,0.130
1775856296011,-0.140,-0.996,0.226
1775856296031,-0.135,-1.061,0.133
1775856296050,-0.126,-0.988,-0.043
1775856296070,-0.177,-0.962,-0.148
1775856296090,-0.147,-1.160,-0.227
1775856296110,-0.172,-1.263,-0.260
1775856296129,-0.156,-1.196,-0.206
1775856296149,-0.138,-1.217,-0.157
1775856296169,-0.117,-1.234,-0.092
1775856296189,-0.112,-1.198,-0.036
1775856296208,-0.088,-1.114,-0.008
1775856296228,-0.062,-1.108,-0.049
1775856296248,-0.074,-0.984,-0.080
1775856296268,-0.073,-0.937,-0.151
1775856296287,-0.046,-0.873,-0.213
1775856296307,-0.054,-0.845,-0.226
1775856296327,-0.042,-0.788,-0.189
1775856296347,-0.030,-0.708,-0.154
1775856296366,-0.019,-0.729,-0.189
1775856296386,-0.020,-0.681,-0.244
1775856296406,-0.007,-0.664,-0.275
1775856296426,0.000,-0.620,-0.309
1775856296445,0.031,-0.598,-0.397
1775856296465,0.026,-0.580,-0.462
1775856296485,0.045,-0.612,-0.498
1775856296505,0.038,-0.556,-0.531
1775856296524,0.059,-0.491,-0.630
1775856296544,0.061,-0.500,-0.712
1775856296564,0.059,-0.518,-0.725
1775856296584,0.076,-0.525,-0.735
1775856296603,0.071,-0.567,-0.771
1775856296623,0.074,-0.514,-0.792
1775856296643,0.070,-0.460,-0.798
1775856296663,0.055,-0.499,-0.824
1775856296682,0.045,-0.489,-0.818
1775856296702,0.047,-0.453,-0.805
1775856296722,0.033,-0.479,-0.805
1775856296742,0.038,-0.493,-0.781
1775856296761,0.039,-0.498,-0.751
1775856296781,0.013,-0.448,-0.729
1775856296801,0.021,-0.452,-0.746
1775856296821,0.018,-0.419,-0.762
1775856296840,0.026,-0.367,-0.790
1775856296860,0.044,-0.362,-0.872
1775856296880,0.043,-0.383,-0.930
1775856296900,0.036,-0.329,-0.966
1775856296919,0.020,-0.267,-1.022
1775856296939,0.025,-0.265,-1.093
1775856296959,0.013,-0.279,-1.140
1775856296979,0.005,-0.276,-1.181
1775856296998,-0.005,-0.289,-1.175
1775856297018,-0.009,-0.309,-1.129
1775856297038,-0.015,-0.301,-1.109
1775856297058,-0.011,-0.303,-1.070
1775856297077,-0.013,-0.337,-0.989
1775856297097,-0.023,-0.345,-0.925
1775856297117,-0.033,-0.399,-0.899
1775856297137,-0.028,-0.452,-0.873
1775856297156,-0.043,-0.457,-0.824
1775856297176,-0.050,-0.487,-0.779
1775856297196,-0.039,-0.541,-0.748
1775856297216,-0.044,-0.515,-0.673
1775856297235,-0.045,-0.547,-0.626
1775856297255,-0.038,-0.603,-0.622
1775856297275,-0.037,-0.586,-0.595
1775856297295,-0.026,-0.605,-0.566
1775856297314,-0.039,-0.631,-0.541
1775856297334,-0.039,-0.630,-0.519
1775856297354,-0.035,-0.666,-0.528
1775856297374,-0.029,-0.715,-0.532
1775856297393,-0.051,-0.708,-0.484
1775856297413,-0.045,-0.695,-0.466
1775856297433,-0.040,-0.756,-0.505
1775856297453,-0.042,-0.746,-0.481
1775856297472,-0.044,-0.753,-0.466
1775856297492,-0.052,-0.763,-0.470
1775856297512,-0.040,-0.794,-0.478
1775856297532,-0.056,-0.770,-0.456
1775856297551,-0.068,-0.734,-0.448
1775856297571,-0.051,-0.809,-0.503
1775856297591,-0.061,-0.828,-0.480
1775856297611,-0.062,-0.855,-0.456
1775856297630,-0.064,-0.805,-0.438
1775856297650,-0.085,-0.856,-0.470
1775856297670,-0.056,-0.850,-0.453
1775856297690,-0.085,-0.888,-0.374
1775856297709,-0.066,-0.916,-0.380
1775856297729,-0.100,-0.825,-0.407
1775856297749,-0.070,-0.919,-0.422
1775856297769,-0.081,-0.909,-0.344
1775856297788,-0.074,-1.078,-0.350
1775856297808,-0.087,-0.971,-0.318
1775856297828,-0.102,-0.882,-0.267
1775856297848,-0.088,-0.983,-0.228
1775856297867,-0.070,-1.043,-0.205
1775856297887,-0.084,-1.026,-0.184
1775856297907,-0.086,-1.016,-0.134
1775856297927,-0.089,-0.960,-0.076
1775856297946,-0.082,-1.014,-0.098
1775856297966,-0.081,-1.289,-0.188
1775856297986,-0.113,-1.510,-0.173
1775856298006,-0.078,-1.456,-0.128
1775856298025,-0.106,-1.079,0.055
1775856298045,-0.122,-1.155,0.242
1775856298065,-0.052,-1.008,0.267
1775856298085,-0.068,-0.773,0.243
1775856298105,-0.100,-0.804,0.301
1775856298124,-0.150,-1.013,0.318
1775856298144,-0.123,-1.099,0.251
1775856298164,-0.148,-0.960,0.286
1775856298184,-0.138,-1.004,0.375
1775856298203,-0.161,-1.108,0.396
1775856298223,-0.157,-1.141,0.392
1775856298243,-0.181,-1.127,0.433
1775856298263,-0.191,-1.053,0.395
1775856298282,-0.184,-1.011,0.390
1775856298302,-0.224,-1.121,0.452
1775856298322,-0.190,-1.097,0.454
1775856298342,-0.192,-1.027,0.410
1775856298361,-0.186,-1.040,0.426
1775856298381,-0.222,-1.094,0.507
1775856298401,-0.192,-1.138,0.546
1775856298421,-0.204,-1.063,0.561
1775856298440,-0.225,-1.132,0.634
1775856298460,-0.310,-1.465,0.767
1775856298480,-0.238,-1.660,0.883
1775856298500,-0.297,-1.210,0.885
1775856298519,-0.309,-1.207,0.879
1775856298539,-0.218,-1.173,0.521
1775856298559,-0.158,-1.032,0.215
1775856298579,-0.153,-0.941,0.155
1775856298598,-0.136,-0.948,0.121
1775856298618,-0.124,-0.913,-0.039
1775856298638,-0.147,-0.939,-0.231
1775856298658,-0.145,-1.053,-0.296
1775856298677,-0.175,-1.139,-0.223
1775856298697,-0.164,-1.159,-0.186
1775856298717,-0.156,-1.193,-0.200
1775856298737,-0.154,-1.198,-0.122
1775856298756,-0.157,-1.221,0.028
1775856298776,-0.140,-1.149,0.109
1775856298796,-0.122,-1.092,0.071
1775856298816,-0.135,-1.095,-0.014
1775856298835,-0.113,-0.986,-0.097
1775856298855,-0.110,-0.870,-0.159
1775856298875,-0.108,-0.818,-0.201
1775856298895,-0.075,-0.807,-0.216
1775856298914,-0.078,-0.718,-0.186
1775856298934,-0.046,-0.631,-0.215
1775856298954,-0.033,-0.582,-0.274
1775856298974,-0.020,-0.613,-0.356
1775856298993,-0.012,-0.670,-0.419
1775856299013,-0.030,-0.615,-0.412
1775856299033,-0.020,-0.678,-0.429
1775856299053,-0.002,-0.683,-0.505
1775856299072,-0.015,-0.658,-0.541
1775856299092,0.000,-0.694,-0.532
1775856299112,-0.013,-0.709,-0.546
1775856299132,0.002,-0.745,-0.593
1775856299151,-0.011,-0.715,-0.599
1775856299171,-0.008,-0.674,-0.609
1775856299191,-0.011,-0.611,-0.607
1775856299211,-0.017,-0.629,-0.627
1775856299230,-0.010,-0.605,-0.674
1775856299250,-0.003,-0.554,-0.721
1775856299270,0.001,-0.559,-0.748
1775856299290,-0.009,-0.556,-0.726
1775856299309,-0.004,-0.532,-0.702
1775856299329,-0.015,-0.512,-0.693
1775856299349,0.001,-0.493,-0.716
1775856299369,0.006,-0.500,-0.734
1775856299388,0.002,-0.468,-0.750
1775856299408,0.031,-0.476,-0.808
1775856299428,0.030,-0.474,-0.881
1775856299448,0.029,-0.408,-0.897
1775856299467,0.036,-0.520,-0.942
1775856299487,0.047,-0.531,-0.946
1775856299507,0.057,-0.492,-0.929
1775856299527,0.063,-0.492,-0.937
1775856299546,0.081,-0.474,-0.931
1775856299566,0.074,-0.444,-0.935
1775856299586,0.081,-0.421,-0.956
1775856299606,0.058,-0.405,-0.975
1775856299626,0.051,-0.406,-0.998
1775856299645,0.019,-0.456,-0.999
1775856299665,-0.008,-0.468,-0.937
1775856299685,-0.032,-0.499,-0.896
1775856299705,-0.045,-0.546,-0.862
1775856299724,-0.043,-0.573,-0.816
1775856299744,-0.042,-0.578,-0.772
1775856299764,-0.031,-0.537,-0.727
1775856299784,-0.039,-0.544,-0.703
1775856299803,-0.009,-0.568,-0.724
1775856299823,-0.025,-0.509,-0.681
1775856299843,-0.003,-0.536,-0.639
1775856299863,-0.013,-0.565,-0.627
1775856299882,-0.023,-0.543,-0.704
1775856299902,-0.017,-0.585,-0.723
1775856299922,-0.036,-0.572,-0.635
1775856299942,-0.042,-0.614,-0.602
1775856299961,-0.045,-0.715,-0.609
1775856299981,-0.049,-0.707,-0.569
1775856300001,-0.066,-0.678,-0.500
1775856300021,-0.062,-0.734,-0.481
1775856300040,-0.077,-0.750,-0.480
1775856300060,-0.088,-0.779,-0.472
1775856300080,-0.086,-0.803,-0.448
1775856300100,-0.102,-0.765,-0.422
1775856300119,-0.119,-0.753,-0.439
1775856300139,-0.107,-0.764,-0.444
1775856300159,-0.128,-0.774,-0.391
1775856300179,-0.152,-0.887,-0.376
1775856300198,-0.136,-0.851,-0.375
1775856300218,-0.154,-0.812,-0.364
1775856300238,-0.131,-0.811,-0.350
1775856300258,-0.164,-0.839,-0.335
1775856300317,-0.122,-0.806,-0.249
1775856300337,-0.128,-0.778,-0.254
1775856300356,-0.120,-0.982,-0.341
1775856300376,-0.126,-0.985,-0.334
1775856300416,-0.155,-1.035,-0.155
1775856300435,-0.137,-0.999,-0.262
1775856300455,-0.116,-1.019,-0.326
1775856300475,-0.138,-1.060,-0.189
1775856300495,-0.141,-0.956,-0.067
1775856300514,-0.154,-0.950,-0.099
1775856300534,-0.118,-1.052,-0.238
1775856300554,-0.137,-1.059,-0.165
1775856300574,-0.142,-1.130,-0.068
1775856300593,-0.159,-1.419,-0.160
1775856300613,-0.135,-2.033,-0.311
1775856300633,-0.135,-1.211,0.032
1775856300653,-0.172,-0.888,0.381
1775856300672,-0.091,-0.979,0.348
1775856300692,-0.083,-0.778,0.194
1775856300712,-0.110,-0.770,0.303
1775856300732,-0.124,-0.837,0.396
1775856300751,-0.155,-0.946,0.314
1775856300771,-0.155,-1.143,0.325
1775856300791,-0.147,-1.161,0.357
1775856300811,-0.139,-1.049,0.373
1775856300830,-0.120,-1.027,0.439
1775856300850,-0.139,-1.125,0.526
1775856300870,-0.169,-1.206,0.580
1775856300890,-0.133,-1.154,0.578
1775856300909,-0.154,-0.949,0.577
1775856300929,-0.145,-0.967,0.590
1775856300949,-0.148,-1.109,0.614
1775856300969,-0.160,-1.074,0.646
1775856300988,-0.178,-1.088,0.663
1775856301008,-0.226,-1.391,0.758
1775856301028,-0.236,-1.643,1.002
1775856301048,-0.208,-1.394,1.190
1775856301067,-0.266,-1.401,1.205
1775856301087,-0.187,-1.258,0.830
1775856301107,-0.136,-0.911,0.470
1775856301127,-0.081,-0.787,0.250
1775856301146,-0.076,-0.824,0.112
1775856301166,-0.046,-0.835,-0.042
1775856301186,-0.066,-0.865,-0.181
1775856301206,-0.076,-0.971,-0.238
1775856301225,-0.089,-1.108,-0.232
1775856301245,-0.075,-1.103,-0.259
1775856301265,-0.073,-1.170,-0.234
1775856301285,-0.111,-1.262,-0.089
1775856301304,-0.087,-1.206,-0.065
1775856301324,-0.093,-1.103,-0.153
1775856301344,-0.087,-1.126,-0.138
1775856301364,-0.094,-1.086,-0.043
1775856301383,-0.086,-1.024,-0.035
1775856301403,-0.069,-0.928,-0.113
1775856301423,-0.069,-0.871,-0.175
1775856301443,-0.062,-0.833,-0.233
1775856301463,-0.063,-0.790,-0.278
1775856301482,-0.066,-0.714,-0.276
1775856301502,-0.059,-0.684,-0.277
1775856301522,-0.056,-0.704,-0.303
1775856301542,-0.046,-0.641,-0.331
1775856301561,-0.043,-0.602,-0.356
1775856301581,-0.048,-0.569,-0.363
1775856301601,-0.037,-0.619,-0.429
1775856301621,-0.034,-0.652,-0.515
1775856301640,-0.022,-0.625,-0.572
1775856301660,-0.020,-0.611,-0.579
1775856301680,-0.027,-0.609,-0.549
1775856301700,-0.007,-0.618,-0.600
1775856301719,-0.014,-0.555,-0.660
1775856301739,-0.008,-0.549,-0.687
1775856301759,-0.001,-0.553,-0.707
1775856301779,-0.012,-0.525,-0.754
1775856301798,0.000,-0.499,-0.812
1775856301818,-0.003,-0.517,-0.853
1775856301838,0.001,-0.511,-0.837
1775856301858,0.002,-0.481,-0.828
1775856301877,-0.006,-0.479,-0.827
1775856301897,-0.003,-0.465,-0.841
1775856301917,0.014,-0.460,-0.871
1775856301937,0.007,-0.453,-0.886
1775856301956,0.018,-0.415,-0.871
1775856301976,0.020,-0.394,-0.859
1775856301996,0.021,-0.418,-0.885
1775856302016,0.045,-0.433,-0.927
1775856302035,0.051,-0.424,-0.940
1775856302055,0.060,-0.405,-0.933
1775856302075,0.057,-0.386,-0.976
1775856302095,0.057,-0.346,-1.006
1775856302114,0.048,-0.375,-1.014
1775856302134,0.046,-0.421,-0.997
1775856302154,0.029,-0.428,-0.978
1775856302174,0.018,-0.435,-0.947
1775856302193,0.017,-0.468,-0.913
1775856302213,0.008,-0.485,-0.873
1775856302233,0.011,-0.521,-0.867
1775856302253,0.009,-0.517,-0.843
1775856302272,0.009,-0.490,-0.809
1775856302292,0.007,-0.500,-0.805
1775856302312,0.005,-0.534,-0.808
1775856302332,0.010,-0.551,-0.784
1775856302351,-0.001,-0.540,-0.729
1775856302371,-0.010,-0.550,-0.681
1775856302391,-0.019,-0.534,-0.644
1775856302411,-0.012,-0.564,-0.604
1775856302430,-0.026,-0.549,-0.522
1775856302450,-0.025,-0.578,-0.495
1775856302470,-0.038,-0.596,-0.507
1775856302490,-0.039,-0.628,-0.518
1775856302509,-0.039,-0.655,-0.502
1775856302529,-0.049,-0.636,-0.482
1775856302549,-0.065,-0.644,-0.484
1775856302569,-0.062,-0.690,-0.481
1775856302588,-0.071,-0.723,-0.477
1775856302608,-0.060,-0.690,-0.456
1775856302628,-0.097,-0.722,-0.440
1775856302648,-0.070,-0.765,-0.470
1775856302667,-0.088,-0.731,-0.472
1775856302687,-0.100,-0.777,-0.461
1775856302707,-0.083,-0.787,-0.435
1775856302727,-0.106,-0.833,-0.419
1775856302747,-0.106,-0.852,-0.422
1775856302766,-0.096,-0.882,-0.432
1775856302786,-0.096,-0.930,-0.399
1775856302806,-0.091,-0.921,-0.355
1775856302826,-0.098,-0.862,-0.377
1775856302845,-0.092,-0.930,-0.471
1775856302865,-0.084,-0.965,-0.485
1775856302885,-0.101,-0.968,-0.344
1775856302905,-0.105,-0.965,-0.243
1775856302924,-0.106,-0.945,-0.268
1775856302944,-0.100,-1.095,-0.323
1775856302964,-0.133,-0.937,-0.226
1775856302984,-0.132,-0.901,-0.171
1775856303003,-0.188,-1.042,-0.107
1775856303023,-0.183,-1.538,-0.135
1775856303043,-0.166,-1.946,-0.260
1775856303063,-0.066,-1.281,-0.008
1775856303082,-0.124,-0.967,0.359
1775856303102,-0.135,-1.483,0.463
1775856303122,-0.071,-0.989,0.321
1775856303142,-0.072,-0.696,0.268
1775856303161,-0.107,-0.767,0.393
1775856303181,-0.140,-0.821,0.450
1775856303201,-0.139,-0.879,0.379
1775856303221,-0.150,-0.989,0.378
1775856303240,-0.147,-1.188,0.431
1775856303260,-0.128,-1.072,0.421
1775856303280,-0.163,-1.014,0.431
1775856303300,-0.179,-1.074,0.556
1775856303320,-0.193,-1.180,0.637
1775856303339,-0.192,-1.148,0.631
1775856303359,-0.212,-1.137,0.693
1775856303379,-0.202,-1.106,0.693
1775856303399,-0.215,-1.183,0.706
1775856303418,-0.286,-1.431,0.854
1775856303438,-0.277,-1.577,0.947
1775856303458,-0.237,-1.231,0.900
1775856303478,-0.234,-1.201,0.864
1775856303497,-0.193,-1.206,0.692
1775856303517,-0.155,-1.025,0.415
1775856303537,-0.150,-0.889,0.191
1775856303557,-0.150,-0.951,0.091
1775856303576,-0.139,-0.955,0.053
1775856303596,-0.166,-1.043,-0.056
1775856303616,-0.170,-1.056,-0.206
1775856303636,-0.164,-1.178,-0.187
1775856303655,-0.181,-1.228,0.010
1775856303675,-0.195,-1.169,-0.006
1775856303695,-0.170,-1.207,-0.117
1775856303715,-0.093,-1.187,-0.048
1775856303734,-0.072,-1.050,0.013
1775856303754,-0.098,-1.040,-0.057
1775856303774,-0.092,-1.029,-0.065
1775856303794,-0.089,-0.909,-0.076
1775856303813,-0.060,-0.844,-0.177
1775856303833,-0.066,-0.782,-0.239
1775856303853,-0.069,-0.767,-0.247
1775856303873,-0.046,-0.767,-0.280
1775856303893,-0.035,-0.739,-0.332
1775856303912,-0.027,-0.735,-0.356
1775856303932,-0.018,-0.698,-0.340
1775856303952,-0.018,-0.683,-0.345
1775856303972,0.002,-0.650,-0.388
1775856303991,0.006,-0.637,-0.453
1775856304011,0.025,-0.628,-0.507
1775856304031,0.025,-0.576,-0.539
1775856304051,0.032,-0.542,-0.554
1775856304070,0.021,-0.527,-0.601
1775856304090,0.037,-0.490,-0.678
1775856304110,0.037,-0.438,-0.728
1775856304130,0.046,-0.480,-0.761
1775856304149,0.045,-0.487,-0.749
1775856304169,0.037,-0.514,-0.776
1775856304189,0.035,-0.521,-0.786
1775856304209,0.037,-0.499,-0.774
1775856304228,0.027,-0.481,-0.759
1775856304248,0.024,-0.472,-0.766
1775856304268,0.017,-0.498,-0.781
1775856304288,0.025,-0.520,-0.788
1775856304307,0.018,-0.495,-0.819
1775856304327,0.011,-0.469,-0.845
1775856304347,0.032,-0.465,-0.851
1775856304367,0.033,-0.412,-0.859
1775856304387,0.039,-0.394,-0.891
1775856304406,0.054,-0.372,-0.949
1775856304426,0.082,-0.330,-0.976
1775856304446,0.098,-0.310,-1.008
1775856304466,0.120,-0.292,-1.030
1775856304485,0.112,-0.261,-1.053
1775856304505,0.108,-0.215,-1.064
1775856304525,0.101,-0.231,-1.063
1775856304545,0.081,-0.289,-1.059
1775856304564,0.057,-0.341,-1.056
1775856304584,0.043,-0.359,-1.005
1775856304604,0.029,-0.403,-0.941
1775856304624,0.009,-0.452,-0.935
1775856304643,0.012,-0.433,-0.911
1775856304663,0.011,-0.448,-0.866
1775856304683,0.031,-0.435,-0.837
1775856304703,0.029,-0.443,-0.797
1775856304722,0.043,-0.456,-0.803
1775856304742,0.046,-0.414,-0.770
1775856304762,0.041,-0.442,-0.748
1775856304782,0.044,-0.463,-0.714
1775856304801,0.012,-0.474,-0.671
1775856304821,0.006,-0.523,-0.659
1775856304841,0.007,-0.605,-0.669
1775856304861,-0.014,-0.618,-0.625
1775856304881,-0.025,-0.618,-0.571
1775856304900,-0.027,-0.696,-0.556
1775856304920,-0.034,-0.704,-0.529
1775856304940,-0.035,-0.686,-0.550
1775856304960,-0.048,-0.690,-0.520
1775856304979,-0.054,-0.751,-0.470
1775856304999,-0.055,-0.768,-0.466
1775856305019,-0.061,-0.711,-0.474
1775856305039,-0.064,-0.716,-0.451
1775856305058,-0.087,-0.746,-0.416
1775856305078,-0.076,-0.779,-0.423
1775856305098,-0.081,-0.850,-0.419
1775856305118,-0.075,-0.837,-0.355
1775856305137,-0.092,-0.714,-0.285
1775856305157,-0.086,-0.804,-0.337
1775856305177,-0.096,-0.898,-0.384
1775856305197,-0.088,-0.877,-0.329
1775856305216,-0.113,-0.866,-0.255
1775856305236,-0.110,-0.988,-0.310
1775856305256,-0.115,-0.961,-0.333
1775856305276,-0.124,-0.977,-0.228
1775856305295,-0.129,-0.958,-0.151
1775856305315,-0.118,-1.061,-0.237
1775856305335,-0.134,-1.028,-0.272
1775856305355,-0.144,-0.956,-0.167
1775856305374,-0.106,-0.911,-0.126
1775856305394,-0.104,-0.944,-0.177
1775856305414,-0.133,-1.071,-0.135
1775856305434,-0.127,-0.982,0.007
1775856305453,-0.115,-1.163,-0.063
1775856305473,-0.143,-1.574,-0.226
1775856305493,-0.201,-1.984,-0.064
1775856305513,-0.176,-1.346,0.426
1775856305532,-0.172,-0.962,0.493
1775856305552,-0.082,-0.917,0.407
1775856305572,-0.108,-0.798,0.457
1775856305592,-0.118,-0.832,0.522
1775856305612,-0.140,-0.954,0.420
1775856305631,-0.150,-1.052,0.327
1775856305651,-0.143,-0.950,0.345
1775856305671,-0.144,-0.993,0.398
1775856305691,-0.151,-1.114,0.449
1775856305710,-0.153,-1.203,0.482
1775856305730,-0.154,-1.095,0.532
1775856305750,-0.146,-1.072,0.570
1775856305770,-0.139,-1.041,0.596
1775856305789,-0.140,-1.124,0.656
1775856305809,-0.161,-1.144,0.723
1775856305829,-0.206,-1.244,0.782
1775856305849,-0.215,-1.509,0.753
1775856305868,-0.228,-1.445,0.885
1775856305888,-0.182,-1.403,0.996
1775856305908,-0.123,-1.226,0.826
1775856305928,-0.111,-0.932,0.563
1775856305947,-0.073,-0.788,0.412
1775856305967,-0.096,-0.829,0.242
1775856305987,-0.101,-0.996,0.054
1775856306007,-0.103,-1.026,-0.019
1775856306026,-0.146,-1.026,0.010
1775856306046,-0.143,-1.116,-0.007
1775856306066,-0.141,-1.168,-0.061
1775856306086,-0.122,-1.182,-0.059
1775856306105,-0.132,-1.229,0.021
1775856306125,-0.117,-1.212,0.058
1775856306145,-0.100,-1.161,0.066
1775856306165,-0.056,-1.104,-0.016
1775856306185,-0.074,-1.049,-0.050
1775856306204,-0.059,-1.096,-0.034
1775856306224,-0.049,-1.053,-0.032
1775856306244,-0.030,-0.920,-0.047
1775856306264,-0.043,-0.822,-0.062
1775856306283,-0.044,-0.800,-0.105
1775856306303,-0.045,-0.788,-0.171
1775856306323,-0.029,-0.721,-0.249
1775856306343,-0.037,-0.618,-0.301
1775856306362,-0.036,-0.600,-0.368
1775856306382,-0.014,-0.648,-0.433
1775856306402,0.004,-0.612,-0.469
1775856306422,-0.011,-0.584,-0.459
1775856306441,-0.019,-0.616,-0.486
1775856306461,-0.013,-0.602,-0.552
1775856306481,-0.012,-0.616,-0.582
1775856306501,-0.012,-0.632,-0.610
1775856306520,0.002,-0.589,-0.627
1775856306540,0.007,-0.542,-0.633
1775856306560,0.018,-0.527,-0.649
1775856306580,0.012,-0.505,-0.694
1775856306600,0.022,-0.532,-0.782
1775856306619,0.010,-0.511,-0.780
1775856306639,0.015,-0.509,-0.732
1775856306659,0.013,-0.477,-0.765
1775856306679,0.005,-0.464,-0.827
1775856306698,0.016,-0.488,-0.849
1775856306718,0.016,-0.459,-0.848
1775856306738,0.039,-0.406,-0.889
1775856306758,0.042,-0.396,-0.926
1775856306777,0.047,-0.359,-0.914
1775856306797,0.067,-0.341,-0.953
1775856306817,0.078,-0.316,-0.996
1775856306837,0.094,-0.343,-1.006
1775856306856,0.108,-0.373,-0.994
1775856306876,0.115,-0.350,-1.014
1775856306896,0.101,-0.278,-1.012
1775856306916,0.092,-0.308,-0.997
1775856306935,0.074,-0.356,-1.015
1775856306955,0.050,-0.347,-1.027
1775856306975,0.024,-0.367,-1.017
1775856306995,0.013,-0.418,-0.969
1775856307014,0.018,-0.482,-0.941
1775856307034,0.015,-0.473,-0.920
1775856307054,0.023,-0.457,-0.895
1775856307074,0.032,-0.454,-0.854
1775856307093,0.032,-0.451,-0.810
1775856307113,0.041,-0.474,-0.794
1775856307133,0.034,-0.478,-0.766
1775856307153,0.029,-0.508,-0.695
1775856307172,0.042,-0.562,-0.648
1775856307192,0.027,-0.533,-0.612
1775856307212,0.021,-0.558,-0.606
1775856307232,0.006,-0.558,-0.561
1775856307251,-0.008,-0.587,-0.535
1775856307271,-0.022,-0.606,-0.534
1775856307291,-0.035,-0.665,-0.565
1775856307311,-0.045,-0.680,-0.558
1775856307330,-0.048,-0.655,-0.533
1775856307350,-0.070,-0.678,-0.530
1775856307370,-0.061,-0.708,-0.542
1775856307390,-0.071,-0.717,-0.525
1775856307409,-0.083,-0.685,-0.489
1775856307429,-0.081,-0.672,-0.492
1775856307449,-0.091,-0.713,-0.541
1775856307469,-0.102,-0.718,-0.541
1775856307489,-0.098,-0.777,-0.501
1775856307508,-0.114,-0.806,-0.452
1775856307528,-0.107,-0.823,-0.458
1775856307548,-0.121,-0.895,-0.443
1775856307568,-0.085,-0.879,-0.405
1775856307587,-0.118,-0.852,-0.399
1775856307607,-0.120,-0.883,-0.386
1775856307627,-0.099,-0.907,-0.369
1775856307647,-0.103,-0.867,-0.338
1775856307666,-0.112,-0.961,-0.323
1775856307686,-0.133,-0.925,-0.280
1775856307706,-0.118,-1.009,-0.305
1775856307726,-0.083,-0.982,-0.295
1775856307745,-0.095,-1.015,-0.249
1775856307765,-0.127,-0.965,-0.177
1775856307785,-0.103,-0.987,-0.172
1775856307805,-0.105,-1.000,-0.164
1775856307824,-0.134,-1.114,-0.115
1775856307844,-0.146,-1.362,-0.151
1775856307864,-0.141,-1.721,-0.327
1775856307884,-0.106,-1.572,-0.203
1775856307903,-0.175,-1.189,0.229
1775856307923,-0.127,-1.133,0.421
1775856307943,-0.095,-0.910,0.274
1775856307963,-0.100,-0.800,0.208
1775856307982,-0.111,-0.872,0.292
1775856308002,-0.133,-0.854,0.333
1775856308022,-0.148,-0.901,0.328
1775856308042,-0.173,-1.037,0.320
1775856308061,-0.145,-1.146,0.296
1775856308081,-0.146,-1.009,0.254
1775856308101,-0.136,-0.950,0.325
1775856308121,-0.190,-1.072,0.465
1775856308140,-0.165,-1.264,0.535
1775856308160,-0.183,-1.095,0.558
1775856308180,-0.202,-1.179,0.641
1775856308200,-0.238,-1.347,0.753
1775856308219,-0.248,-1.404,0.855
1775856308239,-0.281,-1.436,0.966
1775856308259,-0.270,-1.306,0.944
1775856308279,-0.253,-1.243,0.745
1775856308299,-0.193,-1.347,0.529
1775856308318,-0.171,-1.062,0.440
1775856308338,-0.143,-0.836,0.412
1775856308358,-0.134,-0.843,0.308
1775856308378,-0.121,-1.008,0.111
1775856308397,-0.095,-1.054,0.018
1775856308417,-0.113,-1.003,0.067
1775856308437,-0.118,-1.012,-0.039
1775856308457,-0.147,-1.024,-0.137
1775856308476,-0.174,-1.201,-0.122
1775856308496,-0.159,-1.254,-0.110
1775856308516,-0.156,-1.180,-0.056
1775856308536,-0.159,-1.208,0.021
1775856308555,-0.148,-1.174,0.067
1775856308575,-0.119,-1.088,-0.015
1775856308595,-0.098,-1.076,-0.084
1775856308615,-0.093,-1.003,-0.069
1775856308634,-0.070,-0.975,-0.086
1775856308654,-0.052,-0.898,-0.124
1775856308674,-0.035,-0.758,-0.165
1775856308694,-0.033,-0.694,-0.215
1775856308713,-0.030,-0.749,-0.273
1775856308733,-0.022,-0.704,-0.295
1775856308753,-0.031,-0.685,-0.340
1775856308773,-0.007,-0.624,-0.358
1775856308792,-0.030,-0.616,-0.366
1775856308812,-0.014,-0.640,-0.448
1775856308832,-0.027,-0.593,-0.510
1775856308852,-0.024,-0.643,-0.557
1775856308871,-0.033,-0.633,-0.592
1775856308891,-0.022,-0.624,-0.625
1775856308911,-0.018,-0.716,-0.688
1775856308931,-0.003,-0.688,-0.718
1775856308950,-0.001,-0.612,-0.698
1775856308970,0.004,-0.613,-0.680
1775856308990,0.025,-0.582,-0.689
1775856309010,0.005,-0.523,-0.688
1775856309029,0.011,-0.516,-0.714
1775856309049,0.017,-0.555,-0.727
1775856309069,0.022,-0.536,-0.727
1775856309089,0.032,-0.474,-0.765
1775856309108,0.025,-0.478,-0.800
1775856309128,0.031,-0.529,-0.806
1775856309148,0.037,-0.526,-0.827
1775856309168,0.040,-0.479,-0.832
1775856309187,0.036,-0.492,-0.820
1775856309207,0.033,-0.499,-0.830
1775856309227,0.027,-0.447,-0.844
1775856309247,0.028,-0.463,-0.843
1775856309267,0.029,-0.490,-0.877
1775856309286,0.026,-0.462,-0.908
1775856309306,0.022,-0.475,-0.906
1775856309326,0.031,-0.483,-0.892
1775856309346,0.027,-0.455,-0.924
1775856309365,0.026,-0.464,-0.943
1775856309385,0.018,-0.461,-0.912
1775856309405,0.009,-0.432,-0.917
1775856309425,0.007,-0.421,-0.959
1775856309444,-0.018,-0.446,-0.954
1775856309464,-0.028,-0.494,-0.915
1775856309484,-0.025,-0.516,-0.913
1775856309504,-0.023,-0.513,-0.884
1775856309523,-0.015,-0.543,-0.860
1775856309543,-0.024,-0.505,-0.829
1775856309563,-0.015,-0.510,-0.809
1775856309583,-0.010,-0.512,-0.763
1775856309602,-0.001,-0.527,-0.758
1775856309622,0.002,-0.525,-0.764
1775856309642,0.001,-0.504,-0.732
1775856309662,0.007,-0.566,-0.719
1775856309681,0.003,-0.561,-0.708
1775856309701,0.001,-0.549,-0.677
1775856309721,-0.010,-0.597,-0.637
1775856309741,-0.018,-0.615,-0.608
1775856309760,-0.022,-0.641,-0.596
1775856309780,-0.039,-0.673,-0.573
1775856309800,-0.035,-0.737,-0.590
1775856309820,-0.036,-0.751,-0.613
1775856309839,-0.059,-0.719,-0.563
1775856309859,-0.049,-0.735,-0.546
1775856309879,-0.057,-0.800,-0.533
1775856309899,-0.052,-0.724,-0.500
1775856309918,-0.063,-0.738,-0.484
1775856309938,-0.053,-0.816,-0.480
1775856309958,-0.067,-0.707,-0.450
1775856309978,-0.075,-0.726,-0.467
1775856309997,-0.064,-0.757,-0.464
1775856310017,-0.078,-0.771,-0.451
1775856310037,-0.075,-0.782,-0.436
1775856310057,-0.071,-0.798,-0.434
1775856310076,-0.085,-0.716,-0.386
1775856310096,-0.086,-0.789,-0.382
1775856310116,-0.094,-0.869,-0.365
1775856310136,-0.078,-0.959,-0.347
1775856310155,-0.089,-0.815,-0.297
1775856310175,-0.106,-0.847,-0.274
1775856310195,-0.107,-0.940,-0.258
1775856310215,-0.089,-1.048,-0.320
1775856310235,-0.098,-0.924,-0.319
1775856310254,-0.159,-0.927,-0.241
1775856310274,-0.129,-1.067,-0.245
1775856310294,-0.121,-1.124,-0.292
1775856310314,-0.116,-1.065,-0.242
1775856310333,-0.146,-0.977,-0.137
1775856310353,-0.142,-0.967,-0.090
1775856310373,-0.125,-1.069,-0.164
1775856310393,-0.168,-1.045,-0.238
1775856310412,-0.187,-1.198,-0.240
1775856310432,-0.202,-1.565,-0.225
1775856310452,-0.103,-1.400,-0.140
1775856310472,-0.139,-0.925,0.172
1775856310491,-0.116,-1.160,0.493
1775856310511,-0.077,-0.974,0.495
1775856310531,-0.079,-0.821,0.341
1775856310551,-0.089,-0.852,0.397
1775856310570,-0.096,-0.962,0.491
1775856310590,-0.106,-1.076,0.472
1775856310610,-0.087,-0.983,0.489
1775856310630,-0.097,-1.059,0.557
1775856310649,-0.093,-1.160,0.556
1775856310669,-0.094,-1.226,0.601
1775856310689,-0.109,-1.097,0.682
1775856310709,-0.123,-1.061,0.763
1775856310728,-0.159,-1.158,0.728
1775856310748,-0.162,-1.230,0.713
1775856310768,-0.121,-1.319,0.804
1775856310788,-0.176,-1.270,0.924
1775856310807,-0.108,-1.271,0.926
1775856310827,-0.109,-1.231,0.779
1775856310847,-0.129,-1.137,0.628
1775856310867,-0.100,-0.990,0.436
1775856310886,-0.138,-0.920,0.359
1775856310906,-0.112,-0.957,0.250
1775856310926,-0.114,-0.945,0.089
1775856310946,-0.144,-1.032,-0.024
1775856310965,-0.156,-1.153,-0.071
1775856310985,-0.139,-1.181,-0.089
1775856311005,-0.165,-1.218,-0.052
1775856311025,-0.123,-1.331,-0.040
1775856311044,-0.108,-1.182,-0.006
1775856311064,-0.091,-1.187,-0.030
1775856311084,-0.056,-1.237,-0.076
1775856311104,-0.052,-1.082,-0.056
1775856311123,-0.038,-1.023,-0.080
1775856311143,-0.023,-0.981,-0.112
1775856311163,-0.014,-0.912,-0.122
1775856311183,-0.010,-0.910,-0.133
1775856311202,-0.012,-0.867,-0.139
1775856311222,0.023,-0.806,-0.185
1775856311242,0.031,-0.724,-0.221
1775856311262,0.009,-0.707,-0.240
1775856311281,0.019,-0.714,-0.267
1775856311301,0.016,-0.681,-0.316
1775856311321,-0.001,-0.642,-0.333
1775856311341,-0.022,-0.683,-0.358
1775856311360,0.001,-0.728,-0.455
1775856311380,-0.009,-0.678,-0.510
1775856311400,0.007,-0.701,-0.467
1775856311420,-0.026,-0.713,-0.419
1775856311439,0.010,-0.703,-0.515
1775856311459,-0.007,-0.650,-0.541
1775856311479,-0.002,-0.677,-0.526
1775856311499,-0.002,-0.678,-0.563
1775856311518,0.005,-0.640,-0.621
1775856311538,-0.012,-0.602,-0.611
1775856311558,-0.021,-0.603,-0.597
1775856311578,-0.012,-0.643,-0.637
1775856311598,-0.020,-0.647,-0.655
1775856311617,-0.043,-0.601,-0.627
1775856311637,-0.037,-0.565,-0.652
1775856311657,-0.031,-0.605,-0.702
1775856311677,-0.031,-0.611,-0.739
1775856311696,-0.038,-0.563,-0.740
1775856311716,-0.033,-0.551,-0.771
1775856311736,-0.009,-0.510,-0.820
1775856311756,-0.018,-0.513,-0.857
1775856311775,-0.026,-0.498,-0.864
1775856311795,-0.027,-0.481,-0.880
1775856311815,-0.014,-0.576,-0.946
1775856311835,-0.014,-0.528,-0.935
1775856311854,-0.012,-0.470,-0.936
1775856311874,-0.014,-0.471,-0.991
1775856311894,-0.015,-0.437,-0.998
1775856311914,-0.024,-0.429,-1.000
1775856311933,-0.035,-0.465,-0.999
1775856311953,-0.056,-0.506,-0.943
1775856311973,-0.044,-0.571,-0.893
1775856311993,-0.049,-0.556,-0.851
1775856312012,-0.037,-0.563,-0.828
1775856312032,-0.033,-0.570,-0.801
1775856312052,-0.020,-0.564,-0.774
1775856312072,-0.009,-0.568,-0.765
1775856312091,0.004,-0.560,-0.765
1775856312111,0.001,-0.545,-0.767
1775856312131,0.002,-0.568,-0.793
1775856312151,0.013,-0.600,-0.799
1775856312170,-0.001,-0.554,-0.749
1775856312190,-0.009,-0.522,-0.729
1775856312210,-0.006,-0.566,-0.731
1775856312230,0.001,-0.596,-0.692
1775856312249,-0.003,-0.571,-0.605
1775856312269,-0.003,-0.603,-0.564
1775856312289,0.004,-0.627,-0.540
1775856312309,0.015,-0.671,-0.514
1775856312328,0.002,-0.681,-0.499
1775856312348,0.009,-0.651,-0.511
1775856312368,-0.007,-0.677,-0.511
1775856312388,-0.005,-0.737,-0.514
1775856312407,-0.004,-0.752,-0.511
1775856312427,-0.012,-0.706,-0.487
1775856312447,-0.027,-0.690,-0.448
1775856312467,-0.021,-0.721,-0.412
1775856312487,-0.031,-0.724,-0.389
1775856312506,-0.027,-0.675,-0.362
1775856312526,-0.038,-0.764,-0.337
1775856312546,-0.040,-0.789,-0.313
1775856312566,-0.060,-0.730,-0.325
1775856312585,-0.075,-0.749,-0.316
1775856312605,-0.069,-0.856,-0.300
1775856312625,-0.069,-0.908,-0.339
1775856312645,-0.064,-0.865,-0.372
1775856312664,-0.065,-0.885,-0.298
1775856312684,-0.084,-0.976,-0.244
1775856312704,-0.065,-0.982,-0.320
1775856312724,-0.072,-0.988,-0.311
1775856312743,-0.075,-1.007,-0.184
1775856312763,-0.089,-0.989,-0.119
1775856312783,-0.065,-1.149,-0.188
1775856312803,-0.083,-0.997,-0.146
1775856312822,-0.075,-1.060,-0.045
1775856312842,-0.083,-1.137,0.001
1775856312862,-0.096,-1.517,-0.084
1775856312882,-0.118,-2.126,-0.265
1775856312901,-0.076,-1.684,-0.215
1775856312921,-0.098,-0.957,0.168
1775856312941,-0.002,-0.917,0.572
1775856312961,0.022,-0.727,0.602
1775856312980,0.003,-0.537,0.412
1775856313000,-0.059,-0.826,0.499
1775856313020,-0.067,-1.036,0.530
1775856313040,-0.082,-0.857,0.357
1775856313059,-0.089,-0.902,0.441
1775856313079,-0.101,-1.016,0.520
1775856313099,-0.087,-1.037,0.444
1775856313119,-0.105,-1.028,0.486
1775856313138,-0.117,-1.066,0.529
1775856313158,-0.132,-1.022,0.556
1775856313178,-0.148,-1.008,0.653
1775856313198,-0.183,-1.073,0.726
1775856313217,-0.168,-1.056,0.685
1775856313237,-0.154,-1.072,0.655
1775856313257,-0.152,-0.984,0.616
1775856313277,-0.139,-0.974,0.630
1775856313316,-0.135,-1.082,0.789
1775856313336,-0.134,-1.006,0.742
1775856313356,-0.111,-1.235,0.823
1775856313375,-0.111,-1.251,0.902
1775856313395,-0.102,-1.100,0.763
1775856313415,-0.097,-1.059,0.600
1775856313435,-0.100,-1.134,0.577
1775856313454,-0.095,-0.988,0.424
1775856313474,-0.115,-1.003,0.281
1775856313494,-0.121,-0.924,0.262
1775856313514,-0.145,-0.825,0.220
1775856313533,-0.155,-0.991,0.027
1775856313553,-0.157,-0.984,-0.111
1775856313573,-0.176,-0.959,-0.056
1775856313593,-0.169,-1.104,-0.032
1775856313612,-0.179,-1.125,-0.107
1775856313632,-0.142,-1.227,-0.114
1775856313652,-0.133,-1.283,0.036
1775856313672,-0.117,-1.227,0.095
1775856313691,-0.113,-1.118,-0.010
1775856313711,-0.096,-1.176,-0.024
1775856313731,-0.102,-1.166,0.069
1775856313751,-0.087,-1.034,0.034
1775856313770,-0.083,-0.947,-0.038
1775856313790,-0.095,-0.952,-0.056
1775856313810,-0.090,-0.977,-0.072
1775856313829,-0.082,-0.927,-0.097
1775856313849,-0.065,-0.801,-0.131
1775856313869,-0.049,-0.725,-0.197
1775856313889,-0.030,-0.690,-0.303
1775856313908,-0.035,-0.690,-0.392
1775856313928,-0.015,-0.690,-0.431
1775856313948,-0.025,-0.678,-0.440
1775856313968,-0.006,-0.704,-0.497
1775856313987,-0.008,-0.692,-0.520
1775856314007,0.005,-0.713,-0.496
1775856314027,0.013,-0.739,-0.529
1775856314047,0.032,-0.709,-0.580
1775856314066,0.016,-0.706,-0.571
1775856314086,0.021,-0.701,-0.534
1775856314106,0.020,-0.652,-0.538
1775856314126,0.028,-0.647,-0.590
1775856314145,0.019,-0.643,-0.637
1775856314165,0.005,-0.622,-0.650
1775856314185,0.004,-0.627,-0.660
1775856314205,0.004,-0.584,-0.664
1775856314224,0.008,-0.580,-0.682
1775856314244,-0.011,-0.602,-0.716
1775856314264,0.002,-0.586,-0.712
1775856314284,0.005,-0.580,-0.711
1775856314303,-0.006,-0.571,-0.717
1775856314323,-0.004,-0.565,-0.727
1775856314343,0.004,-0.551,-0.732
1775856314363,0.008,-0.525,-0.746
1775856314382,0.017,-0.532,-0.745
1775856314402,-0.018,-0.520,-0.723
1775856314422,-0.025,-0.503,-0.773
1775856314442,-0.029,-0.497,-0.815
1775856314461,-0.034,-0.497,-0.824
1775856314481,-0.024,-0.494,-0.863
1775856314501,-0.022,-0.475,-0.947
1775856314521,-0.019,-0.429,-1.024
1775856314540,-0.025,-0.412,-1.087
1775856314560,-0.032,-0.443,-1.094
1775856314580,-0.055,-0.486,-1.027
1775856314600,-0.066,-0.556,-0.965
1775856314619,-0.042,-0.580,-0.883
1775856314639,-0.049,-0.578,-0.792
1775856314659,-0.041,-0.576,-0.712
1775856314679,-0.038,-0.613,-0.697
1775856314698,-0.035,-0.627,-0.704
1775856314718,-0.030,-0.639,-0.700
1775856314738,-0.024,-0.646,-0.738
1775856314758,-0.032,-0.636,-0.766
1775856314777,-0.030,-0.632,-0.775
1775856314797,-0.016,-0.677,-0.812
1775856314817,-0.021,-0.611,-0.790
1775856314837,-0.009,-0.610,-0.765
1775856314856,-0.012,-0.595,-0.759
1775856314876,0.009,-0.593,-0.778
1775856314896,0.006,-0.583,-0.774
1775856314916,0.017,-0.574,-0.789
1775856314935,0.007,-0.541,-0.782
1775856314955,0.017,-0.637,-0.837
1775856314975,0.007,-0.590,-0.830
1775856314995,0.002,-0.566,-0.822
1775856315014,0.007,-0.629,-0.858
1775856315034,0.001,-0.619,-0.816
1775856315054,-0.009,-0.677,-0.794
1775856315074,-0.005,-0.663,-0.768
1775856315093,-0.009,-0.636,-0.696
1775856315113,-0.016,-0.701,-0.705
1775856315133,-0.007,-0.670,-0.712
1775856315153,-0.017,-0.681,-0.660
1775856315172,0.001,-0.689,-0.654
1775856315192,-0.001,-0.674,-0.687
1775856315212,0.011,-0.627,-0.665
1775856315232,-0.005,-0.679,-0.669
1775856315251,0.036,-0.703,-0.721
1775856315271,0.023,-0.636,-0.641
1775856315291,0.028,-0.749,-0.631
1775856315311,0.040,-0.731,-0.613
1775856315330,0.032,-0.697,-0.542
1775856315350,0.033,-0.775,-0.540
1775856315370,0.038,-0.741,-0.547
1775856315390,0.035,-0.726,-0.524
1775856315409,0.038,-0.683,-0.480
1775856315429,0.052,-0.773,-0.546
1775856315449,0.026,-0.763,-0.513
1775856315469,0.031,-0.813,-0.461
1775856315488,0.023,-0.804,-0.450
1775856315508,0.028,-0.815,-0.458
1775856315528,-0.003,-0.889,-0.402
1775856315548,0.023,-0.963,-0.351
1775856315567,0.014,-0.844,-0.331
1775856315587,0.032,-0.979,-0.413
1775856315607,0.019,-0.927,-0.336
1775856315627,0.001,-0.976,-0.285
1775856315646,0.001,-1.021,-0.273
1775856315666,0.018,-1.000,-0.267
1775856315686,0.021,-0.914,-0.241
1775856315706,0.052,-0.951,-0.256
1775856315725,0.039,-0.890,-0.233
1775856315745,0.044,-0.943,-0.212
1775856315765,0.022,-1.192,-0.190
1775856315785,0.066,-1.247,-0.173
1775856315804,0.075,-0.960,-0.170
1775856315824,0.106,-0.954,-0.265
1775856315844,0.121,-0.957,-0.336
1775856315864,0.111,-1.093,-0.326
1775856315883,0.119,-1.083,-0.267
1775856315903,0.135,-0.865,-0.297
1775856315923,0.144,-0.974,-0.432
1775856315943,0.169,-1.052,-0.448
1775856315962,0.149,-0.894,-0.353
1775856315982,0.165,-0.775,-0.359
1775856316002,0.170,-0.905,-0.518
1775856316022,0.193,-1.114,-0.637
1775856316041,0.190,-0.989,-0.498
1775856316061,0.170,-0.984,-0.427
1775856316081,0.181,-1.067,-0.531
1775856316101,0.197,-1.159,-0.605
1775856316120,0.199,-1.109,-0.529
1775856316140,0.181,-1.146,-0.428
1775856316160,0.174,-1.033,-0.417
1775856316180,0.150,-1.005,-0.482
1775856316199,0.149,-1.116,-0.472
1775856316219,0.130,-1.068,-0.418
1775856316239,0.095,-0.994,-0.446
1775856316259,0.106,-0.992,-0.506
1775856316278,0.077,-1.066,-0.494
1775856316298,0.079,-1.130,-0.476
1775856316318,0.058,-1.040,-0.453
1775856316338,0.069,-1.004,-0.442
1775856316357,0.060,-0.970,-0.459
1775856316377,0.056,-0.992,-0.490
1775856316397,0.053,-0.993,-0.489
1775856316417,0.056,-0.921,-0.487
1775856316437,0.038,-0.904,-0.479
1775856316456,0.048,-0.929,-0.482
1775856316476,0.032,-0.864,-0.447
1775856316496,0.044,-0.904,-0.475
1775856316516,0.020,-0.762,-0.417
1775856316535,0.021,-0.733,-0.438
1775856316555,0.009,-0.747,-0.547
1775856316575,0.010,-0.734,-0.558
1775856316595,0.013,-0.735,-0.533
1775856316614,-0.010,-0.649,-0.556
1775856316634,0.008,-0.649,-0.597
1775856316654,0.002,-0.666,-0.605
1775856316674,0.000,-0.647,-0.608
1775856316693,0.004,-0.613,-0.649
1775856316713,-0.028,-0.605,-0.670
1775856316733,-0.018,-0.668,-0.695
1775856316753,-0.024,-0.630,-0.684
1775856316772,-0.032,-0.609,-0.680
1775856316792,-0.026,-0.604,-0.698
1775856316812,-0.036,-0.582,-0.714
1775856316832,-0.030,-0.594,-0.708
1775856316851,-0.030,-0.647,-0.728
1775856316871,-0.041,-0.583,-0.718
1775856316891,-0.028,-0.564,-0.707
1775856316911,-0.034,-0.553,-0.715
1775856316931,-0.034,-0.569,-0.757
1775856316950,-0.036,-0.532,-0.758
1775856316970,-0.032,-0.567,-0.762
1775856316990,-0.023,-0.589,-0.800
1775856317010,-0.036,-0.522,-0.800
1775856317029,-0.012,-0.536,-0.805
1775856317049,-0.016,-0.488,-0.836
1775856317069,-0.016,-0.453,-0.882
1775856317089,-0.009,-0.487,-0.879
1775856317108,-0.017,-0.434,-0.863
1775856317128,0.004,-0.441,-0.925
1775856317148,0.026,-0.458,-0.975
1775856317168,0.033,-0.377,-0.979
1775856317187,0.025,-0.357,-1.010
1775856317207,0.017,-0.333,-1.022
1775856317227,-0.001,-0.388,-1.035
1775856317247,-0.021,-0.463,-0.986
1775856317266,-0.029,-0.495,-0.967
1775856317286,-0.036,-0.436,-0.940
1775856317306,-0.043,-0.506,-0.897
1775856317326,-0.044,-0.538,-0.839
1775856317345,-0.039,-0.481,-0.837
1775856317365,-0.055,-0.466,-0.847
1775856317385,-0.044,-0.561,-0.853
1775856317405,-0.043,-0.532,-0.842
1775856317424,-0.054,-0.495,-0.860
1775856317444,-0.039,-0.524,-0.857
1775856317464,-0.048,-0.517,-0.867
1775856317484,-0.035,-0.507,-0.885
1775856317503,-0.024,-0.543,-0.859
1775856317523,-0.034,-0.502,-0.838
1775856317543,-0.025,-0.513,-0.855
1775856317563,-0.030,-0.503,-0.858
1775856317582,-0.019,-0.542,-0.855
1775856317602,-0.028,-0.553,-0.840
1775856317622,-0.020,-0.556,-0.865
1775856317642,-0.005,-0.544,-0.842
1775856317661,0.000,-0.551,-0.826
1775856317681,-0.015,-0.541,-0.826
1775856317701,-0.014,-0.612,-0.837
1775856317721,-0.022,-0.597,-0.768
1775856317740,-0.022,-0.575,-0.747
1775856317760,-0.015,-0.615,-0.736
1775856317800,-0.022,-0.563,-0.704
1775856317819,-0.010,-0.635,-0.739
1775856317839,0.008,-0.682,-0.715
1775856317859,0.033,-0.667,-0.663
1775856317879,0.062,-0.619,-0.632
1775856317898,0.103,-0.660,-0.625
1775856317918,0.129,-0.703,-0.603
1775856317938,0.135,-0.648,-0.576
1775856317958,0.154,-0.616,-0.590
1775856317977,0.154,-0.649,-0.608
1775856317997,0.160,-0.715,-0.614
1775856318017,0.137,-0.738,-0.583
1775856318037,0.130,-0.706,-0.564
1775856318056,0.122,-0.731,-0.572
1775856318076,0.128,-0.747,-0.534
1775856318096,0.126,-0.825,-0.511
1775856318116,0.126,-0.813,-0.482
1775856318135,0.123,-0.780,-0.467
1775856318155,0.118,-0.752,-0.456
1775856318175,0.122,-0.807,-0.463
1775856318195,0.125,-0.791,-0.451
1775856318214,0.151,-0.797,-0.446
1775856318234,0.143,-0.849,-0.420
1775856318254,0.178,-0.843,-0.432
1775856318274,0.181,-0.770,-0.410
1775856318293,0.194,-0.861,-0.387
1775856318313,0.194,-0.900,-0.377
1775856318333,0.182,-0.932,-0.383
1775856318353,0.181,-0.956,-0.350
1775856318372,0.188,-1.100,-0.291
1775856318392,0.191,-1.163,-0.224
1775856318412,0.192,-1.060,-0.211
1775856318432,0.188,-1.002,-0.231
1775856318451,0.146,-0.978,-0.170
1775856318471,0.160,-1.141,-0.152
1775856318491,0.185,-1.312,-0.150
1775856318511,0.190,-1.041,-0.096
1775856318530,0.203,-0.965,-0.091
1775856318550,0.176,-0.950,-0.076
1775856318570,0.216,-0.967,-0.125
1775856318590,0.237,-1.017,-0.196
1775856318610,0.278,-1.058,-0.176
1775856318629,0.281,-0.878,-0.124
1775856318649,0.341,-0.969,-0.258
1775856318669,0.351,-0.913,-0.262
1775856318689,0.397,-0.896,-0.214
1775856318708,0.412,-1.084,-0.219
1775856318728,0.450,-0.944,-0.232
1775856318748,0.487,-0.933,-0.301
1775856318768,0.512,-1.040,-0.212
1775856318787,0.558,-1.191,-0.138
1775856318807,0.565,-1.043,-0.179
1775856318827,0.551,-0.824,-0.218
1775856318847,0.501,-1.037,-0.183
1775856318866,0.460,-1.244,-0.157
1775856318886,0.432,-1.119,-0.210
1775856318906,0.406,-1.073,-0.231
1775856318926,0.370,-1.186,-0.178
1775856318945,0.371,-1.158,-0.178
1775856318965,0.321,-1.007,-0.189
1775856318985,0.274,-1.070,-0.198
1775856319005,0.242,-1.129,-0.230
1775856319024,0.220,-1.113,-0.284
1775856319044,0.205,-1.056,-0.263
1775856319064,0.194,-1.033,-0.233
1775856319084,0.212,-1.084,-0.255
1775856319103,0.215,-1.065,-0.242
1775856319123,0.200,-0.986,-0.209
1775856319143,0.194,-0.926,-0.231
1775856319163,0.190,-0.962,-0.289
1775856319182,0.170,-0.987,-0.331
1775856319202,0.175,-0.962,-0.356
1775856319222,0.145,-0.924,-0.337
1775856319242,0.138,-0.879,-0.320
1775856319261,0.151,-0.838,-0.359
1775856319281,0.129,-0.832,-0.382
1775856319301,0.116,-0.832,-0.387
1775856319321,0.097,-0.844,-0.432
1775856319340,0.084,-0.815,-0.465
1775856319360,0.078,-0.694,-0.426
1775856319380,0.072,-0.675,-0.466
1775856319400,0.053,-0.796,-0.563
1775856319419,0.046,-0.778,-0.578
1775856319439,0.028,-0.735,-0.497
1775856319459,0.032,-0.732,-0.520
1775856319479,0.038,-0.692,-0.601
1775856319498,0.028,-0.704,-0.631
1775856319518,0.028,-0.712,-0.614
1775856319538,0.013,-0.701,-0.615
1775856319558,0.016,-0.703,-0.651
1775856319577,-0.008,-0.644,-0.638
1775856319597,0.004,-0.638,-0.653
1775856319617,-0.029,-0.669,-0.675
1775856319637,-0.011,-0.697,-0.679
1775856319656,-0.032,-0.730,-0.641
1775856319676,-0.033,-0.695,-0.625
1775856319696,-0.028,-0.660,-0.625
1775856319716,-0.044,-0.657,-0.658
1775856319736,-0.039,-0.643,-0.684
1775856319755,-0.049,-0.650,-0.687
1775856319775,-0.063,-0.658,-0.657
1775856319795,-0.067,-0.588,-0.667
1775856319815,-0.071,-0.607,-0.733
1775856319834,-0.070,-0.617,-0.721
1775856319854,-0.073,-0.654,-0.715
1775856319874,-0.081,-0.585,-0.742
1775856319894,-0.066,-0.584,-0.786
1775856319913,-0.075,-0.563,-0.816
1775856319933,-0.079,-0.579,-0.837
1775856319953,-0.073,-0.578,-0.877
1775856319973,-0.067,-0.527,-0.892
1775856319992,-0.050,-0.527,-0.896
1775856320012,-0.038,-0.517,-0.909
1775856320032,-0.009,-0.488,-0.954
1775856320052,0.007,-0.495,-0.946
1775856320071,0.011,-0.466,-0.898
1775856320091,0.006,-0.415,-0.907
1775856320111,-0.012,-0.469,-0.944
1775856320131,-0.022,-0.484,-0.922
1775856320150,-0.031,-0.501,-0.897
1775856320170,-0.046,-0.533,-0.878
1775856320190,-0.046,-0.552,-0.862
1775856320210,-0.044,-0.561,-0.812
1775856320229,-0.047,-0.549,-0.759
1775856320249,-0.036,-0.545,-0.759
1775856320269,-0.023,-0.578,-0.770
1775856320289,-0.015,-0.564,-0.767
1775856320309,-0.018,-0.519,-0.780
1775856320328,-0.006,-0.553,-0.820
1775856320348,-0.021,-0.544,-0.820
1775856320368,-0.018,-0.556,-0.809
1775856320388,-0.040,-0.549,-0.788
1775856320407,-0.034,-0.552,-0.789
1775856320427,-0.045,-0.551,-0.790
1775856320447,-0.054,-0.541,-0.778
1775856320467,-0.063,-0.561,-0.748
1775856320486,-0.074,-0.544,-0.730
1775856320506,-0.074,-0.551,-0.782
1775856320526,-0.111,-0.574,-0.757
1775856320546,-0.117,-0.598,-0.715
1775856320565,-0.136,-0.591,-0.715
1775856320585,-0.167,-0.584,-0.705
1775856320605,-0.188,-0.599,-0.681
1775856320625,-0.211,-0.604,-0.660
1775856320644,-0.224,-0.618,-0.681
1775856320664,-0.240,-0.628,-0.667
1775856320684,-0.256,-0.645,-0.637
1775856320704,-0.268,-0.644,-0.626
1775856320723,-0.276,-0.650,-0.612
1775856320743,-0.291,-0.687,-0.597
1775856320763,-0.288,-0.659,-0.596
1775856320783,-0.307,-0.650,-0.587
1775856320802,-0.341,-0.707,-0.577
1775856320822,-0.362,-0.716,-0.586
1775856320842,-0.361,-0.723,-0.610
1775856320862,-0.367,-0.729,-0.599
1775856320882,-0.367,-0.718,-0.578
1775856320901,-0.385,-0.697,-0.585
1775856320921,-0.386,-0.730,-0.635
1775856320941,-0.367,-0.690,-0.612
1775856320961,-0.396,-0.773,-0.586
1775856320980,-0.416,-0.833,-0.595
1775856321000,-0.410,-0.855,-0.609
1775856321020,-0.421,-0.840,-0.555
1775856321040,-0.369,-0.869,-0.564
1775856321059,-0.381,-0.725,-0.510
1775856321079,-0.372,-0.834,-0.538
1775856321099,-0.371,-0.795,-0.557
1775856321119,-0.372,-0.768,-0.550
1775856321138,-0.367,-0.778,-0.533
1775856321158,-0.382,-0.829,-0.570
1775856321178,-0.399,-0.811,-0.557
1775856321198,-0.408,-0.854,-0.486
1775856321218,-0.399,-0.853,-0.480
1775856321237,-0.443,-0.854,-0.499
1775856321257,-0.411,-0.901,-0.487
1775856321277,-0.405,-0.823,-0.442
1775856321297,-0.398,-0.807,-0.426
1775856321316,-0.447,-0.817,-0.432
1775856321336,-0.393,-0.836,-0.510
1775856321356,-0.424,-0.745,-0.503
1775856321376,-0.434,-0.826,-0.499
1775856321395,-0.407,-0.800,-0.501
1775856321415,-0.421,-0.749,-0.532
1775856321435,-0.419,-0.746,-0.544
1775856321455,-0.407,-0.788,-0.548
1775856321474,-0.395,-0.835,-0.552
1775856321494,-0.435,-0.773,-0.556
1775856321514,-0.463,-0.760,-0.576
1775856321534,-0.456,-0.815,-0.579
1775856321553,-0.493,-0.853,-0.589
1775856321573,-0.505,-0.842,-0.594
1775856321593,-0.519,-0.890,-0.601
1775856321613,-0.525,-0.936,-0.594
1775856321632,-0.509,-0.931,-0.583
1775856321652,-0.519,-0.878,-0.544
1775856321672,-0.507,-0.834,-0.528
1775856321692,-0.498,-0.858,-0.556
1775856321711,-0.497,-0.839,-0.557
1775856321731,-0.490,-0.821,-0.552
1775856321751,-0.471,-0.845,-0.553
1775856321771,-0.472,-0.852,-0.550
1775856321791,-0.457,-0.863,-0.544
1775856321810,-0.411,-0.842,-0.536
1775856321830,-0.411,-0.803,-0.518
1775856321850,-0.387,-0.790,-0.544
1775856321870,-0.375,-0.775,-0.561
1775856321889,-0.372,-0.819,-0.563
1775856321909,-0.368,-0.816,-0.544
1775856321929,-0.358,-0.831,-0.554
1775856321949,-0.358,-0.798,-0.583
1775856321968,-0.349,-0.759,-0.567
1775856321988,-0.328,-0.746,-0.583
1775856322008,-0.337,-0.817,-0.588
1775856322028,-0.323,-0.796,-0.553
1775856322047,-0.306,-0.700,-0.575
1775856322067,-0.293,-0.724,-0.594
1775856322087,-0.275,-0.754,-0.561
1775856322107,-0.278,-0.665,-0.558
1775856322126,-0.246,-0.709,-0.626
1775856322146,-0.237,-0.718,-0.588
1775856322166,-0.226,-0.679,-0.548
1775856322186,-0.189,-0.678,-0.613
1775856322205,-0.140,-0.644,-0.674
1775856322225,-0.128,-0.572,-0.630
1775856322245,-0.106,-0.552,-0.626
1775856322265,-0.078,-0.546,-0.715
1775856322284,-0.063,-0.556,-0.722
1775856322304,-0.079,-0.536,-0.658
1775856322324,-0.069,-0.515,-0.700
1775856322344,-0.058,-0.532,-0.738
1775856322363,-0.058,-0.551,-0.722
1775856322383,-0.051,-0.558,-0.732
1775856322403,-0.062,-0.487,-0.768
1775856322423,-0.040,-0.509,-0.793
1775856322442,-0.033,-0.549,-0.783
1775856322462,-0.033,-0.489,-0.828
1775856322482,-0.021,-0.517,-0.869
1775856322502,-0.027,-0.515,-0.814
1775856322522,-0.035,-0.480,-0.826
1775856322541,-0.032,-0.447,-0.874
1775856322561,-0.034,-0.451,-0.858
1775856322581,-0.033,-0.484,-0.866
1775856322601,-0.031,-0.466,-0.875
1775856322620,-0.024,-0.443,-0.861
1775856322640,-0.001,-0.405,-0.855
1775856322660,0.017,-0.416,-0.927
1775856322680,0.018,-0.358,-0.987
1775856322699,0.004,-0.309,-1.029
1775856322719,-0.005,-0.339,-1.038
1775856322739,-0.019,-0.414,-1.041
1775856322759,-0.030,-0.475,-1.007
1775856322778,-0.037,-0.483,-0.945
1775856322798,-0.022,-0.486,-0.913
1775856322818,-0.014,-0.502,-0.856
1775856322838,-0.016,-0.466,-0.819
1775856322857,-0.013,-0.517,-0.853
1775856322877,-0.014,-0.544,-0.861
1775856322897,-0.027,-0.501,-0.839
1775856322917,-0.026,-0.494,-0.854
1775856322936,-0.033,-0.527,-0.869
1775856322956,-0.036,-0.525,-0.858
1775856322976,-0.037,-0.517,-0.823
1775856322996,-0.038,-0.541,-0.806
1775856323016,-0.037,-0.560,-0.819
1775856323035,-0.037,-0.564,-0.818
1775856323055,-0.035,-0.556,-0.796
1775856323075,-0.019,-0.559,-0.800
1775856323095,-0.029,-0.544,-0.805
1775856323114,-0.001,-0.584,-0.835
1775856323134,-0.016,-0.563,-0.774
1775856323154,-0.009,-0.545,-0.738
1775856323174,-0.016,-0.576,-0.756
1775856323193,-0.015,-0.596,-0.747
1775856323213,-0.025,-0.622,-0.689
1775856323233,-0.030,-0.623,-0.657
1775856323253,-0.032,-0.647,-0.656
1775856323272,-0.009,-0.709,-0.659
1775856323292,-0.013,-0.671,-0.589
1775856323312,-0.012,-0.649,-0.532
1775856323332,0.000,-0.701,-0.515
1775856323351,0.012,-0.756,-0.507
1775856323371,0.009,-0.744,-0.497
1775856323391,0.005,-0.698,-0.462
1775856323411,0.017,-0.781,-0.506
1775856323430,0.009,-0.786,-0.517
1775856323450,0.005,-0.837,-0.497
1775856323470,0.030,-0.888,-0.509
1775856323490,0.027,-0.825,-0.498
1775856323509,0.033,-0.825,-0.492
1775856323529,0.053,-0.904,-0.493
1775856323549,0.065,-0.867,-0.446
1775856323569,0.058,-0.825,-0.422
1775856323589,0.066,-0.923,-0.476
1775856323608,0.069,-0.979,-0.471
1775856323628,0.072,-0.937,-0.410
1775856323648,0.075,-0.889,-0.384
1775856323668,0.085,-0.970,-0.415
1775856323687,0.113,-1.031,-0.400
1775856323707,0.130,-1.103,-0.366
1775856323727,0.154,-1.081,-0.305
1775856323747,0.188,-1.107,-0.308
1775856323766,0.203,-1.121,-0.294
1775856323786,0.205,-1.153,-0.280
1775856323806,0.209,-1.123,-0.258
1775856323826,0.205,-1.055,-0.225
1775856323845,0.213,-1.104,-0.225
1775856323865,0.220,-1.126,-0.211
1775856323885,0.227,-1.128,-0.187
1775856323905,0.211,-1.064,-0.189
1775856323924,0.210,-1.059,-0.250
1775856323944,0.212,-1.055,-0.279
1775856323964,0.210,-1.095,-0.288
1775856323984,0.212,-1.136,-0.325
1775856324003,0.226,-1.057,-0.369
1775856324023,0.210,-0.981,-0.404
1775856324043,0.194,-1.054,-0.427
1775856324063,0.205,-1.102,-0.427
1775856324082,0.174,-1.059,-0.382
1775856324102,0.167,-0.985,-0.365
1775856324122,0.143,-0.972,-0.379
1775856324142,0.139,-0.983,-0.408
1775856324161,0.137,-0.965,-0.429
1775856324181,0.118,-0.887,-0.418
1775856324201,0.124,-0.881,-0.447
1775856324221,0.128,-0.906,-0.487
1775856324240,0.122,-0.832,-0.461
1775856324260,0.133,-0.810,-0.470
1775856324280,0.126,-0.848,-0.531
1775856324300,0.143,-0.877,-0.536
1775856324320,0.136,-0.814,-0.491
1775856324339,0.143,-0.787,-0.519
1775856324359,0.161,-0.812,-0.577
1775856324379,0.143,-0.811,-0.581
1775856324399,0.158,-0.860,-0.563
1775856324418,0.159,-0.820,-0.565
1775856324438,0.149,-0.760,-0.545
1775856324458,0.161,-0.796,-0.540
1775856324478,0.141,-0.770,-0.522
1775856324497,0.149,-0.754,-0.551
1775856324517,0.138,-0.728,-0.566
1775856324537,0.141,-0.671,-0.546
1775856324557,0.134,-0.668,-0.565
1775856324576,0.124,-0.642,-0.608
1775856324596,0.121,-0.673,-0.651
1775856324616,0.112,-0.629,-0.636
1775856324636,0.090,-0.601,-0.659
1775856324655,0.097,-0.630,-0.694
1775856324675,0.068,-0.584,-0.674
1775856324695,0.070,-0.600,-0.705
1775856324715,0.048,-0.619,-0.748
1775856324734,0.050,-0.605,-0.754
1775856324754,0.042,-0.606,-0.778
1775856324774,0.019,-0.576,-0.786
1775856324794,0.022,-0.608,-0.805
1775856324813,0.021,-0.554,-0.789
1775856324833,0.013,-0.521,-0.784
1775856324853,-0.005,-0.525,-0.800
1775856324873,0.006,-0.509,-0.799
1775856324892,0.004,-0.464,-0.796
1775856324912,0.004,-0.439,-0.831
1775856324932,0.014,-0.416,-0.876
1775856324952,0.008,-0.353,-0.949
1775856324971,-0.015,-0.278,-1.045
1775856324991,-0.003,-0.371,-1.138
1775856325011,-0.033,-0.428,-1.082
1775856325031,-0.015,-0.521,-1.037
1775856325050,-0.003,-0.516,-0.979
1775856325070,0.022,-0.475,-0.957
1775856325090,0.011,-0.453,-0.917
1775856325110,0.031,-0.488,-0.841
1775856325130,0.030,-0.502,-0.807
1775856325149,0.017,-0.506,-0.835
1775856325169,0.033,-0.512,-0.824
1775856325189,0.023,-0.524,-0.805
1775856325209,0.022,-0.591,-0.855
1775856325228,0.023,-0.570,-0.838
1775856325248,0.006,-0.531,-0.794
1775856325268,0.020,-0.578,-0.833
1775856325288,0.012,-0.535,-0.827
1775856325307,0.017,-0.515,-0.827
1775856325327,0.013,-0.504,-0.845
1775856325347,0.010,-0.504,-0.881
1775856325367,0.011,-0.536,-0.908
1775856325386,0.009,-0.529,-0.877
1775856325406,0.016,-0.503,-0.855
1775856325426,0.012,-0.516,-0.851
1775856325446,0.017,-0.536,-0.852
1775856325465,0.015,-0.513,-0.835
1775856325485,0.037,-0.505,-0.819
1775856325505,0.043,-0.538,-0.805
1775856325525,0.061,-0.576,-0.837
1775856325544,0.066,-0.528,-0.835
1775856325564,0.086,-0.545,-0.778
1775856325584,0.103,-0.547,-0.715
1775856325604,0.127,-0.585,-0.738
1775856325624,0.137,-0.516,-0.692
1775856325643,0.160,-0.562,-0.638
1775856325663,0.168,-0.647,-0.564
1775856325683,0.177,-0.686,-0.516
1775856325703,0.171,-0.641,-0.461
1775856325722,0.192,-0.666,-0.456
1775856325742,0.175,-0.752,-0.450
1775856325762,0.187,-0.791,-0.417
1775856325782,0.190,-0.781,-0.394
1775856325801,0.177,-0.739,-0.368
1775856325821,0.166,-0.796,-0.383
1775856325841,0.174,-0.865,-0.404
1775856325861,0.173,-0.806,-0.350
1775856325880,0.154,-0.841,-0.326
1775856325900,0.163,-0.933,-0.353
1775856325920,0.182,-0.934,-0.369
1775856325940,0.199,-0.950,-0.352
1775856325959,0.224,-1.081,-0.319
1775856325979,0.204,-1.145,-0.250
1775856325999,0.265,-1.085,-0.252
1775856326019,0.260,-1.016,-0.233
1775856326038,0.286,-1.150,-0.154
1775856326058,0.260,-1.145,-0.082
1775856326078,0.246,-1.011,-0.094
1775856326098,0.239,-0.974,-0.122
1775856326117,0.253,-1.081,-0.165
1775856326137,0.254,-1.109,-0.183
1775856326157,0.260,-0.985,-0.157
1775856326177,0.277,-0.940,-0.151
1775856326196,0.296,-1.123,-0.181
1775856326216,0.309,-1.062,-0.173
1775856326236,0.338,-1.065,-0.176
1775856326256,0.373,-1.223,-0.119
1775856326275,0.386,-1.138,-0.067
1775856326295,0.473,-0.950,-0.079
1775856326315,0.480,-1.135,-0.099
1775856326335,0.454,-1.162,-0.067
1775856326355,0.436,-0.978,-0.088
1775856326374,0.402,-0.931,-0.149
1775856326394,0.370,-0.947,-0.185
1775856326414,0.314,-0.960,-0.214
1775856326434,0.306,-0.994,-0.244
1775856326453,0.331,-0.868,-0.228
1775856326473,0.382,-0.917,-0.203
1775856326493,0.423,-1.083,-0.145
1775856326513,0.487,-1.010,-0.184
1775856326532,0.473,-0.743,-0.200
1775856326552,0.436,-0.764,-0.216
1775856326572,0.420,-0.947,-0.282
1775856326592,0.435,-0.998,-0.372
1775856326611,0.416,-0.793,-0.364
1775856326631,0.359,-0.679,-0.344
1775856326651,0.320,-0.628,-0.399
1775856326671,0.324,-0.689,-0.480
1775856326690,0.346,-0.805,-0.473
1775856326710,0.299,-0.767,-0.376
1775856326730,0.251,-0.640,-0.390
1775856326750,0.190,-0.662,-0.445
1775856326769,0.106,-0.775,-0.455
1775856326789,-0.004,-0.913,-0.486
1775856326809,-0.047,-0.955,-0.500
1775856326829,-0.090,-0.979,-0.479
1775856326848,-0.132,-1.071,-0.468
1775856326868,-0.136,-1.058,-0.472
1775856326888,-0.160,-1.023,-0.485
1775856326908,-0.122,-0.997,-0.514
1775856326927,-0.070,-1.022,-0.527
1775856326947,-0.010,-1.002,-0.482
1775856326967,0.106,-1.010,-0.467
1775856326987,0.140,-0.847,-0.398
1775856327007,0.202,-0.765,-0.385
1775856327026,0.297,-0.806,-0.446
1775856327046,0.378,-0.859,-0.436
1775856327066,0.410,-0.796,-0.380
1775856327086,0.452,-0.581,-0.398
1775856327105,0.476,-0.569,-0.468
1775856327125,0.406,-0.654,-0.452
1775856327145,0.337,-0.804,-0.440
1775856327165,0.227,-0.869,-0.418
1775856327184,0.150,-0.909,-0.398
1775856327204,0.082,-0.997,-0.405
1775856327224,-0.024,-1.051,-0.382
1775856327244,-0.085,-1.040,-0.350
1775856327263,-0.118,-1.051,-0.398
1775856327283,-0.188,-1.075,-0.430
1775856327303,-0.219,-1.091,-0.446
1775856327323,-0.261,-1.088,-0.451
1775856327342,-0.243,-1.065,-0.483
1775856327362,-0.215,-1.019,-0.532
1775856327382,-0.213,-0.920,-0.544
1775856327402,-0.193,-1.042,-0.536
1775856327421,-0.156,-1.111,-0.519
1775856327441,-0.091,-1.015,-0.440
1775856327461,-0.018,-0.939,-0.362
1775856327481,0.076,-0.842,-0.389
1775856327500,0.150,-0.808,-0.475
1775856327520,0.201,-0.855,-0.508
1775856327540,0.208,-0.786,-0.473
1775856327560,0.218,-0.690,-0.505
1775856327579,0.159,-0.733,-0.552
1775856327599,0.116,-0.849,-0.533
1775856327619,0.078,-0.923,-0.521
1775856327639,0.032,-0.823,-0.481
1775856327658,-0.016,-0.762,-0.514
1775856327678,0.004,-0.794,-0.600
1775856327698,-0.008,-0.812,-0.668
1775856327718,-0.001,-0.724,-0.647
1775856327738,-0.011,-0.680,-0.634
1775856327757,-0.019,-0.680,-0.685
1775856327777,-0.002,-0.643,-0.700
1775856327797,-0.018,-0.595,-0.712
1775856327817,-0.020,-0.617,-0.752
1775856327836,-0.021,-0.635,-0.711
1775856327856,-0.020,-0.582,-0.665
1775856327876,0.000,-0.542,-0.727
1775856327896,-0.011,-0.510,-0.772
1775856327915,0.001,-0.497,-0.749
1775856327935,0.006,-0.489,-0.718
1775856327955,0.008,-0.426,-0.740
1775856327975,0.011,-0.414,-0.804
1775856327994,0.031,-0.388,-0.788
1775856328014,0.022,-0.418,-0.815
1775856328034,0.019,-0.449,-0.950
1775856328054,0.017,-0.359,-0.960
1775856328073,-0.005,-0.312,-0.927
1775856328093,-0.003,-0.262,-1.000
1775856328113,0.016,-0.166,-1.119
1775856328133,0.029,-0.076,-1.311
1775856328152,0.018,-0.073,-1.372
1775856328172,-0.029,-0.302,-1.267
1775856328192,-0.062,-0.424,-1.128
1775856328212,-0.094,-0.400,-1.051
1775856328232,-0.073,-0.444,-0.993
1775856328251,-0.067,-0.515,-0.855
1775856328271,-0.039,-0.549,-0.811
1775856328291,-0.037,-0.515,-0.829
1775856328311,-0.027,-0.565,-0.821
1775856328330,-0.024,-0.592,-0.875
1775856328350,-0.014,-0.577,-0.901
1775856328370,-0.025,-0.596,-0.840
1775856328390,-0.032,-0.662,-0.835
1775856328409,-0.024,-0.730,-0.870
1775856328429,-0.011,-0.724,-0.856
1775856328449,-0.021,-0.704,-0.711
1775856328469,-0.007,-0.714,-0.587
1775856328488,-0.025,-0.707,-0.514
1775856328508,-0.014,-0.765,-0.494
1775856328528,-0.014,-0.836,-0.493
1775856328548,-0.019,-0.846,-0.428
1775856328567,0.001,-0.825,-0.416
1775856328587,-0.036,-0.737,-0.404
1775856328607,-0.022,-0.882,-0.388
1775856328627,-0.041,-0.880,-0.380
1775856328646,-0.046,-0.830,-0.380
1775856328666,-0.057,-0.924,-0.361
1775856328686,-0.049,-1.009,-0.364
1775856328706,-0.026,-1.015,-0.362
1775856328725,-0.023,-0.948,-0.375
1775856328745,-0.023,-0.925,-0.361
1775856328765,-0.044,-0.846,-0.322
1775856328785,-0.034,-0.948,-0.300
1775856328804,-0.035,-0.989,-0.281
1775856328824,-0.046,-0.905,-0.262
1775856328844,-0.050,-0.909,-0.248
1775856328864,-0.061,-0.981,-0.230
1775856328884,-0.054,-1.052,-0.217
1775856328903,-0.061,-1.011,-0.185
1775856328923,-0.081,-0.984,-0.163
1775856328943,-0.072,-0.997,-0.165
1775856328963,-0.068,-0.969,-0.179
1775856328982,-0.048,-0.982,-0.228
1775856329002,-0.044,-0.933,-0.256
1775856329022,-0.027,-0.954,-0.293
1775856329042,-0.005,-1.015,-0.316
1775856329061,-0.005,-0.960,-0.276
1775856329081,0.004,-0.899,-0.322
1775856329101,0.013,-0.905,-0.380
1775856329121,0.012,-0.888,-0.380
1775856329140,0.011,-0.899,-0.367
1775856329160,0.017,-0.894,-0.401
1775856329180,-0.004,-0.841,-0.404
1775856329200,-0.014,-0.862,-0.437
1775856329219,-0.019,-0.842,-0.459
1775856329239,-0.029,-0.901,-0.473
1775856329259,-0.034,-0.908,-0.486
1775856329279,-0.050,-0.932,-0.496
1775856329298,-0.052,-0.884,-0.476
1775856329318,-0.052,-0.831,-0.486
1775856329338,-0.054,-0.864,-0.512
1775856329358,-0.052,-0.866,-0.495
1775856329377,-0.061,-0.832,-0.500
1775856329397,-0.060,-0.832,-0.530
1775856329417,-0.057,-0.858,-0.564
1775856329437,-0.066,-0.813,-0.581
1775856329457,-0.063,-0.812,-0.607
1775856329476,-0.069,-0.792,-0.627
1775856329496,-0.077,-0.826,-0.621
1775856329516,-0.080,-0.841,-0.593
1775856329536,-0.084,-0.807,-0.602
1775856329555,-0.095,-0.858,-0.574
1775856329575,-0.092,-0.882,-0.533
1775856329595,-0.088,-0.843,-0.524
1775856329615,-0.090,-0.832,-0.526
1775856329634,-0.083,-0.865,-0.510
1775856329654,-0.061,-0.872,-0.533
1775856329674,-0.052,-0.855,-0.530
1775856329694,-0.040,-0.827,-0.539
1775856329713,-0.042,-0.815,-0.545
1775856329733,-0.040,-0.806,-0.541
1775856329773,-0.052,-0.828,-0.550
1775856329792,-0.072,-0.824,-0.518
1775856329812,-0.078,-0.837,-0.547
1775856329832,-0.086,-0.881,-0.544
1775856329852,-0.095,-0.916,-0.474
1775856329871,-0.105,-0.930,-0.415
1775856329891,-0.091,-0.890,-0.401
1775856329911,-0.096,-0.832,-0.490
1775856329931,-0.074,-0.920,-0.469
1775856329950,-0.075,-0.876,-0.437
1775856329970,-0.072,-0.831,-0.510
1775856329990,-0.059,-0.886,-0.499
1775856330010,-0.058,-0.889,-0.472
1775856330030,-0.058,-0.880,-0.478
1775856330049,-0.047,-0.880,-0.482
1775856330069,-0.036,-0.904,-0.477
1775856330089,-0.042,-0.857,-0.480
1775856330109,-0.045,-0.850,-0.494
1775856330128,-0.038,-0.889,-0.482
1775856330148,-0.043,-0.860,-0.472
1775856330168,-0.051,-0.873,-0.452
1775856330188,-0.049,-0.896,-0.441
1775856330207,-0.059,-0.883,-0.429
1775856330227,-0.064,-0.877,-0.456
1775856330247,-0.067,-0.918,-0.424
1775856330267,-0.072,-0.875,-0.431
1775856330286,-0.060,-0.905,-0.462
1775856330306,-0.066,-0.906,-0.453
1775856330326,-0.065,-0.898,-0.442
1775856330346,-0.058,-0.878,-0.456
1775856330365,-0.057,-0.915,-0.453
1775856330385,-0.049,-0.921,-0.428
1775856330405,-0.047,-0.875,-0.460
1775856330425,-0.042,-0.865,-0.481
1775856330444,-0.046,-0.860,-0.472
1775856330464,-0.051,-0.896,-0.440
1775856330484,-0.051,-0.889,-0.437
1775856330504,-0.055,-0.879,-0.459
1775856330523,-0.051,-0.893,-0.465
1775856330543,-0.051,-0.894,-0.447
1775856330563,-0.047,-0.866,-0.447
1775856330583,-0.041,-0.889,-0.461
1775856330602,-0.041,-0.893,-0.465
1775856330622,-0.045,-0.877,-0.468
1775856330642,-0.047,-0.887,-0.464
1775856330662,-0.047,-0.895,-0.467
1775856330681,-0.040,-0.873,-0.470
1775856330701,-0.038,-0.851,-0.469
1775856330721,-0.045,-0.871,-0.472
1775856330741,-0.051,-0.867,-0.479
1775856330761,-0.055,-0.890,-0.473
1775856330780,-0.070,-0.906,-0.460
1775856330800,-0.071,-0.884,-0.480
1775856330820,-0.066,-0.881,-0.470
1775856330840,-0.055,-0.898,-0.458
1775856330859,-0.069,-0.878,-0.448
1775856330879,-0.051,-0.860,-0.450
1775856330899,-0.053,-0.904,-0.450
1775856330919,-0.043,-0.902,-0.470
1775856330938,-0.057,-0.835,-0.481
1775856330958,-0.058,-0.856,-0.488
1775856330978,-0.052,-0.917,-0.490
1775856330998,-0.054,-0.867,-0.496
1775856331017,-0.063,-0.856,-0.497
1775856331037,-0.056,-0.889,-0.486
1775856331057,-0.047,-0.894,-0.484
1775856331077,-0.050,-0.881,-0.480
1775856331096,-0.055,-0.831,-0.471
1775856331116,-0.048,-0.863,-0.473
1775856331136,-0.055,-0.884,-0.476
1775856331156,-0.056,-0.862,-0.477
1775856331175,-0.062,-0.886,-0.490
1775856331195,-0.068,-0.874,-0.482
1775856331215,-0.064,-0.884,-0.480
1775856331235,-0.072,-0.870,-0.478
1775856331254,-0.070,-0.858,-0.487
1775856331274,-0.066,-0.879,-0.491
1775856331294,-0.070,-0.881,-0.478
1775856331314,-0.058,-0.901,-0.479
1775856331333,-0.061,-0.862,-0.483
1775856331353,-0.058,-0.864,-0.489
1775856331373,-0.059,-0.874,-0.480
1775856331393,-0.058,-0.879,-0.492
1775856331412,-0.053,-0.863,-0.489
1775856331432,-0.059,-0.869,-0.477
1775856331452,-0.066,-0.863,-0.486
1775856331472,-0.068,-0.879,-0.496
1775856331492,-0.064,-0.889,-0.493
1775856331511,-0.065,-0.882,-0.478
1775856331531,-0.069,-0.845,-0.488
1775856331551,-0.060,-0.856,-0.490
1775856331571,-0.066,-0.889,-0.480
1775856331590,-0.061,-0.874,-0.484
1775856331610,-0.067,-0.831,-0.487
1775856331630,-0.066,-0.887,-0.500
1775856331650,-0.059,-0.889,-0.490
1775856331669,-0.071,-0.850,-0.497
1775856331689,-0.066,-0.872,-0.512
1775856331709,-0.064,-0.878,-0.501
1775856331729,-0.064,-0.880,-0.485
1775856331748,-0.064,-0.864,-0.496
1775856331768,-0.066,-0.853,-0.506
1775856331788,-0.060,-0.851,-0.493
1775856331808,-0.072,-0.870,-0.501
1775856331827,-0.065,-0.870,-0.495
1775856331847,-0.076,-0.861,-0.483
1775856331867,-0.067,-0.891,-0.494
1775856331887,-0.072,-0.864,-0.480
1775856331906,-0.071,-0.842,-0.483
1775856331926,-0.074,-0.884,-0.485
1775856331946,-0.070,-0.899,-0.487
1775856331966,-0.071,-0.872,-0.483
1775856331985,-0.065,-0.879,-0.500
1775856332005,-0.064,-0.853,-0.496
1775856332025,-0.067,-0.861,-0.487
1775856332045,-0.058,-0.869,-0.508
1775856332064,-0.062,-0.847,-0.503
1775856332084,-0.059,-0.869,-0.490
1775856332104,-0.066,-0.835,-0.486
1775856332124,-0.067,-0.876,-0.503
1775856332143,-0.071,-0.874,-0.489
1775856332163,-0.078,-0.864,-0.488
1775856332183,-0.081,-0.874,-0.492
1775856332203,-0.082,-0.888,-0.496
1775856332222,-0.072,-0.900,-0.503
1775856332242,-0.078,-0.849,-0.483
1775856332262,-0.072,-0.871,-0.487
1775856332282,-0.074,-0.867,-0.485
1775856332301,-0.062,-0.864,-0.490
1775856332321,-0.071,-0.852,-0.491
1775856332341,-0.069,-0.862,-0.491
1775856332361,-0.076,-0.869,-0.493
1775856332380,-0.074,-0.867,-0.489
1775856332400,-0.076,-0.874,-0.478
1775856332420,-0.079,-0.864,-0.481
1775856332440,-0.075,-0.872,-0.497
1775856332459,-0.088,-0.878,-0.504
1775856332479,-0.096,-0.880,-0.527
1775856332499,-0.097,-0.897,-0.544
1775856332519,-0.093,-0.885,-0.526
1775856332538,-0.104,-0.794,-0.491
1775856332558,-0.082,-0.867,-0.520
1775856332578,-0.072,-0.769,-0.460
1775856332598,-0.099,-0.803,-0.436
1775856332617,-0.057,-0.865,-0.472
1775856332637,-0.061,-0.852,-0.438
1775856332657,-0.033,-0.886,-0.398
1775856332677,-0.016,-0.870,-0.402
1775856332696,-0.010,-0.841,-0.386
1775856332716,0.005,-0.813,-0.344
1775856332736,0.006,-0.842,-0.330
1775856332756,0.035,-0.854,-0.317
1775856332775,0.003,-0.850,-0.295
1775856332795,-0.008,-0.864,-0.261
1775856332815,-0.021,-0.869,-0.288
1775856332835,-0.017,-0.831,-0.332
1775856332854,-0.038,-0.831,-0.365
1775856332874,-0.053,-0.853,-0.389
1775856332894,-0.077,-0.826,-0.440
1775856332914,-0.077,-0.828,-0.517
1775856332933,-0.091,-0.764,-0.565
1775856332953,-0.103,-0.851,-0.685
1775856332973,-0.132,-0.940,-0.756
1775856332993,-0.132,-0.946,-0.765
1775856333012,-0.141,-0.894,-0.807
1775856333032,-0.165,-0.904,-0.810
1775856333052,-0.154,-0.858,-0.756
1775856333072,-0.151,-0.898,-0.764
1775856333091,-0.157,-0.853,-0.708
1775856333111,-0.165,-0.851,-0.670
1775856333131,-0.165,-0.832,-0.628
1775856333151,-0.151,-0.828,-0.601
1775856333170,-0.139,-0.776,-0.609
1775856333190,-0.152,-0.748,-0.596
1775856333210,-0.148,-0.753,-0.618
1775856333230,-0.147,-0.698,-0.650
1775856333249,-0.130,-0.770,-0.654
1775856333269,-0.135,-0.695,-0.682
1775856333289,-0.127,-0.699,-0.761
1775856333309,-0.121,-0.674,-0.765
1775856333328,-0.158,-0.732,-0.830
1775856333348,-0.092,-0.752,-0.849
1775856333368,-0.100,-0.683,-0.786
1775856333388,-0.083,-0.696,-0.724
1775856333407,-0.079,-0.697,-0.700
1775856333427,-0.060,-0.657,-0.677
1775856333447,-0.070,-0.678,-0.665
1775856333467,-0.045,-0.699,-0.632
1775856333486,-0.055,-0.611,-0.661
1775856333506,-0.040,-0.663,-0.708
1775856333526,-0.083,-0.665,-0.786
1775856333546,-0.073,-0.776,-0.818
1775856333566,-0.091,-0.696,-0.773
1775856333585,-0.121,-0.685,-0.830
1775856333605,-0.102,-0.720,-0.840
1775856333625,-0.118,-0.692,-0.810
1775856333645,-0.092,-0.737,-0.783
1775856333664,-0.081,-0.649,-0.745
1775856333684,-0.076,-0.657,-0.742
1775856333704,-0.050,-0.668,-0.737
1775856333724,-0.052,-0.629,-0.736
1775856333743,-0.048,-0.632,-0.721
1775856333763,-0.060,-0.596,-0.704
1775856333783,-0.047,-0.654,-0.683
1775856333803,-0.055,-0.606,-0.651
1775856333822,-0.052,-0.646,-0.652
1775856333842,-0.048,-0.647,-0.611
1775856333862,-0.089,-0.688,-0.530
1775856333882,-0.113,-0.669,-0.583
1775856333901,-0.155,-0.624,-0.637
1775856333921,-0.182,-0.538,-0.601
1775856333941,-0.187,-0.548,-0.606
1775856333961,-0.153,-0.554,-0.698
1775856333980,-0.194,-0.496,-0.718
1775856334000,-0.222,-0.493,-0.769
1775856334020,-0.226,-0.571,-0.820
1775856334040,-0.236,-0.585,-0.840
1775856334059,-0.229,-0.528,-0.873
1775856334079,-0.227,-0.555,-0.948
1775856334099,-0.248,-0.563,-0.917
1775856334119,-0.211,-0.540,-0.894
1775856334138,-0.240,-0.444,-0.909
1775856334158,-0.260,-0.469,-0.916
1775856334178,-0.290,-0.543,-0.881
1775856334198,-0.309,-0.512,-0.892
1775856334217,-0.332,-0.571,-0.904
1775856334257,-0.370,-0.627,-0.902
1775856334277,-0.341,-0.627,-0.880
1775856334296,-0.319,-0.578,-0.851
1775856334316,-0.281,-0.576,-0.919
1775856334336,-0.252,-0.568,-0.893
1775856334356,-0.232,-0.610,-0.810
1775856334375,-0.210,-0.582,-0.752
1775856334395,-0.201,-0.565,-0.721
1775856334415,-0.187,-0.527,-0.722
1775856334435,-0.179,-0.517,-0.731
1775856334454,-0.186,-0.564,-0.738
1775856334474,-0.192,-0.548,-0.751
1775856334494,-0.196,-0.559,-0.750
1775856334514,-0.200,-0.573,-0.750
1775856334533,-0.182,-0.559,-0.748
1775856334553,-0.190,-0.572,-0.732
1775856334573,-0.182,-0.589,-0.744
1775856334593,-0.186,-0.583,-0.754
1775856334612,-0.176,-0.580,-0.768
1775856334632,-0.174,-0.598,-0.800
1775856334652,-0.179,-0.575,-0.822
1775856334672,-0.172,-0.568,-0.834
1775856334692,-0.165,-0.577,-0.857
1775856334711,-0.163,-0.580,-0.858
1775856334731,-0.159,-0.591,-0.847
1775856334751,-0.164,-0.592,-0.834
1775856334771,-0.166,-0.604,-0.812
1775856334790,-0.160,-0.612,-0.809
1775856334810,-0.159,-0.613,-0.796
1775856334830,-0.149,-0.612,-0.798
1775856334850,-0.143,-0.575,-0.792
1775856334869,-0.129,-0.576,-0.806
1775856334889,-0.121,-0.587,-0.806
1775856334909,-0.119,-0.593,-0.799
1775856334929,-0.109,-0.562,-0.800
1775856334948,-0.096,-0.562,-0.806
1775856334968,-0.082,-0.563,-0.818
1775856334988,-0.079,-0.552,-0.828
1775856335008,-0.069,-0.562,-0.831
1775856335027,-0.057,-0.535,-0.833
1775856335047,-0.047,-0.535,-0.851
1775856335067,-0.031,-0.539,-0.865
1775856335087,-0.019,-0.518,-0.893
1775856335106,-0.004,-0.482,-0.921
1775856335126,0.003,-0.485,-0.935
1775856335146,-0.006,-0.494,-0.919
1775856335166,0.010,-0.455,-0.967
1775856335185,0.019,-0.424,-1.023
1775856335205,-0.003,-0.466,-0.957
1775856335225,-0.011,-0.536,-0.884
1775856335245,-0.004,-0.469,-0.930
1775856335264,0.006,-0.420,-0.985
1775856335284,0.009,-0.462,-0.962
1775856335304,0.027,-0.441,-1.002
1775856335324,0.014,-0.334,-1.059
1775856335343,0.011,-0.336,-1.076
1775856335363,-0.045,-0.372,-0.954
1775856335383,-0.064,-0.426,-0.866
1775856335403,-0.076,-0.434,-0.781
1775856335422,-0.054,-0.425,-0.782
1775856335442,-0.065,-0.415,-0.752
1775856335462,-0.058,-0.390,-0.732
1775856335482,-0.020,-0.385,-0.829
1775856335501,-0.027,-0.361,-0.844
1775856335521,-0.012,-0.373,-0.815
1775856335541,0.010,-0.463,-0.822
1775856335561,0.073,-0.538,-0.805
1775856335580,0.112,-0.578,-0.708
1775856335600,0.203,-0.620,-0.638
1775856335620,0.287,-0.486,-0.666
1775856335640,0.400,-0.317,-0.836
1775856335659,0.445,-0.288,-0.885
1775856335679,0.433,-0.301,-0.862
1775856335699,0.441,-0.407,-0.902
1775856335719,0.456,-0.325,-0.889
1775856335738,0.450,-0.269,-0.898
1775856335758,0.425,-0.317,-0.891
1775856335778,0.440,-0.377,-0.864
1775856335798,0.463,-0.337,-0.891
1775856335817,0.468,-0.245,-0.887
1775856335837,0.442,-0.253,-0.895
1775856335857,0.437,-0.326,-0.911
1775856335877,0.403,-0.369,-0.884
1775856335896,0.389,-0.344,-0.876
1775856335916,0.384,-0.312,-0.892
1775856335936,0.381,-0.307,-0.919
1775856335956,0.373,-0.329,-0.915
1775856335976,0.366,-0.353,-0.895
1775856335995,0.376,-0.336,-0.950
1775856336015,0.392,-0.376,-0.923
1775856336035,0.404,-0.351,-0.861
1775856336055,0.417,-0.307,-0.883
1775856336074,0.424,-0.353,-0.829
1775856336094,0.415,-0.353,-0.800
1775856336114,0.396,-0.325,-0.810
1775856336134,0.376,-0.342,-0.814
1775856336153,0.383,-0.366,-0.807
1775856336173,0.375,-0.379,-0.795
1775856336193,0.369,-0.358,-0.822
1775856336213,0.381,-0.386,-0.838
1775856336232,0.412,-0.401,-0.843
1775856336252,0.435,-0.357,-0.850
1775856336272,0.444,-0.290,-0.837
1775856336292,0.440,-0.309,-0.848
1775856336311,0.470,-0.343,-0.870
1775856336331,0.483,-0.280,-0.859
1775856336351,0.455,-0.308,-0.823
1775856336371,0.430,-0.384,-0.789
1775856336390,0.430,-0.371,-0.836
1775856336410,0.450,-0.327,-0.853
1775856336430,0.427,-0.332,-0.873
1775856336450,0.392,-0.336,-0.868
1775856336469,0.372,-0.397,-0.853
1775856336489,0.396,-0.379,-0.880
1775856336509,0.428,-0.339,-0.852
1775856336529,0.448,-0.304,-0.858
1775856336548,0.459,-0.276,-0.877
1775856336568,0.454,-0.273,-0.855
1775856336588,0.457,-0.288,-0.836
1775856336608,0.457,-0.272,-0.872
1775856336627,0.458,-0.280,-0.883
1775856336647,0.444,-0.280,-0.854
1775856336667,0.406,-0.322,-0.858
1775856336687,0.365,-0.318,-0.859
1775856336706,0.348,-0.394,-0.860
1775856336726,0.343,-0.406,-0.823
1775856336746,0.377,-0.366,-0.826
1775856336766,0.389,-0.340,-0.841
1775856336785,0.398,-0.343,-0.847
1775856336805,0.403,-0.352,-0.839
1775856336825,0.389,-0.312,-0.861
1775856336845,0.375,-0.335,-0.868
1775856336864,0.362,-0.365,-0.857
1775856336884,0.363,-0.342,-0.855
1775856336904,0.361,-0.332,-0.835
1775856336924,0.372,-0.363,-0.832
1775856336943,0.376,-0.411,-0.842
1775856336963,0.405,-0.398,-0.812
1775856336983,0.428,-0.389,-0.827
1775856337003,0.433,-0.333,-0.877
1775856337022,0.450,-0.361,-0.871
1775856337042,0.459,-0.349,-0.842
1775856337062,0.456,-0.327,-0.842
1775856337082,0.454,-0.352,-0.866
1775856337101,0.444,-0.329,-0.889
1775856337121,0.406,-0.346,-0.889
1775856337141,0.398,-0.392,-0.907
1775856337161,0.372,-0.406,-0.891
1775856337181,0.362,-0.401,-0.896
1775856337200,0.351,-0.419,-0.854
1775856337220,0.360,-0.494,-0.832
1775856337240,0.362,-0.485,-0.842
1775856337260,0.348,-0.475,-0.828
1775856337279,0.340,-0.521,-0.766
1775856337299,0.339,-0.553,-0.768
1775856337319,0.354,-0.534,-0.798
1775856337339,0.348,-0.506,-0.762
1775856337358,0.334,-0.478,-0.768
1775856337378,0.313,-0.529,-0.794
1775856337398,0.306,-0.550,-0.811
1775856337418,0.273,-0.520,-0.798
1775856337437,0.253,-0.586,-0.790
1775856337457,0.261,-0.627,-0.819
1775856337477,0.240,-0.555,-0.826
1775856337497,0.213,-0.543,-0.832
1775856337516,0.193,-0.606,-0.815
1775856337536,0.178,-0.620,-0.819
1775856337556,0.181,-0.619,-0.876
1775856337576,0.177,-0.639,-0.858
1775856337595,0.181,-0.649,-0.811
1775856337615,0.187,-0.652,-0.822
1775856337635,0.180,-0.610,-0.780
1775856337655,0.187,-0.657,-0.711
1775856337674,0.196,-0.696,-0.705
1775856337694,0.208,-0.693,-0.675
1775856337714,0.225,-0.690,-0.631
1775856337734,0.245,-0.671,-0.629
1775856337753,0.279,-0.696,-0.678
1775856337773,0.294,-0.684,-0.657
1775856337793,0.273,-0.720,-0.621
1775856337813,0.267,-0.740,-0.588
1775856337832,0.238,-0.795,-0.586
1775856337852,0.222,-0.752,-0.531
1775856337872,0.173,-0.760,-0.440
1775856337892,0.176,-0.844,-0.424
1775856337911,0.143,-0.819,-0.426
1775856337931,0.128,-0.829,-0.395
1775856337951,0.122,-0.811,-0.335
1775856337971,0.103,-0.876,-0.349
1775856337990,0.105,-0.872,-0.378
1775856338010,0.093,-0.885,-0.359
1775856338030,0.098,-0.944,-0.335
1775856338050,0.116,-0.903,-0.361
1775856338070,0.122,-0.935,-0.385
1775856338089,0.127,-0.922,-0.373
1775856338109,0.141,-0.892,-0.407
1775856338129,0.165,-0.829,-0.432
1775856338149,0.179,-0.875,-0.399
1775856338168,0.193,-0.907,-0.385
1775856338188,0.196,-0.869,-0.410
1775856338208,0.208,-0.850,-0.400
1775856338228,0.216,-0.823,-0.413
1775856338247,0.228,-0.833,-0.449
1775856338267,0.227,-0.844,-0.476
1775856338287,0.231,-0.869,-0.492
1775856338307,0.241,-0.849,-0.498
1775856338326,0.238,-0.855,-0.520
1775856338346,0.231,-0.847,-0.508
1775856338366,0.232,-0.852,-0.529
1775856338386,0.228,-0.859,-0.517
1775856338405,0.214,-0.803,-0.504
1775856338425,0.207,-0.816,-0.528
1775856338445,0.200,-0.837,-0.526
1775856338465,0.183,-0.812,-0.534
1775856338484,0.176,-0.817,-0.540
1775856338504,0.161,-0.838,-0.538
1775856338524,0.156,-0.844,-0.548
1775856338544,0.156,-0.857,-0.544
1775856338563,0.151,-0.857,-0.532
1775856338583,0.135,-0.837,-0.533
1775856338603,0.138,-0.826,-0.525
1775856338623,0.132,-0.826,-0.501
1775856338642,0.136,-0.811,-0.509
1775856338662,0.145,-0.827,-0.522
1775856338682,0.144,-0.827,-0.531
1775856338702,0.149,-0.813,-0.552
1775856338722,0.163,-0.847,-0.548
1775856338781,0.187,-0.814,-0.556
1775856338801,0.168,-0.795,-0.550
1775856338820,0.163,-0.817,-0.550
1775856338840,0.163,-0.800,-0.546
1775856338860,0.153,-0.820,-0.521
1775856338880,0.151,-0.824,-0.491
1775856338899,0.165,-0.819,-0.491
1775856338919,0.168,-0.847,-0.471
1775856338939,0.164,-0.830,-0.507
1775856338959,0.157,-0.818,-0.577
1775856338978,0.143,-0.794,-0.592
1775856338998,0.140,-0.830,-0.603
1775856339018,0.129,-0.799,-0.599
1775856339038,0.115,-0.809,-0.590
1775856339057,0.099,-0.823,-0.577
1775856339077,0.093,-0.832,-0.530
1775856339097,0.074,-0.843,-0.503
1775856339117,0.086,-0.847,-0.496
1775856339136,0.091,-0.874,-0.457
1775856339156,0.094,-0.873,-0.469
1775856339176,0.101,-0.869,-0.528
1775856339196,0.108,-0.871,-0.540
1775856339215,0.113,-0.830,-0.568
1775856339235,0.094,-0.790,-0.602
1775856339255,0.083,-0.820,-0.626
1775856339275,0.038,-0.782,-0.629
1775856339295,-0.003,-0.758,-0.618
1775856339314,-0.040,-0.801,-0.566
1775856339334,-0.058,-0.897,-0.525
1775856339354,-0.071,-0.878,-0.519
1775856339374,-0.066,-0.876,-0.525
1775856339393,-0.046,-0.906,-0.539
1775856339413,-0.031,-0.873,-0.538
1775856339433,-0.019,-0.873,-0.540
1775856339453,0.000,-0.873,-0.539
1775856339472,0.010,-0.850,-0.550
1775856339492,0.033,-0.849,-0.560
1775856339512,0.034,-0.854,-0.547
1775856339532,0.046,-0.859,-0.547
1775856339551,0.050,-0.813,-0.545
1775856339571,0.045,-0.796,-0.543
1775856339591,0.049,-0.805,-0.549
1775856339611,0.033,-0.808,-0.546
1775856339630,0.019,-0.841,-0.531
1775856339650,0.008,-0.839,-0.517
1775856339670,-0.009,-0.828,-0.533
1775856339690,-0.017,-0.841,-0.534
1775856339709,-0.021,-0.858,-0.528
1775856339729,-0.026,-0.876,-0.536
1775856339749,-0.022,-0.860,-0.530
1775856339769,-0.017,-0.876,-0.537
1775856339788,-0.005,-0.874,-0.545
1775856339808,0.004,-0.857,-0.555
1775856339828,0.012,-0.855,-0.562
1775856339848,0.018,-0.849,-0.552
1775856339867,0.033,-0.888,-0.550
1775856339887,0.049,-0.863,-0.554
1775856339907,0.022,-0.781,-0.554
1775856339927,-0.028,-0.810,-0.518
1775856339946,-0.064,-0.863,-0.460
1775856339966,-0.070,-0.964,-0.419
1775856339986,-0.049,-1.015,-0.348
1775856340006,0.000,-1.000,-0.347
1775856340026,0.089,-0.944,-0.520
1775856340045,0.149,-0.770,-0.636
1775856340065,0.201,-0.613,-0.703
1775856340085,0.224,-0.670,-0.764
1775856340105,0.191,-0.673,-0.670
1775856340124,0.122,-0.704,-0.574
1775856340144,0.097,-0.755,-0.584
1775856340164,0.015,-0.683,-0.655
1775856340184,-0.062,-0.757,-0.764
1775856340203,-0.125,-1.002,-0.679
1775856340223,-0.211,-1.130,-0.453
1775856340243,-0.263,-1.008,-0.333
1775856340263,-0.316,-0.857,-0.344
1775856340282,-0.345,-0.839,-0.350
1775856340302,-0.295,-0.903,-0.335
1775856340322,-0.201,-0.848,-0.395
1775856340342,-0.051,-0.802,-0.491
1775856340361,0.089,-0.782,-0.585
1775856340381,0.201,-0.670,-0.673
1775856340401,0.240,-0.604,-0.773
1775856340421,0.241,-0.565,-0.774
1775856340440,0.186,-0.648,-0.706
1775856340460,0.132,-0.694,-0.647
1775856340480,0.079,-0.751,-0.626
1775856340500,0.078,-0.787,-0.655
1775856340519,0.068,-0.772,-0.666
1775856340539,0.063,-0.746,-0.687
1775856340559,0.056,-0.750,-0.689
1775856340579,0.058,-0.767,-0.701
1775856340599,0.049,-0.749,-0.707
1775856340618,0.037,-0.774,-0.695
1775856340638,0.021,-0.773,-0.686
1775856340658,0.017,-0.787,-0.684
1775856340678,0.016,-0.718,-0.697
1775856340697,0.025,-0.684,-0.751
1775856340717,0.032,-0.713,-0.741
1775856340737,0.038,-0.734,-0.728
1775856340757,0.043,-0.669,-0.752
1775856340776,0.046,-0.640,-0.758
1775856340796,0.046,-0.669,-0.743
1775856340816,0.044,-0.690,-0.730
1775856340836,0.032,-0.671,-0.697
1775856340855,0.028,-0.684,-0.709
1775856340875,0.052,-0.742,-0.722
1775856340895,0.051,-0.697,-0.732
1775856340915,0.075,-0.693,-0.764
1775856340934,0.055,-0.749,-0.784
1775856340954,0.069,-0.705,-0.786
1775856340974,0.070,-0.683,-0.773
1775856340994,0.067,-0.662,-0.727
1775856341013,0.066,-0.658,-0.750
1775856341033,0.066,-0.626,-0.768
1775856341053,0.065,-0.635,-0.780
1775856341073,0.058,-0.692,-0.768
1775856341092,0.039,-0.682,-0.702
1775856341112,0.035,-0.685,-0.714
1775856341132,0.042,-0.649,-0.730
1775856341152,0.016,-0.718,-0.754
1775856341171,0.019,-0.712,-0.704
1775856341191,-0.005,-0.658,-0.762
1775856341211,0.034,-0.667,-0.795
1775856341231,0.014,-0.666,-0.752
1775856341250,0.018,-0.652,-0.733
1775856341270,0.009,-0.624,-0.732
1775856341290,0.006,-0.653,-0.723
1775856341310,-0.029,-0.672,-0.732
1775856341330,-0.004,-0.661,-0.727
1775856341349,-0.018,-0.670,-0.706
1775856341369,-0.006,-0.717,-0.699
1775856341389,0.009,-0.753,-0.727
1775856341409,-0.005,-0.733,-0.764
1775856341428,0.014,-0.659,-0.751
1775856341448,0.011,-0.682,-0.810
1775856341468,0.012,-0.689,-0.694
1775856341488,-0.017,-0.635,-0.632
1775856341507,0.001,-0.650,-0.790
1775856341527,-0.004,-0.651,-0.755
1775856341547,-0.038,-0.669,-0.698
1775856341567,-0.035,-0.693,-0.795
1775856341586,-0.067,-0.668,-0.775
1775856341606,-0.053,-0.671,-0.745
1775856341626,-0.048,-0.729,-0.708
1775856341646,-0.069,-0.719,-0.687
1775856341665,0.069,-0.733,-0.803
1775856341685,-0.056,-0.707,-0.670
1775856341705,-0.047,-0.779,-0.681
1775856341725,-0.040,-0.700,-0.754
1775856341744,0.035,-0.630,-0.768
1775856341764,0.032,-0.712,-0.634
1775856341784,0.017,-0.744,-0.729
1775856341804,0.114,-0.678,-0.836
1775856341823,0.085,-0.777,-0.730
1775856341843,0.142,-0.755,-0.874
1775856341863,0.033,-0.740,-0.731
1775856341883,0.117,-1.094,-0.863
1775856341902,0.020,-0.803,-0.733
1775856341922,0.038,-0.956,-0.617
1775856341942,-0.094,-1.043,-0.384
1775856341962,-0.135,-0.623,-0.035
1775856341981,-0.224,-0.652,-0.274
1775856342001,-0.115,-0.665,-0.251
1775856342021,-0.114,-0.352,-0.301
1775856342041,-0.120,-0.331,-0.282
1775856342060,-0.084,-0.393,-0.359
1775856342080,-0.105,-0.195,-0.335
1775856342100,0.100,0.428,-0.577
1775856342120,0.198,0.524,-0.519
1775856342139,0.009,0.483,-0.496
1775856342159,0.062,0.402,-0.329
1775856342179,0.029,0.535,-0.151
1775856342199,0.358,1.001,-0.036
1775856342218,0.396,1.138,-0.410
1775856342238,0.457,0.951,-0.472
1775856342258,0.618,0.847,-0.437
1775856342278,0.434,0.713,-0.351
1775856342297,0.551,0.561,-0.312
1775856342317,0.702,0.499,-0.253
1775856342337,0.617,0.476,-0.232
1775856342357,0.528,0.522,-0.118
1775856342377,0.502,0.334,-0.083
1775856342396,0.932,0.990,0.131
1775856342416,0.634,1.561,0.364
1775856342436,-0.085,1.658,0.356
1775856342456,-0.265,2.081,0.680
1775856342475,-0.198,2.123,0.896
1775856342495,-0.178,2.092,0.496
1775856342515,-0.255,2.156,0.564
1775856342535,-0.276,2.300,0.757
1775856342554,-0.658,1.939,0.805
1775856342574,-0.426,1.863,0.724
1775856342594,-0.244,1.520,0.468
1775856342614,0.056,0.992,0.125
1775856342633,-0.096,0.823,-0.210
1775856342653,-0.269,0.744,0.104
1775856342673,-0.342,0.506,0.232
1775856342693,-0.115,0.165,0.424
1775856342712,-0.502,-0.098,0.612
1775856342732,-0.473,-0.270,0.473
1775856342752,-0.520,-0.396,0.232
1775856342772,-0.838,-0.275,0.223
1775856342791,-2.223,-1.064,0.049
1775856342811,-2.839,-1.748,-0.575
1775856342831,-1.826,-1.013,-0.094
1775856342851,-1.779,-0.579,0.015
1775856342870,-1.777,-0.286,0.550
1775856342890,-1.683,0.186,0.447
1775856342910,-1.298,0.202,0.292
1775856342930,-1.237,-0.284,0.135
1775856342949,-0.670,-0.823,-0.014
1775856342969,-0.651,-0.677,-0.022
1775856342989,1.196,-1.126,0.118
1775856343009,-1.181,-0.351,0.406
1775856343028,-1.043,-0.514,0.386
1775856343048,-0.787,-0.381,0.486
1775856343068,-0.471,-0.247,0.254
1775856343088,-0.378,-0.176,0.377
1775856343108,-0.424,-0.351,0.360
1775856343127,-0.501,-0.318,0.250
1775856343147,-0.559,-0.197,0.091
1775856343167,-0.561,-0.136,0.082
1775856343187,-0.786,-0.003,0.069
1775856343206,-1.020,0.038,0.228
1775856343226,-1.181,-0.025,0.427
1775856343246,-1.058,-0.087,0.538
1775856343266,-1.142,-0.183,0.609
1775856343285,-1.118,-0.155,0.643
1775856343305,-1.421,-0.220,0.681
1775856343325,-0.859,-0.199,0.619
1775856343345,-0.790,-0.396,0.377
1775856343364,-0.898,-0.801,0.717
1775856343384,-0.847,-0.197,0.842
1775856343404,-0.810,-0.347,0.756
1775856343424,-0.682,-0.624,0.635
1775856343443,-0.715,-0.544,0.802
1775856343463,-0.853,-0.296,0.810
1775856343483,-0.844,-0.284,0.825
1775856343503,-0.891,-0.227,0.768
1775856343522,-0.896,-0.016,0.875
1775856343542,-0.971,-0.296,0.580
1775856343562,-0.528,-0.075,0.550
1775856343582,-0.715,-0.281,0.573
1775856343602,-0.886,-0.366,0.618
1775856343621,-0.630,-0.370,0.736
1775856343641,-0.766,-0.376,0.584
1775856343661,-0.968,-0.209,0.457
1775856343681,-0.642,-0.205,0.687
1775856343700,-0.800,-0.263,0.606
1775856343720,-0.733,-0.221,0.595
1775856343740,-0.823,-0.218,0.598
1775856343760,-0.785,-0.236,0.591
1775856343779,-0.759,-0.228,0.585
1775856343799,-0.783,-0.232,0.593
1775856343819,-0.783,-0.229,0.594
1775856343839,-0.778,-0.226,0.593
