absolute_timestamp,accel_x,accel_y,accel_z
1144790687.777,-0.095635,-0.339270,-0.893679
1144790687.793,-0.201569,-1.145611,-1.084862
1144790687.803,0.080922,-0.867697,-1.205813
1144790687.813,0.375184,-0.260984,-1.252634
1144790687.823,0.645905,0.682356,-1.264339
1144790687.833,0.849926,1.891868,-1.178502
1144790687.843,0.920549,2.921323,-0.952205
1144790687.853,0.512506,1.852725,-1.018533
1144790687.863,0.488965,1.668754,-0.971713
1144790687.873,0.410495,2.263724,-0.956106
1144790687.883,0.422266,2.768666,-0.917089
1144790687.893,0.394801,3.011351,-0.858564
1144790687.903,0.233938,2.968294,-0.811744
1144790687.913,0.104463,2.569038,-0.690792
1144790687.923,-0.072094,1.848811,-0.573742
1144790687.933,-0.307504,0.831099,-0.421576
1144790687.945,-0.535066,-0.378413,-0.324034
1144790687.953,-0.790093,-1.697524,-0.316231
1144790687.963,-1.045120,-2.914864,-0.417675
1144790687.973,-1.190289,-3.893434,-0.601053
1144790687.983,-1.202060,-4.484489,-0.866368
1144790687.993,-1.021579,-4.590175,-1.174600
1144790688.002,-0.664542,-4.183090,-1.451619
1144790688.013,-0.236881,-3.341521,-1.642801
1144790688.022,0.163315,-2.182894,-1.709130
1144790688.033,0.528200,-0.805069,-1.654506
1144790688.043,0.794998,0.670614,-1.506243
1144790688.053,0.936243,2.060182,-1.326766
1144790688.063,0.936243,3.214894,-1.139485
1144790688.073,0.791074,3.927292,-0.995123
1144790688.083,0.543894,4.119091,-0.881974
1144790688.093,0.253556,3.751150,-0.757121
1144790688.103,-0.021089,2.874352,-0.612759
1144790688.113,-0.272192,1.692240,-0.425478
1144790688.123,-0.535066,0.298757,-0.253804
1144790688.134,-0.817558,-1.212154,-0.175771
1144790688.143,-1.111819,-2.660436,-0.214787
1144790688.153,-1.359000,-3.850376,-0.394265
1144790688.163,-1.476704,-4.637147,-0.663480
1144790688.173,-1.370770,-4.930717,-0.928794
1144790688.183,-1.041197,-4.680204,-1.213617
1144790688.193,-0.558607,-3.952148,-1.412602
1144790688.203,-0.060324,-2.860064,-1.514046
1144790688.213,0.371260,-1.537039,-1.556965
1144790688.224,0.673369,-0.088756,-1.471128
1144790688.233,0.849926,1.355612,-1.354077
1144790688.243,0.889161,2.674723,-1.186305
1144790688.253,0.818539,3.688521,-1.018533
1144790688.263,0.657675,4.209120,-0.878073
1144790688.273,0.418342,4.123006,-0.753219
1144790688.283,0.167239,3.484979,-0.647874
1144790688.293,-0.087788,2.439867,-0.511315
1144790688.303,-0.362433,1.085527,-0.343543
1144790688.313,-0.660618,-0.378413,-0.257706
1144790688.323,-0.943109,-1.771895,-0.249902
1144790688.333,-1.202060,-3.016636,-0.378658
1144790688.343,-1.378617,-3.975633,-0.597152
1144790688.353,-1.394311,-4.554946,-0.823449
1144790688.362,-1.213830,-4.515804,-1.147288
1144790688.373,-0.829328,-4.053919,-1.393094
1144790688.383,-0.362433,-3.220178,-1.599883
1144790688.393,0.104463,-2.053723,-1.674015
1144790688.403,0.504659,-0.699383,-1.584276
1144790688.414,0.798921,0.815442,-1.471128
1144790688.423,0.940167,2.244153,-1.350176
1144790688.433,0.924473,3.438007,-1.225322
1144790688.443,0.751839,4.146492,-1.116075
1144790688.453,0.485042,4.342205,-1.041943
1144790688.463,0.218244,3.962521,-0.881974
1144790688.473,-0.064247,3.066151,-0.675185
1144790688.483,-0.334968,1.844897,-0.448888
1144790688.493,-0.629230,0.467071,-0.288919
1144790688.503,-0.943109,-1.032097,-0.218689
1144790688.513,-1.245218,-2.464722,-0.226492
1144790688.523,-1.500245,-3.564634,-0.343543
1144790688.533,-1.606180,-4.308347,-0.542528
1144790688.543,-1.539480,-4.731089,-0.788334
1144790688.552,-1.264836,-4.648889,-1.057550
1144790688.563,-0.833252,-4.112633,-1.303355
1144790688.573,-0.350662,-3.184950,-1.475029
1144790688.582,0.092693,-1.995009,-1.533554
1144790688.593,0.437960,-0.644583,-1.408701
1144790688.602,0.669446,0.776299,-1.240929
1144790688.612,0.755763,2.122810,-1.084862
1144790688.622,0.700834,3.218808,-0.920991
1144790688.632,0.567435,3.833349,-0.800039
1144790688.642,0.355566,3.950778,-0.729809
1144790688.652,0.124080,3.578921,-0.632267
1144790688.662,-0.111329,2.694295,-0.484003
1144790688.672,-0.382050,1.508269,-0.359149
1144790688.682,-0.676312,0.110872,-0.269411
1144790688.692,-0.970574,-1.294353,-0.206984
1144790688.702,-1.256989,-2.605637,-0.246001
1144790688.712,-1.464934,-3.729034,-0.378658
1144790688.722,-1.570868,-4.437518,-0.640070
1144790688.732,-1.464934,-4.633232,-0.940500
1144790688.742,-1.174595,-4.367061,-1.233125
1144790688.752,-0.746935,-3.650748,-1.436013
1144790688.762,-0.252575,-2.664351,-1.529653
1144790688.771,0.190780,-1.400039,-1.517948
1144790688.782,0.520353,0.024758,-1.510144
1144790688.792,0.351643,0.330071,-1.229224
1144790688.802,0.069152,0.063901,-1.045845
1144790688.813,-0.181952,0.024758,-0.952205
1144790688.822,-0.205493,0.173500,-0.878073
1144790688.832,-0.225110,0.302671,-0.913188
1144790688.842,-0.240804,0.341814,-0.870269
1144790688.852,-0.295733,0.255700,-0.862466
1144790688.862,-0.366356,0.161757,-0.858564
1144790688.872,-0.436979,0.028672,-0.807842
1144790688.883,-0.511525,-0.069185,-0.764924
1144790688.892,-0.578225,-0.065271,-0.749317
1144790688.902,-0.625306,-0.026128,-0.686890
1144790688.912,-0.680235,0.040415,-0.741514
1144790688.922,-0.684159,0.169586,-0.881974
1144790688.932,-0.641000,0.247872,-0.885876
1144790688.942,-0.574301,0.236129,-0.881974
1144790688.952,-0.523296,0.212643,-0.811744
1144790688.962,-0.550760,0.185243,-0.768826
1144790688.972,-0.605689,0.177415,-0.842958
1144790688.982,-0.644924,0.114786,-0.885876
1144790688.992,-0.589995,0.071729,-0.874171
1144790689.001,-0.519372,0.083472,-0.870269
1144790689.012,-0.476214,0.056072,-0.858564
1144790689.022,-0.464443,0.048243,-0.846859
1144790689.032,-0.491908,0.067815,-0.893679
1144790689.042,-0.535066,0.059986,-0.905384
1144790689.052,-0.554684,0.079558,-0.924893
1144790689.062,-0.554684,0.103043,-0.944401
1144790689.072,-0.531143,0.114786,-0.920991
1144790689.082,-0.484061,0.157843,-0.960008
1144790689.092,-0.452673,0.200900,-1.014631
1144790689.102,-0.436979,0.220472,-0.979516
1144790689.112,-0.452673,0.236129,-0.987320
1144790689.122,-0.491908,0.216557,-0.999025
1144790689.132,-0.531143,0.153929,-0.987320
1144790689.142,-0.558607,0.142186,-1.041943
1144790689.152,-0.542913,0.247872,-1.026336
1144790689.162,-0.499755,0.404443,-0.979516
1144790689.172,-0.511525,0.463157,-0.975615
1144790689.182,-0.487984,0.443585,-0.920991
1144790689.192,-0.480137,0.467071,-0.885876
1144790689.202,-0.491908,0.494471,-0.874171
1144790689.212,-0.503678,0.482728,-0.839056
1144790689.222,-0.503678,0.427928,-0.835154
1144790689.232,-0.499755,0.396614,-0.792236
1144790689.242,-0.499755,0.447500,-0.776629
1144790689.252,-0.491908,0.486643,-0.749317
1144790689.262,-0.444826,0.474900,-0.710300
1144790689.272,-0.405591,0.447500,-0.733711
1144790689.282,-0.378127,0.431843,-0.858564
1144790689.292,-0.382050,0.341814,-1.041943
1144790689.302,-0.370280,0.196986,-1.143387
1144790689.312,-0.350662,0.216557,-1.014631
1144790689.322,-0.272192,0.443585,-0.944401
1144790689.332,-0.295733,0.510128,-0.835154
1144790689.342,-0.409515,0.420100,-0.761022
1144790689.352,-0.523296,0.306586,-0.741514
1144790689.362,-0.586072,0.290929,-0.651775
1144790689.372,-0.621383,0.353557,-0.554233
1144790689.382,-0.601766,0.435757,-0.542528
1144790689.392,-0.601766,0.431843,-0.534725
1144790689.402,-0.589995,0.373128,-0.491807
1144790689.412,-0.582148,0.322243,-0.464495
1144790689.422,-0.601766,0.283100,-0.491807
1144790689.432,-0.621383,0.271357,-0.573742
1144790689.442,-0.589995,0.212643,-0.714202
1144790689.452,-0.531143,0.126529,-0.831253
1144790689.462,-0.448749,0.083472,-0.909286
1144790689.471,-0.362433,0.083472,-0.940500
1144790689.482,-0.315351,0.106958,-0.917089
1144790689.492,-0.346739,0.122615,-0.850761
1144790689.502,-0.393821,0.142186,-0.827351
1144790689.512,-0.456596,0.165672,-0.800039
1144790689.522,-0.452673,0.165672,-0.788334
1144790689.532,-0.401668,0.150015,-0.753219
1144790689.542,-0.350662,0.110872,-0.761022
1144790689.552,-0.342815,0.056072,-0.761022
1144790689.562,-0.358509,0.028672,-0.780531
1144790689.572,-0.362433,0.040415,-0.788334
1144790689.581,-0.346739,0.052158,-0.811744
1144790689.592,-0.303580,0.063901,-0.823449
1144790689.602,-0.272192,0.044329,-0.842958
1144790689.611,-0.280039,0.020844,-0.839056
1144790689.622,-0.319274,0.005186,-0.870269
1144790689.633,-0.331045,-0.037871,-0.881974
1144790689.642,-0.323198,-0.069185,-0.905384
1144790689.652,-0.307504,-0.061356,-0.979516
1144790689.662,-0.283963,-0.049613,-0.987320
1144790689.672,-0.283963,-0.033956,-1.006828
1144790689.681,-0.311427,-0.026128,-0.995123
1144790689.691,-0.346739,-0.049613,-0.995123
1144790689.701,-0.350662,-0.045699,-0.963910
1144790689.712,-0.331045,-0.033956,-0.936598
1144790689.721,-0.323198,-0.033956,-0.920991
1144790689.731,-0.311427,-0.030042,-0.936598
1144790689.741,-0.287886,-0.014385,-0.963910
1144790689.751,-0.276116,-0.002642,-0.960008
1144790689.761,-0.272192,-0.022214,-0.971713
1144790689.772,-0.252575,-0.014385,-0.956106
1144790689.782,-0.236881,-0.026128,-0.952205
1144790689.791,-0.205493,-0.092670,-0.944401
1144790689.801,-0.197646,-0.135728,-0.944401
1144790689.811,-0.197646,-0.155299,-0.920991
1144790689.821,-0.197646,-0.167042,-0.932696
1144790689.832,-0.189799,-0.155299,-0.913188
1144790689.841,-0.185875,-0.155299,-0.901483
1144790689.851,-0.185875,-0.151385,-0.936598
1144790689.861,-0.197646,-0.135728,-0.948303
1144790689.871,-0.201569,-0.135728,-0.960008
1144790689.882,-0.170181,-0.170956,-0.971713
1144790689.891,-0.127023,-0.198356,-0.971713
1144790689.901,-0.103482,-0.194442,-0.944401
1144790689.911,-0.087788,-0.167042,-0.940500
1144790689.921,-0.091712,-0.155299,-0.905384
1144790689.931,-0.099559,-0.159213,-0.893679
1144790689.941,-0.103482,-0.174870,-0.901483
1144790689.951,-0.107406,-0.221842,-0.956106
1144790689.961,-0.119176,-0.292299,-0.987320
1144790689.971,-0.083865,-0.327527,-0.975615
1144790689.981,-0.060324,-0.319699,-0.944401
1144790689.991,-0.036783,-0.307956,-0.928794
1144790690.000,-0.025012,-0.304041,-0.913188
1144790690.011,-0.009318,-0.292299,-0.905384
1144790690.021,-0.005395,-0.272727,-0.905384
1144790690.031,-0.017165,-0.241413,-0.901483
1144790690.041,-0.032859,-0.253156,-0.936598
1144790690.051,-0.005395,-0.311870,-0.956106
1144790690.061,0.029917,-0.343184,-0.967811
1144790690.071,0.061305,-0.382327,-0.975615
1144790690.081,0.100539,-0.409727,-0.952205
1144790690.091,0.112310,-0.437127,-0.932696
1144790690.102,0.112310,-0.425384,-0.948303
1144790690.111,0.108386,-0.417555,-0.932696
1144790690.121,0.139774,-0.413641,-0.920991
1144790690.131,0.155468,-0.441041,-0.909286
1144790690.141,0.159392,-0.468441,-0.920991
1144790690.151,0.163315,-0.464527,-0.936598
1144790690.161,0.167239,-0.484098,-0.928794
1144790690.171,0.171162,-0.503670,-0.948303
1144790690.181,0.175086,-0.519327,-0.924893
1144790690.190,0.194703,-0.495841,-0.924893
1144790690.201,0.190780,-0.460613,-0.909286
1144790690.211,0.198627,-0.444955,-0.874171
1144790690.222,0.182933,-0.437127,-0.862466
1144790690.231,0.179009,-0.433213,-0.862466
1144790690.241,0.182933,-0.476270,-0.835154
1144790690.251,0.171162,-0.488012,-0.839056
1144790690.261,0.202550,-0.511498,-0.846859
1144790690.271,0.222168,-0.562384,-0.846859
1144790690.280,0.257479,-0.585869,-0.858564
1144790690.291,0.292791,-0.593698,-0.842958
1144790690.301,0.284944,-0.585869,-0.854663
1144790690.311,0.261403,-0.578041,-0.901483
1144790690.321,0.233938,-0.585869,-0.940500
1144790690.331,0.257479,-0.581955,-1.026336
1144790690.341,0.304561,-0.601527,-1.073157
1144790690.351,0.379107,-0.640669,-1.069255
1144790690.361,0.434036,-0.715040,-1.038041
1144790690.371,0.465424,-0.777669,-1.022435
1144790690.380,0.469348,-0.797240,-0.940500
1144790690.391,0.434036,-0.762012,-0.878073
1144790690.401,0.371260,-0.699383,-0.811744
1144790690.411,0.316332,-0.652412,-0.729809
1144790690.421,0.281020,-0.617184,-0.710300
1144790690.431,0.253556,-0.581955,-0.671284
1144790690.441,0.296714,-0.550641,-0.628365
1144790690.451,0.355566,-0.538898,-0.597152
1144790690.461,0.398725,-0.562384,-0.616660
1144790690.471,0.426189,-0.605441,-0.601053
1144790690.480,0.437960,-0.632841,-0.632267
1144790690.491,0.437960,-0.652412,-0.608857
1144790690.501,0.426189,-0.644583,-0.659579
1144790690.511,0.449730,-0.675898,-0.690792
1144790690.521,0.437960,-0.718955,-0.722005
1144790690.531,0.461501,-0.715040,-0.741514
1144790690.541,0.453654,-0.699383,-0.725907
1144790690.551,0.481118,-0.718955,-0.718104
1144790690.561,0.508583,-0.750269,-0.698595
1144790690.571,0.547818,-0.789412,-0.702497
1144790690.580,0.587053,-0.844212,-0.706399
1144790690.591,0.626287,-0.891183,-0.710300
1144790690.601,0.649828,-0.949897,-0.706399
1144790690.610,0.661599,-1.032097,-0.733711
1144790690.621,0.649828,-1.098640,-0.819547
1144790690.631,0.665522,-1.094725,-0.842958
1144790690.641,0.641981,-1.059497,-0.862466
1144790690.651,0.610593,-1.008611,-0.881974
1144790690.661,0.524277,-0.945983,-0.897581
1144790690.671,0.430113,-0.820726,-0.932696
1144790690.680,0.316332,-0.687641,-0.960008
1144790690.691,0.249632,-0.507584,-0.940500
1144790690.701,0.179009,-0.280556,-0.889778
1144790690.711,0.112310,-0.131813,-0.874171
1144790690.721,0.108386,-0.127899,-0.889778
1144790690.731,0.128004,-0.186613,-0.905384
1144790690.741,0.159392,-0.288384,-0.975615
1144790690.751,0.206474,-0.433213,-1.010730
1144790690.761,0.281020,-0.570212,-1.049746
1144790690.770,0.324179,-0.699383,-1.049746
1144790690.780,0.339873,-0.797240,-1.041943
1144790690.791,0.335949,-0.828555,-1.022435
1144790690.801,0.312408,-0.816812,-1.018533
1144790690.811,0.288867,-0.769840,-1.010730
1144790690.821,0.288867,-0.707212,-0.995123
1144790690.831,0.320255,-0.664155,-0.987320
1144790690.841,0.339873,-0.601527,-0.940500
1144790690.852,0.347719,-0.534984,-0.924893
1144790690.861,0.324179,-0.515412,-0.901483
1144790690.870,0.281020,-0.527155,-0.905384
1144790690.880,0.210397,-0.507584,-0.885876
1144790690.891,0.182933,-0.480184,-0.893679
1144790690.900,0.194703,-0.468441,-0.913188
1144790690.911,0.214321,-0.456698,-0.878073
1144790690.920,0.206474,-0.429298,-0.874171
1144790690.930,0.194703,-0.405813,-0.842958
1144790690.940,0.147621,-0.378413,-0.827351
1144790690.949,0.124080,-0.382327,-0.831253
1144790690.960,0.108386,-0.409727,-0.811744
1144790690.970,0.108386,-0.397984,-0.788334
1144790690.980,0.088769,-0.366670,-0.784432
1144790690.990,0.049534,-0.362756,-0.780531
1144790691.000,0.018146,-0.339270,-0.803941
1144790691.091,-0.028936,-0.339270,-0.807842
1144790691.091,-0.048553,-0.311870,-0.796137
1144790691.091,-0.052477,-0.284470,-0.776629
1144790691.092,-0.052477,-0.272727,-0.772727
1144790691.092,-0.052477,-0.260984,-0.776629
1144790691.092,-0.076018,-0.245327,-0.772727
1144790691.093,-0.095635,-0.206185,-0.776629
1144790691.093,-0.130947,-0.210099,-0.768826
1144790691.094,-0.178028,-0.214013,-0.780531
1144790691.100,-0.205493,-0.163127,-0.811744
1144790691.110,-0.232957,-0.096585,-0.784432
1144790691.120,-0.252575,-0.061356,-0.819547
1144790691.130,-0.240804,-0.092670,-0.842958
1144790691.140,-0.229034,-0.073099,-0.835154
1144790691.150,-0.232957,-0.018299,-0.811744
1144790691.160,-0.240804,0.063901,-0.776629
1144790691.170,-0.276116,0.122615,-0.788334
1144790691.180,-0.338892,0.134358,-0.792236
1144790691.190,-0.385974,0.165672,-0.811744
1144790691.200,-0.397744,0.169586,-0.815646
1144790691.210,-0.382050,0.157843,-0.811744
1144790691.220,-0.334968,0.153929,-0.811744
1144790691.230,-0.299657,0.110872,-0.878073
1144790691.240,-0.295733,0.091301,-0.870269
1144790691.250,-0.319274,0.130443,-0.850761
1144790691.260,-0.350662,0.157843,-0.846859
1144790691.270,-0.362433,0.169586,-0.839056
1144790691.280,-0.338892,0.200900,-0.819547
1144790691.290,-0.315351,0.232215,-0.796137
1144790691.300,-0.295733,0.263529,-0.772727
1144790691.310,-0.299657,0.259614,-0.761022
1144790691.321,-0.334968,0.251786,-0.784432
1144790691.330,-0.362433,0.267443,-0.807842
1144790691.340,-0.382050,0.271357,-0.784432
1144790691.350,-0.397744,0.283100,-0.776629
1144790691.360,-0.382050,0.302671,-0.749317
1144790691.370,-0.385974,0.287014,-0.725907
1144790691.380,-0.409515,0.279186,-0.757121
1144790691.390,-0.448749,0.283100,-0.745416
1144790691.400,-0.472290,0.287014,-0.737612
1144790691.410,-0.476214,0.287014,-0.725907
1144790691.420,-0.464443,0.318329,-0.729809
1144790691.430,-0.452673,0.330071,-0.710300
1144790691.440,-0.452673,0.337900,-0.725907
1144790691.450,-0.448749,0.314414,-0.753219
1144790691.460,-0.464443,0.330071,-0.718104
1144790691.470,-0.484061,0.361386,-0.753219
1144790691.480,-0.499755,0.380957,-0.753219
1144790691.490,-0.499755,0.388786,-0.737612
1144790691.500,-0.511525,0.416186,-0.741514
1144790691.510,-0.499755,0.443585,-0.718104
1144790691.520,-0.523296,0.470985,-0.706399
1144790691.530,-0.562531,0.486643,-0.718104
1144790691.540,-0.613536,0.494471,-0.729809
1144790691.550,-0.660618,0.510128,-0.710300
1144790691.560,-0.699853,0.537528,-0.722005
1144790691.570,-0.703776,0.568842,-0.745416
1144790691.580,-0.699853,0.588414,-0.772727
1144790691.590,-0.676312,0.584499,-0.784432
1144790691.601,-0.641000,0.568842,-0.803941
1144790691.609,-0.605689,0.580585,-0.792236
1144790691.620,-0.601766,0.592328,-0.761022
1144790691.630,-0.605689,0.635385,-0.757121
1144790691.640,-0.605689,0.651042,-0.722005
1144790691.650,-0.613536,0.635385,-0.679087
1144790691.660,-0.601766,0.600157,-0.671284
1144790691.670,-0.586072,0.600157,-0.647874
1144790691.680,-0.574301,0.588414,-0.620562
1144790691.690,-0.578225,0.553185,-0.651775
1144790691.700,-0.570378,0.537528,-0.663480
1144790691.710,-0.593919,0.545357,-0.647874
1144790691.720,-0.597842,0.541442,-0.659579
1144790691.730,-0.601766,0.525785,-0.671284
1144790691.740,-0.578225,0.498385,-0.636169
1144790691.750,-0.566454,0.494471,-0.632267
1144790691.760,-0.582148,0.494471,-0.601053
1144790691.770,-0.613536,0.517957,-0.624464
1144790691.780,-0.648848,0.517957,-0.647874
1144790691.790,-0.648848,0.482728,-0.694694
1144790691.800,-0.641000,0.447500,-0.710300
1144790691.810,-0.601766,0.459243,-0.753219
1144790691.820,-0.574301,0.467071,-0.725907
1144790691.830,-0.570378,0.451414,-0.764924
1144790691.840,-0.558607,0.443585,-0.776629
1144790691.850,-0.546837,0.424014,-0.788334
1144790691.860,-0.535066,0.412271,-0.803941
1144790691.870,-0.515449,0.384871,-0.792236
1144790691.880,-0.491908,0.400528,-0.776629
1144790691.890,-0.464443,0.384871,-0.764924
1144790691.900,-0.460520,0.357471,-0.768826
1144790691.910,-0.468367,0.349643,-0.753219
1144790691.920,-0.452673,0.341814,-0.749317
1144790691.930,-0.444826,0.330071,-0.772727
1144790691.939,-0.436979,0.302671,-0.757121
1144790691.949,-0.409515,0.290929,-0.764924
1144790691.959,-0.393821,0.287014,-0.753219
1144790691.969,-0.389897,0.267443,-0.776629
1144790691.979,-0.378127,0.228300,-0.792236
1144790691.989,-0.350662,0.200900,-0.768826
1144790691.999,-0.307504,0.177415,-0.757121
1144790692.010,-0.268269,0.161757,-0.718104
1144790692.020,-0.268269,0.153929,-0.706399
1144790692.029,-0.303580,0.126529,-0.710300
1144790692.039,-0.331045,0.095215,-0.749317
1144790692.049,-0.331045,0.083472,-0.772727
1144790692.059,-0.299657,0.075643,-0.780531
1144790692.071,-0.256498,0.083472,-0.796137
1144790692.079,-0.229034,0.103043,-0.823449
1144790692.089,-0.197646,0.071729,-0.866368
1144790692.099,-0.185875,0.071729,-0.924893
1144790692.109,-0.154487,0.083472,-0.952205
1144790692.119,-0.142717,0.083472,-0.944401
1144790692.129,-0.119176,0.091301,-0.944401
1144790692.139,-0.134870,0.063901,-0.960008
1144790692.149,-0.134870,0.048243,-0.936598
1144790692.159,-0.138794,0.024758,-0.928794
1144790692.169,-0.123100,0.005186,-0.917089
1144790692.179,-0.107406,-0.006556,-0.924893
1144790692.189,-0.079941,-0.037871,-0.909286
1144790692.199,-0.052477,-0.061356,-0.905384
1144790692.209,-0.040706,-0.061356,-0.897581
1144790692.220,-0.021089,-0.045699,-0.885876
1144790692.229,-0.009318,-0.033956,-0.881974
1144790692.239,0.010299,-0.030042,-0.874171
1144790692.249,0.029917,-0.033956,-0.897581
1144790692.259,0.049534,-0.049613,-0.905384
1144790692.269,0.041687,-0.069185,-0.917089
1144790692.279,0.045611,-0.127899,-0.913188
1144790692.289,0.033840,-0.151385,-0.897581
1144790692.299,0.029917,-0.163127,-0.917089
1144790692.309,0.033840,-0.186613,-0.917089
1144790692.319,0.061305,-0.214013,-0.917089
1144790692.329,0.076999,-0.214013,-0.920991
1144790692.339,0.069152,-0.178785,-0.936598
1144790692.349,0.057381,-0.147470,-0.975615
1144790692.359,0.061305,-0.151385,-0.967811
1144790692.369,0.092693,-0.143556,-0.975615
1144790692.379,0.108386,-0.127899,-0.960008
1144790692.389,0.147621,-0.120070,-0.944401
1144790692.399,0.163315,-0.182699,-0.901483
1144790692.408,0.147621,-0.272727,-0.924893
1144790692.419,0.120157,-0.319699,-0.932696
1144790692.429,0.108386,-0.343184,-0.928794
1144790692.439,0.124080,-0.382327,-0.936598
1144790692.449,0.182933,-0.456698,-0.893679
1144790692.459,0.261403,-0.488012,-0.881974
1144790692.469,0.304561,-0.468441,-0.858564
1144790692.479,0.304561,-0.464527,-0.854663
1144790692.489,0.277097,-0.472355,-0.874171
1144790692.499,0.245709,-0.491927,-0.881974
1144790692.509,0.241785,-0.542812,-0.870269
1144790692.519,0.288867,-0.574126,-0.831253
1144790692.528,0.339873,-0.550641,-0.807842
1144790692.540,0.383031,-0.531069,-0.811744
1144790692.549,0.410495,-0.546727,-0.772727
1144790692.559,0.398725,-0.554555,-0.800039
1144790692.569,0.383031,-0.585869,-0.807842
1144790692.579,0.375184,-0.593698,-0.784432
1144790692.589,0.386954,-0.574126,-0.784432
1144790692.599,0.406572,-0.613269,-0.811744
1144790692.609,0.426189,-0.664155,-0.811744
1144790692.619,0.394801,-0.699383,-0.780531
1144790692.629,0.379107,-0.668069,-0.737612
1144790692.639,0.379107,-0.648498,-0.710300
1144790692.649,0.383031,-0.648498,-0.698595
1144790692.659,0.386954,-0.664155,-0.694694
1144790692.669,0.406572,-0.683726,-0.694694
1144790692.679,0.418342,-0.699383,-0.690792
1144790692.689,0.410495,-0.718955,-0.682989
1144790692.699,0.406572,-0.718955,-0.706399
1144790692.708,0.430113,-0.726783,-0.710300
1144790692.718,0.449730,-0.758098,-0.725907
1144790692.728,0.508583,-0.805069,-0.788334
1144790692.738,0.575282,-0.867697,-0.792236
1144790692.750,0.630211,-0.922497,-0.811744
1144790692.758,0.641981,-0.922497,-0.761022
1144790692.768,0.594900,-0.863783,-0.718104
1144790692.778,0.512506,-0.801155,-0.663480
1144790692.788,0.449730,-0.746355,-0.616660
1144790692.798,0.418342,-0.715040,-0.624464
1144790692.808,0.398725,-0.703298,-0.597152
1144790692.818,0.398725,-0.652412,-0.569840
1144790692.828,0.390878,-0.601527,-0.558135
1144790692.838,0.390878,-0.597612,-0.558135
1144790692.848,0.394801,-0.609355,-0.515217
1144790692.858,0.402648,-0.585869,-0.487905
1144790692.868,0.430113,-0.585869,-0.472298
1144790692.878,0.492889,-0.601527,-0.444986
1144790692.888,0.559588,-0.656326,-0.444986
1144790692.898,0.583129,-0.726783,-0.441085
1144790692.908,0.587053,-0.789412,-0.437183
1144790692.918,0.579206,-0.828555,-0.398166
1144790692.928,0.594900,-0.855954,-0.370854
1144790692.938,0.594900,-0.840297,-0.351346
1144790692.948,0.587053,-0.816812,-0.366953
1144790692.958,0.583129,-0.785497,-0.374756
1144790692.968,0.575282,-0.777669,-0.378658
1144790692.978,0.583129,-0.801155,-0.359149
1144790692.988,0.598823,-0.805069,-0.363051
1144790692.998,0.614517,-0.801155,-0.359149
1144790693.009,0.641981,-0.820726,-0.382560
1144790693.018,0.653752,-0.824640,-0.386461
1144790693.028,0.673369,-0.808983,-0.363051
1144790693.038,0.696910,-0.805069,-0.347444
1144790693.048,0.724375,-0.820726,-0.335739
1144790693.058,0.747916,-0.816812,-0.331838
1144790693.068,0.763610,-0.820726,-0.320133
1144790693.078,0.771457,-0.816812,-0.285018
1144790693.088,0.794998,-0.801155,-0.265509
1144790693.098,0.818539,-0.812897,-0.226492
1144790693.108,0.853850,-0.828555,-0.195279
1144790693.118,0.885238,-0.883354,-0.183574
1144790693.128,0.928396,-0.957726,-0.191377
1144790693.138,0.940167,-1.020354,-0.199181
1144790693.148,0.944090,-1.067325,-0.218689
1144790693.158,0.932320,-1.079068,-0.273313
1144790693.168,0.948014,-1.082983,-0.347444
1144790693.178,0.955861,-1.079068,-0.390363
1144790693.188,0.916626,-1.016440,-0.448888
1144790693.198,0.834232,-0.910754,-0.546430
1144790693.208,0.751839,-0.832469,-0.573742
1144790693.218,0.661599,-0.750269,-0.601053
1144790693.228,0.622364,-0.703298,-0.604955
1144790693.238,0.583129,-0.679812,-0.632267
1144790693.248,0.524277,-0.625012,-0.632267
1144790693.258,0.437960,-0.566298,-0.628365
1144790693.268,0.328102,-0.444955,-0.667382
1144790693.278,0.273173,-0.335356,-0.682989
1144790693.289,0.222168,-0.249242,-0.710300
1144790693.298,0.218244,-0.159213,-0.737612
1144790693.308,0.284944,-0.120070,-0.768826
1144790693.318,0.406572,-0.174870,-0.831253
1144790693.328,0.532124,-0.304041,-0.897581
1144790693.338,0.539971,-0.480184,-0.940500
1144790693.348,0.477195,-0.660241,-1.030238
1144790693.358,0.343796,-0.785497,-1.022435
1144790693.368,0.218244,-0.879440,-1.069255
1144790693.378,0.182933,-0.949897,-1.038041
1144790693.388,0.230015,-0.918583,-1.010730
1144790693.398,0.277097,-0.812897,-0.956106
1144790693.408,0.316332,-0.683726,-0.920991
1144790693.418,0.296714,-0.593698,-0.971713
1144790693.428,0.273173,-0.534984,-0.940500
1144790693.438,0.265326,-0.558469,-0.956106
1144790693.448,0.269250,-0.519327,-0.924893
1144790693.457,0.284944,-0.448870,-0.897581
1144790693.468,0.308485,-0.394070,-0.878073
1144790693.478,0.277097,-0.362756,-0.854663
1144790693.488,0.222168,-0.343184,-0.811744
1144790693.498,0.163315,-0.378413,-0.827351
1144790693.508,0.131927,-0.397984,-0.827351
1144790693.518,0.128004,-0.433213,-0.823449
1144790693.528,0.124080,-0.421470,-0.839056
1144790693.538,0.120157,-0.397984,-0.862466
1144790693.548,0.120157,-0.394070,-0.858564
1144790693.558,0.096616,-0.378413,-0.835154
1144790693.568,0.076999,-0.351013,-0.827351
1144790693.578,0.084846,-0.304041,-0.776629
1144790693.588,0.088769,-0.304041,-0.757121
1144790693.598,0.053458,-0.319699,-0.741514
1144790693.608,0.014223,-0.292299,-0.725907
1144790693.618,-0.032859,-0.253156,-0.741514
1144790693.628,-0.068171,-0.229670,-0.725907
1144790693.638,-0.095635,-0.206185,-0.733711
1144790693.648,-0.123100,-0.178785,-0.753219
1144790693.658,-0.127023,-0.135728,-0.761022
1144790693.668,-0.130947,-0.108328,-0.776629
1144790693.677,-0.123100,-0.108328,-0.792236
1144790693.688,-0.111329,-0.092670,-0.792236
1144790693.698,-0.111329,-0.065271,-0.796137
1144790693.707,-0.130947,-0.041785,-0.761022
1144790693.717,-0.170181,-0.014385,-0.757121
1144790693.727,-0.197646,-0.014385,-0.725907
1144790693.737,-0.232957,0.020844,-0.733711
1144790693.747,-0.240804,0.036501,-0.741514
1144790693.759,-0.225110,0.036501,-0.768826
1144790693.767,-0.229034,0.052158,-0.788334
1144790694.777,-0.225110,0.048243,-0.788334
1144790694.787,-0.240804,0.059986,-0.792236
1144790694.797,-0.264345,0.087386,-0.811744
1144790694.807,-0.268269,0.122615,-0.819547
1144790694.817,-0.268269,0.142186,-0.811744
1144790694.827,-0.272192,0.150015,-0.823449
1144790694.837,-0.287886,0.177415,-0.839056
1144790694.847,-0.307504,0.165672,-0.811744
1144790694.857,-0.338892,0.153929,-0.803941
1144790694.867,-0.362433,0.181329,-0.811744
1144790694.877,-0.374203,0.224386,-0.811744
1144790694.887,-0.374203,0.259614,-0.803941
1144790694.897,-0.370280,0.298757,-0.807842
1144790694.907,-0.350662,0.298757,-0.792236
1144790694.917,-0.366356,0.318329,-0.800039
1144790694.927,-0.409515,0.341814,-0.772727
1144790694.937,-0.460520,0.357471,-0.768826
1144790694.947,-0.519372,0.341814,-0.784432
1144790694.957,-0.542913,0.345729,-0.768826
1144790694.967,-0.558607,0.353557,-0.768826
1144790694.987,-0.586072,0.380957,-0.764924
1144790694.997,-0.656694,0.388786,-0.792236
1144790695.007,-0.731241,0.416186,-0.800039
1144790695.017,-0.766552,0.443585,-0.823449
1144790695.027,-0.758705,0.478814,-0.874171
1144790695.037,-0.743011,0.482728,-0.924893
1144790695.047,-0.723394,0.474900,-0.979516
1144790695.056,-0.703776,0.459243,-0.995123
1144790695.067,-0.692006,0.482728,-0.967811
1144790695.077,-0.656694,0.486643,-0.940500
1144790695.087,-0.578225,0.463157,-0.862466
1144790695.097,-0.523296,0.451414,-0.792236
1144790695.107,-0.507602,0.435757,-0.749317
1144790695.117,-0.535066,0.431843,-0.706399
1144790695.127,-0.562531,0.431843,-0.690792
1144790695.137,-0.582148,0.439671,-0.659579
1144790695.147,-0.562531,0.447500,-0.636169
1144790695.157,-0.550760,0.463157,-0.647874
1144790695.167,-0.542913,0.459243,-0.686890
1144790695.177,-0.527219,0.470985,-0.667382
1144790695.187,-0.531143,0.498385,-0.690792
1144790695.197,-0.523296,0.490557,-0.686890
1144790695.207,-0.495831,0.470985,-0.679087
1144790695.218,-0.499755,0.478814,-0.679087
1144790695.228,-0.523296,0.470985,-0.714202
1144790695.237,-0.546837,0.412271,-0.741514
1144790695.247,-0.570378,0.365300,-0.772727
1144790695.257,-0.570378,0.330071,-0.772727
1144790695.267,-0.566454,0.349643,-0.796137
1144790695.277,-0.574301,0.357471,-0.792236
1144790695.287,-0.578225,0.353557,-0.811744
1144790695.297,-0.586072,0.330071,-0.827351
1144790695.306,-0.582148,0.333986,-0.858564
1144790695.317,-0.578225,0.337900,-0.901483
1144790695.327,-0.558607,0.337900,-0.874171
1144790695.337,-0.519372,0.341814,-0.870269
1144790695.347,-0.491908,0.322243,-0.870269
1144790695.357,-0.476214,0.290929,-0.862466
1144790695.367,-0.487984,0.279186,-0.870269
1144790695.377,-0.476214,0.275272,-0.854663
1144790695.387,-0.452673,0.271357,-0.850761
1144790695.396,-0.433055,0.251786,-0.850761
1144790695.407,-0.409515,0.243957,-0.854663
1144790695.417,-0.409515,0.236129,-0.850761
1144790695.427,-0.421285,0.243957,-0.874171
1144790695.437,-0.440902,0.224386,-0.874171
1144790695.447,-0.429132,0.220472,-0.870269
1144790695.457,-0.401668,0.196986,-0.850761
1144790695.467,-0.358509,0.185243,-0.839056
1144790695.476,-0.342815,0.153929,-0.846859
1144790695.486,-0.342815,0.114786,-0.835154
1144790695.496,-0.342815,0.106958,-0.815646
1144790695.508,-0.338892,0.095215,-0.835154
1144790695.517,-0.323198,0.083472,-0.827351
1144790695.526,-0.299657,0.052158,-0.815646
1144790695.536,-0.268269,0.040415,-0.835154
1144790695.546,-0.256498,0.028672,-0.792236
1144790695.556,-0.248651,0.028672,-0.815646
1144790695.566,-0.252575,0.001272,-0.839056
1144790695.576,-0.244728,-0.018299,-0.866368
1144790695.586,-0.225110,-0.014385,-0.889778
1144790695.596,-0.197646,-0.006556,-0.858564
1144790695.606,-0.174105,-0.014385,-0.854663
1144790695.616,-0.181952,-0.049613,-0.878073
1144790695.626,-0.174105,-0.084842,-0.874171
1144790695.636,-0.185875,-0.104413,-0.885876
1144790695.646,-0.166258,-0.108328,-0.909286
1144790695.656,-0.154487,-0.116156,-0.928794
1144790695.666,-0.154487,-0.143556,-0.920991
1144790695.676,-0.150564,-0.147470,-0.920991
1144790695.686,-0.138794,-0.135728,-0.885876
1144790695.696,-0.146641,-0.127899,-0.866368
1144790695.706,-0.134870,-0.116156,-0.862466
1144790695.716,-0.115253,-0.131813,-0.893679
1144790695.726,-0.095635,-0.135728,-0.905384
1144790695.736,-0.087788,-0.139642,-0.940500
1144790695.746,-0.064247,-0.120070,-0.956106
1144790695.756,-0.048553,-0.112242,-0.936598
1144790695.766,-0.052477,-0.116156,-0.924893
1144790695.776,-0.048553,-0.131813,-0.944401
1144790695.786,-0.072094,-0.143556,-0.924893
1144790695.796,-0.079941,-0.151385,-0.940500
1144790695.806,-0.087788,-0.174870,-0.932696
1144790695.816,-0.060324,-0.174870,-0.913188
1144790695.826,-0.036783,-0.163127,-0.901483
1144790695.836,-0.017165,-0.190527,-0.909286
1144790695.846,-0.009318,-0.221842,-0.913188
1144790695.856,-0.025012,-0.237499,-0.881974
1144790695.866,-0.048553,-0.253156,-0.881974
1144790695.876,-0.052477,-0.249242,-0.881974
1144790695.886,-0.044630,-0.245327,-0.881974
1144790695.896,-0.005395,-0.253156,-0.905384
1144790695.906,0.037764,-0.280556,-0.920991
1144790695.916,0.096616,-0.284470,-0.924893
1144790695.926,0.124080,-0.268813,-0.885876
1144790695.936,0.120157,-0.288384,-0.870269
1144790695.946,0.112310,-0.311870,-0.874171
1144790695.956,0.076999,-0.331441,-0.885876
1144790695.966,0.065228,-0.343184,-0.893679
1144790695.977,0.069152,-0.331441,-0.901483
1144790695.986,0.092693,-0.319699,-0.885876
1144790695.995,0.139774,-0.315784,-0.878073
1144790696.006,0.179009,-0.339270,-0.893679
1144790696.016,0.198627,-0.390156,-0.885876
1144790696.026,0.171162,-0.401898,-0.905384
1144790696.036,0.116233,-0.413641,-0.901483
1144790696.046,0.084846,-0.441041,-0.932696
1144790696.056,0.080922,-0.437127,-0.913188
1144790696.066,0.124080,-0.425384,-0.920991
1144790696.076,0.194703,-0.421470,-0.917089
1144790696.086,0.226091,-0.425384,-0.924893
1144790696.096,0.237862,-0.429298,-0.901483
1144790696.106,0.214321,-0.464527,-0.901483
1144790696.115,0.182933,-0.499755,-0.885876
1144790696.126,0.182933,-0.531069,-0.881974
1144790696.136,0.233938,-0.519327,-0.866368
1144790696.146,0.284944,-0.527155,-0.803941
1144790696.156,0.328102,-0.562384,-0.796137
1144790696.166,0.355566,-0.574126,-0.761022
1144790696.176,0.343796,-0.566298,-0.753219
1144790696.186,0.335949,-0.578041,-0.792236
1144790696.196,0.312408,-0.581955,-0.803941
1144790696.205,0.339873,-0.581955,-0.792236
1144790696.216,0.359490,-0.597612,-0.811744
1144790696.226,0.398725,-0.632841,-0.811744
1144790696.235,0.445807,-0.675898,-0.823449
1144790696.246,0.469348,-0.687641,-0.850761
1144790696.255,0.488965,-0.691555,-0.885876
1144790696.266,0.524277,-0.722869,-0.932696
1144790696.275,0.579206,-0.765926,-0.971713
1144790696.285,0.626287,-0.808983,-0.983418
1144790696.295,0.653752,-0.832469,-0.932696
1144790696.305,0.630211,-0.859869,-0.885876
1144790696.315,0.575282,-0.879440,-0.862466
1144790696.325,0.504659,-0.883354,-0.788334
1144790696.335,0.414419,-0.840297,-0.768826
1144790696.345,0.343796,-0.742441,-0.698595
1144790696.355,0.292791,-0.660241,-0.651775
1144790696.365,0.273173,-0.562384,-0.604955
1144790696.375,0.288867,-0.472355,-0.542528
1144790696.385,0.308485,-0.429298,-0.515217
1144790696.395,0.379107,-0.429298,-0.526922
1144790696.405,0.410495,-0.484098,-0.507413
1144790696.415,0.437960,-0.534984,-0.515217
1144790696.425,0.496812,-0.538898,-0.495708
1144790696.435,0.532124,-0.562384,-0.452790
1144790696.446,0.579206,-0.628926,-0.433281
1144790696.455,0.614517,-0.722869,-0.421576
1144790696.465,0.622364,-0.816812,-0.413773
1144790696.475,0.641981,-0.883354,-0.421576
1144790696.485,0.669446,-0.895097,-0.429380
1144790696.495,0.704757,-0.875526,-0.421576
1144790696.505,0.740069,-0.848126,-0.433281
1144790696.515,0.747916,-0.808983,-0.413773
1144790696.525,0.732222,-0.801155,-0.425478
1144790696.535,0.708681,-0.789412,-0.476200
1144790696.545,0.708681,-0.765926,-0.468396
1144790696.555,0.700834,-0.765926,-0.448888
1144790696.565,0.712604,-0.738526,-0.429380
1144790696.575,0.732222,-0.656326,-0.409871
1144790696.585,0.716528,-0.640669,-0.382560
1144790696.595,0.724375,-0.738526,-0.386461
1144790696.605,0.728298,-0.848126,-0.398166
1144790696.615,0.783227,-0.895097,-0.402068
1144790696.625,0.849926,-0.918583,-0.386461
1144790696.635,0.924473,-0.942069,-0.335739
1144790696.645,0.963708,-0.981211,-0.382560
1144790696.655,0.951937,-1.047754,-0.425478
1144790696.665,0.924473,-1.090811,-0.495708
1144790696.675,0.889161,-1.059497,-0.589348
1144790696.685,0.853850,-0.985126,-0.636169
1144790696.695,0.822462,-0.863783,-0.706399
1144790696.705,0.779304,-0.762012,-0.725907
1144790696.715,0.704757,-0.687641,-0.753219
1144790696.725,0.614517,-0.625012,-0.725907
1144790696.735,0.520353,-0.562384,-0.753219
1144790696.745,0.359490,-0.531069,-0.807842
1144790696.755,0.218244,-0.460613,-0.815646
1144790696.765,0.135851,-0.351013,-0.788334
1144790696.775,0.147621,-0.292299,-0.788334
1144790696.785,0.230015,-0.323613,-0.776629
1144790696.794,0.343796,-0.401898,-0.764924
1144790696.805,0.390878,-0.491927,-0.780531
1144790696.814,0.402648,-0.550641,-0.831253
1144790696.825,0.394801,-0.597612,-0.866368
1144790696.834,0.375184,-0.656326,-0.932696
1144790696.845,0.367337,-0.664155,-0.987320
1144790696.855,0.359490,-0.625012,-0.991221
1144790696.865,0.371260,-0.570212,-0.999025
1144790696.875,0.375184,-0.621098,-0.956106
1144790696.885,0.390878,-0.628926,-0.936598
1144790696.895,0.355566,-0.562384,-0.952205
1144790696.905,0.335949,-0.499755,-0.905384
1144790696.915,0.320255,-0.452784,-0.897581
1144790696.924,0.316332,-0.433213,-0.905384
1144790696.934,0.308485,-0.421470,-0.905384
1144790696.944,0.284944,-0.425384,-0.917089
1144790696.954,0.273173,-0.429298,-0.893679
1144790696.964,0.233938,-0.425384,-0.901483
1144790696.974,0.218244,-0.421470,-0.893679
1144790696.984,0.186856,-0.417555,-0.909286
1144790696.994,0.159392,-0.405813,-0.881974
1144790697.004,0.116233,-0.397984,-0.862466
1144790697.014,0.088769,-0.362756,-0.839056
1144790697.024,0.061305,-0.335356,-0.831253
1144790697.034,0.037764,-0.339270,-0.827351
1144790697.044,-0.013242,-0.339270,-0.788334
1144790697.054,-0.028936,-0.304041,-0.772727
1144790697.064,-0.040706,-0.249242,-0.780531
1144790697.074,-0.060324,-0.206185,-0.761022
1144790697.084,-0.052477,-0.174870,-0.780531
1144790697.094,-0.060324,-0.151385,-0.757121
1144790697.104,-0.068171,-0.147470,-0.768826
1144790697.114,-0.091712,-0.143556,-0.764924
1144790697.124,-0.127023,-0.155299,-0.772727
1144790697.134,-0.170181,-0.163127,-0.745416
1144790697.144,-0.217263,-0.131813,-0.776629
1144790697.154,-0.248651,-0.088756,-0.792236
1144790697.165,-0.244728,-0.045699,-0.792236
1144790697.174,-0.229034,-0.030042,-0.788334
1144790697.184,-0.236881,-0.006556,-0.745416
1144790697.196,-0.256498,0.032586,-0.737612
1144790697.204,-0.291810,0.059986,-0.729809
1144790697.215,-0.331045,0.071729,-0.729809
1144790697.224,-0.370280,0.079558,-0.753219
1144790697.234,-0.382050,0.099129,-0.757121
1144790697.244,-0.405591,0.091301,-0.741514
1144790697.254,-0.444826,0.075643,-0.741514
1144790697.264,-0.452673,0.099129,-0.722005
1144790697.274,-0.464443,0.142186,-0.702497
1144790697.284,-0.499755,0.204815,-0.718104
1144790697.294,-0.476214,0.240043,-0.757121
1144790697.304,-0.460520,0.279186,-0.780531
1144790697.314,-0.468367,0.294843,-0.745416
1144790697.324,-0.527219,0.283100,-0.729809
1144790697.334,-0.586072,0.263529,-0.729809
1144790697.344,-0.613536,0.259614,-0.745416
1144790697.354,-0.593919,0.271357,-0.761022
1144790697.364,-0.554684,0.294843,-0.749317
1144790697.374,-0.542913,0.333986,-0.757121
1144790697.384,-0.578225,0.349643,-0.745416
1144790697.394,-0.617460,0.400528,-0.729809
1144790697.404,-0.652771,0.447500,-0.718104
1144790697.414,-0.699853,0.474900,-0.682989
1144790697.424,-0.711623,0.463157,-0.667382
1144790697.434,-0.680235,0.451414,-0.640070
1144790697.444,-0.664542,0.451414,-0.647874
1144790697.454,-0.652771,0.435757,-0.647874
1144790697.464,-0.652771,0.396614,-0.636169
1144790697.474,-0.633154,0.373128,-0.604955
1144790697.484,-0.641000,0.369214,-0.593250
1144790697.494,-0.652771,0.388786,-0.608857
1144790697.504,-0.656694,0.388786,-0.604955
1144790697.514,-0.629230,0.380957,-0.565938
1144790697.524,-0.589995,0.404443,-0.538627
1144790697.534,-0.570378,0.427928,-0.503512
1144790697.544,-0.578225,0.431843,-0.515217
1144790697.554,-0.574301,0.439671,-0.526922
1144790697.564,-0.593919,0.435757,-0.534725
1144790697.574,-0.609613,0.420100,-0.534725
1144790697.584,-0.641000,0.443585,-0.562037
1144790697.594,-0.633154,0.474900,-0.526922
1144790697.604,-0.629230,0.470985,-0.519118
1144790697.614,-0.664542,0.478814,-0.519118
1144790697.624,-0.727317,0.498385,-0.554233
1144790697.634,-0.801864,0.517957,-0.558135
1144790697.644,-0.848946,0.557100,-0.562037
1144790697.654,-0.860716,0.604071,-0.546430
1144790697.665,-0.860716,0.615814,-0.562037
1144790697.674,-0.856793,0.607985,-0.593250
1144790697.683,-0.856793,0.635385,-0.616660
1144790697.693,-0.860716,0.670614,-0.620562
1144790697.703,-0.852869,0.674528,-0.628365
1144790697.713,-0.825405,0.666699,-0.624464
1144790697.723,-0.790093,0.631471,-0.647874
1144790697.733,-0.774399,0.596242,-0.612759
1144790697.743,-0.766552,0.592328,-0.597152
1144790697.753,-0.758705,0.576671,-0.581545
1144790697.763,-0.746935,0.537528,-0.565938
1144790697.773,-0.739088,0.506214,-0.569840
1144790697.783,-0.727317,0.502300,-0.565938
1144790697.793,-0.711623,0.502300,-0.573742
1144790697.803,-0.711623,0.490557,-0.593250
1144790697.813,-0.699853,0.490557,-0.601053
1144790697.823,-0.668465,0.525785,-0.616660
1144790697.833,-0.656694,0.541442,-0.624464
1144790697.843,-0.652771,0.541442,-0.640070
1144790697.853,-0.648848,0.525785,-0.632267
1144790697.863,-0.637077,0.486643,-0.616660
1144790697.873,-0.625306,0.455328,-0.608857
1144790697.883,-0.617460,0.424014,-0.647874
1144790697.893,-0.609613,0.408357,-0.655677
1144790697.903,-0.574301,0.380957,-0.663480
1144790697.913,-0.542913,0.349643,-0.686890
1144790697.923,-0.523296,0.326157,-0.694694
1144790697.933,-0.507602,0.318329,-0.718104
1144790697.943,-0.495831,0.298757,-0.725907
1144790697.953,-0.476214,0.294843,-0.718104
1144790697.963,-0.468367,0.275272,-0.722005
1144790697.973,-0.444826,0.267443,-0.725907
1144790697.983,-0.417361,0.251786,-0.710300
1144790697.993,-0.409515,0.216557,-0.737612
1144790698.003,-0.401668,0.189157,-0.737612
1144790698.013,-0.397744,0.177415,-0.753219
1144790698.023,-0.393821,0.181329,-0.764924
1144790698.033,-0.366356,0.173500,-0.757121
1144790698.043,-0.342815,0.157843,-0.776629
1144790698.053,-0.331045,0.142186,-0.792236
1144790698.063,-0.307504,0.118700,-0.792236
1144790698.073,-0.311427,0.110872,-0.764924
1144790698.083,-0.307504,0.110872,-0.780531
1144790698.093,-0.319274,0.114786,-0.780531
1144790698.103,-0.307504,0.099129,-0.819547
1144790698.113,-0.295733,0.067815,-0.819547
1144790698.123,-0.311427,0.048243,-0.858564
1144790698.134,-0.307504,0.036501,-0.874171
1144790698.143,-0.287886,0.005186,-0.878073
1144790698.153,-0.268269,-0.014385,-0.897581
1144790698.163,-0.229034,-0.022214,-0.881974
1144790698.173,-0.205493,-0.010471,-0.885876
1144790698.183,-0.205493,0.016929,-0.874171
1144790698.193,-0.213340,0.032586,-0.866368
1144790698.203,-0.229034,0.009101,-0.889778
1144790698.213,-0.229034,-0.022214,-0.909286
1144790698.223,-0.232957,-0.014385,-0.932696
1144790698.233,-0.236881,-0.006556,-0.932696
1144790698.243,-0.209416,-0.014385,-0.948303
1144790698.253,-0.197646,-0.030042,-0.924893
1144790698.263,-0.166258,-0.030042,-0.932696
1144790698.273,-0.158411,-0.045699,-0.944401
1144790698.283,-0.154487,-0.045699,-0.936598
1144790698.293,-0.162334,-0.049613,-0.960008
1144790698.303,-0.150564,-0.049613,-0.952205
1144790698.313,-0.134870,-0.045699,-0.971713
1144790698.323,-0.103482,-0.073099,-0.956106
1144790698.333,-0.064247,-0.073099,-0.948303
1144790698.343,-0.064247,-0.088756,-0.932696
1144790698.353,-0.103482,-0.080928,-0.905384
1144790698.363,-0.127023,-0.104413,-0.936598
1144790698.373,-0.115253,-0.123985,-0.960008
1144790698.383,-0.087788,-0.139642,-0.944401
1144790698.393,-0.044630,-0.147470,-1.010730
1144790698.403,-0.028936,-0.147470,-0.979516
1144790698.414,-0.044630,-0.167042,-0.979516
1144790698.423,-0.056400,-0.206185,-0.960008
1144790698.433,-0.072094,-0.264899,-0.928794
1144790698.443,-0.111329,-0.304041,-0.967811
1144790698.453,-0.099559,-0.300127,-0.987320
1144790698.463,-0.064247,-0.241413,-0.991221
1144790698.473,0.018146,-0.210099,-0.971713
1144790698.483,0.073075,-0.237499,-0.948303
1144790698.493,0.112310,-0.292299,-0.936598
1144790698.503,0.116233,-0.315784,-0.893679
1144790698.513,0.076999,-0.307956,-0.881974
1144790698.523,0.049534,-0.327527,-0.885876
1144790698.533,0.061305,-0.370584,-0.905384
1144790698.543,0.100539,-0.409727,-0.909286
1144790698.553,0.159392,-0.464527,-0.893679
1144790698.563,0.226091,-0.488012,-0.893679
1144790698.573,0.261403,-0.495841,-0.874171
1144790698.583,0.277097,-0.472355,-0.862466
1144790698.593,0.269250,-0.433213,-0.839056
1144790698.603,0.249632,-0.421470,-0.831253
1144790698.613,0.245709,-0.437127,-0.842958
1144790698.623,0.249632,-0.456698,-0.885876
1144790698.633,0.265326,-0.460613,-0.866368
1144790698.643,0.312408,-0.488012,-0.874171
1144790698.653,0.328102,-0.503670,-0.885876
1144790698.663,0.332026,-0.523241,-0.866368
1144790698.673,0.304561,-0.491927,-0.885876
1144790698.683,0.273173,-0.491927,-0.885876
1144790698.693,0.241785,-0.515412,-0.878073
1144790698.703,0.257479,-0.542812,-0.924893
1144790698.713,0.304561,-0.605441,-0.999025
1144790698.723,0.375184,-0.715040,-1.061451
1144790698.733,0.453654,-0.808983,-1.174600
1144790698.743,0.524277,-0.875526,-1.213617
1144790698.753,0.571359,-0.883354,-1.127780
1144790698.763,0.583129,-0.879440,-1.045845
1144790698.773,0.551741,-0.852040,-0.952205
1144790698.782,0.492889,-0.808983,-0.881974
1144790698.793,0.430113,-0.726783,-0.796137
1144790698.802,0.375184,-0.656326,-0.749317
1144790698.813,0.359490,-0.613269,-0.690792
1144790698.823,0.335949,-0.581955,-0.624464
1144790698.833,0.335949,-0.527155,-0.554233
1144790698.843,0.339873,-0.448870,-0.511315
1144790698.852,0.355566,-0.390156,-0.484003
1144790698.862,0.402648,-0.366670,-0.441085
1144790698.872,0.453654,-0.374498,-0.476200
1144790698.884,0.539971,-0.460613,-0.519118
1144790698.892,0.587053,-0.538898,-0.554233
1144790698.902,0.626287,-0.578041,-0.573742
1144790698.912,0.626287,-0.632841,-0.554233
1144790698.922,0.610593,-0.668069,-0.538627
1144790698.932,0.594900,-0.695469,-0.542528
1144790698.942,0.583129,-0.730698,-0.565938
1144790698.952,0.618440,-0.754183,-0.569840
1144790698.962,0.641981,-0.769840,-0.577643
1144790698.972,0.665522,-0.785497,-0.546430
1144790698.982,0.649828,-0.785497,-0.526922
1144790698.992,0.622364,-0.808983,-0.507413
1144790699.002,0.583129,-0.801155,-0.507413
1144790699.012,0.520353,-0.777669,-0.491807
1144790699.022,0.504659,-0.715040,-0.468396
1144790699.032,0.496812,-0.679812,-0.460593
1144790699.042,0.520353,-0.664155,-0.460593
1144790699.052,0.551741,-0.644583,-0.480101
1144790699.062,0.579206,-0.668069,-0.476200
1144790699.072,0.587053,-0.671983,-0.480101
1144790699.082,0.590976,-0.679812,-0.444986
1144790699.092,0.590976,-0.687641,-0.452790
1144790699.102,0.610593,-0.718955,-0.448888
1144790699.112,0.618440,-0.718955,-0.444986
1144790699.122,0.641981,-0.730698,-0.441085
1144790699.132,0.665522,-0.750269,-0.429380
1144790699.142,0.673369,-0.738526,-0.429380
1144790699.152,0.685140,-0.742441,-0.448888
1144790699.162,0.681216,-0.750269,-0.429380
1144790699.172,0.681216,-0.738526,-0.417675
1144790699.182,0.685140,-0.738526,-0.398166
1144790699.192,0.720451,-0.750269,-0.413773
1144790699.202,0.783227,-0.797240,-0.425478
1144790699.213,0.865620,-0.852040,-0.460593
1144790699.222,0.928396,-0.938154,-0.499610
1144790699.232,0.936243,-1.032097,-0.503512
1144790699.242,0.932320,-1.047754,-0.523020
1144790699.252,0.900932,-1.047754,-0.577643
1144790699.262,0.877391,-1.043840,-0.628365
1144790699.272,0.842079,-0.973383,-0.710300
1144790699.282,0.814615,-0.828555,-0.733711
1144790699.292,0.759686,-0.762012,-0.753219
1144790699.302,0.681216,-0.734612,-0.772727
1144790699.312,0.575282,-0.699383,-0.718104
1144790699.322,0.445807,-0.578041,-0.679087
1144790699.332,0.312408,-0.476270,-0.686890
1144790699.342,0.190780,-0.378413,-0.718104
1144790699.353,0.100539,-0.284470,-0.737612
1144790699.362,0.084846,-0.214013,-0.803941
1144790699.372,0.151545,-0.206185,-0.831253
1144790699.382,0.281020,-0.245327,-0.881974
1144790699.392,0.371260,-0.323613,-0.952205
1144790699.402,0.386954,-0.394070,-1.038041
1144790699.412,0.410495,-0.484098,-1.127780
1144790699.422,0.418342,-0.605441,-1.108272
1144790699.432,0.418342,-0.742441,-1.084862
1144790699.442,0.386954,-0.781583,-1.057550
1144790699.452,0.359490,-0.722869,-1.034140
1144790699.462,0.304561,-0.640669,-1.041943
1144790699.472,0.277097,-0.585869,-0.987320
1144790699.482,0.288867,-0.558469,-0.948303
1144790699.492,0.335949,-0.495841,-0.956106
1144790699.502,0.371260,-0.429298,-0.932696
1144790699.512,0.355566,-0.386241,-0.881974
1144790699.522,0.296714,-0.327527,-0.885876
1144790699.532,0.241785,-0.237499,-0.831253
1144790699.542,0.194703,-0.233584,-0.842958
1144790699.552,0.182933,-0.292299,-0.846859
1144790699.562,0.214321,-0.280556,-0.823449
1144790699.572,0.233938,-0.264899,-0.772727
1144790699.582,0.218244,-0.268813,-0.784432
1144790699.592,0.171162,-0.264899,-0.831253
1144790699.602,0.104463,-0.229670,-0.842958
1144790699.612,0.088769,-0.190527,-0.858564
1144790699.622,0.080922,-0.167042,-0.811744
1144790699.633,0.088769,-0.163127,-0.788334
1144790699.642,0.088769,-0.186613,-0.776629
1144790699.652,0.073075,-0.186613,-0.745416
1144790699.662,0.041687,-0.167042,-0.745416
1144790699.672,-0.005395,-0.151385,-0.737612
1144790699.681,-0.032859,-0.143556,-0.737612
1144790699.692,-0.052477,-0.096585,-0.729809
1144790699.702,-0.068171,-0.049613,-0.749317
1144790699.712,-0.091712,-0.033956,-0.741514
1144790699.721,-0.134870,-0.030042,-0.761022
1144790699.732,-0.178028,-0.049613,-0.796137
1144790699.742,-0.197646,-0.069185,-0.815646
1144790699.752,-0.193722,-0.041785,-0.807842
1144790699.762,-0.181952,-0.022214,-0.823449
1144790699.771,-0.158411,-0.022214,-0.831253
1144790699.782,-0.170181,-0.037871,-0.827351
1144790699.792,-0.189799,-0.065271,-0.854663
1144790699.801,-0.225110,-0.061356,-0.827351
1144790699.812,-0.264345,-0.014385,-0.831253
1144790699.822,-0.295733,0.005186,-0.842958
1144790699.832,-0.307504,0.001272,-0.854663
1144790699.842,-0.319274,-0.022214,-0.870269
1144790699.852,-0.323198,-0.002642,-0.913188
1144790699.862,-0.315351,0.009101,-0.932696
1144790699.871,-0.311427,0.005186,-0.913188
1144790699.882,-0.323198,0.020844,-0.897581
1144790699.891,-0.342815,0.056072,-0.881974
1144790699.901,-0.366356,0.091301,-0.846859
1144790699.911,-0.401668,0.106958,-0.854663
1144790699.921,-0.421285,0.126529,-0.866368
1144790699.931,-0.417361,0.161757,-0.881974
1144790699.941,-0.397744,0.189157,-0.846859
1144790699.951,-0.370280,0.208729,-0.850761
1144790699.961,-0.370280,0.224386,-0.831253
1144790699.971,-0.389897,0.243957,-0.854663
1144790699.982,-0.421285,0.287014,-0.815646
1144790699.991,-0.433055,0.310500,-0.811744
1144790700.000,-0.433055,0.294843,-0.796137
1144790700.011,-0.405591,0.279186,-0.800039
1144790700.021,-0.417361,0.283100,-0.757121
1144790700.031,-0.429132,0.290929,-0.737612
1144790700.041,-0.464443,0.287014,-0.737612
1144790700.051,-0.499755,0.271357,-0.741514
1144790700.061,-0.499755,0.279186,-0.753219
1144790700.071,-0.480137,0.294843,-0.757121
1144790700.082,-0.456596,0.314414,-0.757121
1144790700.091,-0.456596,0.330071,-0.718104
1144790700.103,-0.468367,0.333986,-0.698595
1144790700.111,-0.515449,0.330071,-0.679087
1144790700.121,-0.546837,0.306586,-0.679087
1144790700.131,-0.550760,0.298757,-0.667382
1144790700.141,-0.538990,0.318329,-0.663480
1144790700.151,-0.519372,0.345729,-0.651775
1144790700.161,-0.535066,0.373128,-0.671284
1144790700.171,-0.593919,0.392700,-0.698595
1144790700.181,-0.668465,0.408357,-0.718104
1144790700.191,-0.715547,0.439671,-0.780531
1144790700.201,-0.723394,0.470985,-0.788334
1144790700.211,-0.723394,0.498385,-0.784432
1144790700.221,-0.739088,0.498385,-0.811744
1144790700.231,-0.750858,0.506214,-0.807842
1144790700.241,-0.735164,0.533614,-0.811744
1144790700.251,-0.703776,0.537528,-0.784432
1144790700.261,-0.648848,0.533614,-0.764924
1144790700.271,-0.605689,0.537528,-0.741514
1144790700.280,-0.589995,0.545357,-0.729809
1144790700.291,-0.582148,0.521871,-0.729809
1144790700.301,-0.601766,0.478814,-0.710300
1144790700.310,-0.613536,0.451414,-0.698595
1144790700.398,-0.633154,0.447500,-0.698595
1144790700.398,-0.625306,0.439671,-0.706399
1144790700.398,-0.605689,0.447500,-0.722005
1144790700.398,-0.605689,0.443585,-0.729809
1144790700.398,-0.613536,0.431843,-0.710300
1144790700.398,-0.633154,0.431843,-0.714202
1144790700.398,-0.656694,0.447500,-0.722005
1144790700.398,-0.668465,0.447500,-0.737612
1144790700.401,-0.664542,0.435757,-0.733711
1144790700.411,-0.644924,0.416186,-0.745416
1144790700.421,-0.648848,0.408357,-0.722005
1144790700.431,-0.660618,0.396614,-0.741514
1144790700.440,-0.660618,0.377043,-0.741514
1144790700.451,-0.633154,0.377043,-0.745416
1144790700.461,-0.601766,0.377043,-0.733711
1144790700.471,-0.570378,0.357471,-0.733711
1144790700.480,-0.562531,0.365300,-0.757121
1144790700.491,-0.570378,0.365300,-0.768826
1144790700.501,-0.546837,0.369214,-0.784432
1144790700.511,-0.535066,0.345729,-0.792236
1144790700.521,-0.499755,0.326157,-0.772727
1144790700.531,-0.480137,0.318329,-0.753219
1144790700.541,-0.468367,0.310500,-0.761022
1144790700.551,-0.472290,0.306586,-0.761022
1144790700.560,-0.460520,0.310500,-0.776629
1144790700.572,-0.464443,0.287014,-0.784432
1144790700.580,-0.444826,0.263529,-0.757121
1144790700.590,-0.421285,0.263529,-0.768826
1144790700.600,-0.397744,0.267443,-0.776629
1144790700.611,-0.382050,0.240043,-0.792236
1144790700.620,-0.366356,0.220472,-0.776629
1144790700.630,-0.342815,0.208729,-0.776629
1144790700.640,-0.334968,0.189157,-0.776629
1144790700.650,-0.334968,0.157843,-0.796137
1144790700.660,-0.311427,0.126529,-0.788334
1144790700.670,-0.283963,0.114786,-0.811744
1144790700.680,-0.268269,0.095215,-0.811744
1144790700.690,-0.244728,0.063901,-0.827351
1144790700.700,-0.240804,0.067815,-0.835154
1144790700.710,-0.244728,0.056072,-0.850761
1144790700.720,-0.248651,0.024758,-0.893679
1144790700.730,-0.240804,0.013015,-0.920991
1144790700.740,-0.197646,0.016929,-0.909286
1144790700.750,-0.166258,0.020844,-0.889778
1144790700.760,-0.130947,0.005186,-0.893679
1144790700.770,-0.134870,0.016929,-0.893679
1144790700.780,-0.142717,0.009101,-0.905384
1144790700.790,-0.146641,-0.010471,-0.924893
1144790700.800,-0.142717,-0.018299,-0.917089
1144790700.810,-0.130947,-0.022214,-0.932696
1144790700.820,-0.123100,-0.018299,-0.920991
1144790700.830,-0.107406,-0.002642,-0.928794
1144790700.840,-0.095635,0.001272,-0.920991
1144790700.850,-0.107406,-0.002642,-0.905384
1144790700.860,-0.103482,0.001272,-0.940500
1144790700.870,-0.115253,-0.006556,-0.956106
1144790700.880,-0.103482,-0.022214,-0.944401
1144790700.890,-0.072094,-0.041785,-0.952205
1144790700.900,-0.076018,-0.073099,-0.936598
1144790700.910,-0.083865,-0.073099,-0.940500
1144790700.920,-0.068171,-0.073099,-0.936598
1144790700.930,-0.064247,-0.088756,-0.936598
1144790700.940,-0.044630,-0.120070,-0.932696
1144790700.950,-0.028936,-0.139642,-0.948303
1144790700.960,-0.017165,-0.147470,-0.956106
1144790700.970,-0.025012,-0.139642,-0.952205
1144790700.980,-0.021089,-0.120070,-0.952205
1144790700.990,-0.001471,-0.108328,-0.932696
1144790700.999,0.025993,-0.112242,-0.920991
1144790701.010,0.057381,-0.147470,-0.924893
1144790701.020,0.061305,-0.186613,-0.924893
1144790701.030,0.061305,-0.214013,-0.932696
1144790701.040,0.065228,-0.237499,-0.936598
1144790701.050,0.073075,-0.257070,-0.928794
1144790701.060,0.096616,-0.268813,-0.913188
1144790701.070,0.120157,-0.264899,-0.893679
1144790701.080,0.143698,-0.264899,-0.885876
1144790701.090,0.147621,-0.260984,-0.881974
1144790701.100,0.147621,-0.264899,-0.874171
1144790701.110,0.135851,-0.315784,-0.901483
1144790701.120,0.139774,-0.366670,-0.893679
1144790701.130,0.159392,-0.370584,-0.862466
1144790701.140,0.182933,-0.347098,-0.858564
1144790701.150,0.222168,-0.354927,-0.811744
1144790701.160,0.230015,-0.354927,-0.839056
1144790701.170,0.210397,-0.362756,-0.835154
1144790701.180,0.198627,-0.386241,-0.850761
1144790701.189,0.206474,-0.409727,-0.881974
1144790701.199,0.226091,-0.405813,-0.917089
1144790701.210,0.273173,-0.421470,-0.940500
1144790701.219,0.296714,-0.433213,-0.909286
1144790701.229,0.308485,-0.421470,-0.878073
1144790701.239,0.292791,-0.444955,-0.874171
1144790701.249,0.273173,-0.433213,-0.878073
1144790701.259,0.281020,-0.441041,-0.874171
1144790701.269,0.269250,-0.444955,-0.866368
1144790701.280,0.277097,-0.464527,-0.850761
1144790701.289,0.296714,-0.484098,-0.842958
1144790701.299,0.339873,-0.515412,-0.831253
1144790701.309,0.379107,-0.558469,-0.839056
1144790701.321,0.398725,-0.613269,-0.858564
1144790701.329,0.422266,-0.621098,-0.905384
1144790701.339,0.441883,-0.652412,-0.952205
1144790701.349,0.488965,-0.726783,-1.073157
1144790701.359,0.583129,-0.848126,-1.158993
1144790701.369,0.700834,-0.981211,-1.186305
1144790701.379,0.787151,-1.055583,-1.100468
1144790701.389,0.791074,-1.016440,-0.963910
1144790701.399,0.724375,-0.910754,-0.854663
1144790701.409,0.594900,-0.832469,-0.792236
1144790701.419,0.437960,-0.765926,-0.764924
1144790701.429,0.300638,-0.628926,-0.722005
1144790701.439,0.230015,-0.488012,-0.628365
1144790701.449,0.230015,-0.397984,-0.554233
1144790701.459,0.265326,-0.366670,-0.534725
1144790701.469,0.281020,-0.374498,-0.515217
1144790701.479,0.292791,-0.370584,-0.491807
1144790701.489,0.320255,-0.347098,-0.468396
1144790701.499,0.367337,-0.343184,-0.448888
1144790701.509,0.457577,-0.390156,-0.437183
1144790701.519,0.547818,-0.460613,-0.456691
1144790701.529,0.618440,-0.578041,-0.452790
1144790701.539,0.649828,-0.675898,-0.448888
1144790701.549,0.681216,-0.797240,-0.448888
1144790701.559,0.696910,-0.883354,-0.444986
1144790701.569,0.716528,-0.934240,-0.429380
1144790701.579,0.743992,-0.926411,-0.409871
1144790701.589,0.740069,-0.895097,-0.409871
1144790701.599,0.740069,-0.844212,-0.382560
1144790701.609,0.740069,-0.777669,-0.394265
1144790701.619,0.747916,-0.750269,-0.405970
1144790701.629,0.740069,-0.726783,-0.421576
1144790701.639,0.728298,-0.707212,-0.421576
1144790701.649,0.716528,-0.722869,-0.382560
1144790701.659,0.708681,-0.726783,-0.370854
1144790701.669,0.692987,-0.703298,-0.347444
1144790701.679,0.700834,-0.691555,-0.320133
1144790701.689,0.712604,-0.679812,-0.304526
1144790701.699,0.720451,-0.671983,-0.304526
1144790701.709,0.732222,-0.683726,-0.288919
1144790701.719,0.747916,-0.703298,-0.312329
1144790701.729,0.740069,-0.730698,-0.331838
1144790701.739,0.747916,-0.762012,-0.324034
1144790701.749,0.759686,-0.801155,-0.339641
1144790701.759,0.814615,-0.848126,-0.366953
1144790701.769,0.889161,-0.938154,-0.390363
1144790701.779,0.948014,-1.000783,-0.452790
1144790701.790,0.959784,-1.024268,-0.413773
1144790701.799,0.944090,-1.036011,-0.421576
1144790701.809,0.924473,-1.043840,-0.487905
1144790701.819,0.920549,-1.055583,-0.546430
1144790701.828,0.900932,-1.016440,-0.636169
1144790701.839,0.853850,-0.902926,-0.710300
1144790701.849,0.767533,-0.699383,-0.706399
1144790701.858,0.657675,-0.523241,-0.698595
1144790701.868,0.543894,-0.421470,-0.710300
1144790701.879,0.414419,-0.354927,-0.729809
1144790701.888,0.304561,-0.327527,-0.729809
1144790701.898,0.206474,-0.311870,-0.811744
1144790701.908,0.155468,-0.280556,-0.823449
1144790701.918,0.076999,-0.210099,-0.909286
1144790701.928,0.104463,-0.178785,-0.920991
1144790701.938,0.194703,-0.225756,-0.963910
1144790701.948,0.328102,-0.366670,-1.018533
1144790701.958,0.477195,-0.534984,-1.010730
1144790701.968,0.536047,-0.652412,-0.983418
1144790701.978,0.512506,-0.726783,-0.995123
1144790701.988,0.426189,-0.742441,-0.991221
1144790701.998,0.335949,-0.765926,-1.010730
1144790702.008,0.292791,-0.808983,-1.006828
1144790702.018,0.304561,-0.765926,-0.948303
1144790702.028,0.320255,-0.679812,-0.948303
1144790702.038,0.312408,-0.574126,-0.885876
1144790702.048,0.296714,-0.476270,-0.854663
1144790702.058,0.277097,-0.405813,-0.893679
1144790702.068,0.292791,-0.401898,-0.909286
1144790702.078,0.300638,-0.429298,-0.924893
1144790702.088,0.316332,-0.452784,-0.905384
1144790702.098,0.288867,-0.468441,-0.866368
1144790702.108,0.241785,-0.456698,-0.870269
1144790702.118,0.182933,-0.456698,-0.835154
1144790702.128,0.147621,-0.448870,-0.835154
1144790702.138,0.171162,-0.444955,-0.854663
1144790702.148,0.206474,-0.425384,-0.850761
1144790702.158,0.241785,-0.390156,-0.827351
1144790702.168,0.261403,-0.351013,-0.792236
1144790702.178,0.230015,-0.339270,-0.780531
1144790702.188,0.163315,-0.323613,-0.788334
1144790702.198,0.100539,-0.292299,-0.764924
1144790702.208,0.057381,-0.249242,-0.792236
1144790702.218,0.053458,-0.225756,-0.761022
1144790702.228,0.080922,-0.210099,-0.749317
1144790702.238,0.092693,-0.182699,-0.710300
1144790702.248,0.069152,-0.151385,-0.772727
1144790702.259,0.029917,-0.131813,-0.761022
1144790702.268,-0.028936,-0.116156,-0.788334
1144790702.278,-0.068171,-0.116156,-0.811744
1144790702.288,-0.083865,-0.120070,-0.819547
1144790702.298,-0.060324,-0.123985,-0.800039
1144790702.308,-0.036783,-0.092670,-0.788334
1144790702.318,-0.048553,-0.061356,-0.745416
1144790702.328,-0.091712,-0.022214,-0.745416
1144790702.338,-0.162334,-0.006556,-0.780531
1144790702.348,-0.221187,0.005186,-0.803941
1144790702.358,-0.252575,0.016929,-0.811744
1144790702.367,-0.252575,0.028672,-0.831253
1144790702.377,-0.236881,0.036501,-0.862466
1144790702.387,-0.217263,0.024758,-0.842958
1144790702.397,-0.221187,0.048243,-0.835154
1144790702.407,-0.236881,0.056072,-0.823449
1144790702.417,-0.248651,0.075643,-0.819547
1144790702.427,-0.260422,0.118700,-0.815646
1144790702.437,-0.264345,0.110872,-0.823449
1144790702.447,-0.244728,0.106958,-0.827351
1144790702.457,-0.256498,0.130443,-0.823449
1144790702.467,-0.260422,0.165672,-0.807842
1144790702.477,-0.295733,0.193072,-0.815646
1144790702.487,-0.307504,0.196986,-0.831253
1144790702.497,-0.303580,0.196986,-0.815646
1144790702.507,-0.303580,0.212643,-0.839056
1144790702.517,-0.311427,0.224386,-0.842958
1144790702.527,-0.331045,0.208729,-0.842958
1144790702.537,-0.362433,0.200900,-0.827351
1144790702.547,-0.397744,0.216557,-0.839056
1144790702.557,-0.433055,0.240043,-0.823449
1144790702.567,-0.456596,0.267443,-0.831253
1144790702.577,-0.480137,0.290929,-0.846859
1144790702.587,-0.476214,0.287014,-0.854663
1144790702.597,-0.472290,0.302671,-0.846859
1144790702.607,-0.460520,0.318329,-0.831253
1144790702.617,-0.487984,0.318329,-0.807842
1144790702.627,-0.487984,0.310500,-0.803941
1144790702.637,-0.476214,0.306586,-0.788334
1144790702.647,-0.476214,0.298757,-0.796137
1144790702.657,-0.476214,0.306586,-0.784432
1144790702.667,-0.464443,0.306586,-0.772727
1144790702.677,-0.484061,0.322243,-0.796137
1144790702.687,-0.523296,0.341814,-0.800039
1144790702.697,-0.566454,0.345729,-0.815646
1144790702.707,-0.613536,0.345729,-0.842958
1144790702.717,-0.652771,0.369214,-0.866368
1144790702.728,-0.664542,0.392700,-0.854663
1144790702.737,-0.644924,0.412271,-0.846859
1144790702.747,-0.629230,0.420100,-0.846859
1144790702.757,-0.633154,0.427928,-0.854663
1144790702.767,-0.633154,0.431843,-0.842958
1144790702.777,-0.625306,0.416186,-0.842958
1144790702.787,-0.605689,0.424014,-0.835154
1144790702.797,-0.586072,0.408357,-0.807842
1144790702.807,-0.562531,0.388786,-0.784432
1144790702.817,-0.570378,0.388786,-0.788334
1144790702.837,-0.621383,0.396614,-0.741514
1144790702.847,-0.625306,0.373128,-0.757121
1144790702.857,-0.605689,0.353557,-0.741514
1144790702.866,-0.586072,0.353557,-0.729809
1144790702.877,-0.586072,0.353557,-0.729809
1144790702.886,-0.597842,0.369214,-0.764924
1144790702.896,-0.597842,0.353557,-0.772727
1144790702.906,-0.586072,0.341814,-0.764924
1144790702.916,-0.554684,0.326157,-0.768826
1144790702.926,-0.535066,0.314414,-0.788334
1144790702.936,-0.515449,0.306586,-0.811744
1144790702.946,-0.523296,0.287014,-0.819547
1144790702.956,-0.542913,0.326157,-0.796137
1144790702.966,-0.546837,0.357471,-0.761022
1144790702.976,-0.570378,0.353557,-0.757121
1144790702.986,-0.562531,0.333986,-0.768826
1144790702.996,-0.546837,0.330071,-0.772727
1144790703.006,-0.546837,0.326157,-0.784432
1144790703.016,-0.550760,0.330071,-0.792236
1144790703.026,-0.542913,0.318329,-0.819547
1144790703.036,-0.523296,0.298757,-0.823449
1144790703.046,-0.519372,0.298757,-0.839056
1144790703.056,-0.503678,0.279186,-0.850761
1144790703.066,-0.499755,0.279186,-0.866368
1144790703.076,-0.487984,0.247872,-0.866368
1144790703.086,-0.472290,0.224386,-0.870269
1144790703.096,-0.460520,0.216557,-0.858564
1144790703.106,-0.436979,0.243957,-0.850761
1144790703.116,-0.436979,0.255700,-0.846859
1144790703.127,-0.436979,0.271357,-0.839056
1144790703.136,-0.444826,0.271357,-0.839056
1144790703.146,-0.444826,0.259614,-0.819547
1144790703.156,-0.417361,0.232215,-0.803941
1144790703.166,-0.378127,0.212643,-0.772727
1144790703.176,-0.342815,0.189157,-0.753219
1144790703.186,-0.303580,0.169586,-0.741514
1144790703.197,-0.299657,0.150015,-0.722005
1144790703.207,-0.299657,0.122615,-0.741514
1144790703.216,-0.280039,0.079558,-0.741514
1144790703.226,-0.268269,0.044329,-0.725907
1144790703.236,-0.256498,0.028672,-0.753219
1144790703.246,-0.244728,0.013015,-0.764924
1144790703.256,-0.221187,0.001272,-0.796137
1144790703.266,-0.197646,-0.010471,-0.792236
1144790703.276,-0.185875,-0.006556,-0.827351
1144790703.286,-0.166258,-0.022214,-0.842958
1144790703.296,-0.185875,-0.037871,-0.862466
1144790703.305,-0.193722,-0.057442,-0.881974
1144790703.316,-0.193722,-0.069185,-0.917089
1144790703.326,-0.197646,-0.088756,-0.928794
1144790703.336,-0.193722,-0.073099,-0.936598
1144790703.346,-0.170181,-0.057442,-0.975615
1144790703.356,-0.134870,-0.045699,-0.975615
1144790703.366,-0.103482,-0.057442,-0.987320
1144790703.376,-0.060324,-0.084842,-0.940500
1144790703.386,-0.052477,-0.080928,-0.928794
1144790703.396,-0.076018,-0.120070,-0.936598
1144790703.406,-0.087788,-0.151385,-0.948303
1144790703.416,-0.099559,-0.135728,-0.928794
1144790703.426,-0.091712,-0.096585,-0.913188
1144790703.436,-0.052477,-0.123985,-0.924893
1144790703.446,-0.009318,-0.143556,-0.905384
1144790703.456,0.002452,-0.174870,-0.905384
1144790703.466,0.022070,-0.198356,-0.893679
1144790703.477,0.041687,-0.214013,-0.889778
1144790703.486,0.041687,-0.214013,-0.881974
1144790703.496,0.069152,-0.233584,-0.881974
1144790703.506,0.088769,-0.260984,-0.878073
1144790703.516,0.112310,-0.276641,-0.858564
1144790703.526,0.112310,-0.296213,-0.874171
1144790703.536,0.124080,-0.315784,-0.846859
1144790703.546,0.139774,-0.339270,-0.842958
1144790703.556,0.175086,-0.354927,-0.827351
1144790703.566,0.202550,-0.347098,-0.835154
1144790703.576,0.214321,-0.362756,-0.827351
1144790703.586,0.222168,-0.362756,-0.850761
1144790703.596,0.226091,-0.390156,-0.850761
1144790703.606,0.226091,-0.421470,-0.874171
1144790703.615,0.241785,-0.464527,-0.866368
1144790703.626,0.249632,-0.503670,-0.897581
1144790703.636,0.281020,-0.531069,-0.881974
1144790703.646,0.296714,-0.523241,-0.885876
1144790703.656,0.300638,-0.499755,-0.831253
1144790703.666,0.300638,-0.480184,-0.839056
1144790703.675,0.316332,-0.495841,-0.807842
1144790703.685,0.312408,-0.503670,-0.807842
1144790703.695,0.312408,-0.554555,-0.827351
1144790703.705,0.328102,-0.625012,-0.827351
1144790703.715,0.324179,-0.632841,-0.831253
1144790703.725,0.339873,-0.585869,-0.839056
1144790703.735,0.371260,-0.534984,-0.827351
1144790703.745,0.394801,-0.495841,-0.815646
1144790703.755,0.375184,-0.468441,-0.811744
1144790703.765,0.351643,-0.488012,-0.827351
1144790703.775,0.347719,-0.578041,-0.901483
1144790703.785,0.402648,-0.718955,-1.030238
1144790703.795,0.504659,-0.848126,-1.198010
1144790703.805,0.673369,-1.016440,-1.244830
1144790703.816,0.810692,-1.106468,-1.182403
1144790703.825,0.842079,-1.086897,-1.018533
1144790703.835,0.787151,-1.012526,-0.862466
1144790703.845,0.673369,-0.957726,-0.737612
1144790703.855,0.575282,-0.910754,-0.659579
1144790703.865,0.488965,-0.867697,-0.581545
1144790703.875,0.418342,-0.812897,-0.511315
1144790703.885,0.402648,-0.715040,-0.480101
1144790703.895,0.402648,-0.656326,-0.452790
1144790703.905,0.418342,-0.644583,-0.444986
1144790703.915,0.430113,-0.589784,-0.433281
1144790703.925,0.418342,-0.515412,-0.425478
1144790703.935,0.410495,-0.429298,-0.417675
1144790703.947,0.402648,-0.370584,-0.433281
1144790703.955,0.430113,-0.354927,-0.460593
1144790703.965,0.457577,-0.366670,-0.448888
1144790703.975,0.500736,-0.386241,-0.444986
1144790703.985,0.563512,-0.460613,-0.425478
1144790703.995,0.602746,-0.601527,-0.402068
1144790704.005,0.626287,-0.746355,-0.405970
1144790704.015,0.649828,-0.855954,-0.402068
1144790704.025,0.685140,-0.938154,-0.417675
1144790704.035,0.700834,-1.024268,-0.421576
1144790704.045,0.720451,-1.063411,-0.394265
1144790704.055,0.696910,-1.008611,-0.433281
1144790704.065,0.645905,-0.906840,-0.437183
1144790704.075,0.622364,-0.793326,-0.429380
1144790704.085,0.634134,-0.765926,-0.429380
1144790704.095,0.638058,-0.758098,-0.425478
1144790704.105,0.641981,-0.750269,-0.437183
1144790704.115,0.653752,-0.754183,-0.386461
1144790704.125,0.685140,-0.769840,-0.355248
1144790704.135,0.712604,-0.781583,-0.339641
1144790704.145,0.747916,-0.773755,-0.316231
1144790704.155,0.810692,-0.722869,-0.292821
1144790704.165,0.857773,-0.703298,-0.234296
1144790704.175,0.897008,-0.750269,-0.257706
1144790704.185,0.920549,-0.875526,-0.320133
1144790704.195,0.924473,-0.973383,-0.390363
1144790704.205,0.900932,-1.012526,-0.476200
1144790704.215,0.889161,-0.973383,-0.503512
1144790704.225,0.928396,-0.934240,-0.597152
1144790704.235,0.963708,-0.945983,-0.682989
1144790704.245,0.948014,-0.949897,-0.768826
1144790704.255,0.877391,-0.867697,-0.800039
1144790704.265,0.779304,-0.742441,-0.792236
1144790704.275,0.673369,-0.589784,-0.745416
1144790704.285,0.583129,-0.491927,-0.686890
1144790704.295,0.481118,-0.409727,-0.651775
1144790704.305,0.363413,-0.351013,-0.647874
1144790704.315,0.237862,-0.315784,-0.690792
1144790704.325,0.151545,-0.300127,-0.749317
1144790704.334,0.112310,-0.268813,-0.796137
1144790704.344,0.163315,-0.276641,-0.881974
1144790704.354,0.300638,-0.390156,-0.924893
1144790704.364,0.406572,-0.468441,-0.987320
1144790704.374,0.477195,-0.550641,-0.956106
1144790704.384,0.508583,-0.679812,-0.924893
1144790704.394,0.524277,-0.793326,-0.924893
1144790704.404,0.496812,-0.852040,-0.928794
1144790704.415,0.469348,-0.867697,-0.885876
1144790704.424,0.469348,-0.824640,-0.858564
1144790704.434,0.465424,-0.722869,-0.780531
1144790704.444,0.453654,-0.613269,-0.768826
1144790704.454,0.441883,-0.534984,-0.768826
1144790704.464,0.437960,-0.491927,-0.800039
1144790704.474,0.406572,-0.480184,-0.819547
1144790704.484,0.363413,-0.468441,-0.854663
1144790704.494,0.320255,-0.444955,-0.866368
1144790704.504,0.292791,-0.452784,-0.842958
1144790704.514,0.277097,-0.472355,-0.823449
1144790704.524,0.233938,-0.468441,-0.792236
1144790704.534,0.190780,-0.437127,-0.776629
1144790704.544,0.159392,-0.425384,-0.764924
1144790704.554,0.175086,-0.425384,-0.792236
1144790704.564,0.194703,-0.421470,-0.792236
1144790704.574,0.182933,-0.401898,-0.784432
1144790704.584,0.147621,-0.374498,-0.757121
1144790704.594,0.092693,-0.354927,-0.737612
1144790704.604,0.045611,-0.311870,-0.757121
1144790704.614,0.045611,-0.280556,-0.768826
1144790704.624,0.061305,-0.276641,-0.753219
1144790704.634,0.053458,-0.253156,-0.811744
1144790704.643,0.069152,-0.249242,-0.811744
1144790704.654,0.041687,-0.233584,-0.811744
1144790704.663,0.010299,-0.229670,-0.792236
1144790704.674,-0.032859,-0.221842,-0.780531
1144790704.684,-0.072094,-0.206185,-0.780531
1144790704.694,-0.076018,-0.174870,-0.772727
1144790704.704,-0.087788,-0.163127,-0.784432
1144790704.714,-0.095635,-0.135728,-0.788334
1144790704.724,-0.107406,-0.135728,-0.831253
1144790704.734,-0.134870,-0.147470,-0.839056
1144790704.744,-0.154487,-0.131813,-0.885876
1144790704.754,-0.201569,-0.084842,-0.889778
1144790704.764,-0.221187,-0.030042,-0.862466
1144790704.774,-0.232957,0.001272,-0.839056
1144790704.783,-0.236881,0.001272,-0.823449
1144790704.794,-0.248651,0.016929,-0.811744
1144790704.804,-0.268269,0.028672,-0.792236
1144790704.814,-0.319274,0.032586,-0.784432
1144790704.823,-0.338892,0.028672,-0.815646
1144790704.833,-0.354586,0.075643,-0.827351
1144790704.844,-0.350662,0.087386,-0.842958
1144790704.854,-0.334968,0.118700,-0.827351
1144790704.864,-0.327121,0.146100,-0.839056
1144790704.874,-0.338892,0.169586,-0.796137
1144790704.884,-0.354586,0.196986,-0.819547
1144790704.894,-0.374203,0.208729,-0.792236
1144790704.903,-0.389897,0.204815,-0.815646
1144790704.913,-0.405591,0.212643,-0.819547
1144790704.923,-0.393821,0.224386,-0.827351
1144790704.933,-0.385974,0.216557,-0.842958
1144790704.943,-0.382050,0.224386,-0.842958
1144790704.953,-0.382050,0.236129,-0.819547
1144790704.963,-0.401668,0.243957,-0.823449
1144790704.973,-0.440902,0.232215,-0.819547
1144790704.983,-0.448749,0.228300,-0.842958
1144790704.993,-0.452673,0.224386,-0.815646
1144790705.003,-0.429132,0.240043,-0.811744
1144790705.013,-0.417361,0.251786,-0.780531
1144790705.023,-0.409515,0.263529,-0.788334
1144790705.033,-0.429132,0.275272,-0.768826
1144790705.043,-0.460520,0.275272,-0.780531
1144790705.053,-0.491908,0.287014,-0.776629
1144790705.063,-0.503678,0.287014,-0.788334
1144790705.073,-0.515449,0.298757,-0.800039
1144790705.083,-0.503678,0.306586,-0.800039
1144790705.093,-0.487984,0.326157,-0.772727
1144790705.103,-0.503678,0.373128,-0.784432
1144790705.113,-0.535066,0.380957,-0.796137
1144790705.123,-0.582148,0.377043,-0.800039
1144790705.133,-0.605689,0.392700,-0.811744
1144790705.143,-0.617460,0.420100,-0.846859
1144790705.153,-0.605689,0.439671,-0.819547
1144790705.165,-0.613536,0.424014,-0.846859
1144790705.173,-0.621383,0.412271,-0.846859
1144790705.183,-0.656694,0.424014,-0.881974
1144790705.193,-0.652771,0.451414,-0.858564
1144790705.204,-0.644924,0.459243,-0.831253
1144790705.213,-0.621383,0.470985,-0.792236
1144790705.223,-0.601766,0.459243,-0.800039
1144790705.233,-0.621383,0.467071,-0.788334
1144790705.243,-0.644924,0.463157,-0.788334
1144790705.253,-0.676312,0.467071,-0.784432
1144790705.263,-0.688082,0.420100,-0.761022
1144790705.273,-0.652771,0.388786,-0.737612
1144790705.283,-0.625306,0.365300,-0.737612
1144790705.293,-0.625306,0.365300,-0.733711
1144790705.303,-0.629230,0.353557,-0.749317
1144790705.313,-0.637077,0.357471,-0.764924
1144790705.323,-0.629230,0.365300,-0.772727
1144790705.333,-0.582148,0.380957,-0.792236
1144790705.343,-0.542913,0.369214,-0.807842
1144790705.353,-0.515449,0.357471,-0.788334
1144790705.363,-0.515449,0.333986,-0.792236
1144790705.373,-0.542913,0.345729,-0.776629
1144790705.383,-0.558607,0.345729,-0.784432
1144790705.393,-0.566454,0.337900,-0.788334
1144790705.403,-0.538990,0.345729,-0.803941
1144790705.413,-0.523296,0.337900,-0.815646
1144790705.423,-0.511525,0.322243,-0.819547
1144790705.433,-0.507602,0.314414,-0.827351
1144790705.443,-0.511525,0.302671,-0.839056
1144790705.453,-0.499755,0.283100,-0.823449
1144790705.463,-0.495831,0.267443,-0.819547
1144790705.473,-0.480137,0.251786,-0.831253
1144790705.482,-0.468367,0.243957,-0.823449
1144790705.493,-0.452673,0.251786,-0.846859
1144790705.503,-0.460520,0.240043,-0.846859
1144790705.512,-0.452673,0.228300,-0.854663
1144790705.522,-0.433055,0.208729,-0.854663
1144790705.532,-0.409515,0.189157,-0.823449
1144790705.542,-0.397744,0.196986,-0.835154
1144790705.552,-0.397744,0.196986,-0.842958
1144790705.562,-0.378127,0.165672,-0.850761
1144790705.572,-0.338892,0.106958,-0.835154
1144790705.582,-0.295733,0.087386,-0.835154
1144790705.592,-0.280039,0.091301,-0.807842
1144790705.602,-0.264345,0.071729,-0.803941
1144790705.612,-0.264345,0.059986,-0.815646
1144790705.622,-0.268269,0.032586,-0.846859
1144790705.634,-0.256498,0.020844,-0.839056
1144790705.642,-0.232957,0.024758,-0.862466
1144790705.652,-0.209416,0.028672,-0.878073
1144790705.662,-0.185875,0.020844,-0.889778
1144790705.672,-0.162334,0.020844,-0.909286
1144790705.682,-0.158411,0.005186,-0.881974
1144790705.692,-0.162334,-0.006556,-0.893679
1144790705.702,-0.162334,-0.010471,-0.913188
1144790705.712,-0.166258,-0.026128,-0.905384
1144790705.722,-0.150564,-0.057442,-0.928794
1144790705.732,-0.115253,-0.084842,-0.905384
1144790705.742,-0.091712,-0.104413,-0.885876
1144790705.752,-0.068171,-0.131813,-0.885876
1144790705.762,-0.072094,-0.147470,-0.893679
1144790705.772,-0.079941,-0.147470,-0.885876
1144790705.782,-0.079941,-0.131813,-0.889778
1144790705.792,-0.052477,-0.139642,-0.870269
1144790705.802,-0.025012,-0.147470,-0.854663
1144790705.812,0.018146,-0.139642,-0.831253
1144790705.822,0.041687,-0.147470,-0.819547
1144790705.832,0.041687,-0.167042,-0.842958
1144790705.842,0.033840,-0.186613,-0.835154
1144790705.851,0.029917,-0.206185,-0.842958
1144790705.862,0.029917,-0.233584,-0.850761
1144790705.872,0.037764,-0.229670,-0.835154
1144790705.882,0.065228,-0.241413,-0.854663
1144790705.892,0.065228,-0.257070,-0.835154
1144790705.902,0.073075,-0.237499,-0.842958
1144790705.912,0.084846,-0.217927,-0.893679
1144790705.922,0.104463,-0.221842,-0.874171
1144790705.932,0.139774,-0.257070,-0.885876
1144790705.942,0.159392,-0.288384,-0.893679
1144790705.952,0.151545,-0.307956,-0.901483
1144790705.962,0.139774,-0.362756,-0.878073
1144790705.972,0.135851,-0.378413,-0.874171
1144790705.982,0.135851,-0.405813,-0.874171
1144790705.992,0.131927,-0.397984,-0.881974
1144790706.001,0.143698,-0.378413,-0.881974
1144790706.012,0.182933,-0.374498,-0.889778
1144790706.022,0.237862,-0.401898,-0.893679
1144790706.032,0.292791,-0.429298,-0.858564
1144790706.042,0.316332,-0.464527,-0.862466
1144790706.052,0.300638,-0.468441,-0.827351
1144790706.062,0.265326,-0.456698,-0.866368
1144790706.072,0.214321,-0.441041,-0.858564
1144790706.081,0.214321,-0.448870,-0.870269
1144790706.092,0.261403,-0.472355,-0.889778
1144790706.103,0.332026,-0.515412,-0.881974
1144790706.112,0.371260,-0.531069,-0.850761
1144790706.121,0.371260,-0.554555,-0.858564
1144790706.132,0.339873,-0.538898,-0.842958
1144790706.141,0.296714,-0.531069,-0.811744
1144790706.151,0.273173,-0.503670,-0.768826
1144790706.161,0.273173,-0.503670,-0.772727
1144790706.171,0.308485,-0.527155,-0.764924
1144790706.182,0.343796,-0.558469,-0.780531
1144790706.191,0.383031,-0.593698,-0.796137
1144790706.201,0.394801,-0.601527,-0.854663
1144790706.211,0.394801,-0.628926,-0.881974
1144790706.221,0.394801,-0.671983,-0.924893
1144790706.231,0.461501,-0.738526,-0.967811
1144790706.241,0.563512,-0.805069,-1.049746
1144790706.251,0.708681,-0.914669,-1.127780
1144790706.261,0.877391,-1.106468,-1.069255
1144790706.271,0.944090,-1.219982,-0.928794
1144790706.281,0.885238,-1.184754,-0.768826
1144790706.291,0.767533,-1.098640,-0.616660
1144790706.301,0.641981,-1.016440,-0.558135
1144790706.311,0.516430,-0.891183,-0.511315
1144790706.321,0.402648,-0.703298,-0.441085
1144790706.331,0.363413,-0.523241,-0.398166
1144790706.341,0.351643,-0.429298,-0.366953
1144790706.351,0.343796,-0.401898,-0.351346
1144790706.361,0.339873,-0.382327,-0.394265
1144790706.371,0.347719,-0.354927,-0.378658
1144790706.381,0.394801,-0.354927,-0.421576
1144790706.391,0.437960,-0.382327,-0.429380
1144790706.401,0.524277,-0.441041,-0.417675
1144790706.411,0.622364,-0.542812,-0.405970
1144790706.421,0.700834,-0.648498,-0.402068
1144790706.431,0.720451,-0.738526,-0.374756
1144790706.441,0.736145,-0.824640,-0.359149
1144790706.451,0.736145,-0.891183,-0.378658
1144790706.461,0.736145,-0.942069,-0.366953
1144790706.471,0.759686,-0.942069,-0.366953
1144790706.480,0.747916,-0.922497,-0.378658
1144790706.491,0.740069,-0.891183,-0.363051
1144790706.501,0.704757,-0.863783,-0.370854
1144790706.511,0.681216,-0.836383,-0.359149
1144790706.521,0.641981,-0.801155,-0.386461
1144790706.530,0.641981,-0.781583,-0.351346
1144790706.541,0.641981,-0.773755,-0.339641
1144790706.551,0.669446,-0.793326,-0.339641
1144790706.561,0.677293,-0.785497,-0.300624
1144790706.572,0.724375,-0.797240,-0.253804
1144790706.580,0.759686,-0.816812,-0.234296
1144790706.591,0.810692,-0.906840,-0.285018
1144790706.601,0.889161,-1.032097,-0.273313
1144790706.610,0.955861,-1.082983,-0.296723
1144790706.620,1.014713,-1.106468,-0.339641
1144790706.631,1.030407,-1.118211,-0.359149
1144790706.640,1.034331,-1.082983,-0.472298
1144790706.650,1.014713,-1.012526,-0.515217
1144790706.660,0.979402,-0.902926,-0.562037
1144790706.670,0.920549,-0.793326,-0.562037
1144790706.680,0.842079,-0.715040,-0.554233
1144790706.690,0.724375,-0.648498,-0.542528
1144790706.700,0.602746,-0.562384,-0.546430
1144790706.710,0.473271,-0.441041,-0.534725
1144790706.720,0.339873,-0.366670,-0.565938
1144790706.730,0.245709,-0.292299,-0.585447
1144790706.740,0.186856,-0.241413,-0.640070
1144790706.750,0.175086,-0.225756,-0.698595
1144790706.760,0.233938,-0.260984,-0.761022
1144790706.770,0.328102,-0.347098,-0.823449
1144790706.780,0.406572,-0.444955,-0.893679
1144790706.790,0.449730,-0.581955,-0.944401
1144790706.800,0.492889,-0.726783,-0.960008
1144790706.810,0.504659,-0.812897,-0.956106
1144790706.821,0.500736,-0.852040,-0.917089
1144790706.830,0.465424,-0.824640,-0.905384
1144790706.839,0.430113,-0.758098,-0.932696
1144790706.850,0.406572,-0.656326,-0.936598
1144790706.860,0.390878,-0.550641,-0.960008
1144790706.870,0.386954,-0.480184,-0.960008
1144790706.880,0.386954,-0.433213,-0.936598
1144790706.890,0.390878,-0.448870,-0.905384
1144790706.900,0.359490,-0.468441,-0.893679
1144790706.910,0.320255,-0.472355,-0.893679
1144790706.920,0.292791,-0.488012,-0.909286
1144790706.930,0.300638,-0.491927,-0.866368
1144790706.940,0.312408,-0.503670,-0.846859
1144790706.950,0.339873,-0.507584,-0.835154
1144790706.960,0.335949,-0.499755,-0.835154
1144790706.970,0.300638,-0.484098,-0.831253
1144790706.980,0.261403,-0.488012,-0.831253
1144790706.990,0.253556,-0.468441,-0.827351
1144790706.999,0.253556,-0.444955,-0.803941
1144790707.010,0.265326,-0.401898,-0.807842
1144790707.020,0.257479,-0.382327,-0.780531
1144790707.030,0.226091,-0.351013,-0.745416
1144790707.041,0.171162,-0.323613,-0.776629
1144790707.050,0.128004,-0.296213,-0.772727
1144790707.060,0.112310,-0.288384,-0.745416
1144790707.070,0.112310,-0.272727,-0.745416
1144790707.080,0.112310,-0.268813,-0.729809
1144790707.090,0.092693,-0.272727,-0.729809
1144790707.173,0.049534,-0.272727,-0.733711
1144790707.174,-0.001471,-0.233584,-0.733711
1144790707.174,-0.017165,-0.159213,-0.741514
1144790707.174,-0.021089,-0.123985,-0.745416
1144790707.175,-0.032859,-0.100499,-0.800039
1144790707.175,-0.052477,-0.088756,-0.803941
1144790707.175,-0.091712,-0.073099,-0.807842
1144790707.176,-0.119176,-0.057442,-0.815646
1144790707.179,-0.138794,-0.033956,-0.835154
1144790707.189,-0.154487,-0.018299,-0.874171
1144790707.200,-0.138794,-0.010471,-0.866368
1144790707.209,-0.134870,-0.022214,-0.854663
1144790707.219,-0.130947,-0.030042,-0.850761
1144790707.229,-0.154487,-0.018299,-0.854663
1144790707.239,-0.193722,-0.002642,-0.854663
1144790707.249,-0.217263,0.009101,-0.866368
1144790707.259,-0.221187,0.024758,-0.866368
1144790707.269,-0.201569,0.032586,-0.874171
1144790707.279,-0.209416,0.083472,-0.862466
1144790707.289,-0.217263,0.118700,-0.854663
1144790707.299,-0.221187,0.138272,-0.839056
1144790707.309,-0.225110,0.138272,-0.839056
1144790707.321,-0.240804,0.169586,-0.819547
1144790707.329,-0.236881,0.181329,-0.815646
1144790707.339,-0.248651,0.177415,-0.803941
1144790707.349,-0.260422,0.177415,-0.815646
1144790707.359,-0.276116,0.169586,-0.819547
1144790707.369,-0.307504,0.161757,-0.831253
1144790707.379,-0.334968,0.161757,-0.831253
1144790707.389,-0.366356,0.177415,-0.823449
1144790707.399,-0.378127,0.181329,-0.831253
1144790707.409,-0.385974,0.189157,-0.831253
1144790707.419,-0.366356,0.193072,-0.823449
1144790707.429,-0.374203,0.185243,-0.839056
1144790707.439,-0.385974,0.228300,-0.839056
1144790707.449,-0.389897,0.251786,-0.823449
1144790707.459,-0.417361,0.236129,-0.835154
1144790707.469,-0.452673,0.232215,-0.827351
1144790707.479,-0.468367,0.255700,-0.811744
1144790707.489,-0.491908,0.298757,-0.827351
1144790707.499,-0.487984,0.310500,-0.842958
1144790707.509,-0.487984,0.322243,-0.831253
1144790707.519,-0.484061,0.341814,-0.831253
1144790707.529,-0.507602,0.361386,-0.835154
1144790707.539,-0.542913,0.396614,-0.850761
1144790707.549,-0.558607,0.420100,-0.862466
1144790707.559,-0.574301,0.435757,-0.881974
1144790707.569,-0.570378,0.439671,-0.920991
1144790707.579,-0.570378,0.439671,-0.948303
1144790707.589,-0.554684,0.467071,-1.002926
1144790707.599,-0.531143,0.486643,-1.026336
1144790707.609,-0.491908,0.455328,-0.975615
1144790707.619,-0.464443,0.427928,-0.909286
1144790707.629,-0.476214,0.416186,-0.866368
1144790707.639,-0.511525,0.416186,-0.835154
1144790707.649,-0.574301,0.400528,-0.835154
1144790707.659,-0.621383,0.377043,-0.823449
1144790707.669,-0.637077,0.353557,-0.819547
1144790707.679,-0.617460,0.333986,-0.807842
1144790707.689,-0.613536,0.333986,-0.823449
1144790707.699,-0.621383,0.314414,-0.831253
1144790707.709,-0.621383,0.302671,-0.839056
1144790707.719,-0.625306,0.310500,-0.850761
1144790707.729,-0.597842,0.330071,-0.854663
1144790707.739,-0.574301,0.337900,-0.823449
1144790707.749,-0.542913,0.337900,-0.831253
1144790707.759,-0.523296,0.318329,-0.823449
1144790707.769,-0.507602,0.318329,-0.815646
1144790707.779,-0.503678,0.322243,-0.788334
1144790707.790,-0.487984,0.318329,-0.800039
1144790707.799,-0.476214,0.314414,-0.784432
1144790707.809,-0.464443,0.298757,-0.780531
1144790707.819,-0.476214,0.279186,-0.796137
1144790707.829,-0.491908,0.279186,-0.811744
1144790707.838,-0.499755,0.283100,-0.846859
1144790707.849,-0.480137,0.267443,-0.842958
1144790707.859,-0.452673,0.263529,-0.870269
1144790707.869,-0.433055,0.251786,-0.881974
1144790707.879,-0.433055,0.236129,-0.893679
1144790707.889,-0.444826,0.224386,-0.897581
1144790707.899,-0.452673,0.228300,-0.917089
1144790707.909,-0.452673,0.212643,-0.913188
1144790707.919,-0.444826,0.220472,-0.874171
1144790707.929,-0.429132,0.232215,-0.878073
1144790707.939,-0.417361,0.232215,-0.870269
1144790707.949,-0.389897,0.200900,-0.878073
1144790707.958,-0.370280,0.173500,-0.870269
1144790707.969,-0.338892,0.157843,-0.874171
1144790707.979,-0.299657,0.138272,-0.846859
1144790707.987,-0.303580,0.118700,-0.850761
1144790707.999,-0.283963,0.083472,-0.846859
1144790708.008,-0.272192,0.083472,-0.846859
1144790708.019,-0.248651,0.044329,-0.846859
1144790708.029,-0.229034,0.020844,-0.823449
1144790708.039,-0.181952,0.001272,-0.842958
1144790708.049,-0.158411,0.001272,-0.811744
1144790708.058,-0.134870,-0.010471,-0.831253
1144790708.069,-0.119176,-0.041785,-0.831253
1144790708.079,-0.123100,-0.045699,-0.835154
1144790708.089,-0.119176,-0.049613,-0.823449
1144790708.098,-0.111329,-0.049613,-0.811744
1144790708.108,-0.103482,-0.049613,-0.839056
1144790708.118,-0.095635,-0.069185,-0.846859
1144790708.129,-0.068171,-0.065271,-0.846859
1144790708.138,-0.052477,-0.073099,-0.870269
1144790708.148,-0.064247,-0.080928,-0.881974
1144790708.158,-0.060324,-0.080928,-0.905384
1144790708.168,-0.044630,-0.080928,-0.932696
1144790708.178,-0.028936,-0.104413,-0.936598
1144790708.188,0.002452,-0.139642,-0.932696
1144790708.198,0.022070,-0.135728,-0.917089
1144790708.208,0.041687,-0.139642,-0.905384
1144790708.218,0.037764,-0.163127,-0.913188
1144790708.228,0.037764,-0.198356,-0.920991
1144790708.238,0.053458,-0.206185,-0.901483
1144790708.248,0.061305,-0.217927,-0.881974
1144790708.259,0.084846,-0.241413,-0.846859
1144790708.268,0.092693,-0.249242,-0.835154
1144790708.279,0.100539,-0.257070,-0.854663
1144790708.288,0.128004,-0.264899,-0.827351
1144790708.298,0.167239,-0.272727,-0.803941
1144790708.308,0.237862,-0.300127,-0.823449
1144790708.318,0.265326,-0.335356,-0.776629
1144790708.328,0.277097,-0.358841,-0.803941
1144790708.338,0.249632,-0.370584,-0.761022
1144790708.348,0.222168,-0.366670,-0.776629
1144790708.358,0.194703,-0.351013,-0.776629
1144790708.368,0.198627,-0.343184,-0.815646
1144790708.378,0.241785,-0.343184,-0.878073
1144790708.388,0.288867,-0.362756,-0.905384
1144790708.398,0.320255,-0.366670,-0.893679
1144790708.408,0.300638,-0.382327,-0.878073
1144790708.418,0.284944,-0.397984,-0.858564
1144790708.428,0.253556,-0.413641,-0.835154
1144790708.438,0.253556,-0.429298,-0.827351
1144790708.448,0.281020,-0.425384,-0.846859
1144790708.458,0.335949,-0.413641,-0.823449
1144790708.468,0.371260,-0.421470,-0.827351
1144790708.478,0.394801,-0.464527,-0.835154
1144790708.488,0.394801,-0.511498,-0.862466
1144790708.498,0.390878,-0.523241,-0.858564
1144790708.508,0.359490,-0.491927,-0.850761
1144790708.518,0.371260,-0.452784,-0.823449
1144790708.528,0.398725,-0.460613,-0.815646
1144790708.540,0.418342,-0.503670,-0.827351
1144790708.548,0.437960,-0.534984,-0.800039
1144790708.558,0.430113,-0.570212,-0.768826
1144790708.568,0.414419,-0.581955,-0.733711
1144790708.578,0.383031,-0.574126,-0.718104
1144790708.588,0.355566,-0.578041,-0.737612
1144790708.598,0.390878,-0.597612,-0.772727
1144790708.607,0.449730,-0.652412,-0.839056
1144790708.618,0.536047,-0.738526,-0.920991
1144790708.628,0.614517,-0.832469,-1.038041
1144790708.638,0.700834,-0.938154,-1.166797
1144790708.648,0.794998,-1.039925,-1.166797
1144790708.658,0.853850,-1.032097,-1.096566
1144790708.668,0.885238,-0.989040,-0.924893
1144790708.678,0.842079,-0.918583,-0.807842
1144790708.688,0.736145,-0.867697,-0.710300
1144790708.698,0.618440,-0.848126,-0.628365
1144790708.708,0.488965,-0.762012,-0.577643
1144790708.718,0.406572,-0.632841,-0.507413
1144790708.728,0.375184,-0.538898,-0.437183
1144790708.738,0.359490,-0.476270,-0.409871
1144790708.748,0.375184,-0.444955,-0.409871
1144790708.758,0.367337,-0.413641,-0.409871
1144790708.768,0.359490,-0.382327,-0.402068
1144790708.778,0.383031,-0.366670,-0.413773
1144790708.788,0.422266,-0.382327,-0.405970
1144790708.798,0.477195,-0.421470,-0.409871
1144790708.808,0.555665,-0.464527,-0.413773
1144790708.818,0.622364,-0.534984,-0.409871
1144790708.828,0.653752,-0.625012,-0.429380
1144790708.837,0.653752,-0.703298,-0.390363
1144790708.848,0.673369,-0.769840,-0.398166
1144790708.858,0.696910,-0.820726,-0.382560
1144790708.868,0.740069,-0.836383,-0.366953
1144790708.878,0.755763,-0.840297,-0.378658
1144790708.888,0.763610,-0.820726,-0.351346
1144790708.898,0.759686,-0.816812,-0.359149
1144790708.908,0.755763,-0.828555,-0.359149
1144790708.918,0.736145,-0.852040,-0.355248
1144790708.927,0.724375,-0.848126,-0.285018
1144790708.937,0.740069,-0.844212,-0.246001
1144790708.947,0.779304,-0.855954,-0.214787
1144790708.957,0.818539,-0.863783,-0.210886
1144790708.967,0.857773,-0.875526,-0.203082
1144790708.977,0.904855,-0.902926,-0.191377
1144790708.987,0.940167,-0.926411,-0.210886
1144790708.997,0.948014,-0.934240,-0.234296
1144790709.009,0.963708,-0.977297,-0.253804
1144790709.017,0.983325,-1.004697,-0.242099
1144790709.027,0.995096,-1.008611,-0.300624
1144790709.037,1.038254,-0.996868,-0.331838
1144790709.047,1.050024,-0.969468,-0.425478
1144790709.058,1.053948,-0.938154,-0.523020
1144790709.067,1.006866,-0.895097,-0.569840
1144790709.077,0.853850,-0.824640,-0.608857
1144790709.087,0.716528,-0.769840,-0.643972
1144790709.097,0.583129,-0.703298,-0.659579
1144790709.107,0.465424,-0.628926,-0.620562
1144790709.117,0.386954,-0.534984,-0.632267
1144790709.127,0.308485,-0.417555,-0.604955
1144790709.137,0.265326,-0.249242,-0.632267
1144790709.147,0.245709,-0.112242,-0.663480
1144790709.157,0.249632,-0.116156,-0.702497
1144790709.167,0.292791,-0.174870,-0.718104
1144790709.177,0.355566,-0.253156,-0.733711
1144790709.187,0.449730,-0.335356,-0.784432
1144790709.198,0.551741,-0.468441,-0.800039
1144790709.207,0.587053,-0.593698,-0.803941
1144790709.217,0.555665,-0.679812,-0.870269
1144790709.227,0.641981,-0.758098,-0.839056
1144790709.237,0.665522,-0.765926,-0.800039
1144790709.247,0.673369,-0.762012,-0.831253
1144790709.257,0.673369,-0.715040,-0.827351
1144790709.267,0.622364,-0.589784,-0.846859
1144790709.277,0.559588,-0.511498,-0.827351
1144790709.287,0.520353,-0.468441,-0.881974
1144790709.297,0.492889,-0.448870,-0.893679
1144790709.307,0.453654,-0.444955,-0.901483
1144790709.317,0.410495,-0.394070,-0.920991
1144790709.327,0.375184,-0.366670,-0.905384
1144790709.337,0.367337,-0.378413,-0.889778
1144790709.347,0.398725,-0.413641,-0.839056
1144790709.357,0.414419,-0.444955,-0.823449
1144790709.367,0.359490,-0.468441,-0.796137
1144790709.377,0.304561,-0.491927,-0.803941
1144790709.387,0.284944,-0.511498,-0.811744
1144790709.397,0.296714,-0.484098,-0.803941
1144790709.407,0.324179,-0.444955,-0.776629
1144790709.417,0.316332,-0.397984,-0.784432
1144790709.427,0.284944,-0.366670,-0.772727
1144790709.437,0.273173,-0.358841,-0.737612
1144790709.457,0.214321,-0.288384,-0.733711
1144790709.467,0.179009,-0.257070,-0.745416
1144790709.478,0.159392,-0.253156,-0.757121
1144790709.487,0.147621,-0.260984,-0.776629
1144790709.497,0.159392,-0.276641,-0.780531
1144790709.507,0.116233,-0.257070,-0.776629
1144790709.517,0.069152,-0.202270,-0.788334
1144790709.527,0.041687,-0.155299,-0.768826
1144790709.537,0.014223,-0.135728,-0.761022
1144790709.547,0.002452,-0.100499,-0.800039
1144790709.557,-0.009318,-0.096585,-0.803941
1144790709.567,-0.028936,-0.100499,-0.792236
1144790709.577,-0.056400,-0.092670,-0.811744
1144790709.587,-0.087788,-0.088756,-0.839056
1144790709.597,-0.099559,-0.092670,-0.846859
1144790709.607,-0.099559,-0.092670,-0.862466
1144790709.617,-0.095635,-0.080928,-0.881974
1144790709.627,-0.083865,-0.065271,-0.881974
1144790709.637,-0.111329,-0.037871,-0.893679
1144790709.647,-0.127023,-0.026128,-0.948303
1144790709.657,-0.154487,-0.030042,-0.940500
1144790709.666,-0.154487,-0.022214,-0.952205
1144790709.677,-0.174105,-0.006556,-0.956106
1144790709.687,-0.166258,0.001272,-0.983418
1144790709.696,-0.166258,0.028672,-0.948303
1144790709.706,-0.146641,0.036501,-0.936598
1144790709.716,-0.134870,0.020844,-0.948303
1144790709.726,-0.138794,0.016929,-0.952205
1144790709.736,-0.146641,0.032586,-0.917089
1144790709.746,-0.158411,0.048243,-0.881974
1144790709.756,-0.166258,0.052158,-0.862466
1144790709.766,-0.189799,0.052158,-0.839056
1144790709.776,-0.205493,0.052158,-0.835154
1144790709.786,-0.229034,0.063901,-0.823449
1144790709.796,-0.244728,0.099129,-0.839056
1144790709.806,-0.248651,0.130443,-0.819547
1144790709.816,-0.248651,0.138272,-0.835154
1144790709.826,-0.248651,0.134358,-0.835154
1144790709.836,-0.272192,0.157843,-0.807842
1144790709.846,-0.299657,0.169586,-0.819547
1144790709.856,-0.303580,0.185243,-0.819547
1144790709.866,-0.311427,0.177415,-0.827351
1144790709.876,-0.323198,0.189157,-0.831253
1144790709.886,-0.358509,0.220472,-0.835154
1144790709.896,-0.370280,0.255700,-0.842958
1144790709.906,-0.405591,0.263529,-0.858564
1144790709.916,-0.429132,0.263529,-0.897581
1144790709.926,-0.436979,0.275272,-0.881974
1144790709.936,-0.448749,0.290929,-0.858564
1144790709.947,-0.452673,0.298757,-0.878073
1144790709.956,-0.464443,0.290929,-0.889778
1144790709.966,-0.476214,0.283100,-0.897581
1144790709.976,-0.456596,0.251786,-0.878073
1144790709.986,-0.464443,0.232215,-0.874171
1144790709.996,-0.464443,0.240043,-0.874171
1144790710.006,-0.468367,0.263529,-0.881974
1144790710.016,-0.472290,0.251786,-0.936598
1144790710.026,-0.487984,0.271357,-0.948303
1144790710.036,-0.476214,0.298757,-0.944401
1144790710.046,-0.460520,0.326157,-0.932696
1144790710.056,-0.456596,0.337900,-0.940500
1144790710.066,-0.468367,0.353557,-0.944401
1144790710.076,-0.472290,0.369214,-0.944401
1144790710.086,-0.464443,0.388786,-0.960008
1144790710.096,-0.468367,0.416186,-0.924893
1144790710.106,-0.452673,0.424014,-0.897581
1144790710.116,-0.456596,0.408357,-0.889778
1144790710.126,-0.487984,0.396614,-0.842958
1144790710.136,-0.495831,0.365300,-0.862466
1144790710.146,-0.511525,0.330071,-0.866368
1144790710.156,-0.503678,0.302671,-0.866368
1144790710.166,-0.495831,0.294843,-0.870269
1144790710.176,-0.507602,0.294843,-0.881974
1144790710.186,-0.499755,0.290929,-0.897581
1144790710.196,-0.511525,0.279186,-0.881974
1144790710.205,-0.503678,0.287014,-0.874171
1144790710.215,-0.507602,0.290929,-0.878073
1144790710.225,-0.484061,0.290929,-0.885876
1144790710.235,-0.464443,0.290929,-0.866368
1144790710.245,-0.440902,0.279186,-0.881974
1144790710.255,-0.436979,0.267443,-0.889778
1144790710.265,-0.413438,0.259614,-0.870269
1144790710.275,-0.401668,0.290929,-0.850761
1144790710.285,-0.409515,0.298757,-0.831253
1144790710.295,-0.421285,0.275272,-0.819547
1144790710.305,-0.433055,0.263529,-0.839056
1144790710.315,-0.440902,0.255700,-0.854663
1144790710.325,-0.429132,0.251786,-0.854663
1144790710.335,-0.393821,0.240043,-0.854663
1144790710.345,-0.374203,0.224386,-0.854663
1144790710.355,-0.366356,0.200900,-0.866368
1144790710.365,-0.366356,0.177415,-0.885876
1144790710.375,-0.382050,0.181329,-0.913188
1144790710.385,-0.374203,0.204815,-0.913188
1144790710.395,-0.366356,0.200900,-0.940500
1144790710.405,-0.362433,0.189157,-0.920991
1144790710.416,-0.342815,0.181329,-0.940500
1144790710.425,-0.327121,0.161757,-0.928794
1144790710.435,-0.319274,0.126529,-0.893679
1144790710.445,-0.327121,0.130443,-0.874171
1144790710.455,-0.331045,0.126529,-0.878073
1144790710.465,-0.338892,0.099129,-0.866368
1144790710.475,-0.315351,0.067815,-0.866368
1144790710.485,-0.287886,0.052158,-0.862466
1144790710.495,-0.252575,0.036501,-0.846859
1144790710.505,-0.240804,0.044329,-0.850761
1144790710.515,-0.232957,0.024758,-0.850761
1144790710.525,-0.240804,0.032586,-0.862466
1144790710.535,-0.240804,0.020844,-0.874171
1144790710.545,-0.221187,0.001272,-0.909286
1144790710.555,-0.181952,-0.010471,-0.932696
1144790710.565,-0.158411,-0.014385,-0.928794
1144790710.575,-0.134870,-0.014385,-0.940500
1144790710.585,-0.138794,-0.033956,-0.956106
1144790710.595,-0.146641,-0.041785,-0.960008
1144790710.605,-0.142717,-0.057442,-0.983418
1144790710.615,-0.130947,-0.069185,-1.006828
1144790710.625,-0.107406,-0.080928,-0.987320
1144790710.635,-0.083865,-0.077013,-0.960008
1144790710.645,-0.068171,-0.084842,-0.963910
1144790710.655,-0.064247,-0.084842,-0.960008
1144790710.665,-0.076018,-0.104413,-0.983418
1144790710.674,-0.079941,-0.104413,-0.975615
1144790710.684,-0.060324,-0.104413,-0.960008
1144790710.696,-0.036783,-0.120070,-0.936598
1144790710.704,-0.025012,-0.131813,-0.932696
1144790710.714,-0.013242,-0.147470,-0.917089
1144790710.724,-0.013242,-0.170956,-0.901483
1144790710.734,-0.001471,-0.178785,-0.850761
1144790710.744,0.014223,-0.182699,-0.846859
1144790710.754,0.029917,-0.194442,-0.835154
1144790710.764,0.041687,-0.210099,-0.811744
1144790710.774,0.049534,-0.214013,-0.815646
1144790710.784,0.053458,-0.225756,-0.800039
1144790710.794,0.049534,-0.225756,-0.780531
1144790710.804,0.065228,-0.249242,-0.780531
1144790710.814,0.065228,-0.268813,-0.788334
1144790710.824,0.088769,-0.307956,-0.800039
1144790710.834,0.100539,-0.311870,-0.819547
1144790710.844,0.131927,-0.292299,-0.800039
1144790710.854,0.163315,-0.268813,-0.800039
1144790710.864,0.182933,-0.260984,-0.800039
1144790710.874,0.175086,-0.276641,-0.811744
1144790710.884,0.171162,-0.292299,-0.784432
1144790710.894,0.179009,-0.311870,-0.835154
1144790710.904,0.194703,-0.335356,-0.866368
1144790710.914,0.233938,-0.347098,-0.866368
1144790710.924,0.245709,-0.347098,-0.870269
1144790710.934,0.261403,-0.331441,-0.870269
1144790710.944,0.273173,-0.327527,-0.870269
1144790710.954,0.269250,-0.339270,-0.870269
1144790710.964,0.273173,-0.374498,-0.862466
1144790710.974,0.241785,-0.401898,-0.854663
1144790710.984,0.222168,-0.448870,-0.870269
1144790710.994,0.214321,-0.480184,-0.866368
1144790711.004,0.241785,-0.503670,-0.881974
1144790711.014,0.273173,-0.495841,-0.870269
1144790711.024,0.304561,-0.456698,-0.862466
1144790711.034,0.335949,-0.444955,-0.858564
1144790711.044,0.343796,-0.491927,-0.842958
1144790711.054,0.328102,-0.550641,-0.854663
1144790711.064,0.308485,-0.585869,-0.858564
1144790711.074,0.304561,-0.597612,-0.850761
1144790711.084,0.332026,-0.562384,-0.835154
1144790711.094,0.379107,-0.542812,-0.792236
1144790711.104,0.422266,-0.550641,-0.753219
1144790711.114,0.445807,-0.538898,-0.749317
1144790711.124,0.457577,-0.542812,-0.741514
1144790711.134,0.441883,-0.566298,-0.729809
1144790711.144,0.414419,-0.581955,-0.714202
1144790711.154,0.394801,-0.605441,-0.706399
1144790711.165,0.406572,-0.601527,-0.694694
1144790711.174,0.426189,-0.609355,-0.714202
1144790711.184,0.465424,-0.636755,-0.725907
1144790711.195,0.496812,-0.699383,-0.788334
1144790711.204,0.500736,-0.765926,-0.878073
1144790711.214,0.536047,-0.828555,-0.960008
1144790711.224,0.575282,-0.902926,-1.006828
1144790711.234,0.614517,-0.985126,-0.983418
1144790711.244,0.638058,-0.985126,-0.913188
1144790711.253,0.653752,-0.949897,-0.819547
1144790711.264,0.669446,-0.871612,-0.737612
1144790711.274,0.614517,-0.793326,-0.667382
1144790711.284,0.555665,-0.765926,-0.573742
1144790711.294,0.492889,-0.730698,-0.495708
1144790711.304,0.457577,-0.675898,-0.433281
1144790711.314,0.434036,-0.617184,-0.382560
1144790711.324,0.441883,-0.574126,-0.331838
1144790711.334,0.441883,-0.534984,-0.320133
1144790711.344,0.453654,-0.495841,-0.304526
1144790711.354,0.473271,-0.491927,-0.285018
1144790711.363,0.516430,-0.519327,-0.296723
1144790711.374,0.559588,-0.566298,-0.292821
1144790711.384,0.622364,-0.628926,-0.285018
1144790711.394,0.669446,-0.691555,-0.281116
1144790711.404,0.704757,-0.738526,-0.246001
1144790711.414,0.740069,-0.769840,-0.249902
1144790711.424,0.783227,-0.797240,-0.234296
1144790711.434,0.818539,-0.863783,-0.238197
1144790711.444,0.830309,-0.945983,-0.234296
1144790711.454,0.818539,-1.020354,-0.257706
1144790711.464,0.798921,-1.055583,-0.214787
1144790711.473,0.810692,-1.028183,-0.187476
1144790711.483,0.814615,-0.949897,-0.191377
1144790711.494,0.818539,-0.906840,-0.210886
1144790711.503,0.818539,-0.887269,-0.206984
1144790711.513,0.794998,-0.832469,-0.226492
1144790711.523,0.775380,-0.793326,-0.230394
1144790711.533,0.775380,-0.785497,-0.203082
1144790711.543,0.783227,-0.808983,-0.199181
1144790711.553,0.794998,-0.867697,-0.175771
1144790711.563,0.822462,-0.906840,-0.191377
1144790711.573,0.846003,-0.945983,-0.234296
1144790711.584,0.904855,-0.989040,-0.296723
1144790711.593,0.932320,-1.000783,-0.351346
1144790711.603,0.936243,-0.985126,-0.421576
1144790711.613,0.916626,-0.945983,-0.487905
1144790711.623,0.783227,-0.899012,-0.565938
1144790711.635,0.728298,-0.785497,-0.577643
1144790711.643,0.657675,-0.636755,-0.597152
1144790711.653,0.583129,-0.585869,-0.663480
1144790711.663,0.500736,-0.542812,-0.667382
1144790711.673,0.402648,-0.468441,-0.706399
1144790711.683,0.335949,-0.362756,-0.718104
1144790711.693,0.304561,-0.276641,-0.764924
1144790711.703,0.296714,-0.268813,-0.811744
1144790711.713,0.316332,-0.315784,-0.835154
1144790711.723,0.359490,-0.421470,-0.862466
1144790711.733,0.379107,-0.542812,-0.866368
1144790711.743,0.343796,-0.625012,-0.928794
1144790711.753,0.296714,-0.668069,-1.014631
1144790711.763,0.296714,-0.718955,-1.049746
1144790711.773,0.351643,-0.742441,-1.061451
1144790711.783,0.406572,-0.773755,-1.049746
1144790711.793,0.453654,-0.777669,-1.034140
1144790711.803,0.437960,-0.738526,-0.944401
1144790711.813,0.398725,-0.648498,-0.901483
1144790711.823,0.359490,-0.593698,-0.831253
1144790711.833,0.359490,-0.574126,-0.823449
1144790711.843,0.390878,-0.574126,-0.800039
1144790711.853,0.418342,-0.558469,-0.803941
1144790711.863,0.406572,-0.558469,-0.788334
1144790711.873,0.398725,-0.566298,-0.780531
1144790711.883,0.367337,-0.570212,-0.757121
1144790711.893,0.320255,-0.538898,-0.772727
1144790711.903,0.308485,-0.488012,-0.745416
1144790711.915,0.292791,-0.464527,-0.776629
1144790711.923,0.277097,-0.444955,-0.819547
1144790711.933,0.241785,-0.413641,-0.842958
1144790711.943,0.206474,-0.405813,-0.839056
1144790711.953,0.198627,-0.425384,-0.823449
1144790711.963,0.202550,-0.444955,-0.800039
1144790711.973,0.182933,-0.441041,-0.768826
1144790711.983,0.155468,-0.405813,-0.776629
1144790711.993,0.112310,-0.382327,-0.757121
1144790712.003,0.073075,-0.370584,-0.764924
1144790712.013,0.061305,-0.339270,-0.753219
1144790712.023,0.053458,-0.311870,-0.788334
1144790712.033,0.049534,-0.276641,-0.780531
1144790712.043,0.061305,-0.253156,-0.784432
1144790712.053,0.057381,-0.264899,-0.780531
1144790712.063,0.041687,-0.260984,-0.796137
1144790712.073,0.018146,-0.233584,-0.776629
1144790712.083,-0.001471,-0.206185,-0.776629
1144790712.092,-0.025012,-0.186613,-0.737612
1144790712.103,-0.021089,-0.151385,-0.741514
1144790712.113,-0.048553,-0.127899,-0.757121
1144790712.123,-0.056400,-0.123985,-0.792236
1144790712.133,-0.079941,-0.123985,-0.800039
1144790712.143,-0.072094,-0.120070,-0.811744
1144790712.153,-0.076018,-0.077013,-0.827351
1144790712.163,-0.087788,-0.010471,-0.850761
1144790712.173,-0.111329,0.009101,-0.850761
1144790712.183,-0.146641,-0.006556,-0.862466
1144790712.193,-0.185875,-0.014385,-0.862466
1144790712.203,-0.213340,-0.022214,-0.866368
1144790712.213,-0.201569,0.009101,-0.870269
1144790712.223,-0.189799,0.013015,-0.850761
1144790712.233,-0.197646,0.009101,-0.835154
1144790712.243,-0.229034,0.020844,-0.850761
1144790712.253,-0.256498,0.032586,-0.854663
1144790712.263,-0.260422,0.052158,-0.866368
1144790712.273,-0.244728,0.095215,-0.885876
1144790712.283,-0.236881,0.110872,-0.901483
1144790712.293,-0.225110,0.142186,-0.885876
1144790712.303,-0.236881,0.150015,-0.874171
1144790712.313,-0.272192,0.142186,-0.842958
1144790712.323,-0.295733,0.150015,-0.870269
1144790712.333,-0.299657,0.161757,-0.870269
1144790712.343,-0.283963,0.173500,-0.870269
1144790712.353,-0.276116,0.161757,-0.874171
1144790712.363,-0.287886,0.161757,-0.866368
1144790712.373,-0.299657,0.165672,-0.854663
1144790712.384,-0.331045,0.189157,-0.850761
1144790712.393,-0.366356,0.196986,-0.878073
1144790712.403,-0.385974,0.193072,-0.885876
1144790712.413,-0.374203,0.189157,-0.905384
1144790712.423,-0.366356,0.220472,-0.862466
1144790712.433,-0.366356,0.243957,-0.842958
1144790712.443,-0.385974,0.259614,-0.850761
1144790712.453,-0.413438,0.255700,-0.819547
1144790712.463,-0.425208,0.259614,-0.827351
1144790712.473,-0.444826,0.263529,-0.831253
1144790712.482,-0.452673,0.279186,-0.819547
1144790712.493,-0.472290,0.283100,-0.803941
1144790712.503,-0.495831,0.283100,-0.839056
1144790712.512,-0.515449,0.290929,-0.831253
1144790712.523,-0.538990,0.326157,-0.850761
1144790712.532,-0.538990,0.357471,-0.862466
1144790712.542,-0.523296,0.365300,-0.928794
1144790712.552,-0.495831,0.388786,-0.924893
1144790712.562,-0.464443,0.396614,-0.956106
1144790712.573,-0.456596,0.384871,-0.956106
1144790712.582,-0.456596,0.404443,-0.956106
1144790712.592,-0.460520,0.408357,-0.924893
1144790712.602,-0.464443,0.416186,-0.885876
1144790712.612,-0.472290,0.404443,-0.893679
1144790712.622,-0.476214,0.373128,-0.862466
1144790712.632,-0.491908,0.361386,-0.878073
1144790712.642,-0.507602,0.361386,-0.866368
1144790712.652,-0.538990,0.361386,-0.874171
1144790712.662,-0.570378,0.333986,-0.850761
1144790712.672,-0.570378,0.322243,-0.854663
1144790712.682,-0.582148,0.306586,-0.839056
1144790712.692,-0.558607,0.322243,-0.835154
1144790712.702,-0.542913,0.330071,-0.842958
1144790712.712,-0.535066,0.330071,-0.850761
1144790712.722,-0.495831,0.326157,-0.850761
1144790712.732,-0.495831,0.326157,-0.842958
1144790712.742,-0.464443,0.326157,-0.842958
1144790712.752,-0.460520,0.322243,-0.819547
1144790712.762,-0.464443,0.314414,-0.819547
1144790712.772,-0.452673,0.314414,-0.823449
1144790712.782,-0.456596,0.314414,-0.819547
1144790712.792,-0.472290,0.318329,-0.823449
1144790712.802,-0.468367,0.306586,-0.846859
1144790712.812,-0.472290,0.302671,-0.839056
1144790712.822,-0.472290,0.298757,-0.842958
1144790712.832,-0.472290,0.326157,-0.823449
1144790712.842,-0.460520,0.330071,-0.831253
1144790712.853,-0.456596,0.322243,-0.815646
1144790712.862,-0.448749,0.322243,-0.831253
1144790712.872,-0.452673,0.318329,-0.815646
1144790712.882,-0.440902,0.287014,-0.815646
1144790712.892,-0.436979,0.271357,-0.823449
1144790712.902,-0.425208,0.259614,-0.823449
1144790712.912,-0.413438,0.255700,-0.842958
1144790712.922,-0.413438,0.236129,-0.835154
1144790712.932,-0.425208,0.200900,-0.866368
1144790712.942,-0.440902,0.181329,-0.866368
1144790712.952,-0.448749,0.193072,-0.870269
1144790712.962,-0.452673,0.220472,-0.878073
1144790712.972,-0.456596,0.236129,-0.858564
1144790712.982,-0.452673,0.236129,-0.858564
1144790712.992,-0.468367,0.224386,-0.870269
1144790713.002,-0.480137,0.236129,-0.878073
1144790713.012,-0.468367,0.224386,-0.878073
1144790713.022,-0.436979,0.212643,-0.897581
1144790713.032,-0.401668,0.193072,-0.874171
1144790713.042,-0.366356,0.173500,-0.858564
1144790713.052,-0.358509,0.146100,-0.874171
1144790713.062,-0.342815,0.110872,-0.866368
1144790713.072,-0.323198,0.095215,-0.827351
1144790713.082,-0.315351,0.083472,-0.858564
1144790713.092,-0.295733,0.056072,-0.862466
1144790713.102,-0.268269,0.028672,-0.878073
1144790713.112,-0.256498,0.016929,-0.854663
1144790713.122,-0.252575,0.028672,-0.881974
1144790713.132,-0.252575,0.024758,-0.885876
1144790713.141,-0.248651,0.024758,-0.881974
1144790713.152,-0.229034,-0.002642,-0.866368
1144790713.162,-0.209416,-0.018299,-0.893679
1144790713.172,-0.181952,-0.041785,-0.917089
1144790713.182,-0.162334,-0.041785,-0.928794
1144790713.192,-0.146641,-0.030042,-0.928794
1144790713.201,-0.142717,-0.041785,-0.940500
1144790713.211,-0.134870,-0.057442,-0.940500
1144790713.221,-0.123100,-0.080928,-0.932696
1144790713.231,-0.107406,-0.073099,-0.909286
1144790713.241,-0.087788,-0.080928,-0.889778
1144790713.251,-0.064247,-0.104413,-0.893679
1144790713.261,-0.044630,-0.112242,-0.878073
1144790713.271,-0.013242,-0.108328,-0.846859
1144790713.282,-0.001471,-0.116156,-0.846859
1144790713.291,-0.001471,-0.123985,-0.788334
1144790713.301,-0.017165,-0.139642,-0.788334
1144790713.311,-0.025012,-0.163127,-0.764924
1144790713.322,-0.021089,-0.206185,-0.788334
1144790713.331,-0.021089,-0.245327,-0.768826
1144790713.341,0.002452,-0.268813,-0.784432
1144790713.351,0.018146,-0.253156,-0.753219
1144790713.361,0.053458,-0.245327,-0.741514
1144790713.371,0.084846,-0.268813,-0.729809
1144790713.381,0.104463,-0.307956,-0.722005
1144790713.391,0.116233,-0.327527,-0.729809
1144790713.401,0.128004,-0.370584,-0.776629
1144790713.411,0.143698,-0.386241,-0.772727
1144790713.421,0.190780,-0.394070,-0.792236
1144790713.431,0.233938,-0.401898,-0.800039
1144790713.441,0.288867,-0.401898,-0.772727
1144790713.451,0.316332,-0.413641,-0.749317
1144790713.461,0.320255,-0.433213,-0.745416
1144790713.471,0.269250,-0.456698,-0.800039
1144790713.481,0.265326,-0.476270,-0.839056
1144790713.491,0.281020,-0.472355,-0.858564
1144790713.501,0.351643,-0.468441,-0.870269
1144790713.511,0.398725,-0.507584,-0.854663
1144790713.521,0.418342,-0.538898,-0.823449
1144790713.531,0.375184,-0.546727,-0.807842
1144790713.541,0.312408,-0.534984,-0.784432
1144790713.551,0.277097,-0.550641,-0.776629
1144790713.561,0.300638,-0.574126,-0.757121
1144790713.571,0.351643,-0.597612,-0.768826
1144790713.580,0.430113,-0.632841,-0.757121
1144790713.591,0.492889,-0.668069,-0.733711
1144790713.602,0.532124,-0.679812,-0.718104
1144790713.611,0.516430,-0.695469,-0.706399
1144790713.621,0.469348,-0.691555,-0.718104
1144790713.631,0.449730,-0.683726,-0.764924
1144790713.641,0.465424,-0.726783,-0.846859
1144790713.651,0.539971,-0.816812,-0.956106
1144790713.661,0.630211,-0.934240,-1.065353
1144790713.671,0.751839,-1.079068,-1.209715
1144790713.680,0.842079,-1.184754,-1.174600
1144790713.691,0.865620,-1.180840,-1.049746
1144790713.701,0.791074,-1.161268,-0.885876
1144790713.711,0.653752,-1.082983,-0.718104
1144790713.721,0.532124,-0.957726,-0.577643
1144790713.731,0.449730,-0.808983,-0.499610
1144790713.741,0.414419,-0.671983,-0.441085
1144790713.751,0.386954,-0.566298,-0.409871
1144790713.761,0.359490,-0.511498,-0.398166
1144790713.770,0.343796,-0.495841,-0.378658
1144790713.780,0.339873,-0.488012,-0.386461
1144790713.791,0.359490,-0.484098,-0.394265
1144790713.800,0.398725,-0.452784,-0.378658
1144790713.810,0.449730,-0.444955,-0.402068
1144790713.821,0.524277,-0.456698,-0.394265
1144790713.830,0.594900,-0.491927,-0.402068
1144790713.840,0.641981,-0.574126,-0.405970
1144790713.850,0.677293,-0.652412,-0.433281
1144790713.860,0.677293,-0.691555,-0.452790
1144790713.870,0.685140,-0.687641,-0.448888
1144790713.880,0.689063,-0.726783,-0.472298
1144790713.890,0.712604,-0.785497,-0.480101
1144790713.900,0.712604,-0.844212,-0.472298
1144790713.910,0.689063,-0.863783,-0.464495
1144790713.920,0.641981,-0.848126,-0.464495
1144790713.930,0.630211,-0.848126,-0.433281
1144790713.940,0.610593,-0.828555,-0.425478
1144790713.950,0.606670,-0.789412,-0.402068
1144790713.960,0.614517,-0.746355,-0.363051
1144790713.970,0.622364,-0.687641,-0.355248
1144790713.980,0.638058,-0.668069,-0.327936
1144790713.990,0.645905,-0.687641,-0.335739
1144790714.000,0.653752,-0.734612,-0.285018
1144790714.010,0.665522,-0.765926,-0.277214
1144790714.020,0.681216,-0.765926,-0.265509
1144790714.030,0.681216,-0.769840,-0.257706
1144790714.040,0.692987,-0.773755,-0.242099
1144790714.050,0.712604,-0.785497,-0.242099
1144790714.060,0.732222,-0.785497,-0.253804
1144790714.071,0.767533,-0.765926,-0.249902
1144790714.080,0.794998,-0.738526,-0.261607
1144790714.090,0.814615,-0.722869,-0.273313
1144790714.100,0.834232,-0.765926,-0.292821
1144790714.110,0.810692,-0.808983,-0.304526
1144790714.120,0.822462,-0.852040,-0.324034
1144790714.130,0.834232,-0.848126,-0.300624
1144790714.140,0.838156,-0.832469,-0.335739
1144790714.150,0.814615,-0.832469,-0.331838
1144790714.160,0.810692,-0.840297,-0.347444
1144790714.170,0.798921,-0.855954,-0.386461
1144790714.180,0.798921,-0.852040,-0.409871
1144790714.190,0.798921,-0.840297,-0.437183
1144790714.200,0.783227,-0.777669,-0.476200
1144790714.210,0.736145,-0.738526,-0.534725
1144790714.220,0.685140,-0.738526,-0.565938
1144790714.230,0.630211,-0.738526,-0.604955
1144790714.240,0.579206,-0.726783,-0.647874
1144790714.250,0.516430,-0.660241,-0.667382
1144790714.260,0.473271,-0.605441,-0.682989
1144790714.270,0.426189,-0.609355,-0.694694
1144790714.280,0.383031,-0.593698,-0.679087
1144790714.290,0.316332,-0.554555,-0.679087
1144790714.300,0.230015,-0.464527,-0.722005
1144790714.310,0.147621,-0.429298,-0.776629
1144790714.320,0.108386,-0.429298,-0.815646
1144790714.330,0.108386,-0.460613,-0.885876
1144790714.340,0.128004,-0.464527,-0.936598
1144790714.350,0.210397,-0.464527,-0.956106
1144790714.360,0.261403,-0.480184,-0.983418
1144790714.369,0.320255,-0.523241,-0.995123
1144790714.379,0.328102,-0.578041,-1.018533
1144790714.390,0.339873,-0.601527,-1.010730
1144790714.399,0.363413,-0.632841,-0.995123
1144790714.409,0.410495,-0.640669,-0.991221
1144790714.419,0.437960,-0.656326,-0.932696
1144790714.429,0.449730,-0.679812,-0.893679
1144790714.439,0.449730,-0.679812,-0.870269
1144790714.449,0.422266,-0.652412,-0.835154
1144790714.459,0.418342,-0.589784,-0.815646
1144790714.469,0.418342,-0.554555,-0.827351
1144790714.479,0.449730,-0.507584,-0.850761
1144790714.489,0.488965,-0.491927,-0.831253
1144790714.499,0.516430,-0.491927,-0.835154
1144790714.509,0.496812,-0.488012,-0.803941
1144790714.519,0.437960,-0.476270,-0.788334
1144790714.529,0.355566,-0.460613,-0.784432
1144790714.541,0.292791,-0.464527,-0.784432
1144790714.549,0.265326,-0.452784,-0.796137
1144790714.559,0.265326,-0.448870,-0.807842
1144790714.569,0.257479,-0.448870,-0.803941
1144790714.579,0.241785,-0.437127,-0.796137
1144790714.589,0.214321,-0.413641,-0.807842
1144790714.599,0.190780,-0.370584,-0.800039
1144790714.609,0.171162,-0.351013,-0.776629
1144790714.619,0.151545,-0.362756,-0.803941
1144790714.629,0.135851,-0.335356,-0.803941
1144790714.639,0.120157,-0.304041,-0.807842
1144790714.649,0.112310,-0.288384,-0.780531
1144790714.659,0.080922,-0.284470,-0.788334
1144790714.669,0.041687,-0.264899,-0.827351
1144790714.679,0.010299,-0.237499,-0.819547
1144790714.689,-0.021089,-0.214013,-0.839056
1144790714.699,-0.028936,-0.174870,-0.850761
1144790714.709,-0.040706,-0.143556,-0.866368
1144790714.719,-0.040706,-0.123985,-0.846859
1144790714.729,-0.040706,-0.084842,-0.846859
1144790714.738,-0.060324,-0.080928,-0.846859
1144790714.749,-0.072094,-0.112242,-0.858564
1144790714.759,-0.079941,-0.116156,-0.862466
1144790714.769,-0.099559,-0.112242,-0.858564
1144790714.779,-0.107406,-0.104413,-0.866368
1144790714.789,-0.119176,-0.108328,-0.874171
1144790714.799,-0.127023,-0.112242,-0.913188
1144790714.809,-0.134870,-0.100499,-0.917089
1144790714.819,-0.134870,-0.061356,-0.936598
1144790714.829,-0.130947,-0.014385,-0.928794
1144790714.838,-0.138794,0.001272,-0.909286
1144790714.849,-0.170181,0.013015,-0.928794
1144790714.859,-0.209416,0.016929,-0.948303
1144790714.869,-0.229034,0.009101,-0.948303
1144790714.879,-0.225110,0.005186,-0.940500
1144790714.889,-0.209416,0.009101,-0.924893
1144790714.899,-0.189799,0.040415,-0.924893
1144790714.909,-0.193722,0.048243,-0.913188
1144790714.919,-0.197646,0.040415,-0.901483
1144790714.929,-0.221187,0.028672,-0.901483
1144790714.939,-0.236881,0.024758,-0.905384
1144790714.949,-0.256498,0.067815,-0.893679
1144790714.958,-0.256498,0.091301,-0.874171
1144790714.969,-0.248651,0.095215,-0.858564
1144790714.979,-0.264345,0.083472,-0.850761
1144790714.989,-0.276116,0.095215,-0.827351
1144790714.999,-0.299657,0.118700,-0.819547
1144790715.009,-0.295733,0.122615,-0.823449
1144790715.019,-0.283963,0.130443,-0.823449
1144790715.028,-0.287886,0.130443,-0.823449
1144790715.038,-0.303580,0.134358,-0.823449
1144790715.048,-0.315351,0.146100,-0.827351
1144790715.058,-0.327121,0.146100,-0.815646
1144790715.068,-0.338892,0.146100,-0.831253
1144790715.078,-0.354586,0.146100,-0.850761
1144790715.088,-0.350662,0.150015,-0.866368
1144790715.098,-0.354586,0.153929,-0.881974
1144790715.108,-0.374203,0.196986,-0.885876
1144790715.118,-0.374203,0.228300,-0.858564
1144790715.128,-0.370280,0.228300,-0.862466
1144790715.138,-0.358509,0.232215,-0.850761
1144790715.148,-0.389897,0.232215,-0.831253
1144790715.158,-0.421285,0.236129,-0.831253
1144790715.168,-0.436979,0.255700,-0.823449
1144790715.178,-0.433055,0.267443,-0.800039
1144790715.189,-0.421285,0.247872,-0.772727
1144790715.198,-0.440902,0.247872,-0.768826
1144790715.208,-0.456596,0.259614,-0.776629
1144790715.218,-0.476214,0.275272,-0.761022
1144790715.228,-0.503678,0.318329,-0.776629
1144790715.238,-0.523296,0.341814,-0.819547
1144790715.248,-0.511525,0.353557,-0.889778
1144790715.258,-0.495831,0.392700,-0.975615
1144790715.268,-0.460520,0.435757,-1.057550
1144790715.278,-0.440902,0.482728,-1.123878
1144790715.288,-0.433055,0.521871,-1.174600
1144790715.298,-0.487984,0.533614,-1.151190
1144790715.308,-0.558607,0.537528,-1.112173
1144790715.318,-0.601766,0.470985,-1.080960
1144790715.328,-0.617460,0.396614,-0.999025
1144790715.338,-0.601766,0.290929,-0.924893
1144790715.348,-0.574301,0.224386,-0.878073
1144790715.358,-0.523296,0.204815,-0.803941
1144790715.368,-0.460520,0.220472,-0.761022
1144790715.378,-0.393821,0.232215,-0.749317
1144790715.388,-0.342815,0.216557,-0.761022
1144790715.398,-0.331045,0.208729,-0.780531
1144790715.408,-0.350662,0.224386,-0.811744
1144790715.418,-0.354586,0.247872,-0.839056
1144790715.428,-0.350662,0.263529,-0.874171
1144790715.438,-0.331045,0.259614,-0.862466
1144790715.448,-0.319274,0.283100,-0.866368
1144790715.457,-0.319274,0.290929,-0.850761
1144790715.468,-0.338892,0.283100,-0.835154
1144790715.478,-0.362433,0.275272,-0.823449
1144790715.488,-0.382050,0.267443,-0.819547
1144790715.498,-0.405591,0.251786,-0.842958
1144790715.508,-0.401668,0.236129,-0.831253
1144790715.518,-0.389897,0.228300,-0.839056
1144790715.528,-0.374203,0.220472,-0.874171
1144790715.538,-0.366356,0.220472,-0.913188
1144790715.547,-0.358509,0.216557,-0.928794
1144790715.558,-0.350662,0.212643,-0.963910
1144790715.568,-0.350662,0.208729,-0.967811
1144790715.578,-0.362433,0.200900,-0.987320
1144790715.588,-0.358509,0.189157,-0.971713
1144790715.597,-0.362433,0.189157,-0.940500
1144790715.607,-0.374203,0.208729,-0.920991
1144790715.617,-0.385974,0.216557,-0.909286
1144790715.627,-0.385974,0.212643,-0.885876
1144790715.637,-0.382050,0.216557,-0.885876
1144790715.647,-0.393821,0.228300,-0.866368
1144790715.657,-0.385974,0.232215,-0.866368
1144790715.667,-0.413438,0.232215,-0.862466
1144790715.677,-0.405591,0.247872,-0.854663
1144790715.687,-0.413438,0.240043,-0.866368
1144790715.697,-0.393821,0.247872,-0.862466
1144790715.707,-0.397744,0.243957,-0.866368
1144790715.717,-0.397744,0.263529,-0.839056
1144790715.727,-0.413438,0.271357,-0.866368
1144790715.737,-0.429132,0.259614,-0.846859
1144790715.747,-0.448749,0.228300,-0.870269
1144790715.759,-0.468367,0.204815,-0.885876
1144790715.767,-0.468367,0.216557,-0.897581
1144790715.777,-0.444826,0.228300,-0.881974
1144790715.787,-0.425208,0.236129,-0.878073
1144790715.797,-0.413438,0.224386,-0.893679
1144790715.807,-0.421285,0.212643,-0.932696
1144790715.817,-0.436979,0.200900,-0.960008
1144790715.827,-0.429132,0.193072,-0.944401
1144790715.837,-0.421285,0.189157,-0.960008
1144790715.847,-0.397744,0.185243,-0.956106
1144790715.857,-0.401668,0.173500,-0.979516
1144790715.867,-0.405591,0.177415,-0.987320
1144790715.877,-0.401668,0.173500,-0.995123
1144790715.887,-0.389897,0.169586,-0.995123
1144790715.897,-0.370280,0.173500,-0.967811
1144790715.907,-0.362433,0.161757,-0.987320
1144790715.917,-0.366356,0.146100,-0.952205
1144790715.927,-0.370280,0.153929,-0.956106
1144790715.937,-0.370280,0.150015,-0.932696
1144790715.947,-0.370280,0.142186,-0.924893
