absolute_timestamp,accel_x,accel_y,accel_z
1775856277524190897,1.344766,4.905286,8.169097
1775856277526352512,1.311267,4.890930,8.082955
1775856277528513189,1.196411,4.814359,7.948957
1775856277530673814,1.004985,4.742575,7.776674
1775856277532834439,0.818345,4.699504,7.580462
1775856277534995116,0.655633,4.661219,7.360322
1775856277537155793,0.464208,4.579863,7.221539
1775856277539316418,0.282353,4.536792,7.121040
1775856277541477095,0.110070,4.455436,7.049255
1775856277543637720,-0.062213,4.407579,7.058827
1775856277545798345,-0.210568,4.350152,7.082755
1775856277547959022,-0.373280,4.287938,7.135397
1775856277550119699,-0.502493,4.240082,7.235896
1775856277552280324,-0.612563,4.201797,7.365108
1775856277554440949,-0.713061,4.144369,7.527820
1775856277556601626,-0.794417,4.110869,7.700103
1775856277558762304,-0.861416,4.082155,7.843673
1775856277560922929,-0.904487,4.039084,8.054241
1775856277563083554,-0.933201,4.024728,8.260024
1775856277565244231,-0.976272,3.991228,8.427522
1775856277567404856,-0.976272,3.962514,8.676374
1775856277569565533,-0.947558,3.929015,8.834301
1775856277571726158,-0.880559,3.938586,8.958728
1775856277573886835,-0.837488,3.981657,9.121440
1775856277576047460,-0.837488,4.015156,9.293723
1775856277578208137,-0.813560,4.053442,9.432507
1775856277580368762,-0.780060,4.120440,9.537791
1775856277582529439,-0.741775,4.168297,9.604790
1775856277584690064,-0.760918,4.235296,9.652647
1775856277586850741,-0.741775,4.278367,9.365508
1775856277589011418,-0.334995,4.412365,9.504292
1775856277591172043,-0.186640,4.450650,9.944571
1775856277593332720,-0.133998,4.426722,10.016356
1775856277595493345,-0.057428,4.441079,9.600004
1775856277597653970,-0.019143,4.460221,9.241081
1775856277599814647,-0.004786,4.474578,8.997013
1775856277601975272,-0.023928,4.503292,8.872586
1775856277604135949,-0.043071,4.532006,8.839087
1775856277606296574,-0.066999,4.575077,8.819944
1775856277608457251,-0.076570,4.584648,8.819944
1775856277610617876,-0.071785,4.622933,8.819944
1775856277612778554,-0.047856,4.622933,8.776874
1775856277614939179,0.000000,4.646862,8.690732
1775856277617099856,0.047856,4.661219,8.662018
1775856277619260481,0.052642,4.675575,8.628518
1775856277621421158,0.043071,4.713861,8.614161
1775856277623581835,0.043071,4.728218,8.599805
1775856277625742460,0.023928,4.761717,8.623733
1775856277627903085,0.033500,4.771288,8.628518
1775856277630063762,0.033500,4.809574,8.614161
1775856277632224387,0.062213,4.814359,8.571091
1775856277634385012,0.086142,4.833502,8.537591
1775856277636545689,0.124427,4.823930,8.504091
1775856277638706314,0.143569,4.838287,8.489735
1775856277640866991,0.191426,4.833502,8.480164
1775856277643027616,0.239282,4.819145,8.499306
1775856277645188293,0.263211,4.828716,8.446664
1775856277647348970,0.306281,4.804788,8.413164
1775856277649509595,0.334995,4.804788,8.398808
1775856277651670272,0.373280,4.776074,8.398808
1775856277653830897,0.382852,4.771288,8.403593
1775856277655991574,0.397209,4.752146,8.403593
1775856277658152199,0.406780,4.733003,8.413164
1775856277660312876,0.411565,4.709075,8.437093
1775856277662473501,0.411565,4.709075,8.470592
1775856277664634179,0.387637,4.713861,8.484949
1775856277666794804,0.373280,4.685147,8.480164
1775856277668955429,0.373280,4.666004,8.489735
1775856277671116106,0.368495,4.670790,8.523234
1775856277673276731,0.349352,4.651647,8.542377
1775856277675437408,0.334995,4.656433,8.547162
1775856277677598085,0.315853,4.642076,8.571091
1775856277679758710,0.306281,4.632504,8.585447
1775856277681919387,0.291924,4.642076,8.556734
1775856277684079960,0.282353,4.627719,8.575876
1775856277686240689,0.277567,4.603791,8.595019
1775856277688401314,0.296710,4.608576,8.585447
1775856277690561991,0.339781,4.613362,8.580662
1775856277692722616,0.382852,4.618148,8.614161
1775856277694883293,0.445065,4.594220,8.633304
1775856277697043918,0.516850,4.608576,8.695518
1775856277699204543,0.602991,4.622933,8.772088
1775856277701365220,0.689133,4.637290,8.882157
1775856277703525845,0.770489,4.661219,9.016156
1775856277705686522,0.851845,4.689932,9.116654
1775856277707847147,0.933201,4.709075,9.260223
1775856277710007824,1.014557,4.742575,9.370294
1775856277712168501,1.086342,4.771288,9.528220
1775856277714329126,1.177269,4.790431,9.710074
1775856277716489751,1.253839,4.814359,9.844072
1775856277718650376,1.335195,4.843073,9.973285
1775856277720811054,1.387837,4.833502,10.102497
1775856277722971731,1.445265,4.847859,10.231709
1775856277725132408,1.502693,4.847859,10.332209
1775856277727293033,1.555335,4.862216,10.451849
1775856277729453658,1.584049,4.847859,10.581061
1775856277731614335,1.651048,4.862216,10.715060
1775856277733774960,1.684547,4.871787,10.868200
1775856277735935637,1.746760,4.881358,11.035698
1775856277738096314,1.780260,4.910072,11.188839
1775856277740256887,1.789831,4.914858,11.370693
1775856277742417564,1.794617,4.938786,11.509477
1775856277744578189,1.799403,4.953143,11.653047
1775856277746738866,1.828117,4.996214,11.791830
1775856277748899543,1.842473,5.039285,11.921042
1775856277751060168,1.856830,5.101498,12.026326
1775856277753220793,1.856830,5.130212,12.122040
1775856277755381470,1.866402,5.197211,12.203396
1775856277757542147,1.909472,5.249853,12.265609
1775856277759702772,1.947758,5.312066,12.308680
1775856277761863449,1.990828,5.383851,12.351750
1775856277764024074,1.990828,5.426922,12.390036
1775856277766184751,2.019542,5.479564,12.375679
1775856277768345376,2.014757,5.517849,12.323036
1775856277770506054,2.019542,5.508278,12.203396
1775856277772666679,1.986043,5.527421,12.045469
1775856277774827356,1.981257,5.536992,11.854043
1775856277776987981,1.947758,5.536992,11.629118
1775856277779148606,1.952543,5.546563,11.341979
1775856277781309283,1.933401,5.536992,11.030912
1775856277783469908,1.914258,5.522635,10.715060
1775856277785630585,1.880759,5.513063,10.403993
1775856277787791210,1.880759,5.498706,10.045070
1775856277789951887,1.847259,5.484350,9.676575
1775856277792112512,1.799403,5.460421,9.284152
1775856277794273189,1.756332,5.426922,8.944371
1775856277796433814,1.679762,5.422136,8.604590
1775856277798594491,1.545763,5.379066,8.307880
1775856277800755116,1.435694,5.321638,8.035098
1775856277802915793,1.287339,5.259424,7.743174
1775856277805076470,1.138984,5.216353,7.499106
1775856277807237095,1.014557,5.149354,7.250253
1775856277809397720,0.918844,5.091927,7.054041
1775856277811558397,0.823131,5.044070,6.876972
1775856277813719022,0.717847,5.000999,6.723832
1775856277815879647,0.602991,4.972285,6.575477
1775856277818040324,0.464208,4.953143,6.489335
1775856277820201001,0.368495,4.919643,6.388836
1775856277822361626,0.267996,4.934000,6.312266
1775856277824522304,0.181855,4.943572,6.230910
1775856277826682929,0.110070,4.962714,6.168697
1775856277828843606,0.066999,4.977071,6.120841
1775856277831004231,0.057428,5.034499,6.058627
1775856277833164908,0.028714,5.067998,6.005985
1775856277835325533,-0.019143,5.144569,5.996414
1775856277837486210,-0.052642,5.211568,5.938986
1775856277839646835,-0.119641,5.245067,5.876772
1775856277841807460,-0.301496,5.355137,5.838487
1775856277843968137,-0.765703,5.632705,5.900701
1775856277846128762,-1.172483,5.790631,5.986842
1775856277848289439,-1.373480,5.848059,5.900701
1775856277850450064,-1.392623,5.867201,5.742774
1775856277852610741,-1.249053,5.871987,5.560920
1775856277854771366,-1.148555,5.852844,5.493921
1775856277856932043,-1.004985,5.852844,5.426922
1775856277859092668,-0.856631,5.881558,5.355137
1775856277861253345,-0.593420,6.001199,5.201996
1775856277863413970,-0.851845,5.828916,5.216353
1775856277865574647,-1.119841,5.666204,5.355137
1775856277867735324,-1.296910,5.493921,5.331209
1775856277869895949,-1.354338,5.288138,5.230711
1775856277872056626,-1.330409,5.029713,5.139783
1775856277874217251,-1.229911,4.771288,5.000999
1775856277876377876,-1.138984,4.508078,4.948357
1775856277878538554,-1.052842,4.216154,4.972285
1775856277880699179,-0.981057,3.957729,5.034499
1775856277882859856,-0.942772,3.761517,5.154140
1775856277885020481,-0.952343,3.598805,5.388637
1775856277887181158,-1.024128,3.469593,5.661418
1775856277889341783,-1.153340,3.340380,5.991628
1775856277891502460,-1.349552,3.235096,6.403193
1775856277893663085,-1.521835,3.144169,6.833901
1775856277895823762,-1.646262,3.081956,7.293324
1775856277897984387,-1.785046,3.038885,7.786245
1775856277900145064,-1.938186,3.043670,8.240881
1775856277902305689,-2.143969,3.101098,8.666803
1775856277904466366,-2.354537,3.139383,8.992228
1775856277906626991,-2.536392,3.172883,9.236296
1775856277908787616,-2.641676,3.196811,9.351151
1775856277910948293,-2.703890,3.201597,9.375079
1775856277913108970,-2.699104,3.168097,9.346365
1775856277915269595,-2.718246,3.072384,9.236296
1775856277917430220,-2.770889,2.971886,9.087940
1775856277919590897,-2.823531,2.857030,8.863015
1775856277921751522,-2.876173,2.770889,8.676374
1775856277923912199,-2.919244,2.665604,8.513663
1775856277926072824,-2.857030,2.579463,8.374879
1775856277928233501,-2.718246,2.526821,8.245667
1775856277930394126,-2.555535,2.517249,8.140383
1775856277932554804,-2.373680,2.536392,8.087741
1775856277934715429,-2.225325,2.536392,8.087741
1775856277936876106,-2.134398,2.603391,8.221739
1775856277939036731,-2.072184,2.665604,8.470592
1775856277941197408,-2.000400,2.766103,8.776874
1775856277943358033,-1.899901,2.890530,9.126225
1775856277945518710,-1.799403,3.034099,9.480363
1775856277947679335,-1.722832,3.144169,9.839287
1775856277949840012,-1.655833,3.254239,10.169497
1775856277952000637,-1.603191,3.354737,10.451849
1775856277954161314,-1.526621,3.412165,10.691132
1775856277956321939,-1.445265,3.469593,10.868200
1775856277958482616,-1.363909,3.527021,11.002198
1775856277960643241,-1.229911,3.584448,11.026127
1775856277962803918,-1.076770,3.651447,10.973485
1775856277964964543,-0.937986,3.718446,10.901700
1775856277967125220,-0.780060,3.771089,10.786844
1775856277969285845,-0.655633,3.842873,10.609776
1775856277971446470,-0.526421,3.909872,10.380065
1775856277973607147,-0.411565,3.976871,10.174282
1775856277975767772,-0.311067,4.034299,9.882358
1775856277977928449,-0.244068,4.086941,9.623933
1775856277980089126,-0.157926,4.144369,9.360723
1775856277982249751,-0.090927,4.216154,9.059227
1775856277984410429,-0.038285,4.259224,8.762517
1775856277986571054,0.009571,4.359723,8.470592
1775856277988731731,0.009571,4.421936,8.178668
1775856277990892356,-0.004786,4.522435,7.910672
1775856277993052981,-0.081356,4.608576,7.642675
1775856277995213658,-0.167498,4.689932,7.432107
1775856277997374283,-0.287139,4.766503,7.211967
1775856277999534960,-0.358923,4.833502,7.001399
1775856278001695585,-0.459422,4.862216,6.853044
1775856278003856262,-0.569492,4.905286,6.728617
1775856278006016887,-0.665205,4.910072,6.594619
1775856278008177564,-0.784846,4.890930,6.527620
1775856278010338189,-0.885344,4.886144,6.465407
1775856278012498866,-0.937986,4.862216,6.417551
1775856278014659543,-1.028914,4.843073,6.388836
1775856278016820168,-1.057628,4.823930,6.407979
1775856278018980793,-1.081556,4.785645,6.398408
1775856278021141470,-1.071985,4.752146,6.364908
1775856278023302095,-1.091127,4.718646,6.398408
1775856278025462772,-1.028914,4.694718,6.403193
1775856278027623397,-1.014557,4.651647,6.446264
1775856278029784074,-0.966700,4.599005,6.451050
1775856278031944699,-0.947558,4.570291,6.470192
1775856278034105324,-0.937986,4.532006,6.460621
1775856278036266001,-0.909273,4.522435,6.470192
1775856278038426679,-0.880559,4.522435,6.431907
1775856278040587304,-0.870987,4.522435,6.393622
1775856278042747929,-0.861416,4.536792,6.374479
1775856278044908606,-0.832702,4.527220,6.307480
1775856278047069283,-0.799203,4.503292,6.226124
1775856278049229908,-0.760918,4.503292,6.159125
1775856278051390585,-0.741775,4.474578,6.092126
1775856278053551210,-0.746561,4.445865,6.044270
1775856278055711887,-0.770489,4.426722,5.986842
1775856278057872460,-0.818345,4.398008,5.915058
1775856278060033137,-0.847059,4.378865,5.843273
1775856278062193814,-0.904487,4.354937,5.752346
1775856278064354439,-0.957129,4.331009,5.642276
1775856278066515116,-0.995414,4.297510,5.570491
1775856278068675741,-1.009771,4.283153,5.522635
1775856278070836418,-1.038485,4.235296,5.479564
1775856278072997043,-1.038485,4.225725,5.465207
1775856278075157720,-1.028914,4.216154,5.441278
1775856278077318345,-1.009771,4.206582,5.446064
1775856278079478970,-0.985843,4.240082,5.469993
1775856278081639647,-0.961915,4.220939,5.503492
1775856278083800324,-0.918844,4.220939,5.580062
1775856278085960949,-0.847059,4.225725,5.651847
1775856278088121626,-0.775275,4.240082,5.757131
1775856278090282251,-0.713061,4.259224,5.895915
1775856278092442876,-0.674776,4.268795,6.039485
1775856278094603554,-0.636491,4.287938,6.202196
1775856278096764231,-0.612563,4.297510,6.388836
1775856278098924856,-0.598206,4.283153,6.585048
1775856278101085481,-0.602991,4.283153,6.771688
1775856278103246158,-0.593420,4.240082,6.967899
1775856278105406783,-0.617348,4.206582,7.168897
1775856278107567460,-0.607777,4.158726,7.393822
1775856278109728137,-0.602991,4.120440,7.570891
1775856278111888762,-0.607777,4.077370,7.724031
1775856278114049387,-0.626920,4.034299,7.814959
1775856278116210064,-0.660419,3.996014,7.843673
1775856278118370689,-0.713061,3.933800,7.814959
1775856278120531366,-0.736989,3.890730,7.714460
1775856278122691991,-0.794417,3.842873,7.561319
1775856278124852668,-0.827917,3.833302,7.379465
1775856278127013293,-0.899701,3.847659,7.164111
1775856278129173970,-0.947558,3.862016,6.920043
1775856278131334595,-0.990629,3.881158,6.661618
1775856278133495220,-1.038485,3.890730,6.393622
1775856278135655897,-1.100698,3.900301,6.111269
1775856278137816574,-1.177269,3.905087,5.871987
1775856278139977199,-1.263410,3.905087,5.632705
1775856278142137876,-1.354338,3.909872,5.383851
1775856278144298501,-1.435694,3.895515,5.154140
1775856278146459126,-1.473979,3.871587,4.962714
1775856278148619804,-1.478764,3.838088,4.800002
1775856278150780481,-1.502693,3.790231,4.675575
1775856278152941106,-1.502693,3.761517,4.594220
1775856278155101731,-1.478764,3.747160,4.560720
1775856278157262408,-1.464407,3.732803,4.560720
1775856278159423033,-1.473979,3.742375,4.632504
1775856278161583710,-1.488336,3.761517,4.694718
1775856278163744335,-1.488336,3.761517,4.795217
1775856278165905012,-1.512264,3.785445,4.910072
1775856278168065689,-1.517050,3.804588,5.048856
1775856278170226314,-1.560120,3.795017,5.187640
1775856278172386939,-1.603191,3.804588,5.321638
1775856278174547616,-1.607977,3.795017,5.446064
1775856278176708293,-1.631905,3.795017,5.560920
1775856278178868918,-1.651048,3.766303,5.666204
1775856278181029543,-1.631905,3.780660,5.742774
1775856278183190168,-1.655833,3.761517,5.824131
1775856278185350845,-1.670190,3.775874,5.876772
1775856278187511522,-1.679762,3.771089,5.938986
1775856278189672147,-1.732404,3.747160,5.948557
1775856278191832824,-1.770689,3.737589,5.991628
1775856278193993449,-1.789831,3.718446,5.972486
1775856278196154126,-1.808974,3.704089,5.948557
1775856278198314751,-1.823331,3.670590,5.943771
1775856278200475429,-1.832902,3.637090,5.910272
1775856278202636054,-1.828117,3.598805,5.843273
1775856278204796679,-1.808974,3.565306,5.776274
1775856278206957356,-1.804188,3.512664,5.714060
1775856278209117981,-1.799403,3.493521,5.690132
1775856278211278658,-1.775474,3.488735,5.647061
1775856278213439283,-1.770689,3.493521,5.637490
1775856278215599960,-1.775474,3.512664,5.627919
1775856278217760585,-1.785046,3.546163,5.642276
1775856278219921262,-1.808974,3.579663,5.690132
1775856278222081887,-1.875973,3.584448,5.752346
1775856278224242564,-1.952543,3.613162,5.838487
1775856278226403189,-1.995614,3.641876,5.895915
1775856278228563866,-2.038685,3.670590,5.977271
1775856278230724491,-2.043471,3.684947,6.082555
1775856278232885168,-2.019542,3.704089,6.183053
1775856278235045793,-1.947758,3.728018,6.307480
1775856278237206470,-1.842473,3.751946,6.403193
1775856278239367095,-1.741975,3.771089,6.546763
1775856278241527772,-1.641476,3.804588,6.671189
1775856278243688397,-1.574477,3.842873,6.814759
1775856278245849074,-1.550549,3.900301,6.958328
1775856278248009699,-1.526621,3.929015,7.077970
1775856278250170324,-1.502693,4.005585,7.125826
1775856278252331001,-1.545763,3.981657,7.240681
1775856278254491626,-1.550549,3.991228,7.302895
1775856278256652304,-1.560120,4.043870,7.322037
1775856278258812929,-1.574477,4.072584,7.331609
1775856278260973606,-1.598405,4.091727,7.307680
1775856278263134283,-1.612762,4.101298,7.259824
1775856278265294908,-1.636691,4.139583,7.216753
1775856278267455533,-1.631905,4.115655,7.144969
1775856278269616210,-1.612762,4.077370,7.063612
1775856278271776835,-1.627119,4.034299,6.996614
1775856278273937460,-1.641476,3.967300,6.943971
1775856278276098137,-1.698904,3.905087,6.900900
1775856278278258814,-1.765903,3.818945,6.862615
1775856278280419439,-1.823331,3.732803,6.819544
1775856278282580064,-1.919044,3.651447,6.786045
1775856278284740741,-2.014757,3.536592,6.728617
1775856278286901418,-2.129612,3.440879,6.680761
1775856278289062043,-2.201397,3.316452,6.637690
1775856278291222668,-2.282753,3.206382,6.594619
1775856278293383345,-2.344966,3.091527,6.546763
1775856278295543970,-2.397608,2.971886,6.494121
1775856278297704647,-2.450250,2.857030,6.455835
1775856278299865272,-2.464607,2.746960,6.360123
1775856278302025949,-2.488536,2.675176,6.302695
1775856278304186626,-2.469393,2.598605,6.264410
1775856278306347251,-2.455036,2.536392,6.250053
1775856278308507876,-2.440679,2.493321,6.221339
1775856278310668554,-2.411965,2.478964,6.226124
1775856278312829179,-2.397608,2.498107,6.297909
1775856278314989856,-2.335395,2.545963,6.379265
1775856278317150481,-2.282753,2.656033,6.508478
1775856278319311106,-2.172683,2.761317,6.661618
1775856278321471783,-2.067399,2.895315,6.862615
1775856278323632408,-1.904687,3.019742,7.039684
1775856278325793085,-1.751546,3.158526,7.188039
1775856278327953762,-1.598405,3.302095,7.341180
1775856278330114387,-1.483550,3.460021,7.489535
1775856278332275064,-1.359123,3.584448,7.613962
1775856278334435689,-1.272982,3.723232,7.776674
1775856278336596314,-1.201197,3.852444,7.867601
1775856278338756991,-1.134198,3.972085,7.939385
1775856278340917616,-1.091127,4.086941,8.015956
1775856278343078293,-1.071985,4.197011,8.059027
1775856278345238918,-1.048056,4.283153,8.126026
1775856278347399595,-1.081556,4.369294,8.154739
1775856278349560220,-1.115055,4.426722,8.164310
1775856278351720897,-1.191626,4.460221,8.169097
1775856278353881574,-1.263410,4.460221,8.159525
1775856278356042199,-1.330409,4.436293,8.102098
1775856278358202824,-1.435694,4.393222,8.025527
1775856278360363501,-1.512264,4.335794,7.929814
1775856278362524126,-1.598405,4.249653,7.848458
1775856278364684804,-1.694118,4.158726,7.814959
1775856278366845429,-1.813760,4.048656,7.709674
1775856278369006106,-1.928615,3.948157,7.671390
1775856278371166731,-2.053042,3.838088,7.628319
1775856278373327356,-2.206182,3.732803,7.609176
1775856278375488033,-2.335395,3.613162,7.599605
1775856278377648710,-2.455036,3.522235,7.561319
1775856278379809335,-2.545963,3.416951,7.523035
1775856278381970012,-2.651248,3.316452,7.456035
1775856278384130637,-2.766103,3.192025,7.365108
1775856278386291262,-2.837888,3.038885,7.274181
1775856278388451939,-2.909672,2.885744,7.202396
1775856278390612564,-2.924029,2.732604,7.188039
1775856278392773241,-2.957529,2.627319,7.135397
1775856278394933866,-2.933601,2.512464,7.140183
1775856278397094543,-2.880959,2.440679,7.178468
1775856278399255168,-2.794817,2.373680,7.226325
1775856278401415845,-2.694318,2.330609,7.264609
1775856278403576470,-2.579463,2.277967,7.293324
1775856278405737095,-2.474179,2.249253,7.350751
1775856278407897772,-2.388037,2.215754,7.427321
1775856278410058449,-2.292324,2.206182,7.470392
1775856278412219074,-2.201397,2.220539,7.484749
1775856278414379699,-2.129612,2.201397,7.503892
1775856278416540376,-2.033899,2.215754,7.518249
1775856278418701001,-1.995614,2.215754,7.542177
1775856278420861679,-1.981257,2.244468,7.537391
1775856278423022304,-2.009971,2.258825,7.523035
1775856278425182981,-2.072184,2.273181,7.503892
1775856278427343606,-2.129612,2.258825,7.475178
1775856278429504283,-2.191826,2.249253,7.432107
1775856278431664908,-2.263610,2.220539,7.384251
1775856278433825585,-2.330609,2.134398,7.350751
1775856278435986210,-2.388037,2.072184,7.269395
1775856278438146887,-2.450250,1.981257,7.245467
1775856278440307512,-2.522035,1.885544,7.221539
1775856278442468189,-2.608177,1.789831,7.250253
1775856278444628814,-2.699104,1.698904,7.317252
1775856278446789439,-2.799603,1.593620,7.427321
1775856278448950116,-2.900101,1.464407,7.556534
1775856278451110793,-3.005385,1.344766,7.690532
1775856278453271418,-3.096313,1.201197,7.829316
1775856278455432095,-3.172883,1.076770,7.987242
1775856278457592720,-3.225525,0.947558,8.154739
1775856278459753345,-3.263810,0.813560,8.398808
1775856278461914022,-3.235096,0.693919,8.652447
1775856278464074647,-3.196811,0.579063,8.920443
1775856278466235324,-3.110669,0.488136,9.221938
1775856278468395949,-3.029314,0.392423,9.523434
1775856278470556626,-2.947958,0.320638,9.863214
1775856278472717251,-2.857030,0.272782,10.198210
1775856278474877929,-2.794817,0.239282,10.514063
1775856278477038554,-2.708675,0.220140,10.829915
1775856278479199231,-2.612962,0.220140,11.140983
1775856278481359856,-2.541178,0.277567,11.456835
1775856278483520481,-2.450250,0.339781,11.777473
1775856278485681158,-2.383251,0.421137,12.055040
1775856278487841783,-2.335395,0.507278,12.303894
1775856278490002460,-2.273181,0.626920,12.519248
1775856278492163085,-2.239682,0.732204,12.748959
1775856278494323762,-2.239682,0.837488,12.916456
1775856278496484439,-2.254039,0.918844,13.021741
1775856278498645064,-2.292324,0.985843,13.098311
1775856278500805741,-2.354537,1.038485,13.198810
1775856278502966366,-2.459822,1.076770,13.237095
1775856278505126991,-2.541178,1.071985,13.294522
1775856278507287668,-2.627319,1.014557,13.304094
1775856278509448293,-2.718246,0.928415,13.313665
1775856278511608918,-2.833102,0.856631,13.328022
1775856278513769595,-3.000600,0.746561,13.337593
1775856278515930220,-3.182454,0.617348,13.366307
1775856278518090897,-3.402594,0.488136,13.433307
1775856278520251522,-3.637090,0.325424,13.471592
1775856278522412199,-3.905087,0.177069,13.562519
1775856278524572824,-4.173083,-0.014357,13.624732
1775856278526733501,-4.445865,-0.186640,13.701303
1775856278528894126,-4.689932,-0.392423,13.753944
1775856278531054804,-4.895715,-0.588634,13.811373
1775856278533215429,-5.082355,-0.784846,13.820944
1775856278535376106,-5.221139,-0.985843,13.820944
1775856278537536731,-5.321638,-1.191626,13.806586
1775856278539697408,-5.412565,-1.397408,13.801801
1775856278541858033,-5.450850,-1.603191,13.744373
1775856278544018710,-5.474778,-1.770689,13.720445
1775856278546179335,-5.474778,-1.928615,13.682159
1775856278548339960,-5.446064,-2.072184,13.619946
1775856278550500637,-5.398208,-2.206182,13.548162
1775856278552661262,-5.335995,-2.325824,13.457234
1775856278554821939,-5.259424,-2.368894,13.332808
1775856278556982616,-5.158926,-2.435894,13.227524
1775856278559143241,-4.991428,-2.426322,13.150953
1775856278561303918,-4.790431,-2.388037,13.064812
1775856278563464543,-4.565506,-2.301895,13.050455
1775856278565625168,-4.335794,-2.163112,13.069597
1775856278567785845,-4.110869,-1.976472,13.127025
1775856278569946522,-3.900301,-1.737189,13.222738
1775856278572107147,-3.718446,-1.473979,13.347165
1775856278574267824,-3.507878,-1.191626,13.442878
1775856278576428449,-3.311666,-0.909273,13.543376
1775856278578589074,-3.105884,-0.607777,13.596018
1775856278580749751,-2.938386,-0.330210,13.619946
1775856278582910376,-2.785246,-0.062213,13.576876
1775856278585071054,-2.646462,0.181855,13.485949
1775856278587231679,-2.541178,0.406780,13.361522
1775856278589392356,-2.455036,0.593420,13.222738
1775856278591552981,-2.368894,0.722632,13.045669
1775856278593713658,-2.330609,0.842274,12.835101
1775856278595874283,-2.287539,0.942772,12.638889
1775856278598034908,-2.292324,1.024128,12.394821
1775856278600195585,-2.301895,1.067199,12.155539
1775856278602356262,-2.354537,1.086342,11.921042
1775856278604516887,-2.407180,1.091127,11.720045
1775856278606677512,-2.455036,1.081556,11.499906
1775856278608838189,-2.517249,1.024128,11.284552
1775856278610998866,-2.555535,0.971486,11.059627
1775856278613159491,-2.579463,0.880559,10.815558
1775856278615320168,-2.636891,0.770489,10.561919
1775856278617480793,-2.699104,0.650848,10.313066
1775856278619641418,-2.737389,0.555135,10.097712
1775856278621802095,-2.799603,0.430708,9.958928
1775856278623962720,-2.857030,0.311067,9.805787
1775856278626123345,-2.885744,0.191426,9.686146
1775856278628284022,-2.924029,0.095713,9.623933
1775856278630444647,-2.938386,-0.023928,9.595219
1775856278632605324,-2.914458,-0.138784,9.585648
1775856278634766001,-2.857030,-0.215354,9.619147
1775856278636926626,-2.804388,-0.267996,9.729217
1775856278639087304,-2.723032,-0.306281,9.901500
1775856278641247929,-2.622534,-0.320638,10.140782
1775856278643408554,-2.526821,-0.315853,10.423136
1775856278645569231,-2.392823,-0.311067,10.738988
1775856278647729856,-2.220539,-0.282353,11.054841
1775856278649890533,-2.024328,-0.220140,11.389835
1775856278652051158,-1.832902,-0.148355,11.691332
1775856278654211783,-1.612762,-0.062213,11.992827
1775856278656372460,-1.406980,0.038285,12.313465
1775856278658533137,-1.215554,0.162712,12.643675
1775856278660693762,-1.024128,0.263211,12.945170
1775856278662854387,-0.856631,0.382852,13.208381
1775856278665015064,-0.713061,0.497707,13.433307
1775856278667175741,-0.593420,0.607777,13.600804
1775856278669336366,-0.516850,0.698704,13.744373
1775856278671497043,-0.473779,0.775275,13.892728
1775856278673657668,-0.445065,0.851845,13.983656
1775856278675818345,-0.440279,0.914058,14.069798
1775856278677978970,-0.468993,0.947558,14.141582
1775856278680139647,-0.521635,0.928415,14.175081
1775856278682300272,-0.598206,0.904487,14.208581
1775856278684460897,-0.717847,0.827917,14.175081
1775856278686621522,-0.851845,0.713061,14.136796
1775856278688782199,-1.000200,0.579063,14.041083
1775856278690942876,-1.182054,0.416351,13.931013
1775856278693103501,-1.344766,0.248854,13.777873
1775856278695264126,-1.512264,0.062213,13.643875
1775856278697424804,-1.674976,-0.129212,13.452449
1775856278699585429,-1.852045,-0.306281,13.284951
1775856278701746106,-2.024328,-0.473779,13.098311
1775856278703906783,-2.225325,-0.641276,12.935599
1775856278706067408,-2.407180,-0.789631,12.758531
1775856278708228033,-2.565106,-0.952343,12.610175
1775856278710388710,-2.732604,-1.124627,12.399607
1775856278712549335,-2.871387,-1.282553,12.241681
1775856278714710012,-2.995814,-1.430908,12.050255
1775856278716870637,-3.096313,-1.560120,11.877972
1775856278719031314,-3.187240,-1.674976,11.743974
1775856278721191939,-3.263810,-1.789831,11.633904
1775856278723352564,-3.316452,-1.856830,11.557333
1775856278725513241,-3.316452,-1.914258,11.495120
1775856278727673918,-3.321238,-1.966900,11.490335
1775856278729834543,-3.311666,-1.995614,11.480763
1775856278731995220,-3.287738,-1.990828,11.514262
1775856278734155845,-3.220739,-1.971686,11.523834
1775856278736316522,-3.168097,-1.933401,11.557333
1775856278738477147,-3.077170,-1.847259,11.576476
1775856278740637772,-3.000600,-1.780260,11.571691
1775856278742798449,-2.909672,-1.674976,11.624332
1775856278744959074,-2.813959,-1.574477,11.638689
1775856278747119699,-2.723032,-1.450050,11.662618
1775856278749280376,-2.632105,-1.316052,11.648261
1775856278751441054,-2.565106,-1.148555,11.653047
1775856278753601679,-2.498107,-0.985843,11.667403
1775856278755762304,-2.402394,-0.818345,11.705688
1775856278757922981,-2.311467,-0.650848,11.705688
1775856278760083658,-2.225325,-0.497707,11.739188
1775856278762244283,-2.124826,-0.387637,11.763116
1775856278764404960,-2.053042,-0.239282,11.787045
1775856278766565585,-1.990828,-0.138784,11.815758
1775856278768726210,-1.947758,-0.038285,11.839686
1775856278770886887,-1.904687,0.019143,11.854043
1775856278773047512,-1.904687,0.052642,11.839686
1775856278775208189,-1.875973,0.081356,11.830115
1775856278777368866,-1.880759,0.105284,11.796616
1775856278779529439,-1.895115,0.090927,11.743974
1775856278781690168,-1.895115,0.095713,11.662618
1775856278783850793,-1.904687,0.057428,11.538191
1775856278786011418,-1.938186,0.028714,11.452049
1775856278788172095,-1.957329,-0.014357,11.337193
1775856278790332720,-2.009971,-0.066999,11.193624
1775856278792493397,-2.053042,-0.114855,11.054841
1775856278794654022,-2.105684,-0.172283,10.944771
1775856278796814699,-2.153540,-0.205783,10.829915
1775856278798975324,-2.196611,-0.258425,10.691132
1775856278801135949,-2.230111,-0.311067,10.523634
1775856278803296626,-2.263610,-0.334995,10.360922
1775856278805457304,-2.263610,-0.378066,10.188639
1775856278807617929,-2.258825,-0.411565,10.030712
1775856278809778554,-2.215754,-0.382852,9.863214
1775856278811939231,-2.182254,-0.382852,9.734002
1775856278814099908,-2.167897,-0.344566,9.604790
1775856278816260533,-2.120041,-0.296710,9.513863
1775856278818421158,-2.076970,-0.244068,9.437292
1775856278820581835,-2.029114,-0.224925,9.355937
1775856278822742460,-2.000400,-0.157926,9.312865
1775856278824903085,-1.928615,-0.090927,9.255438
1775856278827063762,-1.875973,-0.014357,9.212367
1775856278829224439,-1.828117,0.062213,9.207582
1775856278831385064,-1.780260,0.162712,9.145369
1775856278833545741,-1.694118,0.229711,9.111869
1775856278835706366,-1.603191,0.301496,9.068798
1775856278837866991,-1.493121,0.397209,9.006584
1775856278840027668,-1.406980,0.488136,8.977871
1775856278842188293,-1.320838,0.555135,8.963513
1775856278844348970,-1.268196,0.650848,8.963513
1775856278846509595,-1.205983,0.751346,9.001799
1775856278848670272,-1.167697,0.856631,9.064013
1775856278850830949,-1.153340,0.933201,9.150154
1775856278852991574,-1.153340,1.009771,9.236296
1775856278855152199,-1.134198,1.081556,9.317652
1775856278857312876,-1.129412,1.115055,9.389436
1775856278859473501,-1.091127,1.148555,9.413364
1775856278861634179,-1.091127,1.153340,9.475577
1775856278863794804,-1.071985,1.162912,9.494720
1775856278865955481,-1.071985,1.148555,9.528220
1775856278868116106,-1.048056,1.143769,9.537791
1775856278870276783,-1.043271,1.115055,9.556933
1775856278872437408,-1.043271,1.119841,9.561719
1775856278874598033,-1.062413,1.071985,9.533006
1775856278876758710,-1.052842,1.048056,9.504292
1775856278878919335,-1.033699,1.004985,9.456435
1775856278881080012,-1.024128,0.985843,9.446864
1775856278883240637,-1.028914,0.971486,9.413364
1775856278885401314,-1.028914,0.952343,9.394221
1775856278887561939,-1.024128,0.952343,9.379865
1775856278889722616,-1.000200,0.957129,9.370294
1775856278891883241,-0.981057,0.995414,9.379865
1775856278894043918,-0.937986,1.019342,9.384650
1775856278896204543,-0.957129,1.043271,9.446864
1775856278898365220,-0.947558,1.048056,9.489935
1775856278900525845,-0.933201,1.043271,9.523434
1775856278902686522,-0.933201,1.048056,9.571291
1775856278904847147,-0.923630,1.038485,9.580862
1775856278907007772,-0.866202,1.014557,9.590433
1775856278909168449,-0.827917,0.990629,9.600004
1775856278911329074,-0.780060,0.981057,9.609575
1775856278913489751,-0.741775,1.000200,9.628718
1775856278915650376,-0.698704,0.985843,9.676575
1775856278917811054,-0.655633,0.995414,9.695718
1775856278919971679,-0.617348,0.981057,9.734002
1775856278922132356,-0.574277,1.000200,9.753145
1775856278924292981,-0.526421,1.009771,9.781859
1775856278926453606,-0.502493,0.995414,9.829716
1775856278928614283,-0.492921,1.000200,9.839287
1775856278930774908,-0.459422,1.024128,9.848858
1775856278932935585,-0.435494,1.043271,9.863214
1775856278935096210,-0.435494,1.057628,9.834501
1775856278937256887,-0.435494,1.100698,9.829716
1775856278939417564,-0.454636,1.129412,9.781859
1775856278941578189,-0.440279,1.158126,9.734002
1775856278943738814,-0.445065,1.172483,9.671789
1775856278945899491,-0.478565,1.220340,9.580862
1775856278948060168,-0.502493,1.244268,9.518648
1775856278950220741,-0.521635,1.277767,9.442079
1775856278952381418,-0.516850,1.282553,9.322437
1775856278954542095,-0.531207,1.320838,9.265009
1775856278956702720,-0.502493,1.363909,9.169296
1775856278958863397,-0.526421,1.383052,9.111869
1775856278961024022,-0.531207,1.430908,9.064013
1775856278963184647,-0.521635,1.445265,8.997013
1775856278965345324,-0.492921,1.464407,8.949157
1775856278967505949,-0.464208,1.473979,8.901300
1775856278969666626,-0.435494,1.497907,8.891729
1775856278971827304,-0.387637,1.493121,8.882157
1775856278973987929,-0.363709,1.502693,8.901300
1775856278976148554,-0.349352,1.521835,8.953942
1775856278978309231,-0.325424,1.555335,9.006584
1775856278980469856,-0.301496,1.560120,9.068798
1775856278982630533,-0.272782,1.545763,9.126225
1775856278984791158,-0.239282,1.545763,9.154940
1775856278986951783,-0.210568,1.560120,9.183653
1775856278989112460,-0.153141,1.564906,9.207582
1775856278991273137,-0.105284,1.579263,9.212367
1775856278993433762,-0.081356,1.569692,9.236296
1775856278995594439,-0.052642,1.598405,9.269794
1775856278997755064,-0.052642,1.631905,9.312865
1775856278999915741,-0.052642,1.636691,9.384650
1775856279002076366,-0.076570,1.670190,9.427721
1775856279004236991,-0.071785,1.689333,9.466006
1775856279006397668,-0.090927,1.708475,9.494720
1775856279008558293,-0.086142,1.703690,9.533006
1775856279010718970,-0.086142,1.713261,9.571291
1775856279012879595,-0.071785,1.713261,9.580862
1775856279015040220,-0.062213,1.708475,9.633504
1775856279017200897,-0.038285,1.694118,9.647861
1775856279019361574,-0.062213,1.708475,9.710074
1775856279021522199,-0.052642,1.703690,9.748360
1775856279023682824,-0.052642,1.694118,9.772287
1775856279025843501,-0.038285,1.684547,9.796216
1775856279028004126,-0.047856,1.674976,9.815358
1775856279030164804,-0.033500,1.674976,9.848858
1775856279032325429,-0.023928,1.679762,9.844072
1775856279034486106,-0.004786,1.674976,9.882358
1775856279036646731,0.019143,1.679762,9.925428
1775856279038807408,0.038285,1.689333,9.958928
1775856279040968033,0.043071,1.698904,9.982856
1775856279043128710,0.062213,1.708475,10.011570
1775856279045289335,0.057428,1.727618,10.011570
1775856279047450012,0.066999,1.708475,10.059426
1775856279049610637,0.071785,1.713261,10.068997
1775856279051771314,0.071785,1.713261,10.064212
1775856279053931939,0.086142,1.698904,10.045070
1775856279056092616,0.100499,1.689333,9.992428
1775856279058253241,0.133998,1.684547,9.963714
1775856279060413866,0.133998,1.674976,9.925428
1775856279062574543,0.129212,1.670190,9.872787
1775856279064735168,0.124427,1.660619,9.839287
1775856279066895845,0.119641,1.646262,9.772287
1775856279069056470,0.095713,1.641476,9.700503
1775856279071217147,0.105284,1.651048,9.628718
1775856279073377772,0.071785,1.655833,9.571291
1775856279075538449,0.076570,1.655833,9.533006
1775856279077699074,0.071785,1.665405,9.485149
1775856279079859751,0.047856,1.674976,9.489935
1775856279082020376,0.043071,1.708475,9.442079
1775856279084181001,0.023928,1.727618,9.442079
1775856279086341679,0.057428,1.746760,9.413364
1775856279088502304,0.062213,1.761117,9.403793
1775856279090662981,0.066999,1.770689,9.442079
1775856279092823606,0.081356,1.770689,9.504292
1775856279094984283,0.267996,1.722832,9.686146
1775856279097144908,0.674776,1.818545,9.757931
1775856279099305585,1.177269,1.966900,9.738789
1775856279101466210,1.502693,2.096113,9.767502
1775856279103626887,1.579263,2.148755,9.973285
1775856279105787512,1.526621,2.167897,10.332209
1775856279107948189,1.517050,2.167897,10.652846
1775856279110108814,1.517050,2.167897,10.801202
1775856279112269439,1.526621,2.153540,10.839486
1775856279114430116,1.502693,2.124826,10.758131
1775856279116590793,1.435694,2.100898,10.614561
1775856279118751418,1.421337,2.081756,10.336994
1775856279120912043,1.349552,2.067399,9.992428
1775856279123072720,1.296910,2.048256,9.714860
1775856279125233345,1.249053,2.048256,9.461221
1775856279127394022,1.225125,2.081756,9.250652
1775856279129554699,1.186840,2.124826,9.121440
1775856279131715324,1.177269,2.167897,9.097511
1775856279133875949,1.196411,2.234896,9.116654
1775856279136036574,1.225125,2.301895,9.202796
1775856279138197251,1.272982,2.325824,9.351151
1775856279140357876,1.301695,2.373680,9.504292
1775856279142518554,1.330409,2.388037,9.724431
1775856279144679179,1.306481,2.354537,9.901500
1775856279146839856,1.287339,2.321038,10.078569
1775856279149000533,1.244268,2.263610,10.231709
1775856279151161158,1.177269,2.215754,10.332209
1775856279153321835,1.071985,2.110470,10.418350
1775856279155482460,0.937986,2.005185,10.490134
1775856279157643085,0.808774,1.904687,10.504492
1775856279159803762,0.679562,1.813760,10.423136
1775856279161964387,0.593420,1.761117,10.341780
1775856279164125064,0.521635,1.732404,10.231709
1775856279166285689,0.459422,1.722832,10.202995
1775856279168446314,0.406780,1.741975,10.217353
1775856279170606991,0.339781,1.746760,10.236495
1775856279172767616,0.267996,1.703690,10.274780
1775856279174928293,0.181855,1.665405,10.336994
1775856279177088918,-0.047856,1.469193,10.394422
1775856279179249595,-0.401994,1.134198,10.461421
1775856279181410220,-1.110270,0.531207,10.504492
1775856279183570897,-2.043471,-0.272782,10.595419
1775856279185731522,-2.742175,-0.918844,10.724631
1775856279187892199,-2.684747,-1.158126,10.829915
1775856279190052824,-1.794617,-1.138984,10.825130
1775856279192213501,-1.110270,-0.693919,10.724631
1775856279194374126,-0.861416,-0.129212,10.451849
1775856279196534804,-0.894916,0.445065,10.045070
1775856279198695429,-1.019342,0.942772,9.528220
1775856279200856054,-1.095913,1.416551,8.982656
1775856279203016731,-1.052842,1.818545,8.461020
1775856279205177408,-0.875773,2.177469,8.001599
1775856279207338033,-0.612563,2.478964,7.575676
1775856279209498658,-0.301496,2.708675,7.211967
1775856279211659335,0.014357,2.861816,6.910472
1775856279213819960,0.253639,2.967100,6.747760
1775856279215980585,0.440279,3.024528,6.685546
1775856279218141262,0.607777,3.058027,6.647261
1775856279220301939,0.780060,3.105884,6.709475
1775856279222462564,0.985843,3.211168,6.929615
1775856279224623241,1.258625,3.531806,7.618747
1775856279226783866,1.536192,4.029513,8.839087
1775856279228944491,1.818545,4.278367,9.518648
1775856279231105168,1.919044,4.034299,9.001799
1775856279233265793,1.861616,3.756732,8.465807
1775856279235426470,1.737189,3.436093,7.929814
1775856279237587095,1.598405,3.153740,7.508677
1775856279239747772,1.502693,2.957529,7.154540
1775856279241908397,1.406980,2.761317,6.886544
1775856279244069074,1.330409,2.598605,6.680761
1775856279246229699,1.249053,2.464607,6.522834
1775856279248390324,1.172483,2.335395,6.388836
1775856279250551001,1.052842,2.206182,6.331409
1775856279252711679,0.976272,2.115255,6.345766
1775856279254872304,0.914058,2.067399,6.407979
1775856279257032929,0.861416,2.053042,6.546763
1775856279259193606,0.813560,2.019542,6.776474
1775856279261354231,0.770489,1.962115,7.092326
1775856279263514908,0.713061,1.914258,7.441679
1775856279265675533,0.698704,1.861616,7.805387
1775856279267836210,0.689133,1.818545,8.169097
1775856279269996835,0.708275,1.785046,8.504091
1775856279272157512,0.693919,1.751546,8.815159
1775856279274318137,0.689133,1.684547,9.140582
1775856279276478762,0.689133,1.646262,9.403793
1775856279278639439,0.689133,1.593620,9.667004
1775856279280800116,0.665205,1.526621,9.930214
1775856279282960741,0.674776,1.488336,10.169497
1775856279285121418,0.655633,1.435694,10.413564
1775856279287282043,0.579063,1.368695,10.648061
1775856279289442668,0.535992,1.292124,10.853844
1775856279291603345,0.488136,1.196411,11.002198
1775856279293763970,0.440279,1.153340,11.150554
1775856279295924647,0.459422,1.095913,11.136196
1775856279298085272,0.512064,1.105484,10.853844
1775856279300245949,0.540778,1.143769,10.451849
1775856279302406574,0.569492,1.205983,9.901500
1775856279304567251,0.669990,1.292124,9.217153
1775856279306727876,0.870987,1.459622,8.432307
1775856279308888501,1.196411,1.670190,7.680961
1775856279311049179,1.445265,1.904687,7.336394
1775856279313209804,1.440479,2.081756,7.671390
1775856279315370481,1.115055,2.187040,8.599805
1775856279317531106,0.646062,2.158326,9.781859
1775856279319691783,0.253639,1.966900,10.777273
1775856279321852408,0.043071,1.761117,11.332408
1775856279324013033,-0.038285,1.536192,11.499906
1775856279326173710,-0.043071,1.335195,11.523834
1775856279328334387,-0.014357,1.196411,11.447264
1775856279330495012,0.114855,1.205983,11.203196
1775856279332655637,0.363709,1.258625,10.834701
1775856279334816314,0.665205,1.339981,10.418350
1775856279336976939,0.918844,1.416551,10.040284
1775856279339137616,1.081556,1.531407,9.820144
1775856279341298241,1.153340,1.622334,9.671789
1775856279343458918,1.143769,1.689333,9.695718
1775856279345619543,1.105484,1.741975,9.667004
1775856279347780220,1.067199,1.775474,9.690931
1775856279349940845,0.976272,1.808974,9.781859
1775856279352101522,0.880559,1.828117,9.891929
1775856279354262147,0.751346,1.871187,10.030712
1775856279356422824,0.669990,1.880759,10.131211
1775856279358583449,0.612563,1.904687,10.255638
1775856279360744126,0.559920,1.928615,10.351351
1775856279362904751,0.497707,1.919044,10.456635
1775856279365065376,0.411565,1.947758,10.576276
1775856279367226054,0.354138,1.957329,10.676775
1775856279369386731,0.320638,1.966900,10.729417
1775856279371547304,0.263211,1.971686,10.724631
1775856279373707981,0.234497,1.976472,10.686346
1775856279375868658,0.224925,2.000400,10.614561
1775856279378029283,0.200997,1.981257,10.557134
1775856279380189908,0.133998,1.957329,10.475778
1775856279382350585,0.066999,1.933401,10.303494
1775856279384511210,-0.004786,1.914258,10.140782
1775856279386671887,-0.124427,1.899901,9.987641
1775856279388832564,-0.277567,1.890330,9.815358
1775856279390993189,-0.406780,1.904687,9.638289
1775856279393153814,-0.497707,1.942972,9.427721
1775856279395314491,-0.559920,2.000400,9.202796
1775856279397475116,-0.579063,2.100898,9.001799
1775856279399635793,-0.550349,2.215754,8.834301
1775856279401796418,-0.488136,2.392823,8.757730
1775856279403957095,-0.368495,2.545963,8.796016
1775856279406117720,-0.191426,2.732604,8.863015
1775856279408278397,0.014357,2.890530,8.953942
1775856279410439022,0.224925,3.048456,9.083155
1775856279412599699,0.339781,3.163311,9.193225
1775856279414760324,0.392423,3.235096,9.298509
1775856279416920949,0.392423,3.254239,9.355937
1775856279419081626,0.406780,3.278167,9.399008
1775856279421242251,0.435494,3.278167,9.437292
1775856279423402929,0.459422,3.244668,9.442079
1775856279425563554,0.473779,3.201597,9.432507
1775856279427724231,0.516850,3.168097,9.394221
1775856279429884856,0.564706,3.096313,9.355937
1775856279432045533,0.646062,3.043670,9.308080
1775856279434206158,0.713061,2.991028,9.288938
1775856279436366835,0.799203,2.967100,9.255438
1775856279438527460,0.909273,2.947958,9.284152
1775856279440688085,1.000200,2.914458,9.317652
1775856279442848762,1.076770,2.885744,9.365508
1775856279445009439,1.148555,2.833102,9.446864
1775856279447170064,1.191626,2.770889,9.480363
1775856279449330689,1.186840,2.699104,9.513863
1775856279451491366,1.186840,2.622534,9.561719
1775856279453651991,1.167697,2.550749,9.614362
1775856279455812668,1.124627,2.498107,9.623933
1775856279457973293,1.052842,2.445465,9.623933
1775856279460133918,0.966700,2.426322,9.643075
1775856279462294595,0.880559,2.388037,9.633504
1775856279464455220,0.789631,2.378466,9.614362
1775856279466615897,0.679562,2.368894,9.628718
1775856279468776522,0.622134,2.368894,9.614362
1775856279470937199,0.574277,2.378466,9.671789
1775856279473097824,0.516850,2.388037,9.772287
1775856279475258501,0.430708,2.368894,9.896714
1775856279477419126,0.334995,2.359323,10.001999
1775856279479579751,0.215354,2.349752,10.126426
1775856279481740429,0.124427,2.397608,10.298709
1775856279483901106,0.052642,2.507678,10.523634
1775856279486061731,-0.110070,2.842673,11.131411
1775856279488222356,-0.114855,2.837888,11.318051
1775856279490383033,0.000000,2.684747,11.040483
1775856279492543658,0.119641,2.545963,10.968699
1775856279494704335,0.248854,2.416751,11.002198
1775856279496864960,0.373280,2.225325,11.064412
1775856279499025637,0.555135,2.029114,11.035698
1775856279501186262,0.689133,1.789831,10.930414
1775856279503346939,0.827917,1.598405,10.839486
1775856279505507564,0.952343,1.450050,10.734202
1775856279507668241,1.057628,1.349552,10.609776
1775856279509828866,1.143769,1.354338,10.451849
1775856279511989491,1.225125,1.430908,10.250853
1775856279514150168,1.258625,1.598405,10.073783
1775856279516310793,1.239482,1.808974,9.968499
1775856279518471470,1.225125,2.029114,9.891929
1775856279520632147,1.177269,2.249253,9.863214
1775856279522792772,1.081556,2.459822,9.829716
1775856279524953397,0.981057,2.617748,9.848858
1775856279527114074,0.861416,2.727818,9.877572
1775856279529274699,0.751346,2.785246,9.834501
1775856279531435324,0.636491,2.823531,9.738789
1775856279533596001,0.516850,2.837888,9.671789
1775856279535756626,0.401994,2.823531,9.556933
1775856279537917304,0.325424,2.770889,9.466006
1775856279540077929,0.277567,2.737389,9.375079
1775856279542238606,0.311067,2.766103,9.327223
1775856279544399283,0.382852,2.780460,9.260223
1775856279546559908,0.512064,2.761317,9.111869
1775856279548720585,0.684347,2.713461,8.810373
1775856279550881210,0.904487,2.656033,8.556734
1775856279553041835,1.091127,2.560320,8.374879
1775856279555202512,1.196411,2.469393,8.341380
1775856279557363137,1.220340,2.378466,8.370093
1775856279559523814,1.215554,2.373680,8.446664
1775856279561684439,1.182054,2.435894,8.504091
1775856279563845064,1.115055,2.488536,8.528020
1775856279566005741,1.048056,2.522035,8.556734
1775856279568166366,0.971486,2.474179,8.652447
1775856279570327043,0.961915,2.402394,8.767303
1775856279572487720,0.947558,2.330609,8.834301
1775856279574648345,0.933201,2.258825,8.944371
1775856279576808970,0.961915,2.153540,9.059227
1775856279578969647,0.990629,2.053042,9.159725
1775856279581130272,0.971486,2.000400,9.212367
1775856279583290897,0.971486,2.005185,9.336794
1775856279585451574,0.952343,2.043471,9.442079
1775856279587612199,0.923630,2.143969,9.504292
1775856279589772876,0.870987,2.383251,9.614362
1775856279591933554,0.780060,2.833102,9.791430
1775856279594094179,0.784846,3.239882,9.810573
1775856279596254804,0.861416,3.311666,9.533006
1775856279598415481,0.961915,3.215954,9.269794
1775856279600576106,0.995414,3.081956,9.164511
1775856279602736783,0.952343,2.962314,9.188439
1775856279604897408,0.923630,2.833102,9.154940
1775856279607058085,0.914058,2.703890,9.092726
1775856279609218710,0.971486,2.598605,9.025727
1775856279611379387,1.062413,2.522035,8.872586
1775856279613540012,1.134198,2.464607,8.719446
1775856279615700689,1.234697,2.445465,8.623733
1775856279617861314,1.335195,2.411965,8.504091
1775856279620021991,1.406980,2.440679,8.413164
1775856279622182616,1.459622,2.469393,8.331808
1775856279624343293,1.502693,2.498107,8.298309
1775856279626503918,1.526621,2.541178,8.307880
1775856279628664595,1.540978,2.574677,8.269595
1775856279630825220,1.493121,2.584249,8.178668
1775856279632985845,1.430908,2.732604,8.293523
1775856279635146522,1.354338,2.933601,8.293523
1775856279637307147,1.249053,3.192025,8.470592
1775856279639467772,1.129412,3.421736,8.633304
1775856279641628449,0.952343,3.603591,8.786445
1775856279643789074,0.708275,3.790231,8.930014
1775856279645949751,0.425922,4.077370,9.020942
1775856279648110376,0.100499,4.259224,9.059227
1775856279650271054,-0.272782,4.455436,9.054440
1775856279652431679,-0.722632,4.613362,9.059227
1775856279654592356,-1.081556,4.890930,9.044869
1775856279656752981,-1.330409,5.130212,8.977871
1775856279658913606,-1.416551,5.249853,8.877372
1775856279661074283,-1.311267,5.245067,8.690732
1775856279663234960,-1.100698,5.106284,8.494520
1775856279665395585,-0.847059,4.929214,8.293523
1775856279667556210,-0.579063,4.651647,8.092526
1775856279669716887,-0.291924,4.374080,7.910672
1775856279671877512,-0.033500,4.063013,7.738389
1775856279674038189,0.191426,3.780660,7.685746
1775856279676198814,0.397209,3.517449,7.671390
1775856279678359491,0.535992,3.259024,7.704889
1775856279680520116,0.626920,3.062813,7.738389
1775856279682680741,0.713061,2.924029,7.795816
1775856279684841418,0.842274,2.857030,7.838887
1775856279687002043,0.957129,2.833102,7.791030
1775856279689162720,1.091127,2.876173,7.728817
1775856279691323345,1.220340,2.952743,7.642675
1775856279693484022,1.301695,3.038885,7.580462
1775856279695644647,1.344766,3.115455,7.489535
1775856279697805324,1.368695,3.206382,7.408179
1775856279699965949,1.421337,3.273381,7.278966
1775856279702126626,1.478764,3.369094,7.154540
1775856279704287251,1.569692,3.436093,7.025327
1775856279706447876,1.679762,3.488735,6.900900
1775856279708608554,1.799403,3.503092,6.857830
1775856279710769179,1.914258,3.483950,6.886544
1775856279712929856,2.038685,3.426522,6.987042
1775856279715090481,2.110470,3.388237,7.125826
1775856279717251158,2.206182,3.321238,7.293324
1775856279719411835,2.244468,3.225525,7.436893
1775856279721572460,2.292324,3.125026,7.546963
1775856279723733137,2.354537,3.072384,7.661818
1775856279725893762,2.411965,3.010171,7.786245
1775856279728054387,2.459822,2.952743,7.891529
1775856279730215064,2.531606,2.904887,8.068598
1775856279732375689,2.550749,2.852245,8.221739
1775856279734536314,2.517249,2.804388,8.394022
1775856279736696991,2.445465,2.780460,8.595019
1775856279738857616,2.364109,2.780460,8.796016
1775856279741018293,2.306681,2.794817,9.001799
1775856279743178970,2.268396,2.837888,9.207582
1775856279745339595,2.258825,2.900101,9.375079
1775856279747500220,2.254039,2.947958,9.489935
1775856279749660897,2.263610,2.962314,9.580862
1775856279751821522,2.249253,2.971886,9.676575
1775856279753982199,2.234896,2.957529,9.772287
1775856279756142824,2.201397,2.947958,9.868001
1775856279758303449,2.182254,2.933601,9.920643
1775856279760464126,2.158326,2.938386,9.982856
1775856279762624751,2.182254,2.933601,10.001999
1775856279764785429,2.196611,2.909672,10.016356
1775856279766946054,2.206182,2.904887,10.025927
1775856279769106731,2.239682,2.895315,10.035499
1775856279771267408,2.273181,2.880959,10.035499
1775856279773428033,2.316252,2.871387,10.006784
1775856279775588658,2.330609,2.833102,9.997213
1775856279777749335,2.330609,2.785246,9.982856
1775856279779909960,2.301895,2.699104,9.978070
1775856279782070585,2.239682,2.608177,9.954143
1775856279784231262,2.167897,2.545963,9.934999
1775856279786391939,2.139184,2.531606,9.882358
1775856279788552564,2.187040,2.545963,9.844072
1775856279790713189,2.239682,2.598605,9.748360
1775856279792873866,2.330609,2.656033,9.638289
1775856279795034491,2.402394,2.713461,9.547362
1775856279797195168,2.435894,2.737389,9.360723
1775856279799355793,2.464607,2.732604,9.193225
1775856279801516418,2.459822,2.694318,9.016156
1775856279803677095,2.474179,2.632105,8.791230
1775856279805837720,2.488536,2.574677,8.566305
1775856279807998397,2.493321,2.493321,8.384451
1775856279810159074,2.522035,2.440679,8.212168
1775856279812319699,2.536392,2.388037,8.030313
1775856279814480376,2.545963,2.321038,7.853244
1775856279816641001,2.574677,2.254039,7.709674
1775856279818801626,2.579463,2.210968,7.575676
1775856279820962304,2.565106,2.172683,7.484749
1775856279823122929,2.526821,2.134398,7.403393
1775856279825283606,2.464607,2.115255,7.355537
1775856279827444231,2.359323,2.105684,7.336394
1775856279829604908,2.263610,2.105684,7.350751
1775856279831765533,2.158326,2.129612,7.322037
1775856279833926210,2.076970,2.148755,7.317252
1775856279836086835,1.986043,2.187040,7.302895
1775856279838247512,1.899901,2.215754,7.312466
1775856279840408137,1.828117,2.234896,7.298109
1775856279842568762,1.741975,2.273181,7.235896
1775856279844729439,1.670190,2.311467,7.168897
1775856279846890064,1.593620,2.378466,7.144969
1775856279849050741,1.555335,2.450250,7.164111
1775856279851211366,1.502693,2.531606,7.240681
1775856279853372043,1.411765,2.574677,7.360322
1775856279855532668,1.330409,2.593820,7.460821
1775856279857693345,1.196411,2.555535,7.637890
1775856279859853970,1.057628,2.517249,7.867601
1775856279862014595,0.875773,2.440679,8.097312
1775856279864175272,0.674776,2.373680,8.336594
1775856279866335897,0.502493,2.277967,8.556734
1775856279868496574,0.354138,2.191826,8.762517
1775856279870657199,0.234497,2.115255,8.997013
1775856279872817876,0.143569,2.057827,9.183653
1775856279874978501,0.047856,2.024328,9.355937
1775856279877139179,-0.009571,2.005185,9.475577
1775856279879299804,-0.090927,2.005185,9.595219
1775856279881460481,-0.172283,1.990828,9.662218
1775856279883621106,-0.263211,1.986043,9.719646
1775856279885781783,-0.330210,1.966900,9.724431
1775856279887942408,-0.411565,1.976472,9.710074
1775856279890103085,-0.502493,1.957329,9.695718
1775856279892263710,-0.555135,1.971686,9.676575
1775856279894424335,-0.598206,1.995614,9.667004
1775856279896585012,-0.588634,2.033899,9.638289
1775856279898745637,-0.559920,2.100898,9.623933
1775856279900906262,-0.507278,2.153540,9.509077
1775856279903066939,-0.540778,2.163112,9.480363
1775856279905227616,-0.555135,2.182254,9.365508
1775856279907388241,-0.574277,2.220539,9.288938
1775856279909548866,-0.655633,2.258825,9.250652
1775856279911709543,-0.713061,2.297110,9.169296
1775856279913870168,-0.794417,2.354537,9.044869
1775856279916030845,-0.875773,2.397608,8.977871
1775856279918191470,-0.952343,2.421536,8.901300
1775856279920352095,-1.062413,2.435894,8.829515
1775856279922512772,-1.115055,2.440679,8.743374
1775856279924673397,-1.172483,2.426322,8.700303
1775856279926834074,-1.186840,2.421536,8.633304
1775856279928994699,-1.182054,2.407180,8.590233
1775856279931155376,-1.148555,2.435894,8.575876
1775856279933316054,-1.033699,2.493321,8.513663
1775856279935476679,-0.957129,2.536392,8.456235
1775856279937637304,-0.904487,2.545963,8.456235
1775856279939797981,-0.832702,2.541178,8.422736
1775856279941958606,-0.789631,2.536392,8.441878
1775856279944119283,-0.784846,2.813959,10.174282
1775856279946279908,-1.919044,4.632504,16.500904
1775856279948440533,-3.862016,5.694918,15.318851
1775856279950601210,-5.182854,5.426922,13.816158
1775856279952761835,-6.005985,3.967300,14.998212
1775856279954922512,-6.221339,1.703690,15.194424
1775856279957083137,-5.608776,-0.449851,13.596018
1775856279959243814,-4.431508,-2.000400,11.949757
1775856279961404439,-3.024528,-2.579463,10.643275
1775856279963565116,-1.689333,-2.191826,9.686146
1775856279965725741,-0.507278,-1.320838,8.934800
1775856279967886418,0.478565,-0.162712,8.652447
1775856279970047043,1.225125,1.100698,8.618947
1775856279972207720,1.727618,2.187040,8.743374
1775856279974368345,1.957329,3.000600,8.858230
1775856279976529022,1.914258,3.426522,8.973084
1775856279978689647,1.727618,3.637090,9.126225
1775856279980850272,1.536192,3.689733,9.245867
1775856279983010949,1.325624,3.598805,9.198010
1775856279985171574,1.057628,3.450450,9.135797
1775856279987332199,0.784846,3.239882,9.049655
1775856279989492876,0.559920,3.005385,8.982656
1775856279991653501,0.368495,2.761317,8.958728
1775856279993814179,0.167498,2.469393,8.939586
1775856279995974856,-0.009571,2.167897,8.977871
1775856279998135481,-0.177069,1.832902,9.035298
1775856280000296158,-0.354138,1.493121,9.078369
1775856280002456783,-0.550349,1.119841,9.140582
1775856280004617408,-0.780060,0.756132,9.198010
1775856280006778085,-0.985843,0.449851,9.193225
1775856280008938710,-1.158126,0.191426,9.202796
1775856280011099387,-1.306481,0.014357,9.169296
1775856280013260012,-1.354338,-0.095713,9.092726
1775856280015420689,-1.363909,-0.157926,9.054440
1775856280017581314,-1.359123,-0.186640,9.035298
1775856280019741991,-1.320838,-0.205783,9.068798
1775856280021902616,-1.225125,-0.200997,9.183653
1775856280024063241,-1.143769,-0.210568,9.284152
1775856280026223918,-1.076770,-0.239282,9.427721
1775856280028384543,-1.004985,-0.263211,9.480363
1775856280030545220,-0.909273,-0.296710,9.494720
1775856280032705845,-0.823131,-0.339781,9.494720
1775856280034866522,-0.756132,-0.373280,9.446864
1775856280037027147,-0.674776,-0.435494,9.379865
1775856280039187824,-0.607777,-0.464208,9.346365
1775856280041348449,-0.502493,-0.449851,9.379865
1775856280043509126,-0.406780,-0.435494,9.403793
1775856280045669751,-0.315853,-0.406780,9.494720
1775856280047830429,-0.263211,-0.363709,9.528220
1775856280049991054,-0.229711,-0.330210,9.576077
1775856280052151679,-0.200997,-0.291924,9.604790
1775856280054312356,-0.124427,-0.272782,9.609575
1775856280056472981,-0.014357,-0.272782,9.657433
1775856280058633658,0.057428,-0.315853,9.757931
1775856280060794283,0.114855,-0.349352,9.839287
1775856280062954960,0.177069,-0.358923,9.939785
1775856280065115585,0.244068,-0.315853,10.045070
1775856280067276262,0.272782,-0.258425,10.073783
1775856280069436887,0.287139,-0.210568,10.097712
1775856280071597512,0.210568,-0.129212,10.246066
1775856280073758189,0.186640,-0.071785,10.408778
1775856280075918814,0.153141,-0.047856,10.423136
1775856280078079491,0.186640,-0.043071,10.451849
1775856280080240116,0.181855,-0.105284,10.490134
1775856280082400793,0.157926,-0.224925,10.557134
1775856280084561418,0.143569,-0.392423,10.609776
1775856280086722095,0.138784,-0.602991,10.748559
1775856280088882720,0.177069,-0.823131,10.839486
1775856280091043397,0.253639,-1.062413,10.973485
1775856280093204022,0.306281,-1.296910,11.102697
1775856280095364647,0.349352,-1.478764,11.217552
1775856280097525324,0.358923,-1.636691,11.231910
1775856280099686001,0.397209,-1.727618,11.164910
1775856280101846626,0.478565,-1.780260,11.093125
1775856280104007251,0.531207,-1.808974,11.054841
1775856280106167929,0.535992,-1.789831,11.016556
1775856280108328554,0.550349,-1.751546,11.160125
1775856280110489231,0.555135,-1.698904,11.365908
1775856280112649856,0.579063,-1.636691,11.490335
1775856280114810533,0.579063,-1.603191,11.552547
1775856280116971158,0.598206,-1.550549,11.475977
1775856280119131783,0.631705,-1.493121,11.351551
1775856280121292460,0.617348,-1.397408,11.231910
1775856280123453085,0.593420,-1.359123,11.174481
1775856280125613762,0.555135,-1.292124,11.140983
1775856280127774387,0.516850,-1.253839,11.078769
1775856280129935064,0.445065,-1.191626,10.949556
1775856280132095689,0.344566,-1.134198,10.872986
1775856280134256314,0.277567,-1.000200,10.777273
1775856280136416991,0.186640,-0.851845,10.600204
1775856280138577668,0.076570,-0.665205,10.403993
1775856280140738293,-0.019143,-0.516850,10.198210
1775856280142898970,-0.114855,-0.397209,9.963714
1775856280145059595,-0.119641,-0.330210,9.748360
1775856280147220220,-0.157926,-0.301496,9.576077
1775856280149380897,-0.181855,-0.253639,9.413364
1775856280151541522,-0.124427,-0.191426,9.288938
1775856280153702199,-0.086142,-0.153141,9.116654
1775856280155862824,-0.066999,-0.095713,8.843872
1775856280158023501,0.000000,-0.081356,8.566305
1775856280160184126,0.138784,-0.086142,8.298309
1775856280162344804,0.277567,-0.066999,8.092526
1775856280164505429,0.459422,-0.071785,8.011170
1775856280166666106,0.617348,-0.028714,7.934600
1775856280168826731,0.789631,-0.038285,7.877172
1775856280170987356,0.966700,-0.110070,7.896315
1775856280173148033,1.076770,-0.277567,7.996813
1775856280175308658,1.215554,-0.550349,8.082955
1775856280177469283,1.354338,-0.914058,8.116454
1775856280179629960,1.445265,-1.296910,8.221739
1775856280181790637,1.430908,-1.660619,8.403593
1775856280183951262,1.402194,-1.995614,8.872586
1775856280186111939,1.397408,-2.301895,9.461221
1775856280188272564,1.411765,-2.550749,9.973285
1775856280190433241,1.440479,-2.790031,10.341780
1775856280192593866,1.464407,-2.962314,10.624132
1775856280194754491,1.464407,-3.091527,10.782059
1775856280196915116,1.469193,-3.235096,10.858629
1775856280199075793,1.478764,-3.364309,10.853844
1775856280201236470,1.536192,-3.426522,10.925629
1775856280203397095,1.627119,-3.440879,10.954342
1775856280205557720,1.780260,-3.388237,11.160125
1775856280207718397,1.899901,-3.306881,11.380264
1775856280209879074,1.971686,-3.230311,11.490335
1775856280212039699,2.043471,-3.120241,11.557333
1775856280214200324,2.177469,-2.928815,11.552547
1775856280216361001,2.249253,-2.684747,11.576476
1775856280218521626,2.105684,-2.378466,11.657832
1775856280220682304,2.249253,-2.239682,11.528620
1775856280222842929,2.335395,-2.009971,11.475977
1775856280225003554,2.368894,-1.804188,11.418550
1775856280227164231,2.364109,-1.622334,11.308480
1775856280229324856,2.263610,-1.411765,11.160125
1775856280231485533,2.143969,-1.205983,11.021341
1775856280233646158,2.019542,-0.990629,10.911271
1775856280235806835,1.880759,-0.770489,10.858629
1775856280237967460,1.761117,-0.607777,10.834701
1775856280240128137,1.660619,-0.516850,10.762917
1775856280242288762,1.526621,-0.497707,10.719846
1775856280244449439,1.406980,-0.545564,10.681561
1775856280246610064,1.272982,-0.689133,10.609776
1775856280248770741,1.105484,-0.894916,10.566705
1775856280250931366,0.971486,-1.148555,10.571490
1775856280253091991,0.866202,-1.411765,10.494920
1775856280255252668,0.799203,-1.636691,10.432707
1775856280257413345,0.736989,-1.842473,10.370493
1775856280259573970,0.703490,-1.990828,10.346565
1775856280261734595,0.713061,-2.100898,10.255638
1775856280263895272,0.698704,-2.206182,10.169497
1775856280266055897,0.713061,-2.268396,10.073783
1775856280268216522,0.693919,-2.316252,9.963714
1775856280270377199,0.650848,-2.325824,9.834501
1775856280272537876,0.593420,-2.325824,9.729217
1775856280274698501,0.521635,-2.316252,9.628718
1775856280276859179,0.488136,-2.297110,9.547362
1775856280279019804,0.454636,-2.273181,9.523434
1775856280281180429,0.435494,-2.239682,9.489935
1775856280283341106,0.416351,-2.191826,9.451650
1775856280285501783,0.454636,-2.158326,9.427721
1775856280287662408,0.497707,-2.124826,9.403793
1775856280289823033,0.574277,-2.115255,9.413364
1775856280291983710,0.631705,-2.067399,9.470792
1775856280294144335,0.756132,-2.067399,9.489935
1775856280296305012,0.909273,-2.062613,9.470792
1775856280298465637,1.100698,-2.062613,9.451650
1775856280300626314,1.306481,-2.057827,9.422935
1775856280302786939,1.502693,-2.076970,9.394221
1775856280304947616,1.679762,-2.120041,9.336794
1775856280307108241,1.770689,-2.148755,9.284152
1775856280309268866,1.866402,-2.172683,9.245867
1775856280311429543,1.971686,-2.225325,9.207582
1775856280313590168,2.053042,-2.316252,9.154940
1775856280315750845,2.091327,-2.450250,9.044869
1775856280317911470,2.033899,-2.555535,8.910872
1775856280320072147,1.947758,-2.656033,8.772088
1775856280322232772,1.813760,-2.766103,8.623733
1775856280324393397,1.665405,-2.876173,8.437093
1775856280326554074,1.564906,-2.957529,8.269595
1775856280328714699,1.507478,-3.029314,8.173882
1775856280330875376,1.416551,-3.058027,8.154739
1775856280333036001,1.320838,-3.034099,8.173882
1775856280335196679,1.229911,-3.072384,8.212168
1775856280337357304,1.134198,-3.129812,8.312666
1775856280339517929,1.062413,-3.220739,8.394022
1775856280341678606,0.961915,-3.359523,8.508878
1775856280343839283,0.856631,-3.431308,8.652447
1775856280345999908,0.813560,-3.493521,8.805588
1775856280348160585,0.746561,-3.503092,8.896515
1775856280350321210,0.564706,-3.527021,8.853444
1775856280352481887,1.785046,-2.790031,8.245667
1775856280354642512,1.947758,-2.431108,7.546963
1775856280356803137,1.316052,-2.617748,7.795816
1775856280358963814,0.827917,-2.651248,7.896315
1775856280361124439,0.531207,-2.550749,7.872386
1775856280363285116,0.205783,-2.340181,7.819745
1775856280365445741,-0.124427,-2.096113,7.891529
1775856280367606418,-0.416351,-1.875973,8.102098
1775856280369767043,-0.583849,-1.718047,8.255239
1775856280371927668,-0.636491,-1.555335,8.317451
1775856280374088345,-0.674776,-1.225125,8.331808
1775856280376248970,-1.670190,0.148355,8.274381
1775856280378409647,-2.373680,1.354338,7.905886
1775856280380570272,-2.287539,1.966900,7.594819
1775856280382730949,-1.933401,2.191826,7.341180
1775856280384891574,-1.440479,2.225325,7.188039
1775856280387052251,-0.957129,2.206182,7.087541
1775856280389212876,-0.478565,2.206182,7.116254
1775856280391373554,-0.038285,2.158326,7.178468
1775856280393534179,0.401994,2.057827,7.322037
1775856280395694804,0.775275,1.919044,7.542177
1775856280397855481,1.134198,1.737189,7.767102
1775856280400016106,1.454836,1.545763,8.001599
1775856280402176783,1.804188,1.426122,8.307880
1775856280404337408,2.105684,1.339981,8.623733
1775856280406498085,2.421536,1.416551,9.044869
1775856280408658710,3.579663,2.785246,10.509277
1775856280410819335,4.407579,3.326024,11.064412
1775856280412980012,4.402794,2.574677,10.155139
1775856280415140689,4.307081,1.923829,9.183653
1775856280417301314,4.249653,1.579263,8.293523
1775856280419461939,4.206582,1.497907,7.513463
1775856280421622616,4.197011,1.469193,6.814759
1775856280423783241,4.072584,1.402194,6.273981
1775856280425943918,3.751946,1.162912,5.967700
1775856280428104543,3.120241,0.703490,5.843273
1775856280430265220,2.254039,0.090927,5.871987
1775856280432425845,1.311267,-0.650848,5.982057
1775856280434586470,0.464208,-1.387837,6.168697
1775856280436747147,-0.009571,-2.009971,6.489335
1775856280438907772,-0.167498,-2.488536,6.824330
1775856280441068449,-0.267996,-2.938386,7.274181
1775856280443229074,-0.382852,-3.373880,7.771888
1775856280445389751,-0.569492,-3.804588,8.154739
1775856280447550376,-0.799203,-4.225725,8.523234
1775856280449711054,-0.990629,-4.646862,8.906086
1775856280451871679,-1.033699,-4.981857,9.269794
1775856280454032356,-1.024128,-5.221139,9.681360
1775856280456192981,-0.971486,-5.417350,10.092926
1775856280458353606,-0.894916,-5.560920,10.461421
1775856280460514283,-0.827917,-5.661418,10.810773
1775856280462674960,-0.818345,-5.728417,11.064412
1775856280464835585,-0.794417,-5.766703,11.236695
1775856280466996210,-0.794417,-5.742774,11.255837
1775856280469156887,-0.717847,-5.675776,11.126625
1775856280471317512,-0.593420,-5.541777,10.944771
1775856280473478189,-0.425922,-5.393422,10.791630
1775856280475638814,-0.263211,-5.197211,10.724631
1775856280477799491,-0.133998,-4.972285,10.624132
1775856280479960116,-0.038285,-4.776074,10.533205
1775856280482120793,0.038285,-4.594220,10.528419
1775856280484281418,0.133998,-4.431508,10.537991
1775856280486442095,0.224925,-4.278367,10.676775
1775856280488602720,0.291924,-4.182654,10.896914
1775856280490763345,0.354138,-4.072584,11.145768
1775856280492924022,0.397209,-3.986443,11.361122
1775856280495084647,0.435494,-3.909872,11.480763
1775856280497245324,0.502493,-3.838088,11.523834
1775856280499405949,0.574277,-3.756732,11.514262
1775856280501566574,0.636491,-3.661019,11.447264
1775856280503727251,0.641276,-3.603591,11.356337
1775856280505887876,0.655633,-3.613162,11.318051
1775856280508048554,0.631705,-3.641876,11.246266
1775856280510209179,0.588634,-3.704089,11.126625
1775856280512369856,0.502493,-3.799802,11.006984
1775856280514530533,0.411565,-3.890730,10.849058
1775856280516691158,0.291924,-3.991228,10.738988
1775856280518851835,0.186640,-4.101298,10.667203
1775856280521012460,0.138784,-4.163511,10.595419
1775856280523173085,0.119641,-4.187439,10.571490
1775856280525333762,0.119641,-4.182654,10.581061
1775856280527494387,0.119641,-4.206582,10.595419
1775856280529655012,0.105284,-4.249653,10.523634
1775856280531815689,0.133998,-4.307081,10.360922
1775856280533976314,0.167498,-4.364509,10.241281
1775856280536136991,0.200997,-4.417150,10.135997
1775856280538300533,0.229711,-4.455436,10.088140
1775856280540458293,0.267996,-4.508078,10.049855
1775856280542618918,0.306281,-4.546363,10.040284
1775856280544779595,0.325424,-4.575077,10.016356
1775856280546940220,0.344566,-4.589434,9.949356
1775856280549100897,0.349352,-4.575077,9.848858
1775856280551261522,0.378066,-4.570291,9.743574
1775856280553422147,0.363709,-4.541577,9.671789
1775856280555582824,0.373280,-4.517649,9.590433
1775856280557743449,0.344566,-4.503292,9.509077
1775856280559904126,0.282353,-4.469793,9.442079
1775856280562064804,0.186640,-4.474578,9.346365
1775856280564225429,0.076570,-4.469793,9.245867
1775856280566386054,-0.057428,-4.465007,9.150154
1775856280568546731,-0.205783,-4.474578,9.064013
1775856280570707356,-0.330210,-4.465007,8.982656
1775856280572868033,-0.440279,-4.421936,8.901300
1775856280575028658,-0.512064,-4.398008,8.901300
1775856280577189335,-0.559920,-4.326223,8.968299
1775856280579349960,-0.602991,-4.297510,9.102298
1775856280581510637,-0.641276,-4.225725,9.236296
1775856280583671262,-0.650848,-4.130012,9.418150
1775856280585831887,-0.626920,-4.053442,9.576077
1775856280587992564,-0.612563,-3.952943,9.734002
1775856280590153189,-0.602991,-3.857230,9.839287
1775856280592313866,-0.612563,-3.766303,9.944571
1775856280594474491,-0.646062,-3.651447,10.025927
1775856280596635116,-0.660419,-3.536592,10.049855
1775856280598795793,-0.665205,-3.373880,10.011570
1775856280600956418,-0.631705,-3.239882,9.915857
1775856280603117095,-0.583849,-3.168097,9.734002
1775856280605277720,-0.569492,-3.158526,9.556933
1775856280607438397,-0.583849,-3.148955,9.370294
1775856280609599022,-0.617348,-3.201597,9.193225
1775856280611759699,-0.669990,-3.239882,9.054440
1775856280613920324,-0.756132,-3.297310,8.968299
1775856280616081001,-0.832702,-3.311666,8.910872
1775856280618241626,-0.942772,-3.364309,8.934800
1775856280620402304,-1.071985,-3.469593,8.944371
1775856280622562929,-1.210768,-3.579663,8.958728
1775856280624723606,-1.325624,-3.704089,8.953942
1775856280626884231,-1.464407,-3.866802,8.973084
1775856280629044856,-1.641476,-4.024728,9.020942
1775856280631205533,-1.756332,-4.168297,9.121440
1775856280633366158,-1.880759,-4.278367,9.198010
1775856280635526835,-1.962115,-4.340580,9.245867
1775856280637687460,-2.053042,-4.421936,9.288938
1775856280639848137,-2.139184,-4.469793,9.351151
1775856280642008762,-2.220539,-4.508078,9.384650
1775856280644169387,-2.249253,-4.555934,9.399008
1775856280646330064,-2.277967,-4.575077,9.399008
1775856280648490741,-2.277967,-4.608576,9.375079
1775856280650651366,-2.277967,-4.603791,9.365508
1775856280652812043,-2.268396,-4.608576,9.332008
1775856280654972668,-2.292324,-4.608576,9.284152
1775856280657133293,-2.306681,-4.565506,9.217153
1775856280659293970,-2.292324,-4.546363,9.121440
1775856280661454595,-2.249253,-4.508078,9.059227
1775856280663615272,-2.210968,-4.441079,9.011370
1775856280665775897,-2.134398,-4.398008,9.025727
1775856280667936522,-2.076970,-4.307081,9.054440
1775856280670097199,-2.005185,-4.192225,9.068798
1775856280672257824,-1.928615,-4.048656,9.083155
1775856280674418501,-1.880759,-3.909872,9.087940
1775856280676579126,-1.818545,-3.809374,8.815159
1775856280678739804,-1.761117,-3.747160,8.355737
1775856280680900429,-1.718047,-3.732803,7.910672
1775856280683061106,-1.660619,-3.656233,7.546963
1775856280685221731,-1.655833,-3.594020,7.436893
1775856280687382408,-1.674976,-3.503092,7.585248
1775856280689543033,-1.713261,-3.412165,7.901100
1775856280691703710,-1.746760,-3.349952,8.221739
1775856280693864335,-1.746760,-3.359523,8.413164
1775856280696024960,-1.756332,-3.402594,8.484949
1775856280698185637,-1.799403,-3.469593,8.451449
1775856280700346262,-1.880759,-3.546163,8.283952
1775856280702506939,-1.990828,-3.617948,8.135597
1775856280704667564,-2.153540,-3.675375,8.006385
1775856280706828241,-2.297110,-3.728018,7.853244
1775856280708988866,-2.416751,-3.771089,7.733603
1775856280711149543,-2.493321,-3.795017,7.594819
1775856280713310168,-2.545963,-3.833302,7.465607
1775856280715470793,-2.545963,-3.890730,7.293324
1775856280717631470,-2.517249,-3.948157,7.111469
1775856280719792095,-2.488536,-3.996014,6.972685
1775856280721952772,-2.440679,-4.053442,6.867401
1775856280724113397,-2.426322,-4.034299,6.824330
1775856280726274074,-2.388037,-3.952943,6.800402
1775856280728434699,-2.321038,-3.809374,6.766902
1775856280730595376,-2.206182,-3.603591,6.757331
1775856280732756001,-2.072184,-3.345166,6.752545
1775856280734916626,-2.005185,-3.034099,6.762117
1775856280737077304,-2.167897,-2.684747,6.829116
1775856280739237981,-2.890530,-2.120041,7.307680
1775856280741398606,-4.144369,-1.272982,8.030313
1775856280743559231,-4.130012,-1.100698,8.169097
1775856280745719908,-4.244867,-0.765703,8.518449
1775856280747880533,-3.981657,-1.014557,8.417950
1775856280750041210,-3.895515,-1.454836,8.197810
1775856280752201835,-5.216353,-1.789831,8.872586
1775856280754362512,-4.704289,-1.804188,8.709874
1775856280756523137,-4.058227,-1.550549,8.523234
1775856280758683814,-3.407379,-1.177269,8.336594
1775856280760844439,-2.790031,-0.784846,8.149954
1775856280763005116,-2.273181,-0.497707,7.877172
1775856280765165741,-1.756332,-0.354138,7.542177
1775856280767326366,-1.339981,-0.320638,7.073184
1775856280769487043,-1.043271,-0.401994,6.652047
1775856280771647668,-0.899701,-0.464208,6.340980
1775856280773808345,-0.856631,-0.363709,6.163911
1775856280775968970,-0.990629,0.296710,6.163911
1775856280778129647,-1.272982,1.335195,6.230910
1775856280780290272,-1.426122,1.880759,6.068198
1775856280782450949,-1.440479,1.828117,5.876772
1775856280784611574,-1.459622,1.607977,5.675776
1775856280786772251,-1.502693,1.421337,5.565705
1775856280788932876,-1.636691,1.536192,5.618348
1775856280791093554,-2.062613,2.593820,5.982057
1775856280793254179,-2.249253,2.947958,6.020342
1775856280795414856,-2.273181,2.823531,5.824131
1775856280797575481,-2.282753,2.574677,5.584848
1775856280799736158,-2.301895,2.273181,5.402994
1775856280801896783,-2.321038,1.938186,5.297709
1775856280804057408,-2.306681,1.584049,5.273781
1775856280806218085,-2.263610,1.272982,5.264210
1775856280808378710,-2.206182,0.976272,5.245067
1775856280810539335,-2.081756,0.698704,5.259424
1775856280812700012,-1.899901,0.473779,5.221139
1775856280814860689,-1.636691,0.272782,5.249853
1775856280817021314,-1.330409,0.110070,5.235496
1775856280819181939,-1.014557,-0.038285,5.254639
1775856280821342616,-0.698704,-0.148355,5.278567
1775856280823503241,-0.397209,-0.248854,5.312066
1775856280825663918,-0.076570,-0.320638,5.388637
1775856280827824543,0.181855,-0.344566,5.479564
1775856280829985220,0.449851,-0.363709,5.632705
1775856280832145845,0.660419,-0.387637,5.814559
1775856280834306522,0.851845,-0.406780,6.001199
1775856280836467147,1.048056,-0.378066,6.192625
1775856280838627824,1.210768,-0.368495,6.422336
1775856280840788449,1.335195,-0.382852,6.599405
1775856280842949074,1.450050,-0.392423,6.757331
1775856280845109751,1.531407,-0.401994,6.891329
1775856280847270376,1.588834,-0.449851,7.054041
1775856280849431054,1.694118,-0.502493,7.211967
1775856280851591679,1.789831,-0.550349,7.345965
1775856280853752304,1.938186,-0.626920,7.456035
1775856280855912981,2.086541,-0.703490,7.570891
1775856280858073658,2.244468,-0.813560,7.671390
1775856280860234283,2.397608,-0.942772,7.762317
1775856280862394908,2.541178,-1.100698,7.814959
1775856280864555585,2.713461,-1.239482,7.843673
1775856280866716210,2.852245,-1.383052,7.848458
1775856280868876887,2.995814,-1.521835,7.886744
1775856280871037512,3.105884,-1.636691,7.891529
1775856280873198189,3.187240,-1.741975,7.886744
1775856280875358814,3.220739,-1.847259,7.867601
1775856280877519439,3.259024,-1.928615,7.834101
1775856280879680116,3.302095,-1.995614,7.757531
1775856280881840741,3.330809,-2.048256,7.695318
1775856280884001418,3.378666,-2.115255,7.604390
1775856280886162043,3.402594,-2.187040,7.523035
1775856280888322720,3.469593,-2.230111,7.417750
1775856280890483345,3.546163,-2.268396,7.298109
1775856280892644022,3.665804,-2.325824,7.111469
1775856280894804699,3.847659,-2.388037,6.862615
1775856280896965324,4.048656,-2.445465,6.642476
1775856280899125949,4.244867,-2.512464,6.489335
1775856280901286574,4.383651,-2.612962,6.364908
1775856280903447251,4.527220,-2.703890,6.283552
1775856280905607929,4.618148,-2.790031,6.202196
1775856280907770220,4.699504,-2.852245,6.130412
1775856280909929231,4.756931,-2.909672,6.063413
1775856280912089804,4.843073,-2.957529,5.986842
1775856280914250481,4.910072,-3.000600,5.895915
1775856280916411158,4.991428,-3.062813,5.848059
1775856280918571783,5.120640,-3.086741,5.833702
1775856280920732460,5.249853,-3.139383,5.795416
1775856280922893085,5.431707,-3.211168,5.809773
1775856280925053710,5.589633,-3.278167,5.857630
1775856280927214387,5.785845,-3.335595,5.958128
1775856280929375064,5.943771,-3.436093,6.130412
1775856280931535689,6.120841,-3.536592,6.297909
1775856280933696314,6.293124,-3.675375,6.494121
1775856280935856991,6.489335,-3.842873,6.661618
1775856280938017668,6.647261,-4.010371,6.838687
1775856280940178293,6.771688,-4.206582,6.977471
1775856280942338918,6.862615,-4.407579,7.125826
1775856280944499595,6.920043,-4.575077,7.226325
1775856280946660220,6.977471,-4.713861,7.298109
1775856280948820897,7.025327,-4.852644,7.312466
1775856280950981522,7.020542,-4.962714,7.322037
1775856280953142199,7.030113,-5.044070,7.336394
1775856280955302824,6.982256,-5.077569,7.374680
1775856280957463501,6.939186,-5.096712,7.384251
1775856280959624126,6.920043,-5.053641,7.389036
1775856280961784751,6.896115,-4.972285,7.369894
1775856280963945429,6.929615,-4.876573,7.274181
1775856280966106054,6.958328,-4.780859,7.121040
1775856280968266731,7.001399,-4.699504,6.991828
1775856280970427356,7.039684,-4.646862,6.857830
1775856280972587981,7.087541,-4.618148,6.728617
1775856280974748658,7.121040,-4.575077,6.632905
1775856280976909335,7.154540,-4.594220,6.522834
1775856280979069960,7.188039,-4.608576,6.417551
1775856280981230585,7.235896,-4.651647,6.350551
1775856280983391262,7.288538,-4.694718,6.283552
1775856280985551887,7.360322,-4.742575,6.163911
1775856280987712512,7.446464,-4.795217,6.049056
1775856280989873189,7.527820,-4.857430,5.919843
1775856280992033814,7.590034,-4.929214,5.862415
1775856280994194491,7.633104,-5.015356,5.814559
1775856280996355168,7.671390,-5.087141,5.785845
1775856280998515793,7.733603,-5.144569,5.804988
1775856281000676470,7.776674,-5.249853,5.766703
1775856281002837095,7.858029,-5.359923,5.814559
1775856281004997772,7.944171,-5.508278,5.919843
1775856281007158397,8.001599,-5.637490,6.077769
1775856281009319022,8.054241,-5.800202,6.283552
1775856281011479699,8.102098,-5.991628,6.479764
1775856281013640324,8.111669,-6.192625,6.695118
1775856281015801001,8.102098,-6.384051,6.876972
1775856281017961626,8.082955,-6.604190,7.101898
1775856281020122304,8.015956,-6.814759,7.264609
1775856281022282929,7.920243,-7.020542,7.441679
1775856281024443554,7.795816,-7.197610,7.594819
1775856281026604179,7.671390,-7.365108,7.757531
1775856281028764856,7.513463,-7.523035,7.858029
1775856281030925533,7.398608,-7.661818,7.881958
1775856281033086158,7.307680,-7.781459,7.862815
1775856281035246835,7.274181,-7.881958,7.843673
1775856281037407460,7.259824,-7.977671,7.795816
1775856281039568085,7.269395,-8.078169,7.738389
1775856281041728762,7.322037,-8.183454,7.661818
1775856281043889387,7.384251,-8.269595,7.618747
1775856281046050064,7.460821,-8.350951,7.590034
1775856281048210689,7.556534,-8.384451,7.537391
1775856281050371366,7.637890,-8.394022,7.518249
1775856281052531991,7.733603,-8.408379,7.499106
1775856281054692668,7.786245,-8.389236,7.499106
1775856281056853293,7.805387,-8.365308,7.465607
1775856281059013970,7.795816,-8.322237,7.436893
1775856281061174647,7.762317,-8.274381,7.408179
1775856281063335272,7.709674,-8.221739,7.393822
1775856281065495897,7.657032,-8.193025,7.393822
1775856281067656522,7.604390,-8.159525,7.398608
1775856281069817199,7.499106,-8.106883,7.451250
1775856281071977876,7.398608,-8.059027,7.542177
1775856281074138501,7.288538,-8.030313,7.647461
1775856281076299126,7.188039,-7.963314,7.767102
1775856281078459804,7.044470,-7.901100,7.901100
1775856281080620481,6.900900,-7.858029,8.020741
1775856281082781106,6.766902,-7.800602,8.145168
1775856281084941783,6.565906,-7.714460,8.255239
1775856281087102356,6.364908,-7.628319,8.303095
1775856281089263033,6.149554,-7.513463,8.327023
1775856281091423710,5.905486,-7.369894,8.317451
1775856281093584335,5.680561,-7.231110,8.293523
1775856281095745012,5.469993,-7.087541,8.164310
1775856281097905637,5.297709,-6.943971,8.059027
1775856281100066262,5.154140,-6.795616,7.934600
1775856281102226939,5.077569,-6.652047,7.800602
1775856281104387616,5.048856,-6.561120,7.704889
1775856281106548241,5.077569,-6.441479,7.628319
1775856281108708866,5.149354,-6.345766,7.599605
1775856281110869543,5.268995,-6.245267,7.637890
1775856281113030168,5.412565,-6.144769,7.743174
1775856281115190845,5.560920,-6.068198,7.910672
1775856281117351470,5.728417,-5.977271,8.097312
1775856281119512147,5.895915,-5.919843,8.283952
1775856281121672772,6.101698,-5.852844,8.489735
1775856281123833449,6.240481,-5.819345,8.690732
1775856281125994074,6.364908,-5.771488,8.882157
1775856281128154751,6.431907,-5.766703,9.035298
1775856281130315376,6.513263,-5.742774,9.154940
1775856281132476001,6.565906,-5.728417,9.265009
1775856281134636679,6.613762,-5.709275,9.341579
1775856281136797304,6.671189,-5.690132,9.360723
1775856281138957981,6.723832,-5.699704,9.327223
1775856281141118606,6.790831,-5.742774,9.217153
1775856281143279283,6.824330,-5.776274,9.145369
1775856281145439908,6.843473,-5.804988,8.992228
1775856281147600533,6.862615,-5.848059,8.853444
1775856281149761210,6.872187,-5.867201,8.724232
1775856281151921887,6.853044,-5.891129,8.599805
1775856281154082512,6.843473,-5.876772,8.523234
1775856281156245429,6.838687,-5.848059,8.432307
1775856281158403814,6.814759,-5.814559,8.389236
1775856281160564439,6.805188,-5.742774,8.346166
1775856281162725116,6.814759,-5.685347,8.408379
1775856281164885741,6.786045,-5.613562,8.470592
1775856281167046418,6.771688,-5.508278,8.561520
1775856281169207043,6.762117,-5.426922,8.638090
1775856281171367668,6.752545,-5.331209,8.705089
1775856281173528345,6.752545,-5.221139,8.786445
1775856281175689022,6.742974,-5.111069,8.843872
1775856281177849647,6.738189,-4.996214,8.930014
1775856281180010272,6.723832,-4.881358,8.992228
1775856281182170949,6.733403,-4.752146,9.054440
1775856281184331574,6.752545,-4.637290,9.097511
1775856281186492251,6.809973,-4.532006,9.083155
1775856281188652876,6.891329,-4.431508,9.068798
1775856281190813554,6.977471,-4.340580,9.016156
1775856281192974179,7.082755,-4.225725,8.977871
1775856281195134804,7.154540,-4.144369,8.949157
1775856281197295481,7.211967,-4.053442,8.886943
1775856281199456106,7.235896,-3.981657,8.815159
1775856281201616783,7.240681,-3.929015,8.714660
1775856281203777408,7.250253,-3.881158,8.609376
1775856281205938085,7.245467,-3.852444,8.504091
1775856281208098710,7.240681,-3.833302,8.384451
1775856281210259387,7.221539,-3.814159,8.231310
1775856281212420012,7.240681,-3.809374,8.102098
1775856281214580689,7.211967,-3.818945,7.934600
1775856281216741314,7.178468,-3.828516,7.819745
1775856281218901991,7.149754,-3.833302,7.719246
1775856281221075064,7.121040,-3.833302,7.566105
1775856281223248137,7.101898,-3.847659,7.513463
1775856281225382876,7.097112,-3.857230,7.484749
1775856281227543501,7.092326,-3.833302,7.475178
1775856281229704022,7.058827,-3.818945,7.499106
1775856281231864543,7.039684,-3.790231,7.513463
1775856281234025012,6.991828,-3.771089,7.537391
1775856281236185481,6.953543,-3.751946,7.566105
1775856281238345949,6.905686,-3.718446,7.609176
1775856281240506366,6.819544,-3.694518,7.661818
1775856281242666731,6.728617,-3.661019,7.666604
1775856281244827095,6.656833,-3.622734,7.647461
1775856281246987460,6.561120,-3.589234,7.609176
1775856281249147772,6.474978,-3.527021,7.542177
1775856281251308085,6.417551,-3.479164,7.499106
1775856281253468345,6.355337,-3.440879,7.436893
1775856281255628606,6.293124,-3.393023,7.389036
1775856281257788866,6.240481,-3.359523,7.384251
1775856281259949074,6.230910,-3.316452,7.369894
1775856281262109283,6.240481,-3.278167,7.393822
1775856281264269439,6.221339,-3.259024,7.389036
1775856281266429647,6.226124,-3.239882,7.412964
1775856281268589804,6.216553,-3.220739,7.446464
1775856281270749960,6.221339,-3.187240,7.460821
1775856281272910064,6.216553,-3.168097,7.484749
1775856281275070168,6.235696,-3.144169,7.499106
1775856281277230272,6.264410,-3.120241,7.523035
1775856281279390324,6.336195,-3.120241,7.546963
1775856281281550429,6.417551,-3.120241,7.561319
1775856281283710481,6.498906,-3.129812,7.513463
1775856281285870533,6.594619,-3.139383,7.489535
1775856281288030585,6.666404,-3.168097,7.436893
1775856281290190585,6.728617,-3.196811,7.384251
1775856281292350637,6.805188,-3.230311,7.317252
1775856281294510637,6.853044,-3.273381,7.298109
1775856281296670637,6.891329,-3.287738,7.278966
1775856281298830637,6.920043,-3.302095,7.207182
1775856281300990637,6.958328,-3.278167,7.164111
1775856281303150585,7.001399,-3.259024,7.135397
1775856281305323501,7.030113,-3.201597,7.111469
1775856281307496679,7.054041,-3.163311,7.087541
1775856281309669751,7.068398,-3.139383,7.068398
1775856281311842929,7.092326,-3.096313,7.030113
1775856281314016054,7.097112,-3.081956,7.010970
1775856281316189231,7.097112,-3.067599,6.953543
1775856281318362356,7.073184,-3.048456,6.910472
1775856281320535481,7.077970,-3.019742,6.790831
1775856281322708606,7.039684,-3.034099,6.690332
1775856281324881731,7.020542,-3.038885,6.599405
1775856281327054856,7.025327,-3.014956,6.532406
1775856281329227929,7.034899,-3.053242,6.518049
1775856281331401054,7.034899,-3.086741,6.518049
1775856281333574179,7.054041,-3.101098,6.508478
1775856281335747251,7.054041,-3.168097,6.522834
1775856281337920429,7.025327,-3.230311,6.532406
1775856281340093554,6.991828,-3.326024,6.551548
1775856281342266626,6.948757,-3.416951,6.604190
1775856281344439804,6.920043,-3.440879,6.656833
1775856281346612981,6.876972,-3.421736,6.690332
1775856281348786054,6.876972,-3.416951,6.714260
1775856281350959179,6.891329,-3.364309,6.738189
1775856281353132304,6.915257,-3.349952,6.762117
1775856281355305429,6.943971,-3.287738,6.809973
1775856281357478501,6.943971,-3.235096,6.872187
1775856281359651574,6.953543,-3.158526,6.910472
1775856281361824804,6.972685,-3.058027,6.915257
1775856281363997929,6.996614,-2.933601,6.920043
1775856281366171054,7.030113,-2.785246,6.905686
1775856281368344179,7.063612,-2.627319,6.905686
1775856281370517251,7.111469,-2.502892,6.857830
1775856281372690429,7.121040,-2.402394,6.829116
1775856281374863501,7.121040,-2.354537,6.738189
1775856281377036679,7.039684,-2.335395,6.685546
1775856281379209856,6.953543,-2.349752,6.575477
1775856281381383033,6.838687,-2.354537,6.479764
1775856281383556210,6.699903,-2.388037,6.360123
1775856281385729283,6.589834,-2.426322,6.278767
1775856281387902356,6.498906,-2.493321,6.192625
1775856281390075481,6.427122,-2.526821,6.154340
1775856281392248554,6.374479,-2.574677,6.092126
1775856281394421626,6.345766,-2.617748,6.178268
1775856281396594699,6.293124,-2.670390,6.403193
1775856281398767720,6.250053,-2.718246,6.527620
1775856281400940845,6.211768,-2.746960,6.675975
1775856281403113866,6.173482,-2.775674,6.824330
1775856281405286991,6.139983,-2.780460,7.030113
1775856281407460064,6.096912,-2.785246,7.264609
1775856281409633137,6.063413,-2.780460,7.465607
1775856281411806158,6.015556,-2.761317,7.714460
1775856281413979179,6.010770,-2.737389,7.977671
1775856281416152304,5.977271,-2.732604,8.283952
1775856281418325324,5.962914,-2.703890,8.604590
1775856281420498397,5.929415,-2.694318,8.915657
1775856281422671366,5.891129,-2.660819,9.150154
1775856281424844439,5.848059,-2.665604,9.260223
1775856281427017512,5.828916,-2.718246,9.312865
1775856281429190533,5.814559,-2.737389,9.379865
1775856281431363606,5.785845,-2.756532,9.432507
1775856281433536626,5.742774,-2.790031,9.456435
1775856281435709751,5.733203,-2.813959,9.475577
1775856281437882772,5.742774,-2.766103,9.561719
1775856281440055845,5.800202,-2.732604,9.614362
1775856281442228866,5.833702,-2.732604,9.619147
1775856281444401939,5.876772,-2.775674,9.547362
1775856281446575012,5.962914,-2.718246,9.399008
1775856281448748033,5.996414,-2.770889,9.135797
1775856281450921106,6.001199,-2.837888,8.992228
1775856281453094126,5.986842,-2.895315,8.848659
1775856281455267199,5.943771,-2.895315,8.700303
1775856281457440168,5.891129,-2.876173,8.403593
1775856281459613241,5.915058,-2.813959,8.073383
1775856281461786314,5.986842,-2.746960,7.814959
1775856281463959387,6.049056,-2.660819,7.642675
1775856281466132460,6.139983,-2.608177,7.494320
1775856281468305585,6.173482,-2.617748,7.355537
1775856281470478658,6.187840,-2.550749,7.216753
1775856281472651731,6.192625,-2.536392,7.111469
1775856281474824751,6.144769,-2.498107,7.034899
1775856281476997824,6.206982,-2.488536,6.929615
1775856281479170845,6.336195,-2.517249,6.853044
1775856281481343918,6.556334,-2.560320,6.738189
1775856281483516991,6.747760,-2.593820,6.580262
1775856281485690064,6.829116,-2.608177,6.546763
1775856281487863085,6.939186,-2.526821,6.599405
1775856281490036210,7.106683,-2.421536,6.618547
1775856281492209283,7.269395,-2.258825,6.661618
1775856281494382408,7.240681,-2.091327,6.690332
1775856281496555533,7.178468,-1.952543,6.656833
1775856281498728606,6.991828,-1.866402,6.585048
1775856281500901731,6.881758,-1.813760,6.412765
1775856281503074804,6.728617,-1.842473,6.288338
1775856281505247876,6.527620,-1.866402,6.125626
1775856281507421001,6.374479,-1.866402,6.010770
1775856281509594074,6.283552,-1.899901,5.977271
1775856281511767199,6.187840,-1.990828,5.958128
1775856281513940272,6.125626,-2.120041,5.972486
1775856281516113397,6.154340,-2.340181,5.924629
1775856281518286470,6.278767,-2.536392,5.828916
1775856281520459543,6.484550,-2.665604,5.589633
1775856281522632668,6.652047,-2.713461,5.374279
1775856281524805793,6.733403,-2.679961,4.819145
1775856281526978918,6.848258,-2.124826,5.044070
1775856281529152043,6.814759,-1.895115,5.733203
1775856281531325116,6.604190,-1.880759,5.474778
1775856281533498189,6.532406,-1.684547,4.910072
1775856281535671210,6.518049,-1.426122,4.575077
1775856281537844283,6.422336,-1.205983,4.259224
1775856281540017356,6.206982,-0.909273,4.240082
1775856281542190429,5.838487,-0.607777,4.216154
1775856281544363501,5.551349,-0.387637,4.072584
1775856281546536574,5.268995,0.200997,6.005985
1775856281548709647,4.895715,0.449851,5.412565
1775856281550882772,4.546363,0.358923,4.996214
1775856281553055897,4.331009,0.306281,5.417350
1775856281555228970,4.091727,0.133998,6.053841
1775856281557402095,3.900301,-0.172283,6.589834
1775856281559575168,3.771089,-0.459422,7.168897
1775856281561748189,3.747160,-0.756132,7.805387
1775856281563921314,3.728018,-1.071985,8.274381
1775856281566094439,3.756732,-1.339981,8.671589
1775856281568267616,3.919444,-1.579263,8.953942
1775856281570440741,4.115655,-1.689333,9.126225
1775856281572613866,4.220939,-1.689333,9.241081
1775856281574786991,4.244867,-1.694118,9.303294
1775856281576960116,4.206582,-1.765903,9.178867
1775856281579133189,4.144369,-1.818545,9.059227
1775856281581306366,4.043870,-1.765903,8.858230
1775856281583479491,3.943372,-1.665405,8.652447
1775856281585652616,3.833302,-1.555335,8.389236
1775856281587825741,3.766303,-1.354338,8.245667
1775856281589998918,3.670590,-1.158126,8.035098
1775856281592172043,3.637090,-1.004985,7.891529
1775856281594345220,3.637090,-0.832702,7.733603
1775856281596518293,3.656233,-0.746561,7.657032
1775856281598691366,3.732803,-0.732204,7.609176
1775856281600864439,3.814159,-0.713061,7.618747
1775856281603037616,3.914658,-0.641276,7.633104
1775856281605210741,4.029513,-0.488136,7.633104
1775856281607383918,4.134798,-0.301496,7.585248
1775856281609556991,4.173083,-0.086142,7.508677
1775856281611730116,4.197011,0.100499,7.293324
1775856281613903241,4.130012,0.196211,7.144969
1775856281616076366,4.024728,0.200997,6.982256
1775856281618249491,3.991228,0.133998,7.240681
1775856281620422564,3.929015,-0.186640,7.781459
1775856281622595689,3.900301,-0.382852,7.207182
1775856281624768814,3.986443,-0.459422,6.867401
1775856281626941939,4.048656,-0.483350,6.963114
1775856281629114960,4.144369,-0.531207,7.202396
1775856281631288085,4.149155,-0.488136,7.384251
1775856281633461106,4.220939,-0.344566,7.551748
1775856281635634126,4.197011,-0.334995,7.637890
1775856281637807199,4.244867,-0.655633,7.958528
1775856281639980324,4.412365,-0.751346,8.001599
1775856281642153501,4.723432,-0.818345,8.082955
1775856281644326626,5.130212,-0.689133,8.322237
1775856281646499699,5.613562,-0.708275,8.590233
1775856281648672876,6.106483,-0.736989,8.461020
1775856281650846054,6.503692,-0.540778,8.647661
1775856281653019179,6.738189,-0.258425,8.800801
1775856281655192251,7.121040,-0.267996,7.858029
1775856281657365376,7.298109,0.200997,7.475178
1775856281659538501,7.235896,0.354138,5.532206
1775856281661711574,7.250253,0.301496,2.756532
1775856281663884647,7.556534,0.315853,1.794617
1775856281666057720,8.159525,0.325424,2.837888
1775856281668230793,8.652447,0.325424,4.819145
1775856281670403918,9.044869,0.454636,6.245267
1775856281672577043,9.394221,0.693919,6.900900
1775856281674750064,9.456435,0.803988,7.537391
1775856281676923241,9.437292,0.799203,7.771888
1775856281679096418,9.245867,0.698704,8.269595
1775856281681269595,9.006584,0.334995,8.953942
1775856281683442772,8.748159,0.057428,9.418150
1775856281685615897,8.528020,-0.167498,9.839287
1775856281687789022,8.389236,-0.588634,9.973285
1775856281689962199,8.317451,-0.894916,9.791430
1775856281692135376,8.207381,-1.004985,9.585648
1775856281694308554,8.154739,-0.909273,9.384650
1775856281696481731,8.140383,-1.081556,9.317652
1775856281698654908,8.169097,-0.937986,8.408379
1775856281700828033,8.106883,-0.478565,7.537391
1775856281703001106,8.068598,-0.200997,6.637690
1775856281705174231,8.164310,-0.215354,5.924629
1775856281707347356,8.307880,-0.215354,5.417350
1775856281709520429,8.350951,0.172283,4.130012
1775856281711693554,8.360522,0.564706,3.689733
1775856281713866679,8.331808,0.875773,3.541378
1775856281716039804,8.489735,0.555135,3.905087
1775856281718212929,8.700303,0.358923,3.359523
1775856281720386001,8.843872,0.162712,3.101098
1775856281722559074,8.949157,-0.071785,3.349952
1775856281724732147,9.116654,-0.430708,3.871587
1775856281726905220,9.379865,-1.330409,4.857430
1775856281729078293,9.523434,-1.804188,4.857430
1775856281731251366,9.556933,-2.014757,5.020142
1775856281733424491,9.346365,-2.029114,5.335995
1775856281735597616,8.853444,-2.225325,5.589633
1775856281737770689,8.370093,-2.589034,5.934200
1775856281739943814,8.312666,-3.297310,6.527620
1775856281742116835,8.413164,-3.756732,6.953543
1775856281744289960,8.465807,-4.082155,7.384251
1775856281746463085,8.513663,-4.177868,7.484749
1775856281748636158,8.441878,-4.216154,7.618747
1775856281750809231,8.169097,-4.211368,7.925029
1775856281752982356,7.776674,-4.120440,8.164310
1775856281755155481,7.508677,-4.130012,8.456235
1775856281757328606,7.389036,-4.096512,8.719446
1775856281759501679,7.154540,-4.125226,8.752945
1775856281761674804,6.977471,-4.350152,8.915657
1775856281763847929,6.795616,-4.398008,8.949157
1775856281766021054,6.522834,-4.421936,8.944371
1775856281768194179,6.250053,-4.436293,8.982656
1775856281770367304,6.029913,-4.292724,9.025727
1775856281772540481,5.871987,-4.120440,9.011370
1775856281774713606,5.661418,-3.924229,9.025727
1775856281776886731,5.422136,-3.842873,9.001799
1775856281779059856,5.273781,-3.771089,8.987442
1775856281781232981,5.139783,-3.656233,9.107083
1775856281783406054,5.015356,-3.579663,9.164511
1775856281785579126,4.761717,-3.330809,9.221938
1775856281787752251,4.249653,-3.024528,9.394221
1775856281789925324,3.488735,-2.584249,10.188639
1775856281792098449,3.943372,-2.239682,8.671589
1775856281794271522,4.642076,-2.316252,8.547162
1775856281796444647,4.996214,-2.646462,8.987442
1775856281798617720,5.594419,-2.770889,9.269794
1775856281800790793,6.216553,-2.703890,7.972885
1775856281802963918,6.580262,-2.799603,7.484749
1775856281805136991,6.632905,-3.144169,7.637890
1775856281807310116,6.771688,-3.555734,7.470392
1775856281809483241,6.843473,-3.905087,7.073184
1775856281811656262,6.776474,-4.072584,6.824330
1775856281813829387,6.795616,-4.125226,7.010970
1775856281816002512,6.752545,-4.206582,7.436893
1775856281818175585,6.714260,-4.144369,7.724031
1775856281820348710,6.757331,-4.067799,7.996813
1775856281822521835,6.781260,-3.986443,8.279166
1775856281824694960,6.886544,-3.823730,8.360522
1775856281826868085,7.034899,-3.560520,8.499306
1775856281829041106,7.231110,-3.345166,8.709874
1775856281831214126,7.508677,-3.263810,8.872586
1775856281833387199,7.795816,-3.192025,8.934800
1775856281835560272,8.245667,-3.148955,8.930014
1775856281837733397,8.657232,-3.101098,8.705089
1775856281839906470,8.973084,-3.029314,8.623733
1775856281842079543,9.475577,-2.933601,8.274381
1775856281844252564,10.102497,-2.761317,7.877172
1775856281846425637,10.561919,-2.632105,7.460821
1775856281848598762,11.050055,-2.210968,7.121040
1775856281850771835,11.485549,-1.904687,6.766902
1775856281852944908,11.810972,-1.866402,6.647261
1775856281855118033,12.313465,-1.976472,6.498906
1775856281857291054,14.074583,-1.722832,6.747760
1775856281859464126,14.706288,-2.005185,6.742974
1775856281861637251,13.294522,-3.412165,7.307680
1775856281863810324,11.782259,-4.637290,8.236095
1775856281865983449,10.691132,-6.111269,9.145369
1775856281868156522,9.518648,-8.910872,9.509077
1775856281870329647,8.528020,-13.706088,9.174082
1775856281872502772,8.700303,-16.084555,9.221938
1775856281874675897,9.628718,-13.284951,11.456835
1775856281876849022,9.853643,-9.561719,11.849257
1775856281879022095,9.188439,-10.179068,11.131411
1775856281881195168,9.145369,-11.260623,10.380065
1775856281883368293,9.829716,-11.346765,10.418350
1775856281885541418,11.064412,-8.934800,11.475977
1775856281887714543,12.318251,-6.924829,11.294123
1775856281889887616,14.337793,-6.240481,10.332209
1775856281892060689,14.581861,-6.393622,9.054440
1775856281894233814,12.260823,-6.652047,6.786045
1775856281896406835,10.920842,-5.718846,6.738189
1775856281898579908,10.394422,-4.843073,6.709475
1775856281900752981,10.045070,-3.493521,4.618148
1775856281902926106,9.159725,-1.880759,3.335595
1775856281905099126,8.475378,-0.617348,3.708875
1775856281907272199,8.183454,0.531207,4.244867
1775856281909445168,8.470592,2.220539,3.641876
1775856281911618241,8.638090,4.378865,2.718246
1775856281913791262,9.107083,6.561120,3.158526
1775856281915964387,9.686146,8.303095,3.086741
1775856281918137408,9.714860,9.499506,2.919244
1775856281920310429,9.576077,10.432707,2.311467
1775856281922483501,8.992228,11.346765,1.832902
1775856281924656522,8.417950,11.844472,1.789831
1775856281926829647,8.676374,13.332808,2.531606
1775856281929002720,7.374680,13.806586,1.852045
1775856281931175845,5.326423,13.753944,0.746561
1775856281933348918,2.244468,13.902300,-0.823131
1775856281935522043,0.669990,13.897514,-1.842473
1775856281937695168,-0.617348,13.763515,-1.885544
1775856281939868241,-1.885544,13.227524,-1.138984
1775856281942041366,-3.488735,12.361321,-0.784846
1775856281944214491,-5.283352,11.490335,0.363709
1775856281946387564,-6.503692,10.901700,0.861416
1775856281948560741,-7.087541,10.968699,-0.177069
1775856281950733866,-9.341579,9.461221,2.871387
1775856281952907043,-11.830115,7.647461,6.513263
1775856281955080168,-13.648661,6.331409,8.327023
1775856281957253241,-14.926428,5.134997,9.623933
1775856281959426418,-16.338194,3.933800,10.557134
1775856281961599491,-17.017756,3.144169,11.145768
1775856281963772616,-17.108683,2.785246,10.872986
1775856281965945793,-15.969698,2.981457,10.470992
1775856281968118866,-13.337593,3.881158,11.308480
1775856281970291991,-9.590433,5.063213,14.179867
1775856281972465064,-5.752346,5.871987,17.295322
1775856281974638189,-2.344966,6.297909,18.917656
1775856281976811366,0.693919,6.503692,19.156939
1775856281978984491,3.043670,6.259624,18.439091
1775856281981157668,4.603791,5.656633,17.008183
1775856281983330897,5.584848,4.838287,15.357136
1775856281985504022,6.154340,3.952943,14.127225
1775856281987677199,6.005985,2.526821,13.308880
1775856281989850272,5.876772,1.229911,12.868600
1775856281992023397,5.618348,0.191426,12.165111
1775856281994196418,5.733203,-0.440279,10.877771
1775856281996369491,5.316852,-0.870987,10.671989
1775856281998542616,4.388437,-1.100698,11.499906
1775856282000715689,3.378666,-1.057628,12.145967
1775856282002888814,2.273181,-0.851845,12.519248
1775856282005061887,1.301695,-0.555135,12.394821
1775856282007235012,0.646062,-0.100499,12.078969
1775856282009408137,0.200997,0.430708,11.978470
1775856282011581314,-0.100499,0.957129,11.930614
1775856282013754491,-0.229711,1.837688,11.791830
1775856282015927616,-0.363709,2.292324,11.337193
1775856282018100741,-0.277567,2.584249,10.954342
1775856282020273970,-0.224925,2.689533,10.518848
1775856282022447147,-0.186640,2.344966,9.925428
1775856282024620272,-0.229711,1.756332,9.198010
1775856282026793449,-0.669990,0.823131,8.465807
1775856282028966574,-1.048056,-0.215354,7.747960
1775856282031139751,-1.402194,-1.521835,6.647261
1775856282033312876,-1.588834,-2.431108,5.249853
1775856282035486001,-1.354338,-3.354737,4.421936
1775856282037659179,-0.961915,-4.417150,3.881158
1775856282039832251,-0.363709,-5.096712,3.464807
1775856282042005324,0.454636,-5.388637,3.306881
1775856282044178397,1.162912,-5.173283,3.460021
1775856282046351470,1.899901,-4.766503,3.756732
1775856282048524647,2.598605,-4.192225,4.134798
1775856282050697772,3.340380,-3.857230,4.532006
1775856282052870949,4.249653,-3.574877,4.910072
1775856282055044126,4.780859,-3.460021,5.264210
1775856282057217251,5.446064,-3.302095,5.742774
1775856282059390376,5.852844,-3.263810,5.982057
1775856282061563554,5.910272,-3.349952,6.321837
1775856282063736679,5.771488,-3.436093,6.728617
1775856282065909856,5.364708,-3.771089,6.924829
1775856282068082929,4.761717,-4.153940,6.958328
1775856282070256054,3.866802,-4.828716,6.771688
1775856282072429179,3.067599,-5.613562,6.580262
1775856282074602199,2.627319,-6.044270,6.862615
1775856282076775324,2.383251,-5.982057,7.757531
1775856282078948397,2.258825,-5.580062,8.781659
1775856282081121626,2.344966,-5.082355,9.858429
1775856282083294699,2.526821,-4.508078,10.983056
1775856282085467824,2.756532,-3.905087,12.069397
1775856282087640949,2.938386,-3.407379,12.964314
1775856282089814022,3.115455,-2.904887,13.648661
1775856282091987095,3.278167,-2.402394,14.160725
1775856282094160220,3.440879,-2.019542,14.462220
1775856282096333293,3.608377,-1.627119,14.620147
1775856282098506418,3.900301,-1.301695,14.490934
1775856282100679491,4.331009,-0.985843,13.907085
1775856282102852564,4.723432,-0.698704,13.313665
1775856282105025689,5.077569,-0.473779,12.777673
1775856282107198762,5.383851,-0.349352,12.337394
1775856282109371835,5.704489,-0.234497,12.011970
1775856282111544960,6.096912,-0.066999,11.700903
1775856282113718033,6.192625,-0.066999,11.418550
1775856282115891106,6.025127,-0.138784,11.102697
1775856282118064231,5.728417,-0.272782,10.528419
1775856282120237304,5.312066,-0.373280,9.844072
1775856282122410376,4.823930,-0.521635,9.159725
1775856282124583449,4.331009,-0.708275,8.537591
1775856282126756418,3.809374,-0.947558,8.044670
1775856282128929543,3.354737,-1.172483,7.676175
1775856282131102616,2.957529,-1.339981,7.499106
1775856282133275637,2.627319,-1.473979,7.408179
1775856282135448710,2.402394,-1.536192,7.417750
1775856282137621835,2.234896,-1.507478,7.599605
1775856282139794960,2.210968,-1.483550,7.771888
1775856282141968085,2.301895,-1.488336,7.977671
1775856282144141158,2.311467,-1.560120,8.240881
1775856282146314231,2.373680,-1.502693,8.470592
1775856282148487356,2.158326,-1.512264,8.657232
1775856282150660481,2.464607,-1.392623,8.805588
1775856282152833606,2.679961,-1.368695,9.006584
1775856282155006679,2.852245,-1.373480,9.174082
1775856282157179751,2.742175,-1.450050,9.265009
1775856282159352772,2.526821,-1.517050,9.174082
1775856282161525897,2.775674,-1.622334,9.351151
1775856282163699022,1.856830,-3.617948,7.915457
1775856282165872095,2.129612,-7.446464,3.043670
1775856282168045168,7.345965,-11.164910,-3.522235
1775856282170218293,16.261623,-11.514262,-7.709674
1775856282172391418,22.037897,-10.801202,-9.906285
1775856282174564491,21.382263,-11.423335,-8.111669
1775856282176737564,16.031912,-13.083954,-1.268196
1775856282178910689,9.064013,-14.735002,7.197610
1775856282181083814,2.622534,-15.663417,13.959727
1775856282183256939,-1.799403,-16.409977,17.357536
1775856282185430064,-3.627519,-16.859829,16.778473
1775856282187603137,-3.460021,-16.668402,13.361522
1775856282189776262,-2.177469,-15.850058,9.662218
1775856282191949335,-0.559920,-14.500505,7.422536
1775856282194122460,0.516850,-12.887743,7.192825
1775856282196295533,1.555335,-11.456835,7.862815
1775856282198468554,2.981457,-10.021141,8.724232
1775856282200641626,3.842873,-8.872586,9.786645
1775856282202814699,3.986443,-8.245667,10.485349
1775856282204987824,4.034299,-8.030313,10.303494
1775856282207160897,3.771089,-7.901100,9.576077
1775856282209334022,3.005385,-7.503892,9.274581
1775856282211507147,2.349752,-6.561120,11.207981
1775856282213680324,2.507678,-5.670990,13.280166
1775856282215853449,3.431308,-5.096712,14.146367
1775856282218026626,4.795217,-4.737789,13.576876
1775856282220199647,6.068198,-5.000999,12.323036
1775856282222372772,6.561120,-5.651847,11.911471
1775856282224545897,6.187840,-6.972685,11.973684
1775856282226718970,5.331209,-8.896515,11.442478
1775856282228892147,4.182654,-11.432906,10.370493
1775856282231065272,2.483750,-13.519448,10.298709
1775856282233238345,0.904487,-13.653446,15.012569
1775856282235411470,1.316052,-14.069798,14.926428
1775856282237584647,2.656033,-14.012369,10.844273
1775856282239757772,1.660619,-13.811373,8.796016
1775856282241930897,-1.148555,-14.108083,6.589834
1775856282244103970,-4.029513,-13.710874,5.455636
1775856282246277095,-5.551349,-12.021541,9.169296
1775856282248450168,-5.967700,-10.202995,13.256237
1775856282250623345,-5.733203,-9.576077,14.945570
1775856282252796418,-3.632305,-7.097112,13.864015
1775856282254969543,-0.808774,-3.062813,11.930614
1775856282257142616,2.134398,-0.598206,11.121840
1775856282259315741,5.565705,3.818945,7.958528
1775856282261488918,7.154540,4.934000,7.958528
1775856282263661991,8.015956,5.536992,7.068398
1775856282265835064,8.532805,5.709275,7.168897
1775856282268008189,9.121440,7.135397,9.427721
1775856282270181366,10.762917,10.279566,16.089340
1775856282272354439,13.811373,14.232509,24.086153
1775856282274527564,16.333406,16.668402,18.501305
1775856282276700689,17.821743,17.051254,12.820744
1775856282278873762,17.682959,16.807186,11.193624
1775856282281046887,16.151552,16.232908,9.705289
1775856282283219960,13.801801,14.758930,9.073584
1775856282285393137,11.418550,13.318451,8.307880
1775856282287566210,9.365508,11.107483,7.824530
1775856282289739335,8.025527,9.068798,6.704689
1775856282291912408,7.551748,7.513463,6.699903
1775856282294085481,7.781459,6.604190,7.484749
1775856282296258606,7.503892,5.718846,8.556734
1775856282298431626,6.848258,5.283352,9.571291
1775856282300604751,5.986842,4.929214,10.231709
1775856282302777772,5.268995,4.646862,10.743773
1775856282304950845,4.689932,4.613362,11.021341
1775856282307123918,4.297510,4.632504,11.021341
1775856282309297043,3.986443,4.795217,11.002198
1775856282311470116,3.847659,5.101498,10.911271
1775856282313643189,3.708875,5.144569,10.801202
1775856282315816366,3.622734,5.369494,10.825130
1775856282317989387,3.742375,5.651847,11.284552
1775856282320162460,4.350152,5.680561,11.944971
1775856282322335585,4.900501,5.474778,11.729616
1775856282324508658,4.881358,5.063213,11.035698
1775856282326681731,4.613362,4.694718,10.748559
1775856282328854804,4.149155,4.441079,10.547563
1775856282331027929,3.718446,4.177868,10.164711
1775856282333201001,3.053242,3.962514,10.059426
1775856282335374074,2.373680,3.661019,9.868001
1775856282337547199,1.909472,3.345166,9.834501
1775856282339720324,1.617548,2.919244,9.748360
1775856282341893449,1.459622,2.311467,9.643075
1775856282344066522,1.158126,1.507478,9.786645
1775856282346239699,1.105484,0.808774,9.877572
1775856282348412824,0.990629,-0.004786,9.896714
1775856282350585949,0.880559,-0.856631,9.930214
1775856282352759126,0.909273,-1.641476,9.772287
1775856282354932304,0.837488,-2.187040,9.872787
1775856282357105429,0.622134,-2.488536,11.126625
1775856282359278606,0.861416,-2.914458,10.944771
1775856282361451679,1.143769,-3.038885,10.724631
1775856282363624804,1.344766,-3.000600,10.710274
1775856282365797876,1.545763,-3.024528,10.834701
1775856282367971001,1.813760,-2.971886,10.930414
1775856282370144126,2.105684,-2.809174,11.045269
1775856282372317199,2.435894,-2.612962,11.164910
1775856282374490272,2.933601,-2.392823,11.231910
1775856282376663345,3.215954,-2.402394,11.174481
1775856282378836470,3.024528,-2.775674,11.069198
1775856282381009595,2.182254,-3.550949,10.557134
1775856282383182720,0.669990,-4.594220,9.260223
1775856282385355897,-3.981657,-7.269395,7.604390
1775856282387529022,-3.862016,-7.714460,6.111269
1775856282389702199,-3.364309,-7.877172,4.910072
1775856282391875376,-2.957529,-8.140383,3.728018
1775856282394048554,-2.502892,-8.556734,2.656033
1775856282396221679,-2.043471,-8.925228,1.722832
1775856282398394804,-1.646262,-9.279366,0.526421
1775856282400567876,-1.081556,-9.710074,0.081356
1775856282402740949,-0.411565,-10.217353,-1.095913
1775856282404914126,0.650848,-10.810773,-4.737789
1775856282407087251,1.612762,-11.854043,-2.799603
1775856282409260376,2.163112,-12.457035,5.833702
1775856282411433501,3.378666,-12.074183,9.006584
1775856282413606574,4.264010,-11.576476,10.222138
1775856282415779595,4.795217,-11.045269,11.102697
1775856282417952668,4.029513,-10.351351,12.145967
1775856282420125793,3.321238,-9.509077,12.543177
1775856282422298918,3.172883,-8.164310,12.193824
1775856282424472043,3.153740,-6.996614,11.887543
1775856282426645168,2.880959,-6.144769,11.523834
1775856282428818293,2.148755,-5.484350,10.935200
1775856282430991418,1.268196,-4.929214,10.581061
1775856282433164543,0.540778,-4.455436,9.848858
1775856282435337616,0.181855,-4.063013,8.858230
1775856282437510741,0.177069,-3.522235,8.791230
1775856282439683866,0.468993,-2.861816,9.293723
1775856282441856991,1.158126,-2.249253,10.207782
1775856282444030064,2.057827,-1.708475,11.251052
1775856282446203137,2.679961,-1.483550,12.026326
1775856282448376314,3.081956,-1.574477,12.351750
1775856282450549439,3.297310,-1.861616,12.040684
1775856282452722616,3.345166,-2.239682,11.380264
1775856282454895741,3.306881,-2.612962,10.805987
1775856282457068866,3.263810,-2.871387,10.303494
1775856282459241939,3.244668,-3.081956,9.791430
1775856282461415012,3.177669,-3.192025,9.442079
1775856282463588137,3.096313,-3.282953,9.097511
1775856282465761210,3.024528,-3.321238,8.819944
1775856282467934335,2.957529,-3.373880,8.709874
1775856282470107512,2.909672,-3.431308,8.657232
1775856282472280689,2.833102,-3.469593,8.566305
1775856282474453762,2.751746,-3.531806,8.484949
1775856282476626939,2.656033,-3.641876,8.370093
1775856282478800064,2.584249,-3.771089,8.312666
1775856282480973189,2.498107,-3.890730,8.226524
1775856282483146314,2.411965,-4.000800,8.178668
1775856282485319439,2.340181,-4.120440,8.178668
1775856282487492564,2.244468,-4.206582,8.183454
1775856282489665637,2.167897,-4.278367,8.207381
1775856282491838762,2.100898,-4.345366,8.260024
1775856282494011887,2.048256,-4.412365,8.303095
1775856282496185012,2.009971,-4.455436,8.331808
1775856282498358189,1.971686,-4.512864,8.451449
1775856282500531314,1.962115,-4.579863,8.532805
1775856282502704439,1.966900,-4.618148,8.657232
1775856282504877564,1.990828,-4.685147,8.714660
1775856282507050741,1.952543,-4.728218,8.767303
1775856282509223866,1.928615,-4.756931,8.824730
1775856282511396991,1.919044,-4.804788,8.858230
1775856282513570168,1.919044,-4.833502,8.829515
1775856282515743293,1.909472,-4.843073,8.829515
1775856282517916418,1.899901,-4.871787,8.791230
1775856282520089543,1.914258,-4.862216,8.733803
1775856282522262668,1.919044,-4.862216,8.671589
1775856282524435793,1.962115,-4.804788,8.532805
1775856282526608866,1.947758,-4.795217,8.398808
1775856282528781939,1.971686,-4.766503,8.269595
1775856282530955012,2.014757,-4.737789,8.068598
1775856282533128085,2.053042,-4.680361,7.920243
1775856282535301106,2.129612,-4.599005,7.795816
1775856282537474074,2.096113,-4.575077,7.671390
1775856282539647147,2.163112,-4.565506,7.556534
1775856282541820168,2.249253,-4.517649,7.489535
1775856282543993189,2.344966,-4.455436,7.345965
1775856282546166262,2.397608,-4.412365,7.350751
1775856282548339283,2.459822,-4.398008,7.441679
1775856282550512304,2.498107,-4.378865,7.479964
1775856282552685376,2.569891,-4.359723,7.422536
1775856282554858449,2.593820,-4.331009,7.470392
1775856282557031522,2.632105,-4.311866,7.637890
1775856282559204595,2.627319,-4.307081,7.786245
1775856282561377668,2.632105,-4.297510,7.891529
1775856282563550793,2.641676,-4.264010,7.886744
1775856282565723866,2.593820,-4.302295,8.044670
1775856282567896887,2.560320,-4.311866,8.207381
1775856282570070012,2.517249,-4.307081,8.274381
1775856282572243085,2.478964,-4.321438,8.240881
1775856282574416210,2.498107,-4.307081,8.078169
1775856282576589335,2.421536,-4.331009,8.030313
1775856282578762460,2.407180,-4.340580,8.011170
1775856282580935585,2.378466,-4.374080,7.920243
1775856282583108710,2.368894,-4.369294,7.738389
1775856282585281731,2.340181,-4.345366,7.561319
1775856282587454856,2.344966,-4.335794,7.508677
1775856282589627929,2.359323,-4.302295,7.494320
1775856282591801001,2.383251,-4.278367,7.499106
1775856282593974074,2.407180,-4.259224,7.374680
1775856282596147147,2.426322,-4.225725,7.360322
1775856282598320168,2.450250,-4.240082,7.676175
1775856282600493241,2.459822,-4.302295,7.953743
1775856282602666314,2.502892,-4.273581,8.097312
1775856282604839335,2.512464,-4.278367,8.293523
1775856282607012408,2.522035,-4.321438,8.609376
1775856282609185533,2.526821,-4.402794,8.872586
1775856282611358606,2.550749,-4.465007,9.035298
1775856282613531679,2.555535,-4.642076,9.116654
1775856282615704804,2.689533,-4.579863,9.131011
1775856282617877876,2.723032,-4.622933,9.011370
1775856282620050949,2.632105,-4.646862,8.930014
1775856282622224074,2.660819,-4.756931,8.944371
1775856282624397095,2.766103,-4.800002,8.906086
1775856282626570168,2.651248,-4.843073,8.848659
1775856282628743293,2.732604,-4.867001,8.714660
1775856282630916418,2.641676,-4.881358,8.604590
1775856282633089543,2.665604,-4.876573,8.403593
1775856282635262616,2.617748,-5.005785,8.350951
1775856282637435689,2.593820,-4.991428,8.303095
1775856282639608762,2.435894,-5.034499,8.255239
1775856282641781835,2.440679,-5.044070,8.145168
1775856282643954960,2.359323,-5.096712,8.149954
1775856282646128033,2.364109,-5.144569,8.054241
1775856282648301106,2.411965,-5.173283,7.925029
1775856282650474231,2.421536,-5.268995,7.829316
1775856282652647356,2.431108,-5.340780,7.728817
1775856282654820429,2.589034,-5.422136,7.642675
1775856282656993554,2.550749,-5.503492,7.604390
1775856282659166679,2.502892,-5.603991,7.594819
1775856282661339856,2.565106,-5.647061,7.527820
1775856282663512981,2.636891,-5.661418,7.417750
1775856282665686054,2.723032,-5.704489,7.326823
1775856282667859126,2.790031,-5.737988,7.255038
1775856282670032251,2.880959,-5.781060,7.144969
1775856282672205376,2.904887,-5.862415,7.001399
1775856282674378449,3.024528,-5.934200,6.905686
1775856282676551574,2.943172,-5.958128,6.905686
1775856282678724699,2.962314,-6.005985,6.867401
1775856282680897772,3.005385,-6.020342,6.738189
1775856282683070897,3.029314,-6.063413,6.685546
1775856282685244022,3.043670,-6.096912,6.628119
1775856282687417147,3.053242,-6.135197,6.632905
1775856282689590168,3.077170,-6.197411,6.642476
1775856282691763241,3.139383,-6.245267,6.666404
1775856282693936314,3.029314,-6.245267,6.695118
1775856282696109439,2.957529,-6.355337,6.771688
1775856282698282512,2.938386,-6.384051,6.809973
1775856282700455585,3.005385,-6.436693,6.829116
1775856282702628710,2.914458,-6.546763,6.905686
1775856282704801731,2.857030,-6.479764,6.872187
1775856282706974856,2.842673,-6.498906,6.800402
1775856282709147929,2.790031,-6.393622,6.742974
1775856282711321001,2.799603,-6.273981,6.752545
1775856282713494126,2.708675,-6.120841,6.886544
1775856282715667199,2.675176,-6.149554,6.881758
1775856282717840272,2.723032,-6.226124,6.824330
1775856282720013397,2.593820,-6.082555,6.805188
1775856282722186470,2.584249,-6.068198,6.776474
1775856282724359595,2.622534,-6.077769,6.680761
1775856282726532668,2.488536,-6.106483,6.623333
1775856282728705793,2.364109,-6.139983,6.699903
1775856282730878866,2.388037,-6.001199,6.709475
1775856282733051939,2.349752,-6.001199,6.580262
1775856282735225064,2.244468,-5.948557,6.570691
1775856282737398189,2.249253,-5.910272,6.613762
1775856282739571314,2.254039,-5.929415,6.642476
1775856282741744387,2.287539,-5.958128,6.652047
1775856282743917512,2.388037,-6.087341,6.675975
1775856282746090637,2.311467,-6.082555,6.709475
1775856282748263710,2.139184,-6.034698,6.699903
1775856282750436783,2.148755,-5.867201,6.766902
1775856282752609804,1.962115,-5.871987,6.733403
1775856282754782929,1.938186,-5.886343,6.699903
1775856282756956001,1.995614,-5.934200,6.637690
1775856282759129074,1.942972,-5.900701,6.604190
1775856282761302147,1.966900,-6.020342,6.546763
1775856282763475272,2.067399,-5.929415,6.384051
1775856282765648397,2.172683,-5.962914,6.226124
1775856282767821470,1.459622,-6.144769,6.331409
1775856282769994543,1.584049,-6.044270,6.120841
1775856282772167616,1.737189,-6.187840,6.173482
1775856282774340689,2.220539,-5.948557,6.139983
1775856282776513710,2.239682,-5.862415,6.178268
1775856282778686835,2.148755,-5.891129,6.178268
1775856282780859908,2.029114,-5.948557,6.259624
1775856282783032981,1.995614,-5.991628,6.321837
1775856282785206054,2.005185,-6.082555,6.340980
1775856282787379283,1.919044,-6.025127,6.460621
1775856282789552408,1.842473,-6.206982,6.317052
1775856282791725481,1.818545,-6.245267,6.379265
1775856282793898606,1.952543,-6.293124,6.546763
1775856282796071679,1.584049,-6.455835,6.675975
1775856282798244751,2.029114,-6.369694,6.336195
1775856282800417876,2.378466,-6.431907,6.297909
1775856282802590949,2.230111,-6.489335,6.317052
1775856282804764022,2.043471,-6.541977,6.331409
1775856282806937095,1.981257,-6.513263,6.345766
1775856282809110168,1.966900,-6.561120,6.326623
1775856282811283241,1.981257,-6.632905,6.259624
1775856282813456314,1.966900,-6.652047,6.221339
1775856282815629439,2.053042,-6.656833,6.331409
1775856282817802512,1.909472,-6.805188,6.192625
1775856282819975689,1.813760,-6.924829,6.058627
1775856282822148710,1.818545,-7.073184,5.943771
1775856282824321731,1.875973,-7.116254,5.910272
1775856282826494751,1.899901,-7.130611,5.848059
1775856282828667824,1.909472,-7.125826,5.809773
1775856282830840949,1.909472,-7.116254,5.771488
1775856282833014074,1.885544,-7.101898,5.690132
1775856282835187199,1.871187,-7.097112,5.666204
1775856282837360220,1.866402,-7.077970,5.647061
1775856282839533345,1.875973,-7.049255,5.637490
1775856282841706418,1.866402,-7.025327,5.642276
1775856282843879543,1.866402,-7.001399,5.709275
1775856282846052668,1.871187,-6.958328,5.785845
1775856282848225793,1.856830,-6.929615,5.867201
1775856282850398918,1.837688,-6.910472,6.001199
1775856282852572043,1.818545,-6.867401,6.096912
1775856282854745220,1.818545,-6.829116,6.211768
1775856282856918345,1.799403,-6.776474,6.278767
1775856282859091418,1.765903,-6.699903,6.350551
1775856282861264595,1.761117,-6.637690,6.441479
1775856282863437668,1.727618,-6.599405,6.546763
1775856282865610741,1.713261,-6.537191,6.647261
1775856282867783866,1.684547,-6.484550,6.699903
1775856282869956939,1.631905,-6.446264,6.771688
1775856282872130012,1.612762,-6.422336,6.848258
1775856282874303137,1.627119,-6.345766,6.910472
1775856282876476210,1.526621,-6.398408,7.054041
1775856282878649283,1.502693,-6.393622,7.144969
1775856282880822408,1.569692,-6.302695,7.188039
1775856282882995481,1.545763,-6.364908,7.312466
1775856282885168554,1.588834,-6.336195,7.360322
1775856282887341626,1.526621,-6.417551,7.432107
1775856282889514751,1.603191,-6.379265,7.408179
1775856282891687772,1.646262,-6.369694,7.374680
1775856282893860845,1.727618,-6.345766,7.422536
1775856282896033970,1.861616,-6.297909,7.470392
1775856282898207095,1.837688,-6.364908,7.527820
1775856282900380168,1.919044,-6.364908,7.542177
1775856282902553293,2.038685,-6.364908,7.566105
1775856282904726366,2.148755,-6.355337,7.551748
1775856282906899439,2.263610,-6.321837,7.542177
1775856282909072512,2.330609,-6.312266,7.484749
1775856282911245585,2.469393,-6.240481,7.422536
1775856282913418658,2.560320,-6.202196,7.374680
