time,seconds_elapsed,z,y,x
1773149337629463600,0.085463623046875,-0.5983734130859375,-0.268951416015625,0.0517730712890625
1773149337639499500,0.09549951171875,-0.6363983154296875,-0.2147369384765625,0.049041748046875
1773149337649535500,0.105535400390625,-0.680755615234375,-0.1634368896484375,0.045745849609375
1773149337659571500,0.115571533203125,-0.6471710205078125,-0.1320648193359375,0.0390625
1773149337669607700,0.125607666015625,-0.6789703369140625,-0.0850067138671875,0.014923095703125
1773149337679643600,0.1356435546875,-0.9654998779296875,0.0112152099609375,-0.01324462890625
1773149337689679600,0.1456796875,-1.3267059326171875,0.137359619140625,0.01934814453125
1773149337699716600,0.155716552734375,-1.233001708984375,0.179443359375,0.1017303466796875
1773149337709752600,0.165752685546875,-1.0709991455078125,0.170684814453125,0.109832763671875
1773149337719788500,0.17578857421875,-0.8015899658203125,0.18096923828125,0.169769287109375
1773149337729824500,0.185824462890625,-0.6104583740234375,0.184783935546875,0.3218994140625
1773149337739860500,0.195860595703125,-1.0364990234375,0.1844024658203125,0.3528900146484375
1773149337749896400,0.205896484375,-1.3826904296875,0.1005096435546875,0.4076385498046875
1773149337759932400,0.215932373046875,-1.2657318115234375,-0.0882568359375,0.478912353515625
1773149337769968400,0.225968505859375,-1.1495361328125,-0.15594482421875,0.506683349609375
1773149337780004600,0.236004638671875,-1.280364990234375,-0.123870849609375,0.520416259765625
1773149337790040600,0.24604052734375,-1.3545379638671875,-0.1371612548828125,0.6157989501953125
1773149337800076500,0.25607666015625,-1.0748748779296875,-0.12066650390625,0.49853515625
1773149337810112500,0.266112548828125,-0.997589111328125,-0.117401123046875,0.3682708740234375
1773149337820149500,0.2761494140625,-0.9422607421875,-0.114593505859375,0.4219970703125
1773149337830185500,0.286185546875,-0.863494873046875,-0.1074676513671875,0.4249420166015625
1773149337840221700,0.2962216796875,-0.790252685546875,-0.03887939453125,0.4639434814453125
1773149337850257700,0.306257568359375,-0.8467559814453125,-0.0166778564453125,0.5920867919921875
1773149337860293600,0.316293701171875,-1.0814971923828125,-0.089447021484375,0.659423828125
1773149337870329600,0.32632958984375,-1.0856781005859375,-0.1611785888671875,0.660919189453125
1773149337880365600,0.336365478515625,-1.0514373779296875,-0.163421630859375,0.5276947021484375
1773149337890401500,0.346401611328125,-0.8129119873046875,-0.1341705322265625,0.408233642578125
1773149337900437500,0.3564375,-0.61614990234375,-0.06634521484375,0.356170654296875
1773149337910473500,0.366473388671875,-0.725494384765625,-0.02587890625,0.409423828125
1773149337920509700,0.376509765625,-0.7938995361328125,-0.093536376953125,0.471588134765625
1773149337930546400,0.38654638671875,-1.0112457275390625,-0.1898040771484375,0.427276611328125
1773149337940582400,0.39658251953125,-0.9016265869140625,-0.1712799072265625,0.3662872314453125
1773149337950618600,0.40661865234375,-0.88543701171875,-0.14251708984375,0.35028076171875
1773149337960654600,0.416654541015625,-0.869903564453125,-0.0528717041015625,0.285552978515625
1773149337970690600,0.426690673828125,-0.838836669921875,0.073944091796875,0.13775634765625
1773149337980726500,0.4367265625,-0.820770263671875,0.1304168701171875,-0.05615234375
1773149337990762500,0.446762451171875,-0.8426513671875,0.168853759765625,-0.163482666015625
1773149338000798500,0.456798583984375,-0.91571044921875,0.2028961181640625,-0.1411895751953125
1773149338010834400,0.46683447265625,-1.1881866455078125,0.2106475830078125,0.057403564453125
1773149338020870400,0.476870361328125,-1.0496673583984375,0.1402587890625,0.2953033447265625
1773149338030906400,0.48690625,-0.9889984130859375,-0.0157928466796875,0.455047607421875
1773149338040943600,0.496943603515625,-1.001312255859375,-0.1060943603515625,0.495697021484375
1773149338050979600,0.5069794921875,-1.012786865234375,-0.0974578857421875,0.48126220703125
1773149338061015600,0.517015625,-1.036834716796875,-0.123870849609375,0.4951171875
1773149338071051500,0.527051513671875,-1.116363525390625,-0.20623779296875,0.508392333984375
1773149338081087500,0.53708740234375,-1.2064361572265625,-0.221649169921875,0.524749755859375
1773149338091123500,0.54712353515625,-1.223724365234375,-0.202972412109375,0.546539306640625
1773149338101159700,0.55715966796875,-1.1985931396484375,-0.207000732421875,0.597991943359375
1773149338111195600,0.567195556640625,-1.149444580078125,-0.198699951171875,0.6004180908203125
1773149338121231600,0.577231689453125,-1.074981689453125,-0.1554718017578125,0.546142578125
1773149338131267600,0.587267578125,-1.0549774169921875,-0.1768798828125,0.464111328125
1773149338141304600,0.5973046875,-1.0002288818359375,-0.1532440185546875,0.36767578125
1773149338151340500,0.607340576171875,-0.948516845703125,-0.0910491943359375,0.3624420166015625
1773149338161376500,0.61737646484375,-0.91351318359375,-0.11907958984375,0.3074951171875
1773149338171412500,0.62741259765625,-0.8638458251953125,-0.112518310546875,0.20318603515625
1773149338181448400,0.637448486328125,-0.81622314453125,-0.049957275390625,0.11260986328125
1773149338191484400,0.647484375,-0.78515625,-0.0100250244140625,0.043243408203125
1773149338201520400,0.657520263671875,-0.60821533203125,0.0239105224609375,0.081451416015625
1773149338211556400,0.667556396484375,-0.61651611328125,0.104766845703125,0.0861968994140625
1773149338221592300,0.67759228515625,-0.675994873046875,0.21014404296875,0.0110321044921875
1773149338231629600,0.687629638671875,-0.723663330078125,0.2087554931640625,-0.111663818359375
1773149338241665500,0.69766552734375,-0.8853759765625,0.181915283203125,-0.2342681884765625
1773149338251701500,0.707701416015625,-0.724761962890625,0.072967529296875,-0.2865753173828125
1773149338261737500,0.717737548828125,-0.7725830078125,0.0375823974609375,-0.26220703125
1773149338271773700,0.727773681640625,-0.8464813232421875,0.2875518798828125,-0.18701171875
1773149338281809700,0.7378095703125,-0.5948333740234375,0.5337677001953125,-0.17474365234375
1773149338291845600,0.747845703125,-0.51495361328125,0.6146240234375,-0.1816558837890625
1773149338301881600,0.757881591796875,-0.37835693359375,0.626983642578125,-0.227813720703125
1773149338311917600,0.76791748046875,-0.25799560546875,0.6925201416015625,-0.2513427734375
1773149338321954600,0.77795458984375,-0.15863037109375,0.8360595703125,-0.231109619140625
1773149338331990500,0.787990478515625,0.0137786865234375,0.9992523193359375,-0.228057861328125
1773149338342022000,0.79802197265625,0.2139434814453125,1.1479949951171875,-0.1468963623046875
1773149338352057900,0.808057861328125,0.306793212890625,1.2812957763671875,-0.1136932373046875
1773149338362093800,0.81809375,0.19818115234375,1.3708953857421875,-0.086029052734375
1773149338372129800,0.8281298828125,0.0839996337890625,1.4742279052734375,0.011077880859375
1773149338382166000,0.838166015625,-0.03717041015625,1.554534912109375,0.1074371337890625
1773149338392202000,0.848201904296875,-0.2169342041015625,1.4878997802734375,0.1336822509765625
1773149338402238000,0.858238037109375,-0.4762115478515625,1.5138702392578125,0.163238525390625
1773149338412275000,0.86827490234375,-0.7508392333984375,1.6156005859375,0.3189544677734375
1773149338422311000,0.878310791015625,-0.8246002197265625,1.6645660400390625,0.5684661865234375
1773149338432347000,0.888346923828125,-0.7767181396484375,1.7722625732421875,0.89288330078125
1773149338442382800,0.8983828125,-0.658294677734375,1.9438018798828125,1.1435089111328125
1773149338452418800,0.908418701171875,-0.571746826171875,2.0493621826171875,1.3829193115234375
1773149338462454800,0.918454833984375,-0.5854034423828125,2.0557403564453125,1.7198638916015625
1773149338472490800,0.92849072265625,-0.8068695068359375,1.98858642578125,1.91796875
1773149338482527000,0.93852685546875,-1.353546142578125,1.9202423095703125,2.109222412109375
1773149338492564000,0.94856396484375,-1.749542236328125,1.861846923828125,2.17657470703125
1773149338502600000,0.958599853515625,-1.7895660400390625,1.732025146484375,2.123992919921875
1773149338512636000,0.968635986328125,-1.8516082763671875,1.585693359375,1.8817138671875
1773149338522671900,0.978671875,-2.217620849609375,1.4289703369140625,1.56353759765625
1773149338532707800,0.988707763671875,-1.777069091796875,1.17572021484375,1.304443359375
1773149338542743800,0.998743896484375,-1.333221435546875,1.0941162109375,1.020538330078125
1773149338552780000,1.008780029296875,-1.1816864013671875,1.2440032958984375,0.883636474609375
1773149338562816000,1.01881591796875,-0.7736968994140625,1.159637451171875,0.9302520751953125
1773149338572852700,1.028852783203125,-0.479736328125,1.0801849365234375,0.9999542236328125
1773149338582889000,1.038888916015625,-0.302520751953125,1.1067657470703125,1.0099639892578125
1773149338592925000,1.048925048828125,-0.2171478271484375,1.155181884765625,0.900238037109375
1773149338602961000,1.0589609375,-0.15057373046875,1.118255615234375,0.808624267578125
1773149338612996900,1.068996826171875,-0.12078857421875,1.1183624267578125,0.6781005859375
1773149338623032800,1.07903271484375,-0.1934967041015625,1.0045013427734375,0.5478668212890625
1773149338633068800,1.08906884765625,-0.253021240234375,0.91107177734375,0.430633544921875
1773149338643104800,1.099104736328125,-0.2580718994140625,0.8741607666015625,0.2552947998046875
1773149338653142000,1.10914208984375,-0.150970458984375,0.8320465087890625,0.1011199951171875
1773149338663178000,1.119177978515625,-0.11248779296875,0.82550048828125,0.0284271240234375
1773149338673214000,1.1292138671875,-0.0830841064453125,0.6722869873046875,0.111785888671875
1773149338683250000,1.13925,0.2062530517578125,0.426239013671875,0.211883544921875
1773149338693286000,1.149285888671875,0.1580963134765625,0.3624420166015625,0.01416015625
1773149338703321900,1.15932177734375,0.1000823974609375,0.3289794921875,-0.119537353515625
1773149338713357800,1.16935791015625,0.1145477294921875,0.2533721923828125,-0.2025299072265625
1773149338723393800,1.179393798828125,0.1783599853515625,0.2686767578125,-0.2605743408203125
1773149338733430800,1.1894306640625,0.12896728515625,0.26641845703125,-0.2733917236328125
1773149338743466800,1.199466796875,0.0732421875,0.225738525390625,-0.1920013427734375
1773149338753502700,1.209502685546875,0.15374755859375,0.34649658203125,-0.1094207763671875
1773149338763539000,1.2195390625,0.2751617431640625,0.399200439453125,0.0235137939453125
1773149338773575000,1.229574951171875,0.3392486572265625,0.478240966796875,0.0243072509765625
1773149338783611000,1.23961083984375,0.3609771728515625,0.607269287109375,0.0610504150390625
1773149338793646800,1.249646728515625,0.37799072265625,0.722381591796875,0.1435546875
1773149338803684000,1.25968408203125,0.361968994140625,0.7039642333984375,0.2374725341796875
1773149338813720000,1.269719970703125,0.354248046875,0.698577880859375,0.2870941162109375
1773149338823756000,1.279756103515625,0.2397918701171875,0.8117218017578125,0.389923095703125
1773149338833792000,1.2897919921875,0.185638427734375,0.887481689453125,0.482879638671875
1773149338843828000,1.299827880859375,0.095703125,0.8636627197265625,0.5519561767578125
1773149338853864000,1.309864013671875,0.03912353515625,0.861541748046875,0.633697509765625
1773149338863900000,1.31989990234375,-0.076019287109375,0.9550323486328125,0.8883209228515625
1773149338873936000,1.329935791015625,-0.0952911376953125,1.056243896484375,1.23345947265625
1773149338883972900,1.339972900390625,-0.198455810546875,1.2250823974609375,1.521881103515625
1773149338894008800,1.3500087890625,-0.1443328857421875,1.3185577392578125,1.6744232177734375
1773149338904044800,1.360044921875,0.0491485595703125,1.1728668212890625,1.3560333251953125
1773149338914080800,1.370080810546875,0.101226806640625,1.2001495361328125,0.78228759765625
1773149338924116700,1.38011669921875,0.0070343017578125,1.2554473876953125,0.3583526611328125
1773149338934153000,1.390153076171875,-0.1064910888671875,1.06903076171875,0.0577239990234375
1773149338944189000,1.40018896484375,-0.0186004638671875,0.9786224365234375,-0.209228515625
1773149338954226000,1.410225830078125,0.006195068359375,0.9063568115234375,-0.1628265380859375
1773149338964262000,1.420261962890625,0.081695556640625,0.85955810546875,-0.0404052734375
1773149338974298000,1.430298095703125,0.1042938232421875,0.89190673828125,0.091949462890625
1773149338984334000,1.440333984375,0.1570281982421875,0.875,0.279083251953125
1773149338994370000,1.4503701171875,0.1330108642578125,0.9205474853515625,0.5054473876953125
1773149339004406000,1.460406005859375,0.260223388671875,1.09771728515625,0.6672821044921875
1773149339014442000,1.47044189453125,0.5077972412109375,1.214111328125,0.7773284912109375
1773149339024479000,1.48047900390625,0.3688507080078125,1.046905517578125,0.9874420166015625
1773149339034515000,1.490514892578125,0.016021728515625,0.72430419921875,1.4322662353515625
1773149339044551000,1.500551025390625,-0.263916015625,0.33648681640625,2.359619140625
1773149339054587000,1.5105869140625,0.029449462890625,1.0974884033203125,2.0463714599609375
1773149339064622800,1.520622802734375,0.4697265625,1.2905120849609375,1.6726531982421875
1773149339074658800,1.530658935546875,0.7161712646484375,1.4329071044921875,1.1441650390625
1773149339084694800,1.54069482421875,0.5700225830078125,1.35406494140625,0.424163818359375
1773149339094731800,1.550731689453125,0.220611572265625,0.741668701171875,0.3467559814453125
1773149339104767700,1.560767822265625,-0.1279144287109375,0.5883941650390625,0.3367919921875
1773149339114803700,1.5708037109375,-0.2380828857421875,0.6970672607421875,-0.1929473876953125
1773149339124839700,1.580839599609375,-0.1925506591796875,0.62255859375,-0.6174468994140625
1773149339134876000,1.5908759765625,-0.295745849609375,0.644439697265625,-0.7564697265625
1773149339144912100,1.600912109375,-0.265289306640625,0.659454345703125,-0.5522003173828125
1773149339154948900,1.610948974609375,-0.14990234375,0.460296630859375,-0.26483154296875
1773149339164984800,1.62098486328125,-0.196807861328125,0.5483551025390625,-0.02734375
1773149339175021000,1.63102099609375,-0.18133544921875,0.597076416015625,0.2562713623046875
1773149339185057000,1.64105712890625,-0.159088134765625,0.4560699462890625,0.543060302734375
1773149339195093000,1.651093017578125,-0.1807708740234375,0.34783935546875,0.6686248779296875
1773149339205129000,1.66112890625,-0.236785888671875,0.36505126953125,0.683319091796875
1773149339215165000,1.6711650390625,-0.2527313232421875,0.3709564208984375,0.66253662109375
1773149339225202000,1.681201904296875,-0.2096710205078125,0.376739501953125,0.7161102294921875
1773149339235238000,1.69123779296875,-0.061370849609375,0.3228759765625,0.8244781494140625
1773149339245273900,1.70127392578125,0.0191192626953125,0.44940185546875,0.929351806640625
1773149339255309800,1.711309814453125,0.14385986328125,0.6982421875,0.9628448486328125
1773149339265345800,1.721345703125,0.3223114013671875,0.65435791015625,0.91552734375
1773149339275381800,1.7313818359375,0.3033599853515625,0.5941619873046875,0.814788818359375
1773149339285419000,1.7414189453125,0.09033203125,0.816070556640625,0.7061920166015625
1773149339295455000,1.751455078125,-0.0534820556640625,0.81500244140625,0.626708984375
1773149339305491000,1.761490966796875,-0.2123870849609375,0.7914581298828125,0.6237335205078125
1773149339315527000,1.77152685546875,-0.283477783203125,0.8423919677734375,0.615570068359375
1773149339325563000,1.78156298828125,-0.27581787109375,1.0555572509765625,0.5606231689453125
1773149339335598800,1.791598876953125,-0.19708251953125,1.1187286376953125,0.56231689453125
1773149339345639700,1.8016396484375,-0.2995452880859375,1.1855010986328125,0.5244140625
1773149339355676700,1.8116767578125,-0.27081298828125,1.209136962890625,0.461181640625
1773149339365712600,1.821712646484375,-0.2942352294921875,1.2865753173828125,0.5602874755859375
1773149339375748600,1.83174853515625,-0.3539276123046875,1.25189208984375,0.780914306640625
1773149339385784600,1.84178466796875,-0.1848297119140625,1.136199951171875,0.91632080078125
1773149339395820500,1.851820556640625,-0.0492401123046875,1.184906005859375,0.82452392578125
1773149339405856500,1.8618564453125,-0.139495849609375,1.123382568359375,0.6528472900390625
1773149339415893800,1.871893798828125,-0.0943603515625,1.201751708984375,0.5406494140625
1773149339425929700,1.8819296875,-0.1148681640625,1.000518798828125,0.34527587890625
1773149339435965700,1.891965576171875,-0.1614837646484375,0.7914276123046875,0.2105255126953125
1773149339446001700,1.902001708984375,-0.1997222900390625,0.78900146484375,0.231903076171875
1773149339456037600,1.91203759765625,-0.2078857421875,0.901031494140625,0.298095703125
1773149339466073900,1.922073974609375,-0.1465911865234375,1.0692596435546875,0.300140380859375
1773149339476110600,1.932110595703125,-0.1286468505859375,1.112884521484375,0.30865478515625
1773149339486146800,1.942146728515625,-0.09686279296875,0.966461181640625,0.2589569091796875
1773149339496182800,1.952182861328125,-0.0769500732421875,0.7678375244140625,0.31341552734375
1773149339506218800,1.96221875,0.0002899169921875,0.769866943359375,0.439422607421875
1773149339516254700,1.972254638671875,-0.1051025390625,0.8587188720703125,0.6289825439453125
1773149339526290700,1.982290771484375,-0.2771759033203125,0.980804443359375,0.823486328125
1773149339536327700,1.99232763671875,-0.4444580078125,1.115753173828125,0.992431640625
1773149339546363600,2.00236376953125,-0.5419158935546875,1.1800689697265625,1.0990142822265625
1773149339556399600,2.012399658203125,-0.448333740234375,1.0436248779296875,1.1366119384765625
1773149339566435600,2.022435546875,-0.3482208251953125,0.87115478515625,1.0664520263671875
1773149339576471800,2.032471923828125,-0.3710479736328125,0.88861083984375,0.8970184326171875
1773149339586507800,2.0425078125,-0.2698211669921875,0.756927490234375,0.7306976318359375
1773149339596544800,2.052544677734375,-0.2537689208984375,0.541168212890625,0.5975799560546875
1773149339606580700,2.062580810546875,-0.3999176025390625,0.3795928955078125,0.5316619873046875
1773149339616616700,2.07261669921875,-0.4032745361328125,0.341094970703125,0.48272705078125
1773149339626652700,2.082652587890625,-0.2386016845703125,0.4156646728515625,0.35064697265625
1773149339636688600,2.092688720703125,-0.1336517333984375,0.4795074462890625,0.22064208984375
1773149339646724600,2.102724609375,-0.1273193359375,0.566802978515625,0.119537353515625
1773149339656761600,2.11276171875,-0.18218994140625,0.5730438232421875,0.095184326171875
1773149339666797600,2.122797607421875,-0.27264404296875,0.652923583984375,0.250732421875
1773149339676833500,2.13283349609375,-0.2257537841796875,0.7484283447265625,0.2429351806640625
1773149339686869500,2.142869384765625,-0.2423248291015625,0.7597503662109375,0.2554168701171875
1773149339696905700,2.15290576171875,-0.278228759765625,0.8223724365234375,0.28533935546875
1773149339706941700,2.162941650390625,-0.2950439453125,0.8481597900390625,0.2670135498046875
1773149339716978700,2.172978759765625,-0.39117431640625,0.9477386474609375,0.2470550537109375
1773149339727014700,2.1830146484375,-0.3059844970703125,1.0025482177734375,0.17620849609375
1773149339737051000,2.19305078125,-0.180328369140625,1.0550537109375,0.1705474853515625
1773149339747086800,2.2030869140625,-0.0294036865234375,1.0499267578125,0.2100372314453125
1773149339757122800,2.213122802734375,-0.03857421875,1.1012420654296875,0.294952392578125
1773149339767159800,2.223159912109375,-0.128173828125,1.23248291015625,0.3548736572265625
1773149339777195800,2.23319580078125,-0.1216583251953125,1.3214111328125,0.3380126953125
1773149339787231700,2.243231689453125,-0.130096435546875,1.2624053955078125,0.349212646484375
1773149339797267700,2.253267822265625,-0.1539459228515625,0.8401641845703125,0.4724273681640625
1773149339807303700,2.2633037109375,-0.4089508056640625,0.7129974365234375,0.4399871826171875
1773149339817339600,2.273339599609375,-0.5759735107421875,0.7418212890625,0.2903289794921875
1773149339827376600,2.283376708984375,-0.6058807373046875,0.7635650634765625,0.225189208984375
1773149339837412600,2.29341259765625,-0.5234832763671875,0.826171875,0.1896209716796875
1773149339847448600,2.303448486328125,-0.3712158203125,0.7803955078125,0.2005157470703125
1773149339857484500,2.313484619140625,-0.210662841796875,0.8638153076171875,0.16650390625
1773149339867520800,2.323520751953125,-0.04022216796875,0.9553070068359375,0.149139404296875
1773149339877556700,2.333556640625,0.0750885009765625,0.91119384765625,0.246063232421875
1773149339887593700,2.34359375,0.242584228515625,0.8598175048828125,0.3243560791015625
1773149339897629700,2.353629638671875,0.366546630859375,0.883819580078125,0.296417236328125
1773149339907665700,2.363665771484375,0.2536468505859375,0.9775543212890625,0.309814453125
1773149339917701600,2.37370166015625,0.0901336669921875,1.006561279296875,0.3346405029296875
1773149339927737600,2.383737548828125,-0.098785400390625,0.999847412109375,0.353729248046875
1773149339937773800,2.39377392578125,-0.193389892578125,0.6383209228515625,0.29583740234375
1773149339947810600,2.403810546875,0.058013916015625,0.43701171875,0.2949981689453125
1773149339957846500,2.413846435546875,0.3065032958984375,0.5756072998046875,0.36126708984375
1773149339967882800,2.4238828125,0.2468719482421875,0.9264984130859375,0.3369140625
1773149339977918700,2.433918701171875,0.0758819580078125,1.308258056640625,0.2375946044921875
1773149339987954700,2.44395458984375,-0.046783447265625,1.5550384521484375,0.160308837890625
1773149339997991700,2.45399169921875,-0.1986541748046875,1.6036224365234375,0.1428985595703125
1773149340008028000,2.46402783203125,-0.1517486572265625,1.42596435546875,0.155181884765625
1773149340018064000,2.47406396484375,-0.063720703125,1.3231201171875,0.1924896240234375
1773149340028099800,2.484099853515625,-0.084686279296875,1.206024169921875,0.140045166015625
1773149340038135800,2.4941357421875,-0.2147216796875,0.8210296630859375,-0.0100250244140625
1773149340048171800,2.504171875,-0.39373779296875,0.6960906982421875,-0.0402374267578125
1773149340058208800,2.514208740234375,-0.4701385498046875,0.8905029296875,-0.090545654296875
1773149340068244700,2.52424462890625,-0.4301605224609375,0.9087066650390625,-0.1683807373046875
1773149340078280700,2.53428076171875,-0.186676025390625,1.1316986083984375,-0.2597808837890625
1773149340088316700,2.544316650390625,0.0085296630859375,1.3442535400390625,-0.3414306640625
1773149340098352600,2.5543525390625,0.12005615234375,1.3488311767578125,-0.345458984375
1773149340108389600,2.5643896484375,0.080596923828125,1.1933135986328125,-0.2340087890625
1773149340118425600,2.574425537109375,-0.0559844970703125,1.0127410888671875,-0.1324615478515625
1773149340128461600,2.584461669921875,-0.112762451171875,1.000640869140625,-0.1625213623046875
1773149340138497500,2.59449755859375,-0.0428009033203125,1.101898193359375,-0.179290771484375
1773149340148533500,2.604533447265625,0.0077056884765625,1.011566162109375,-0.11358642578125
1773149340158570800,2.61457080078125,0.13623046875,0.9558563232421875,-0.2144622802734375
1773149340168606700,2.624606689453125,0.21917724609375,0.9498291015625,-0.26617431640625
1773149340178642700,2.634642578125,0.2754364013671875,0.9429168701171875,-0.39349365234375
1773149340188678700,2.6446787109375,0.3124237060546875,1.0613250732421875,-0.455322265625
1773149340198714600,2.654714599609375,0.2664642333984375,1.1572265625,-0.5003814697265625
1773149340208750800,2.664750732421875,0.2023773193359375,1.137115478515625,-0.52081298828125
1773149340218787600,2.67478759765625,0.170989990234375,1.0224151611328125,-0.4387969970703125
1773149340228823600,2.684823486328125,0.172027587890625,0.8468170166015625,-0.447784423828125
1773149340238859800,2.69485986328125,0.21307373046875,0.934234619140625,-0.472991943359375
1773149340248895700,2.704895751953125,0.1788787841796875,1.173828125,-0.541412353515625
1773149340258931700,2.714931640625,0.1580810546875,1.423583984375,-0.5337677001953125
1773149340268968700,2.72496875,0.07940673828125,1.3861083984375,-0.5324554443359375
1773149340279005000,2.7350048828125,0.12353515625,1.3084564208984375,-0.4664459228515625
1773149340289041000,2.745041015625,0.1746673583984375,1.012725830078125,-0.428985595703125
1773149340299076900,2.755076904296875,0.0878448486328125,0.5289154052734375,-0.3396759033203125
1773149340309112800,2.76511279296875,0.0407257080078125,0.3103790283203125,-0.22119140625
1773149340319148800,2.775148681640625,0.14794921875,0.39154052734375,-0.31610107421875
1773149340329185800,2.785185791015625,0.180419921875,0.842498779296875,-0.396453857421875
1773149340339221800,2.7952216796875,0.1402587890625,1.057891845703125,-0.42889404296875
1773149340349253600,2.805253662109375,0.1551055908203125,0.9977569580078125,-0.400115966796875
1773149340359289600,2.81528955078125,0.1318359375,0.864105224609375,-0.360198974609375
1773149340369325600,2.82532568359375,0.170135498046875,0.80621337890625,-0.2914886474609375
1773149340379362600,2.835362548828125,0.1623687744140625,0.808563232421875,-0.2998199462890625
1773149340389398500,2.8453984375,0.116424560546875,0.824981689453125,-0.3072509765625
1773149340399434500,2.8554345703125,0.05596923828125,0.770416259765625,-0.3008880615234375
1773149340409470500,2.865470458984375,-0.029632568359375,0.673187255859375,-0.2893524169921875
1773149340419506400,2.87550634765625,-0.0810699462890625,0.6292572021484375,-0.275634765625
1773149340429543700,2.885543701171875,-0.0769805908203125,0.7567138671875,-0.3022918701171875
1773149340439579600,2.89557958984375,-0.0146331787109375,0.8711395263671875,-0.3553314208984375
1773149340449615600,2.90561572265625,0.018585205078125,0.94329833984375,-0.3711700439453125
1773149340459651600,2.915651611328125,0.0692291259765625,0.9942474365234375,-0.3985595703125
1773149340469687800,2.925687744140625,0.0834808349609375,0.9018096923828125,-0.4134674072265625
1773149340479724500,2.935724609375,0.0750885009765625,0.7386627197265625,-0.4113006591796875
1773149340489760500,2.945760498046875,0.0846710205078125,0.6818389892578125,-0.4173583984375
1773149340499796700,2.955796630859375,0.098175048828125,0.695281982421875,-0.4594879150390625
1773149340509832700,2.965832763671875,0.1317596435546875,0.805511474609375,-0.50872802734375
1773149340519868700,2.97586865234375,0.12298583984375,0.91607666015625,-0.5446624755859375
1773149340529905700,2.98590576171875,0.0618743896484375,0.8961944580078125,-0.5412139892578125
1773149340539941600,2.995941650390625,0.04986572265625,0.7255401611328125,-0.4520416259765625
1773149340549977600,3.0059775390625,0.1731109619140625,0.594207763671875,-0.3336334228515625
1773149340560013600,3.016013671875,0.1906890869140625,0.7520599365234375,-0.220916748046875
1773149340570049800,3.0260498046875,-0.00244140625,1.0075225830078125,-0.3112640380859375
1773149340580086800,3.036086669921875,-0.1963043212890625,1.245697021484375,-0.53314208984375
1773149340590122800,3.046122802734375,-0.31951904296875,1.3925323486328125,-0.5731658935546875
1773149340600158700,3.05615869140625,-0.3616485595703125,1.3889923095703125,-0.5397796630859375
1773149340610194700,3.066194580078125,-0.3286590576171875,1.33087158203125,-0.4772796630859375
1773149340620230700,3.076230712890625,-0.1272430419921875,1.1957244873046875,-0.5099334716796875
1773149340630267600,3.086267578125,0.071044921875,1.099090576171875,-0.601104736328125
1773149340640303600,3.0963037109375,0.1042633056640625,1.0865478515625,-0.6676483154296875
1773149340650339600,3.106339599609375,0.0171661376953125,0.974639892578125,-0.6922760009765625
1773149340660375600,3.11637548828125,-0.0529022216796875,0.826202392578125,-0.659210205078125
1773149340670411500,3.12641162109375,0.012359619140625,0.8229827880859375,-0.574310302734375
1773149340680448800,3.13644873046875,0.0620574951171875,0.77978515625,-0.505035400390625
1773149340690484700,3.146484619140625,0.095550537109375,0.753448486328125,-0.4209136962890625
1773149340700520700,3.156520751953125,0.081298828125,0.7537384033203125,-0.3253326416015625
1773149340710556700,3.166556640625,0.01171875,0.736572265625,-0.237579345703125
1773149340720592600,3.176592529296875,-0.0872955322265625,0.699127197265625,-0.1350250244140625
1773149340730629600,3.186629638671875,-0.1893157958984375,0.6755523681640625,-0.04925537109375
1773149340740665600,3.19666552734375,-0.2262420654296875,0.745452880859375,-0.051788330078125
1773149340750701600,3.20670166015625,-0.25238037109375,0.914520263671875,-0.1332244873046875
1773149340760737500,3.216737548828125,-0.28399658203125,0.9729461669921875,-0.2256622314453125
1773149340770773800,3.226773681640625,-0.2377777099609375,1.06134033203125,-0.32781982421875
1773149340780810500,3.236810546875,-0.1674957275390625,1.18634033203125,-0.40985107421875
1773149340790846500,3.246846435546875,-0.110565185546875,1.239166259765625,-0.5142059326171875
1773149340800882700,3.256882568359375,-0.0829315185546875,1.2087860107421875,-0.5983734130859375
1773149340810918700,3.266918701171875,-0.0682525634765625,1.1208953857421875,-0.6099700927734375
1773149340820954600,3.27695458984375,-0.0836029052734375,1.0490875244140625,-0.55023193359375
1773149340830992000,3.286991943359375,-0.1271514892578125,0.979156494140625,-0.48956298828125
1773149340841027800,3.29702783203125,-0.219635009765625,0.9041748046875,-0.4413299560546875
1773149340851063800,3.307063720703125,-0.2947540283203125,0.868438720703125,-0.4233245849609375
1773149340861099800,3.317099853515625,-0.3118438720703125,0.8877410888671875,-0.41607666015625
1773149340871135700,3.3271357421875,-0.2674102783203125,0.8850250244140625,-0.401519775390625
1773149340881172700,3.3371728515625,-0.17901611328125,0.888824462890625,-0.3828125
1773149340891208700,3.347208740234375,-0.1242828369140625,0.859619140625,-0.373992919921875
1773149340901244700,3.35724462890625,-0.1212310791015625,0.8267822265625,-0.3754730224609375
1773149340911280600,3.36728076171875,-0.11090087890625,0.835693359375,-0.3725433349609375
1773149340921316600,3.377316650390625,-0.0792083740234375,0.85955810546875,-0.363067626953125
1773149340931353600,3.387353515625,-0.069488525390625,0.8540496826171875,-0.3553466796875
1773149340941389600,3.3973896484375,-0.075408935546875,0.8225250244140625,-0.350067138671875
1773149340951425500,3.407425537109375,-0.0936737060546875,0.7936248779296875,-0.337646484375
1773149340961461500,3.41746142578125,-0.1202850341796875,0.7852783203125,-0.3192901611328125
1773149340971497500,3.42749755859375,-0.146636962890625,0.779144287109375,-0.3003692626953125
1773149340981534700,3.43753466796875,-0.1653289794921875,0.765106201171875,-0.282440185546875
1773149340991570700,3.44757080078125,-0.162109375,0.754302978515625,-0.27325439453125
1773149341001606700,3.457606689453125,-0.147003173828125,0.7545623779296875,-0.2703399658203125
1773149341011642600,3.467642578125,-0.134613037109375,0.763763427734375,-0.2629241943359375
1773149341021678600,3.4776787109375,-0.1252899169921875,0.7722015380859375,-0.25390625
1773149341031715600,3.487715576171875,-0.12841796875,0.7786865234375,-0.246368408203125
1773149341041751600,3.49775146484375,-0.150634765625,0.7817535400390625,-0.2431640625
1773149341051787500,3.50778759765625,-0.1963958740234375,0.7803802490234375,-0.2518463134765625
1773149341061823500,3.517823486328125,-0.2630462646484375,0.771575927734375,-0.2685699462890625
1773149341071860500,3.527860595703125,-0.3459014892578125,0.761962890625,-0.285369873046875
1773149341081896400,3.537896484375,-0.4435882568359375,0.7578582763671875,-0.296600341796875
1773149341091932400,3.547932373046875,-0.5421905517578125,0.7607269287109375,-0.29888916015625
1773149341101968600,3.55796875,-0.6098785400390625,0.7862091064453125,-0.2863311767578125
1773149341112004900,3.5680048828125,-0.648193359375,0.8323974609375,-0.2651214599609375
1773149341122041600,3.57804150390625,-0.6605072021484375,0.9081573486328125,-0.246490478515625
1773149341132077600,3.58807763671875,-0.6022491455078125,1.0084075927734375,-0.244964599609375
1773149341142113800,3.59811376953125,-0.4630889892578125,1.1090850830078125,-0.249908447265625
1773149341152149800,3.608149658203125,-0.32806396484375,1.172210693359375,-0.2375946044921875
1773149341162185700,3.618185791015625,-0.2691192626953125,1.1550750732421875,-0.232635498046875
1773149341172222700,3.62822265625,-0.2548980712890625,1.0076904296875,-0.2607269287109375
1773149341182258700,3.6382587890625,-0.2672882080078125,0.8637542724609375,-0.2758941650390625
1773149341192294700,3.648294677734375,-0.249603271484375,0.799468994140625,-0.293182373046875
1773149341202330600,3.65833056640625,-0.185577392578125,0.8967437744140625,-0.3099517822265625
1773149341212367600,3.66836767578125,-0.068572998046875,1.05755615234375,-0.228424072265625
1773149341222403800,3.67840380859375,0.0456390380859375,1.24041748046875,-0.1252593994140625
1773149341232439800,3.688439697265625,0.1250152587890625,1.4119720458984375,-0.1146697998046875
1773149341242475800,3.698475830078125,0.133392333984375,1.649169921875,-0.1533203125
1773149341252511700,3.70851171875,0.024383544921875,1.9648895263671875,-0.2608489990234375
1773149341262548700,3.718548828125,-0.2330322265625,1.926849365234375,-0.3683013916015625
1773149341272584700,3.728584716796875,-0.4842071533203125,1.24090576171875,-0.3331146240234375
1773149341282620700,3.73862060546875,-0.489593505859375,0.751739501953125,-0.2481231689453125
1773149341292656600,3.74865673828125,-0.31488037109375,0.5311279296875,-0.19415283203125
1773149341302692600,3.758692626953125,-0.0916595458984375,0.481597900390625,-0.1398773193359375
1773149341312729600,3.7687294921875,0.1256256103515625,0.5081787109375,-0.0989990234375
1773149341322765600,3.778765625,0.293701171875,0.57513427734375,-0.0690460205078125
1773149341332801500,3.788801513671875,0.381134033203125,0.6534271240234375,-0.06451416015625
1773149341342836700,3.798836669921875,0.414306640625,0.7885284423828125,-0.06463623046875
1773149341352873700,3.808873779296875,0.4028472900390625,0.9075927734375,-0.0766754150390625
1773149341362909700,3.81890966796875,0.3325347900390625,0.9802093505859375,-0.129608154296875
1773149341372945700,3.828945556640625,0.2156829833984375,1.020416259765625,-0.2491912841796875
1773149341382982000,3.83898193359375,0.0561065673828125,1.0424346923828125,-0.4205169677734375
1773149341393018000,3.84901806640625,-0.111572265625,1.0836944580078125,-0.5812530517578125
1773149341403054800,3.859054931640625,-0.2357177734375,1.13287353515625,-0.6886749267578125
1773149341413091000,3.869091064453125,-0.281768798828125,1.1475830078125,-0.7299652099609375
1773149341423127000,3.879126953125,-0.2611541748046875,1.0802154541015625,-0.70269775390625
1773149341433163000,3.8891630859375,-0.2375640869140625,0.9499969482421875,-0.637054443359375
1773149341443200000,3.899199951171875,-0.22528076171875,0.8234710693359375,-0.589996337890625
1773149341453236000,3.909236083984375,-0.229095458984375,0.77392578125,-0.5560150146484375
1773149341463272000,3.91927197265625,-0.2337646484375,0.802978515625,-0.5326995849609375
1773149341473308000,3.929307861328125,-0.2239532470703125,0.8616485595703125,-0.5487060546875
1773149341483344000,3.93934375,-0.213165283203125,0.8927764892578125,-0.5536041259765625
1773149341493380900,3.949380859375,-0.182891845703125,0.916656494140625,-0.529693603515625
1773149341503417000,3.9594169921875,-0.1203460693359375,0.9443206787109375,-0.483856201171875
1773149341513453000,3.969453125,-0.057861328125,0.95684814453125,-0.409423828125
1773149341523489000,3.979489013671875,-0.0182342529296875,0.962249755859375,-0.3166656494140625
1773149341533526000,3.989526123046875,-0.002197265625,0.9676361083984375,-0.2145538330078125
1773149341543559700,3.9995595703125,0.020111083984375,0.970550537109375,-0.1226806640625
1773149341553596000,4.009595947265625,0.0431060791015625,0.9819793701171875,-0.04656982421875
1773149341563633000,4.0196328125,0.0630340576171875,0.990936279296875,0.0167694091796875
1773149341573668900,4.0296689453125,0.07696533203125,1.00079345703125,0.0540618896484375
1773149341583704800,4.039704833984375,0.085479736328125,1.019317626953125,0.0366058349609375
1773149341593741000,4.049740966796875,0.0701446533203125,1.0189971923828125,-0.024169921875
1773149341603777800,4.05977783203125,0.0319061279296875,1.0035552978515625,-0.0901947021484375
1773149341613813800,4.069813720703125,-0.0307464599609375,0.9888153076171875,-0.1540069580078125
1773149341623850000,4.07985009765625,-0.1053009033203125,0.9738311767578125,-0.2126922607421875
1773149341633886000,4.089885986328125,-0.175994873046875,0.9596099853515625,-0.2785797119140625
1773149341643922700,4.099922607421875,-0.22222900390625,0.94696044921875,-0.3524017333984375
1773149341653959000,4.109958984375,-0.2267303466796875,0.9414825439453125,-0.42730712890625
1773149341663995000,4.119994873046875,-0.181182861328125,0.938140869140625,-0.4872589111328125
1773149341674031000,4.130031005859375,-0.1327972412109375,0.9364471435546875,-0.532501220703125
1773149341684067000,4.140067138671875,-0.09375,0.9332733154296875,-0.5537567138671875
1773149341694104000,4.15010400390625,-0.0700836181640625,0.937347412109375,-0.5546112060546875
1773149341704140000,4.16014013671875,-0.0621337890625,0.9344940185546875,-0.5301513671875
1773149341714176000,4.170176025390625,-0.04290771484375,0.9289398193359375,-0.493682861328125
1773149341724212000,4.1802119140625,-0.0224609375,0.9305572509765625,-0.4508514404296875
1773149341734249000,4.1902490234375,0.000244140625,0.9336090087890625,-0.4142303466796875
1773149341744285000,4.200284912109375,0.0169219970703125,0.9351806640625,-0.387359619140625
1773149341754321000,4.21032080078125,0.0249176025390625,0.9355010986328125,-0.366790771484375
1773149341764356900,4.22035693359375,0.0338134765625,0.93994140625,-0.3486175537109375
1773149341774393900,4.230393798828125,0.039031982421875,0.947052001953125,-0.3318023681640625
1773149341784429800,4.240429931640625,0.041412353515625,0.9451751708984375,-0.3140869140625
1773149341794466000,4.250466064453125,0.0413055419921875,0.936859130859375,-0.29779052734375
1773149341804502000,4.260501953125,0.048187255859375,0.927703857421875,-0.278900146484375
1773149341814538000,4.2705380859375,0.04876708984375,0.9248199462890625,-0.2623443603515625
1773149341824575000,4.280574951171875,0.0413818359375,0.9292144775390625,-0.2488555908203125
1773149341834611000,4.29061083984375,0.040985107421875,0.9392242431640625,-0.2419281005859375
1773149341844647000,4.30064697265625,0.0510711669921875,0.9513702392578125,-0.24169921875
1773149341854683000,4.310682861328125,0.055267333984375,0.959625244140625,-0.2489013671875
1773149341864720000,4.320719970703125,0.05206298828125,0.965301513671875,-0.26605224609375
1773149341874755800,4.330755859375,0.03485107421875,0.970489501953125,-0.284088134765625
1773149341884791800,4.340791748046875,0.0012664794921875,0.975738525390625,-0.292083740234375
1773149341894827800,4.350827880859375,-0.0308837890625,0.978546142578125,-0.2846221923828125
1773149341904864800,4.36086474609375,-0.0428466796875,0.971160888671875,-0.261138916015625
1773149341914901000,4.37090087890625,-0.038330078125,0.9551544189453125,-0.23712158203125
1773149341924937000,4.38093701171875,-0.0297393798828125,0.9409332275390625,-0.2330780029296875
1773149341934973000,4.390972900390625,-0.0177459716796875,0.93212890625,-0.2476043701171875
1773149341945010000,4.401010009765625,-0.00885009765625,0.930511474609375,-0.265838623046875
1773149341955046000,4.4110458984375,-0.0049896240234375,0.9333343505859375,-0.270111083984375
1773149341965081900,4.421081787109375,-0.0023651123046875,0.9363861083984375,-0.2613372802734375
1773149341975117800,4.431117919921875,0.0044097900390625,0.9437408447265625,-0.252044677734375
1773149341985154800,4.44115478515625,0.0115814208984375,0.956451416015625,-0.2518157958984375
1773149341995190800,4.451190673828125,0.0116424560546875,0.967681884765625,-0.257080078125
1773149342005226800,4.461226806640625,0.013916015625,0.97601318359375,-0.266448974609375
1773149342015262700,4.4712626953125,0.01373291015625,0.98095703125,-0.2753143310546875
1773149342025299700,4.4812998046875,0.0090179443359375,0.9789886474609375,-0.283447265625
1773149342035336000,4.4913359375,-0.000946044921875,0.9669647216796875,-0.2925262451171875
1773149342045372000,4.501371826171875,-0.0138397216796875,0.952789306640625,-0.3040771484375
1773149342055409000,4.511408935546875,-0.0288543701171875,0.9394073486328125,-0.3275299072265625
1773149342065444900,4.52144482421875,-0.0404205322265625,0.9386749267578125,-0.3640594482421875
1773149342075480800,4.531480712890625,-0.042816162109375,0.9580230712890625,-0.404876708984375
1773149342085517800,4.541517822265625,-0.04046630859375,0.9753875732421875,-0.43206787109375
1773149342095553800,4.5515537109375,-0.0498809814453125,0.97772216796875,-0.434234619140625
1773149342105589800,4.56158984375,-0.02154541015625,0.9614105224609375,-0.4334564208984375
1773149342115626000,4.5716259765625,-0.001708984375,0.9435577392578125,-0.4186553955078125
1773149342125662000,4.581661865234375,0.0070953369140625,0.9140625,-0.40093994140625
1773149342135698700,4.59169873046875,0.0186767578125,0.882171630859375,-0.3837127685546875
1773149342145735000,4.60173486328125,0.032470703125,0.8746337890625,-0.373382568359375
1773149342155771100,4.611771240234375,0.045806884765625,0.8948974609375,-0.372344970703125
1773149342165807000,4.62180712890625,0.0529327392578125,0.9431915283203125,-0.3859710693359375
1773149342175843800,4.63184375,0.06884765625,0.97918701171875,-0.417083740234375
1773149342185880000,4.641880126953125,0.077606201171875,0.98699951171875,-0.4439239501953125
1773149342195916000,4.651916015625,0.069671630859375,0.968994140625,-0.464996337890625
1773149342205952000,4.661951904296875,0.061370849609375,0.9224395751953125,-0.46783447265625
1773149342215989000,4.671989013671875,0.0461578369140625,0.87225341796875,-0.4527130126953125
1773149342226025000,4.68202490234375,0.030181884765625,0.841156005859375,-0.4258575439453125
1773149342236061000,4.69206103515625,0.02264404296875,0.8383636474609375,-0.394439697265625
1773149342246097000,4.702096923828125,0.0244140625,0.8559112548828125,-0.36468505859375
1773149342256134000,4.7121337890625,0.03131103515625,0.8868560791015625,-0.33978271484375
1773149342266169900,4.722169921875,0.037689208984375,0.9218902587890625,-0.313232421875
1773149342276206000,4.7322060546875,0.0397796630859375,0.953399658203125,-0.2757568359375
1773149342286243000,4.7422431640625,0.034698486328125,0.977325439453125,-0.2553863525390625
1773149342296279000,4.752279052734375,0.0202789306640625,0.9852294921875,-0.2642059326171875
1773149342306315000,4.76231494140625,0.0240936279296875,1.0103607177734375,-0.2361907958984375
1773149342316351000,4.77235107421875,0.02484130859375,1.0223236083984375,-0.2055511474609375
1773149342326388000,4.782387939453125,0.0113067626953125,1.0234375,-0.17681884765625
1773149342336424000,4.792423828125,-0.0144805908203125,1.0254974365234375,-0.144195556640625
1773149342346460200,4.802460205078125,-0.036834716796875,1.041046142578125,-0.120513916015625
1773149342356496100,4.81249609375,-0.0501861572265625,1.0592498779296875,-0.0907745361328125
1773149342366533400,4.822533447265625,-0.06298828125,1.0530242919921875,-0.073822021484375
1773149342376569300,4.8325693359375,-0.082427978515625,1.0042724609375,-0.1060638427734375
1773149342386605300,4.842605224609375,-0.080413818359375,0.9858551025390625,-0.1297760009765625
1773149342396641300,4.852641357421875,-0.0688018798828125,0.968780517578125,-0.1424560546875
1773149342406678300,4.86267822265625,-0.0584716796875,0.9517974853515625,-0.1552581787109375
1773149342416714200,4.87271435546875,-0.0496978759765625,0.9521636962890625,-0.1707305908203125
1773149342426750200,4.882750244140625,-0.039581298828125,0.9608154296875,-0.1864013671875
1773149342436786200,4.8927861328125,-0.0341033935546875,0.9670257568359375,-0.1970062255859375
1773149342446823200,4.9028232421875,-0.029510498046875,0.971343994140625,-0.2063446044921875
1773149342456859100,4.912859130859375,-0.0332794189453125,0.975799560546875,-0.214996337890625
1773149342466895000,4.92289501953125,-0.0485382080078125,0.9852752685546875,-0.22564697265625
1773149342476931000,4.93293115234375,-0.0653533935546875,0.996612548828125,-0.23968505859375
1773149342486968300,4.94296826171875,-0.0763702392578125,1.007568359375,-0.2603912353515625
1773149342497004300,4.95300439453125,-0.0845947265625,1.011566162109375,-0.2788543701171875
1773149342507040300,4.963040283203125,-0.0932159423828125,1.000518798828125,-0.28863525390625
1773149342517076200,4.973076171875,-0.0923004150390625,0.9789886474609375,-0.2914581298828125
1773149342527113200,4.98311328125,-0.0760955810546875,0.9663848876953125,-0.287872314453125
1773149342537149200,4.993149169921875,-0.05511474609375,0.9669647216796875,-0.28094482421875
1773149342547185200,5.00318505859375,-0.0268707275390625,0.9716949462890625,-0.271881103515625
1773149342557221000,5.01322119140625,0.0105743408203125,0.9764251708984375,-0.2561798095703125
1773149342567258000,5.023258056640625,0.051513671875,0.9783477783203125,-0.2341461181640625
1773149342577294000,5.033294189453125,0.0794677734375,0.9783782958984375,-0.214996337890625
1773149342587330000,5.043330078125,0.0843048095703125,0.9730072021484375,-0.2044830322265625
1773149342597367300,5.0533671875,0.0725555419921875,0.963409423828125,-0.19189453125
1773149342607403300,5.0634033203125,0.06011962890625,0.9535980224609375,-0.1826934814453125
1773149342617439200,5.073439208984375,0.0570068359375,0.9467620849609375,-0.1850433349609375
1773149342627475200,5.08347509765625,0.0583953857421875,0.9391937255859375,-0.2086334228515625
1773149342637512200,5.09351220703125,0.0590972900390625,0.9258880615234375,-0.277313232421875
1773149342647548200,5.103548095703125,0.087066650390625,0.939361572265625,-0.2973785400390625
1773149342657584000,5.113584228515625,0.1039886474609375,0.9314422607421875,-0.3129425048828125
1773149342667620000,5.1236201171875,0.1043853759765625,0.932769775390625,-0.3211517333984375
1773149342677657000,5.133656982421875,0.08306884765625,0.940277099609375,-0.335205078125
1773149342687693000,5.143693115234375,0.0438385009765625,0.9327392578125,-0.357147216796875
1773149342697729000,5.15372900390625,0.0247955322265625,0.9279632568359375,-0.3724365234375
1773149342707765000,5.163764892578125,0.0257720947265625,0.9366607666015625,-0.3844757080078125
1773149342717802200,5.17380224609375,0.0020904541015625,0.960205078125,-0.386932373046875
1773149342727838200,5.183838134765625,-0.0429534912109375,0.9798126220703125,-0.3833465576171875
1773149342737874200,5.193874267578125,-0.085174560546875,0.9983062744140625,-0.36761474609375
1773149342747910100,5.20391015625,-0.083953857421875,0.99298095703125,-0.3463897705078125
1773149342757947100,5.213947021484375,0.0145416259765625,0.9597320556640625,-0.3489837646484375
1773149342767983000,5.223983154296875,0.1177520751953125,0.92510986328125,-0.3619537353515625
1773149342778019000,5.23401904296875,0.15771484375,0.9131317138671875,-0.363250732421875
1773149342788056000,5.24405615234375,0.1410369873046875,0.9095001220703125,-0.345916748046875
1773149342798092000,5.254092041015625,0.10919189453125,0.9157867431640625,-0.3259429931640625
1773149342808128000,5.2641279296875,0.0907745361328125,0.9365081787109375,-0.3047943115234375
1773149342818164200,5.274164306640625,0.0865325927734375,0.9542388916015625,-0.28668212890625
1773149342828201200,5.284201171875,0.0717926025390625,0.9659423828125,-0.279144287109375
1773149342838237200,5.2942373046875,0.0400543212890625,0.9752044677734375,-0.284332275390625
1773149342848273200,5.304273193359375,0.0068511962890625,0.97601318359375,-0.296661376953125
1773149342858309400,5.314309326171875,0.004058837890625,0.951446533203125,-0.3191070556640625
1773149342868346000,5.32434619140625,0.02386474609375,0.9315948486328125,-0.3427581787109375
1773149342878382000,5.334382080078125,0.0095062255859375,0.9177398681640625,-0.354248046875
1773149342888418300,5.344418212890625,-0.0219268798828125,0.9194793701171875,-0.362823486328125
1773149342898455000,5.354455078125,-0.0354461669921875,0.93121337890625,-0.37939453125
1773149342908491000,5.364490966796875,-0.0347442626953125,0.9430999755859375,-0.3836517333984375
1773149342918527200,5.37452734375,-0.0202484130859375,0.9525909423828125,-0.3686370849609375
1773149342928563200,5.384563232421875,-0.003875732421875,0.96337890625,-0.340087890625
1773149342938600200,5.39460009765625,0.0114593505859375,0.97393798828125,-0.318023681640625
1773149342948636400,5.404636474609375,0.0127105712890625,0.976287841796875,-0.30242919921875
1773149342958672400,5.41467236328125,0.0045623779296875,0.9690399169921875,-0.2934112548828125
1773149342968708400,5.424708251953125,0.003143310546875,0.9603271484375,-0.288055419921875
1773149342978745300,5.434745361328125,0.0039825439453125,0.960723876953125,-0.2837371826171875
1773149342988781300,5.44478125,0.0033416748046875,0.965606689453125,-0.2871551513671875
1773149342998817300,5.4548173828125,-0.0050506591796875,0.9719696044921875,-0.2977294921875
1773149343008854300,5.464854248046875,-0.017669677734375,0.9759063720703125,-0.3038787841796875
1773149343018890200,5.47489013671875,-0.0254974365234375,0.972503662109375,-0.2979736328125
1773149343028926200,5.48492626953125,-0.017425537109375,0.9683685302734375,-0.2795257568359375
1773149343038962200,5.494962158203125,0.000946044921875,0.96356201171875,-0.2511444091796875
1773149343048999400,5.50499951171875,0.016204833984375,0.9659271240234375,-0.2208404541015625
1773149343059035400,5.515035400390625,0.0307464599609375,0.974334716796875,-0.19647216796875
1773149343069071400,5.5250712890625,0.0495452880859375,0.986572265625,-0.17474365234375
1773149343079107300,5.535107421875,0.0686492919921875,0.9941253662109375,-0.1580352783203125
1773149343089144300,5.545144287109375,0.089324951171875,0.9893798828125,-0.165924072265625
1773149343099180300,5.55518017578125,0.111968994140625,0.9798736572265625,-0.19775390625
1773149343109216300,5.56521630859375,0.11676025390625,0.9619140625,-0.2346649169921875
1773149343119253200,5.575253173828125,0.09088134765625,0.945098876953125,-0.2642059326171875
1773149343129289200,5.585289306640625,0.0522003173828125,0.936004638671875,-0.285430908203125
1773149343139325200,5.5953251953125,0.0387115478515625,0.9301605224609375,-0.3050537109375
1773149343149361200,5.605361083984375,0.0360107421875,0.942413330078125,-0.30670166015625
1773149343159398100,5.615398193359375,0.0145721435546875,0.96868896484375,-0.2844390869140625
1773149343169434400,5.625434326171875,-0.0061187744140625,0.988494873046875,-0.2570343017578125
1773149343179470300,5.63547021484375,-0.0164337158203125,1.0017852783203125,-0.2306365966796875
1773149343189507300,5.64550732421875,-0.012969970703125,1.0084686279296875,-0.207061767578125
1773149343199543300,5.655543212890625,-0.020172119140625,1.0118408203125,-0.1823272705078125
1773149343209579300,5.665579345703125,-0.021942138671875,1.0023651123046875,-0.1724700927734375
1773149343219615200,5.675615234375,0.005096435546875,0.9921722412109375,-0.1778564453125
1773149343229652200,5.68565234375,0.03436279296875,0.9887542724609375,-0.186004638671875
1773149343239688200,5.695688232421875,0.0532989501953125,0.9839324951171875,-0.1909027099609375
1773149343249724200,5.70572412109375,0.06011962890625,0.975860595703125,-0.19403076171875
1773149343259761200,5.71576123046875,0.05987548828125,0.975860595703125,-0.200836181640625
1773149343269797000,5.725797119140625,0.0657806396484375,0.97845458984375,-0.2049713134765625
1773149343279833000,5.7358330078125,0.0801544189453125,0.973846435546875,-0.20831298828125
1773149343289869300,5.745869384765625,0.08880615234375,0.9698486328125,-0.20074462890625
1773149343299906300,5.75590625,0.08880615234375,0.9651031494140625,-0.1971893310546875
1773149343309942300,5.7659423828125,0.08538818359375,0.9648590087890625,-0.20318603515625
1773149343319978200,5.775978271484375,0.0739288330078125,0.9670257568359375,-0.2057037353515625
1773149343330015200,5.78601513671875,0.05853271484375,0.964141845703125,-0.212646484375
1773149343340051200,5.79605126953125,0.0421142578125,0.964019775390625,-0.2155609130859375
1773149343350087000,5.8060869140625,0.04058837890625,0.96539306640625,-0.216796875
1773149343360123000,5.816122802734375,0.04315185546875,0.96331787109375,-0.2278289794921875
1773149343370160000,5.82616015625,0.0444183349609375,0.9812164306640625,-0.2458343505859375
1773149343380196000,5.836196044921875,0.03662109375,1.007080078125,-0.2537994384765625
1773149343390232000,5.846232177734375,0.0188446044921875,0.9999542236328125,-0.2721405029296875
1773149343400269000,5.85626904296875,0.0173187255859375,1.00299072265625,-0.2741851806640625
1773149343410305000,5.866304931640625,0.0280609130859375,1.0001983642578125,-0.2628631591796875
1773149343420341000,5.876341064453125,0.042877197265625,0.9886627197265625,-0.25164794921875
1773149343430377000,5.886376953125,0.0582122802734375,0.9801788330078125,-0.2474822998046875
1773149343440414000,5.8964140625,0.067352294921875,0.9750213623046875,-0.249176025390625
1773149343450450000,5.906449951171875,0.0696563720703125,0.9637603759765625,-0.257843017578125
1773149343460486000,5.91648583984375,0.0684356689453125,0.9596099853515625,-0.2641143798828125
1773149343470523100,5.926523193359375,0.0639801025390625,0.9707489013671875,-0.2771148681640625
1773149343480559000,5.93655908203125,0.0571746826171875,0.983612060546875,-0.290863037109375
1773149343490595000,5.946594970703125,0.04718017578125,0.9915771484375,-0.302398681640625
1773149343500631000,5.956631103515625,0.044342041015625,0.99615478515625,-0.3069610595703125
1773149343510668000,5.96666796875,0.0438385009765625,0.995361328125,-0.313751220703125
1773149343520704000,5.9767041015625,0.0433807373046875,0.988372802734375,-0.322906494140625
1773149343530740000,5.986739990234375,0.041351318359375,0.9835357666015625,-0.33575439453125
1773149343540777000,5.99677685546875,0.037567138671875,0.981170654296875,-0.34674072265625
1773149343550813000,6.00681298828125,0.04248046875,0.974456787109375,-0.3519439697265625
1773149343560849000,6.016848876953125,0.052215576171875,0.9671173095703125,-0.3515777587890625
1773149343570884900,6.026884765625,0.06231689453125,0.9621429443359375,-0.3510894775390625
1773149343580922000,6.036922119140625,0.07574462890625,0.958099365234375,-0.3585662841796875
1773149343590958000,6.0469580078125,0.087371826171875,0.956329345703125,-0.3748016357421875
1773149343600994000,6.056994140625,0.09295654296875,0.9527587890625,-0.3903045654296875
1773149343611031000,6.067031005859375,0.085906982421875,0.9428253173828125,-0.403045654296875
1773149343621067000,6.07706689453125,0.070220947265625,0.9196624755859375,-0.40936279296875
1773149343631103000,6.08710302734375,0.0580291748046875,0.89141845703125,-0.408538818359375
1773149343641140000,6.097139892578125,0.0578765869140625,0.8809051513671875,-0.4107513427734375
1773149343651176000,6.107176025390625,0.062347412109375,0.893218994140625,-0.422210693359375
1773149343661212000,6.1172119140625,0.0680084228515625,0.9124298095703125,-0.4366455078125
1773149343671248000,6.127247802734375,0.067840576171875,0.9262542724609375,-0.4452667236328125
1773149343681285000,6.13728515625,0.0593719482421875,0.929412841796875,-0.439239501953125
1773149343691321000,6.147321044921875,0.0561370849609375,0.9256591796875,-0.42431640625
1773149343701357000,6.157357177734375,0.0497894287109375,0.9203033447265625,-0.4020538330078125
1773149343711394000,6.16739404296875,0.0315399169921875,0.9126739501953125,-0.3762969970703125
1773149343721430000,6.177429931640625,0.003173828125,0.9048919677734375,-0.344879150390625
1773149343731466000,6.187466064453125,-0.0235443115234375,0.9062957763671875,-0.3154754638671875
1773149343741502000,6.197501953125,-0.0428314208984375,0.92047119140625,-0.29022216796875
1773149343751539000,6.2075390625,-0.0520782470703125,0.944091796875,-0.270751953125
1773149343761575000,6.217574951171875,-0.0531158447265625,0.9783782958984375,-0.2610626220703125
1773149343771611000,6.22761083984375,-0.047088623046875,1.0214385986328125,-0.2627105712890625
1773149343781648000,6.23764794921875,-0.0373992919921875,1.0507965087890625,-0.2667083740234375
1773149343791683800,6.247683837890625,-0.021087646484375,1.053131103515625,-0.26507568359375
1773149343801720000,6.257719970703125,-0.0097808837890625,1.04168701171875,-0.2808990478515625
1773149343811757000,6.267757080078125,-0.017364501953125,1.03460693359375,-0.328826904296875
1773149343821793000,6.27779296875,-0.0306243896484375,1.027130126953125,-0.3734588623046875
1773149343831829000,6.2878291015625,-0.0418853759765625,0.9983673095703125,-0.3935699462890625
1773149343841866000,6.297865966796875,-0.0620574951171875,0.9505615234375,-0.395782470703125
1773149343851902000,6.30790185546875,-0.0985565185546875,0.9052276611328125,-0.4006500244140625
1773149343861938000,6.31793798828125,-0.144805908203125,0.8686676025390625,-0.41070556640625
1773149343871974000,6.327973876953125,-0.1867218017578125,0.8409423828125,-0.420684814453125
1773149343882011000,6.338010986328125,-0.21258544921875,0.8234405517578125,-0.4394378662109375
1773149343892046800,6.348046875,-0.2270965576171875,0.832489013671875,-0.4842987060546875
1773149343902082800,6.358082763671875,-0.2422637939453125,0.86810302734375,-0.540771484375
1773149343912120000,6.3681201171875,-0.2540283203125,0.9103240966796875,-0.56646728515625
1773149343922156000,6.378156005859375,-0.2639312744140625,0.9311065673828125,-0.5297393798828125
1773149343932192000,6.38819189453125,-0.2729949951171875,0.92413330078125,-0.4398651123046875
1773149343942229000,6.39822900390625,-0.28497314453125,0.915069580078125,-0.3269500732421875
1773149343952265000,6.408264892578125,-0.2886962890625,0.9185943603515625,-0.22918701171875
1773149343962301000,6.418301025390625,-0.2840728759765625,0.9347381591796875,-0.160980224609375
1773149343972337000,6.4283369140625,-0.2893524169921875,0.9610748291015625,-0.1152801513671875
1773149343982374000,6.438373779296875,-0.311676025390625,0.9898681640625,-0.1032867431640625
1773149343992409900,6.448409912109375,-0.3320159912109375,1.0183868408203125,-0.1317291259765625
1773149344002445800,6.45844580078125,-0.3458709716796875,1.027252197265625,-0.1641845703125
1773149344012483000,6.468483154296875,-0.3571319580078125,0.9975738525390625,-0.1716461181640625
1773149344022519000,6.47851904296875,-0.3543701171875,0.9363555908203125,-0.15350341796875
1773149344032555000,6.488554931640625,-0.32098388671875,0.8683624267578125,-0.1186370849609375
1773149344042592000,6.498592041015625,-0.26806640625,0.8221588134765625,-0.0920562744140625
1773149344052628000,6.5086279296875,-0.2100830078125,0.8106689453125,-0.085418701171875
1773149344062664000,6.518663818359375,-0.165618896484375,0.805938720703125,-0.08575439453125
1773149344072701000,6.528700927734375,-0.142608642578125,0.791412353515625,-0.1131744384765625
1773149344082737000,6.53873681640625,-0.1376800537109375,0.772216796875,-0.1598663330078125
1773149344092772900,6.54877294921875,-0.1639862060546875,0.7598114013671875,-0.211212158203125
1773149344102808800,6.558808837890625,-0.2104644775390625,0.7669830322265625,-0.264617919921875
1773149344112846000,6.56884619140625,-0.2591552734375,0.788787841796875,-0.3139190673828125
1773149344122882000,6.578882080078125,-0.312713623046875,0.7996978759765625,-0.337738037109375
1773149344132918000,6.58891796875,-0.3542633056640625,0.780914306640625,-0.3336639404296875
1773149344142955000,6.598955078125,-0.363800048828125,0.755828857421875,-0.31536865234375
1773149344152991000,6.608990966796875,-0.3507843017578125,0.7376708984375,-0.303131103515625
1773149344163027000,6.61902685546875,-0.3078155517578125,0.7251434326171875,-0.303497314453125
1773149344173064000,6.62906396484375,-0.2450103759765625,0.703033447265625,-0.3076324462890625
1773149344183100000,6.639099853515625,-0.1780548095703125,0.674896240234375,-0.3222198486328125
1773149344193135900,6.649135986328125,-0.122650146484375,0.67376708984375,-0.3575439453125
1773149344203172900,6.6591728515625,-0.1078948974609375,0.683807373046875,-0.3986053466796875
1773149344213208800,6.669208740234375,-0.138458251953125,0.699066162109375,-0.4119415283203125
1773149344223245000,6.6792451171875,-0.15875244140625,0.7149810791015625,-0.4123382568359375
1773149344233282000,6.689281982421875,-0.1561279296875,0.7509002685546875,-0.4269256591796875
1773149344243318000,6.699318115234375,-0.183868408203125,0.8212890625,-0.465606689453125
1773149344253354000,6.70935400390625,-0.272247314453125,0.9260406494140625,-0.5218353271484375
1773149344263390000,6.719389892578125,-0.43841552734375,1.08984375,-0.5849456787109375
1773149344273427000,6.729427001953125,-0.6716461181640625,1.3360595703125,-0.6210174560546875
1773149344283463000,6.739462890625,-0.7950592041015625,1.5164642333984375,-0.5052032470703125
1773149344293499000,6.749498779296875,-0.675018310546875,1.4786529541015625,-0.2788543701171875
1773149344303535900,6.759535888671875,-0.427490234375,1.2725067138671875,-0.0753021240234375
1773149344313571800,6.76957177734375,-0.170013427734375,1.02935791015625,0.011932373046875
1773149344323607800,6.77960791015625,-0.0513153076171875,0.830718994140625,0.0332489013671875
1773149344333645000,6.78964501953125,-0.1855010986328125,0.640411376953125,-0.075897216796875
1773149344343681000,6.799680908203125,-0.462677001953125,0.503631591796875,-0.254669189453125
1773149344353717800,6.8097177734375,-0.5963287353515625,0.475921630859375,-0.4023895263671875
1773149344363754800,6.819754638671875,-0.55853271484375,0.5765380859375,-0.4880828857421875
1773149344373790700,6.829790771484375,-0.455596923828125,0.82177734375,-0.490203857421875
1773149344383826700,6.83982666015625,-0.2752838134765625,1.03802490234375,-0.41375732421875
1773149344393863700,6.84986376953125,-0.105224609375,1.11138916015625,-0.28948974609375
1773149344403899600,6.859899658203125,-0.076080322265625,1.0643157958984375,-0.17279052734375
1773149344413935600,6.869935546875,-0.131256103515625,0.96173095703125,-0.097381591796875
1773149344423972600,6.87997265625,-0.155364990234375,0.87060546875,-0.0484619140625
1773149344434008600,6.890008544921875,-0.1284332275390625,0.8362579345703125,-0.02203369140625
1773149344444044500,6.90004443359375,-0.1159515380859375,0.8463592529296875,-0.023101806640625
1773149344454080500,6.91008056640625,-0.1230010986328125,0.86614990234375,-0.017791748046875
1773149344464117800,6.92011767578125,-0.16510009765625,0.8886260986328125,-0.01080322265625
1773149344474153700,6.93015380859375,-0.2587738037109375,0.9174957275390625,0.001861572265625
1773149344484189700,6.940189697265625,-0.3650970458984375,0.94366455078125,0.0277252197265625
1773149344494226700,6.950226806640625,-0.4039306640625,0.9742889404296875,0.061767578125
1773149344504262700,6.9602626953125,-0.3495330810546875,1.016632080078125,0.0809478759765625
1773149344514298600,6.970298583984375,-0.244720458984375,1.0561981201171875,0.1006622314453125
1773149344524335600,6.980335693359375,-0.1649627685546875,1.0844573974609375,0.1515350341796875
1773149344534371600,6.99037158203125,-0.157623291015625,1.09942626953125,0.2213592529296875
1773149344544407600,7.000407470703125,-0.2198333740234375,1.0928802490234375,0.2746429443359375
1773149344554444800,7.01044482421875,-0.2973480224609375,1.068817138671875,0.29815673828125
1773149344564480800,7.020480712890625,-0.4154205322265625,1.0307159423828125,0.3148956298828125
1773149344574516700,7.030516845703125,-0.540802001953125,0.998321533203125,0.30792236328125
1773149344584553700,7.0405537109375,-0.54571533203125,0.9846038818359375,0.287200927734375
1773149344594589700,7.050589599609375,-0.4644317626953125,0.98394775390625,0.2718963623046875
1773149344604625700,7.060625732421875,-0.4210662841796875,0.9676513671875,0.247161865234375
1773149344614662700,7.07066259765625,-0.41351318359375,0.93670654296875,0.226470947265625
1773149344624698600,7.08069873046875,-0.4214324951171875,0.89691162109375,0.242279052734375
1773149344634734600,7.090734619140625,-0.453125,0.8522186279296875,0.26348876953125
1773149344644771600,7.100771484375,-0.5332183837890625,0.8235626220703125,0.27392578125
1773149344654807800,7.110807861328125,-0.552001953125,0.8108978271484375,0.277496337890625
1773149344664843800,7.12084375,-0.472381591796875,0.8154449462890625,0.271240234375
1773149344674879700,7.130879638671875,-0.397247314453125,0.8745880126953125,0.250030517578125
1773149344684916700,7.140916748046875,-0.4390716552734375,0.9603118896484375,0.2470703125
1773149344694952700,7.15095263671875,-0.5420379638671875,1.09796142578125,0.2598724365234375
1773149344704988700,7.16098876953125,-0.6914520263671875,1.263519287109375,0.26239013671875
1773149344715025700,7.171025634765625,-0.875823974609375,1.412750244140625,0.2085418701171875
1773149344725061600,7.1810615234375,-0.975433349609375,1.5633544921875,0.2111663818359375
1773149344735097600,7.19109765625,-1.0339508056640625,1.6930389404296875,0.265655517578125
1773149344745134600,7.201134521484375,-1.0661773681640625,1.74261474609375,0.303253173828125
1773149344755170600,7.211170654296875,-1.043701171875,1.679473876953125,0.139007568359375
1773149344765206500,7.22120654296875,-0.8845367431640625,1.5358123779296875,-0.132171630859375
1773149344775243800,7.231243896484375,-0.708404541015625,1.361846923828125,-0.2503204345703125
1773149344785279700,7.24127978515625,-0.6573486328125,1.1321868896484375,-0.3534393310546875
1773149344795315700,7.251315673828125,-0.5704345703125,0.89202880859375,-0.4426422119140625
1773149344805352700,7.261352783203125,-0.4277496337890625,0.67108154296875,-0.470672607421875
1773149344815388700,7.271388671875,-0.3142242431640625,0.47406005859375,-0.457672119140625
1773149344825424600,7.281424560546875,-0.2698211669921875,0.3085479736328125,-0.42779541015625
1773149344835461600,7.291461669921875,-0.2970428466796875,0.174835205078125,-0.403289794921875
1773149344845497600,7.30149755859375,-0.427978515625,0.04376220703125,-0.4324493408203125
1773149344855533600,7.311533447265625,-0.5825347900390625,-0.0244140625,-0.50543212890625
1773149344865570800,7.32157080078125,-0.5505523681640625,0.005126953125,-0.5552215576171875
1773149344875606800,7.331606689453125,-0.4713134765625,0.0426177978515625,-0.5432891845703125
1773149344885642800,7.341642822265625,-0.41375732421875,0.2364044189453125,-0.3338165283203125
1773149344895679700,7.3516796875,-0.4636077880859375,0.421478271484375,-0.1866912841796875
1773149344905715700,7.3617158203125,-0.5153961181640625,0.5313720703125,-0.0907440185546875
1773149344915751700,7.371751708984375,-0.497711181640625,0.56744384765625,0.006591796875
1773149344925788700,7.38178857421875,-0.436981201171875,0.5511016845703125,0.095428466796875
1773149344935824600,7.39182470703125,-0.392547607421875,0.51708984375,0.1748199462890625
1773149344945860600,7.401860595703125,-0.4067535400390625,0.4832305908203125,0.23028564453125
1773149344955897900,7.41189794921875,-0.4550933837890625,0.4311676025390625,0.2415008544921875
1773149344965933800,7.421933837890625,-0.5124359130859375,0.3383026123046875,0.21826171875
1773149344975969800,7.4319697265625,-0.55133056640625,0.2041778564453125,0.17144775390625
1773149344986006800,7.4420068359375,-0.577056884765625,0.1094512939453125,0.151336669921875
1773149344996042800,7.452042724609375,-0.61810302734375,0.1124267578125,0.187896728515625
1773149345006078700,7.46207861328125,-0.77911376953125,0.2610321044921875,0.31103515625
1773149345016115700,7.47211572265625,-1.04949951171875,0.540985107421875,0.5066375732421875
1773149345026151700,7.482151611328125,-1.16290283203125,0.8913421630859375,0.579864501953125
1773149345036187600,7.492187744140625,-1.2239227294921875,1.1169891357421875,0.2488861083984375
1773149345046224600,7.502224609375,-0.8103179931640625,1.44110107421875,-0.014984130859375
1773149345056260600,7.512260498046875,-0.2776031494140625,1.81884765625,-0.2010650634765625
1773149345066296600,7.522296630859375,0.077667236328125,1.958251953125,-0.3551483154296875
1773149345076332800,7.532332763671875,0.379302978515625,1.975616455078125,-0.394775390625
1773149345086369800,7.542369873046875,0.1577911376953125,2.01409912109375,-0.411346435546875
1773149345096405800,7.55240576171875,-0.9097747802734375,1.554046630859375,-0.4632110595703125
1773149345106441700,7.562441650390625,-1.183746337890625,0.9600982666015625,-0.332061767578125
1773149345116478700,7.572478759765625,-0.4962310791015625,0.5882415771484375,-0.1544647216796875
1773149345126514700,7.5825146484375,-0.0517425537109375,0.374664306640625,-0.115203857421875
1773149345136550700,7.592550537109375,0.10491943359375,0.2917938232421875,-0.1671600341796875
1773149345146587600,7.602587646484375,0.0618896484375,0.277252197265625,-0.324554443359375
1773149345156623600,7.61262353515625,-0.0853729248046875,0.5061492919921875,-0.522125244140625
1773149345166659600,7.62265966796875,-0.283721923828125,0.7854461669921875,-0.631439208984375
1773149345176696800,7.63269677734375,-0.3235931396484375,0.9759979248046875,-0.62652587890625
1773149345186732800,7.64273291015625,-0.189117431640625,1.12310791015625,-0.558349609375
1773149345196768800,7.652768798828125,-0.0681915283203125,1.2613525390625,-0.5145416259765625
1773149345206805800,7.6628056640625,-0.0917816162109375,1.359161376953125,-0.502166748046875
1773149345216841700,7.672841796875,-0.1262664794921875,1.3561859130859375,-0.4457855224609375
1773149345226877700,7.682877685546875,-0.135467529296875,1.2803497314453125,-0.3472137451171875
1773149345236914700,7.692914794921875,-0.135986328125,1.1890869140625,-0.2412872314453125
1773149345246950700,7.70295068359375,-0.1214599609375,1.113372802734375,-0.150726318359375
1773149345256986600,7.712986572265625,-0.1074981689453125,1.0599365234375,-0.094268798828125
1773149345267024000,7.72302392578125,-0.0901947021484375,1.0120697021484375,-0.092529296875
1773149345277059800,7.733059814453125,-0.077850341796875,0.98046875,-0.1273040771484375
1773149345287095800,7.743095703125,-0.099029541015625,0.9430084228515625,-0.1764373779296875
1773149345297132800,7.7531328125,-0.101959228515625,0.9137420654296875,-0.2430572509765625
1773149345307168800,7.763168701171875,-0.068328857421875,0.9109954833984375,-0.2935638427734375
1773149345317204700,7.773204833984375,-0.0520172119140625,0.9315948486328125,-0.311614990234375
1773149345327241700,7.78324169921875,-0.0719146728515625,0.9690399169921875,-0.297698974609375
1773149345337277700,7.793277587890625,-0.11328125,1.0034332275390625,-0.2897491455078125
1773149345347313700,7.803313720703125,-0.128631591796875,1.0082550048828125,-0.3123626708984375
1773149345357350700,7.8133505859375,-0.1021881103515625,0.9821014404296875,-0.3383941650390625
1773149345367386600,7.82338671875,-0.095184326171875,0.944488525390625,-0.346160888671875
1773149345377422600,7.833422607421875,-0.1103973388671875,0.912017822265625,-0.3397216796875
1773149345387459600,7.84345947265625,-0.1616058349609375,0.8850250244140625,-0.3290252685546875
1773149345397495600,7.85349560546875,-0.197235107421875,0.845977783203125,-0.326141357421875
1773149345407531500,7.863531494140625,-0.15496826171875,0.800079345703125,-0.3260498046875
1773149345417568500,7.873568603515625,-0.1295318603515625,0.7723236083984375,-0.3187713623046875
1773149345427604500,7.8836044921875,-0.10687255859375,0.764404296875,-0.3143768310546875
1773149345437640400,7.893640380859375,-0.1114654541015625,0.7786407470703125,-0.31201171875
1773149345447677700,7.903677734375,-0.185791015625,0.83038330078125,-0.3117523193359375
1773149345457713700,7.913713623046875,-0.161895751953125,0.9063720703125,-0.3380889892578125
1773149345467749600,7.92374951171875,-0.0728607177734375,0.9696044921875,-0.38446044921875
1773149345477786600,7.93378662109375,-0.041778564453125,1.010589599609375,-0.4168548583984375
1773149345487822600,7.943822509765625,-0.015777587890625,1.021209716796875,-0.419708251953125
1773149345497858600,7.953858642578125,-0.0467376708984375,1.00146484375,-0.4084014892578125
1773149345507895600,7.9638955078125,-0.116851806640625,0.948455810546875,-0.3973388671875
1773149345517931500,7.973931640625,-0.1556243896484375,0.8950347900390625,-0.4041748046875
1773149345527967500,7.983967529296875,-0.1305694580078125,0.8427581787109375,-0.43157958984375
1773149345538004700,7.994004638671875,-0.0746612548828125,0.805389404296875,-0.4581756591796875
1773149345548040700,8.004040771484375,-0.082275390625,0.78466796875,-0.4652252197265625
1773149345558076700,8.01407666015625,-0.08380126953125,0.7965545654296875,-0.4603271484375
1773149345568112600,8.024112548828125,-0.075897216796875,0.842315673828125,-0.4131622314453125
1773149345578149600,8.034149658203125,-0.09222412109375,0.92987060546875,-0.34881591796875
1773149345588185600,8.044185546875,-0.1114349365234375,1.0444183349609375,-0.2945709228515625
1773149345598221600,8.0542216796875,-0.1621551513671875,1.170318603515625,-0.19439697265625
1773149345608258600,8.064258544921875,-0.2144622802734375,1.3016815185546875,-0.0703277587890625
1773149345618294500,8.07429443359375,-0.2458038330078125,1.360931396484375,0.01861572265625
1773149345628330500,8.08433056640625,-0.276885986328125,1.3440093994140625,0.0928497314453125
1773149345638367500,8.094367431640626,-0.24932861328125,1.26226806640625,0.0687255859375
1773149345648403700,8.10440380859375,-0.2311859130859375,1.16668701171875,-0.04931640625
1773149345658439700,8.114439697265626,-0.2236175537109375,1.0660247802734375,-0.1773834228515625
1773149345668476700,8.1244765625,-0.2024383544921875,0.9766693115234375,-0.2703857421875
1773149345678512600,8.1345126953125,-0.2414093017578125,0.9118804931640625,-0.3273773193359375
1773149345688548600,8.144548583984376,-0.265899658203125,0.8688507080078125,-0.3780059814453125
1773149345698585600,8.154585693359374,-0.2691650390625,0.8396148681640625,-0.421295166015625
1773149345708621600,8.16462158203125,-0.2602996826171875,0.8246612548828125,-0.4708251953125
1773149345718657500,8.174657470703124,-0.2174072265625,0.8070526123046875,-0.5133819580078125
1773149345728694500,8.184694580078125,-0.1857757568359375,0.794677734375,-0.5287322998046875
1773149345738730500,8.19473046875,-0.1685333251953125,0.795745849609375,-0.5157012939453125
1773149345748766500,8.204766357421875,-0.15435791015625,0.79931640625,-0.486297607421875
1773149345758803700,8.2148037109375,-0.1433258056640625,0.8080902099609375,-0.45208740234375
1773149345768839700,8.224839599609375,-0.1307220458984375,0.84210205078125,-0.408294677734375
1773149345778875600,8.234875732421875,-0.16302490234375,0.8977813720703125,-0.3677215576171875
1773149345788912600,8.24491259765625,-0.201019287109375,0.954437255859375,-0.3532257080078125
1773149345798948600,8.254948486328125,-0.2076416015625,0.984832763671875,-0.356048583984375
1773149345808984600,8.264984619140625,-0.1834869384765625,0.9927215576171875,-0.365447998046875
1773149345819021600,8.275021484375,-0.1614532470703125,0.97607421875,-0.3724517822265625
1773149345829057500,8.2850576171875,-0.1796875,0.9460296630859375,-0.377410888671875
1773149345839093500,8.295093505859375,-0.190704345703125,0.92083740234375,-0.385284423828125
1773149345849130800,8.305130859375,-0.1798858642578125,0.90142822265625,-0.398284912109375
1773149345859166700,8.315166748046876,-0.1733856201171875,0.8967132568359375,-0.411346435546875
1773149345869202700,8.32520263671875,-0.175384521484375,0.919219970703125,-0.41046142578125
1773149345879239700,8.33523974609375,-0.1609039306640625,0.9428558349609375,-0.384307861328125
1773149345889275600,8.345275634765626,-0.1422119140625,0.9503173828125,-0.34869384765625
1773149345899311600,8.3553115234375,-0.1625518798828125,0.9602508544921875,-0.3374176025390625
1773149345909348600,8.3653486328125,-0.1932830810546875,0.9792022705078125,-0.3567962646484375
1773149345919384600,8.375384521484374,-0.234527587890625,0.986328125,-0.3748931884765625
1773149345929420500,8.385420654296874,-0.242645263671875,0.966522216796875,-0.3740234375
1773149345939457500,8.39545751953125,-0.2200469970703125,0.92645263671875,-0.3470001220703125
1773149345949493500,8.405493408203125,-0.2387237548828125,0.896881103515625,-0.3101654052734375
1773149345959530500,8.415530517578125,-0.2517852783203125,0.891326904296875,-0.2745361328125
1773149345969566500,8.42556640625,-0.24505615234375,0.916046142578125,-0.2465667724609375
1773149345979602700,8.435602783203125,-0.2784576416015625,0.978302001953125,-0.2439422607421875
1773149345989639400,8.445639404296875,-0.3076629638671875,1.081207275390625,-0.2558135986328125
1773149345999675400,8.45567529296875,-0.296295166015625,1.1544647216796875,-0.2508544921875
1773149346009711600,8.465711669921875,-0.2935943603515625,1.182403564453125,-0.2143707275390625
1773149346019748400,8.475748291015625,-0.3068389892578125,1.151031494140625,-0.171844482421875
1773149346029784300,8.485784423828125,-0.314208984375,1.063568115234375,-0.1666717529296875
1773149346039820500,8.495820556640625,-0.343505859375,0.980224609375,-0.1879425048828125
1773149346049857500,8.505857421875,-0.3575439453125,0.9494781494140625,-0.23162841796875
1773149346059893500,8.5158935546875,-0.3137054443359375,0.946502685546875,-0.279632568359375
1773149346069929500,8.525929443359376,-0.2503814697265625,0.9422149658203125,-0.29669189453125
1773149346079967500,8.535967529296874,-0.204620361328125,0.9299163818359375,-0.282958984375
1773149346090003500,8.54600341796875,-0.2042694091796875,0.9221954345703125,-0.2660064697265625
1773149346100039400,8.556039306640624,-0.2020721435546875,0.9098663330078125,-0.2569122314453125
1773149346110076400,8.566076416015624,-0.2000732421875,0.8933258056640625,-0.2570648193359375
1773149346120112400,8.5761123046875,-0.20416259765625,0.917572021484375,-0.2481689453125
1773149346130149600,8.586149658203125,-0.2008819580078125,0.9553680419921875,-0.254608154296875
1773149346140185600,8.596185546875,-0.1816253662109375,0.9855194091796875,-0.2578887939453125
1773149346150221600,8.6062216796875,-0.15106201171875,0.9984130859375,-0.25335693359375
1773149346160258600,8.616258544921875,-0.134796142578125,1.0110321044921875,-0.24688720703125
1773149346170294500,8.62629443359375,-0.1443939208984375,1.0210113525390625,-0.24774169921875
1773149346180330500,8.63633056640625,-0.166107177734375,1.0150604248046875,-0.251556396484375
1773149346190367500,8.646367431640625,-0.18023681640625,0.997314453125,-0.2682647705078125
1773149346200403500,8.656403564453125,-0.164306640625,0.9653167724609375,-0.2707061767578125
1773149346210439400,8.666439453125,-0.1484832763671875,0.9361114501953125,-0.2960968017578125
1773149346220476700,8.6764765625,-0.1342926025390625,0.923248291015625,-0.341156005859375
1773149346230512600,8.6865126953125,-0.106689453125,0.922637939453125,-0.378875732421875
1773149346240548600,8.696548583984375,-0.0837860107421875,0.9302520751953125,-0.4156341552734375
1773149346250585600,8.706585693359376,-0.085235595703125,0.9317626953125,-0.4285125732421875
1773149346260621600,8.71662158203125,-0.090484619140625,0.936065673828125,-0.4404754638671875
1773149346270657500,8.726657470703126,-0.0818939208984375,0.9425048828125,-0.4413909912109375
1773149346280694500,8.736694580078124,-0.08660888671875,0.93585205078125,-0.4354248046875
1773149346290730500,8.74673046875,-0.1192626953125,0.9261627197265625,-0.42608642578125
1773149346300767500,8.756767578125,-0.1411895751953125,0.911773681640625,-0.4254913330078125
1773149346310803500,8.766803466796874,-0.1197967529296875,0.9041900634765625,-0.4264373779296875
1773149346320839700,8.776839599609374,-0.08380126953125,0.9024200439453125,-0.42877197265625
1773149346330876700,8.786876708984375,-0.0738677978515625,0.90301513671875,-0.4321136474609375
1773149346340912600,8.79691259765625,-0.066986083984375,0.90771484375,-0.437591552734375
1773149346350948000,8.806947998046875,-0.0404205322265625,0.9029083251953125,-0.438079833984375
1773149346360985000,8.816985107421875,-0.0073089599609375,0.8841705322265625,-0.4454498291015625
1773149346371021300,8.827021240234375,-0.004791259765625,0.864837646484375,-0.4469757080078125
1773149346381057300,8.837057373046875,-0.0296173095703125,0.8463287353515625,-0.4620819091796875
1773149346391094300,8.84709423828125,-0.0413055419921875,0.83587646484375,-0.48236083984375
1773149346401130200,8.857130126953125,-0.0347442626953125,0.83734130859375,-0.495361328125
1773149346411166200,8.867166259765625,-0.023406982421875,0.8463592529296875,-0.496368408203125
1773149346421203200,8.877203125,-0.001251220703125,0.8588714599609375,-0.492401123046875
1773149346431239200,8.8872392578125,0.009429931640625,0.8734588623046875,-0.48199462890625
1773149346441276200,8.897276123046876,0.059112548828125,0.8824462890625,-0.4699859619140625
1773149346451312000,8.90731201171875,0.1188812255859375,0.8838043212890625,-0.456085205078125
1773149346461348000,8.91734814453125,0.1445159912109375,0.8621826171875,-0.4410552978515625
1773149346471385300,8.92738525390625,0.11785888671875,0.836944580078125,-0.418060302734375
1773149346481421300,8.93742138671875,0.069549560546875,0.8280792236328125,-0.3846435546875
1773149346491457300,8.947457275390626,0.034027099609375,0.8631439208984375,-0.3592529296875
1773149346501494300,8.957494384765624,0.0373382568359375,0.9103546142578125,-0.361907958984375
1773149346511530200,8.9675302734375,0.0731658935546875,0.9409942626953125,-0.3731231689453125
1773149346521566200,8.977566162109374,0.0813140869140625,0.949371337890625,-0.3790435791015625
1773149346531603200,8.987603271484375,0.0312042236328125,0.9919281005859375,-0.371490478515625
1773149346541639200,8.99763916015625,-0.0627899169921875,1.0683746337890625,-0.356170654296875
1773149346551675100,9.007675048828125,-0.085906982421875,1.0998077392578125,-0.3439483642578125
1773149346561712400,9.01771240234375,-0.02642822265625,1.0627899169921875,-0.3273162841796875
1773149346571748400,9.027748291015625,0.0157623291015625,0.9793853759765625,-0.30340576171875
1773149346581785000,9.03778515625,-0.0197601318359375,0.9096832275390625,-0.289947509765625
1773149346591821300,9.0478212890625,-0.0944671630859375,0.886932373046875,-0.27435302734375
1773149346601857300,9.057857177734375,-0.14471435546875,0.8751983642578125,-0.2489471435546875
1773149346611894000,9.06789404296875,-0.1762847900390625,0.8671722412109375,-0.2331085205078125
1773149346621930200,9.07793017578125,-0.17279052734375,0.868438720703125,-0.2521514892578125
1773149346631966200,9.08796630859375,-0.1139678955078125,0.88385009765625,-0.2883148193359375
1773149346642003000,9.0980029296875,-0.068328857421875,0.885467529296875,-0.303131103515625
1773149346652039200,9.1080390625,-0.0901947021484375,0.887237548828125,-0.2887115478515625
1773149346662075100,9.1180751953125,-0.1323699951171875,0.882293701171875,-0.2491912841796875
1773149346672112000,9.128112060546876,-0.1628570556640625,0.8862457275390625,-0.201019287109375
1773149346682148000,9.138148193359376,-0.148101806640625,0.9160614013671875,-0.15020751953125
1773149346692185000,9.14818505859375,-0.1292266845703125,0.950531005859375,-0.106781005859375
1773149346702221000,9.158220947265624,-0.118865966796875,0.9703521728515625,-0.14697265625
1773149346712257000,9.168257080078124,-0.07403564453125,0.99798583984375,-0.221466064453125
1773149346722294000,9.1782939453125,-0.0701904296875,0.9866790771484375,-0.2394561767578125
1773149346732330000,9.188330078125,-0.1493682861328125,0.937591552734375,-0.250213623046875
1773149346742366000,9.198365966796874,-0.1594085693359375,0.8800506591796875,-0.297271728515625
1773149346752403200,9.2084033203125,-0.077789306640625,0.84503173828125,-0.344268798828125
1773149346762439200,9.218439208984375,-0.0060882568359375,0.8660430908203125,-0.36834716796875
1773149346772475100,9.22847509765625,-0.00201416015625,0.9241180419921875,-0.3571014404296875
1773149346782512000,9.23851220703125,-0.0659332275390625,0.981170654296875,-0.3200531005859375
1773149346792548000,9.248548095703125,-0.079803466796875,1.012939453125,-0.2726898193359375
1773149346802585000,9.258585205078125,-0.033416748046875,1.0110931396484375,-0.2071380615234375
1773149346812621000,9.26862109375,-0.02239990234375,1.014068603515625,-0.1533050537109375
1773149346822657000,9.278656982421875,-0.0491790771484375,1.053741455078125,-0.1279296875
1773149346832694000,9.288694091796875,-0.0685577392578125,1.1243133544921875,-0.1137237548828125
1773149346842730000,9.29872998046875,-0.0453338623046875,1.1791534423828125,-0.105255126953125
1773149346852766000,9.308765869140625,-0.009246826171875,1.156402587890625,-0.110565185546875
1773149346862803200,9.31880322265625,0.0001068115234375,1.085235595703125,-0.1204833984375
1773149346872839200,9.328839111328126,-0.0035858154296875,1.0273590087890625,-0.1352386474609375
1773149346882875100,9.338875244140626,-0.0000762939453125,0.9866943359375,-0.15850830078125
1773149346892912000,9.348912109375,-0.0052642822265625,0.9572601318359375,-0.1888275146484375
1773149346902948000,9.358947998046874,-0.00701904296875,0.9363861083984375,-0.230072021484375
1773149346912985000,9.368985107421874,0.0229644775390625,0.919036865234375,-0.269287109375
1773149346923021000,9.37902099609375,0.0520782470703125,0.9060516357421875,-0.299407958984375
1773149346933057000,9.38905712890625,0.0792388916015625,0.90264892578125,-0.316802978515625
1773149346943094300,9.39909423828125,0.1209869384765625,0.89495849609375,-0.3219757080078125
1773149346953130200,9.409130126953125,0.1313934326171875,0.8927764892578125,-0.291717529296875
1773149346963166200,9.419166259765625,0.0955810546875,0.9239044189453125,-0.2615966796875
1773149346973203200,9.429203125,0.0226593017578125,0.9606475830078125,-0.24835205078125
1773149346983239200,9.4392392578125,-0.031768798828125,0.9810638427734375,-0.247589111328125
1773149346993275100,9.449275146484375,-0.0255584716796875,0.985382080078125,-0.246490478515625
1773149347003312000,9.45931201171875,-0.0006103515625,1.0055084228515625,-0.2440643310546875
1773149347013348000,9.46934814453125,-0.0156097412109375,1.0387420654296875,-0.2415618896484375
1773149347023385000,9.479385009765625,-0.034149169921875,1.042022705078125,-0.2697906494140625
1773149347033421000,9.489421142578125,-0.0344696044921875,1.0235748291015625,-0.312591552734375
1773149347043457300,9.499457275390625,-0.023895263671875,1.0050811767578125,-0.3453521728515625
1773149347053494300,9.509494384765626,0.0043792724609375,0.97015380859375,-0.3810577392578125
1773149347063530200,9.5195302734375,0.0452880859375,0.9302215576171875,-0.4277801513671875
1773149347073566200,9.529566162109376,0.0826416015625,0.902618408203125,-0.4670257568359375
1773149347083603200,9.539603271484374,0.086181640625,0.890716552734375,-0.5038299560546875
1773149347093639200,9.54963916015625,0.0348052978515625,0.8876800537109375,-0.5428619384765625
1773149347103676200,9.55967626953125,-0.0158843994140625,0.91021728515625,-0.5745391845703125
1773149347113712000,9.569712158203124,-0.0204925537109375,0.923797607421875,-0.5534210205078125
1773149347123748000,9.579748046875,-0.0378570556640625,0.9118499755859375,-0.53741455078125
1773149347133785300,9.589785400390625,-0.0664520263671875,0.905242919921875,-0.534027099609375
1773149347143821300,9.5998212890625,-0.094390869140625,0.8929290771484375,-0.5523223876953125
1773149347153857300,9.609857177734375,-0.119140625,0.9188079833984375,-0.5432891845703125
1773149347163894300,9.619894287109375,-0.176361083984375,0.9744720458984375,-0.5239715576171875
1773149347173930200,9.62993017578125,-0.2321624755859375,1.00042724609375,-0.4741363525390625
1773149347183966200,9.63996630859375,-0.2838897705078125,1.00274658203125,-0.4034576416015625
1773149347194003200,9.650003173828125,-0.291290283203125,0.99310302734375,-0.3585968017578125
1773149347204039200,9.6600390625,-0.263092041015625,0.9864044189453125,-0.330047607421875
1773149347214076200,9.670076171875,-0.230621337890625,0.9925079345703125,-0.319061279296875
1773149347224112000,9.680112060546875,-0.1977081298828125,0.9949188232421875,-0.3297882080078125
1773149347234148400,9.6901484375,-0.2047576904296875,1.002716064453125,-0.3487701416015625
1773149347244185000,9.70018505859375,-0.225067138671875,1.004425048828125,-0.3939361572265625
1773149347254221300,9.71022119140625,-0.231781005859375,1.000885009765625,-0.4359283447265625
1773149347264257300,9.72025732421875,-0.2526092529296875,0.9920654296875,-0.4298858642578125
1773149347274294000,9.7302939453125,-0.3251495361328125,0.9756927490234375,-0.3563232421875
1773149347284330200,9.740330322265624,-0.4158477783203125,0.938720703125,-0.2523651123046875
1773149347294367000,9.750366943359374,-0.51220703125,0.9030303955078125,-0.1455535888671875
1773149347304403000,9.76040283203125,-0.5807952880859375,0.8759307861328125,-0.0497894287109375
1773149347314439200,9.770439208984374,-0.602447509765625,0.865264892578125,0.0359954833984375
1773149347324476200,9.78047607421875,-0.609954833984375,0.855133056640625,0.129150390625
1773149347334512000,9.79051220703125,-0.63677978515625,0.85540771484375,0.2145233154296875
1773149347344548400,9.80054833984375,-0.6696624755859375,0.864593505859375,0.26715087890625
1773149347354585000,9.810585205078125,-0.6582794189453125,0.8938751220703125,0.3005523681640625
1773149347364621000,9.82062109375,-0.6062774658203125,0.90460205078125,0.2918701171875
1773149347374658000,9.830657958984375,-0.5371856689453125,0.8844451904296875,0.246246337890625
1773149347384694000,9.840694091796875,-0.4676361083984375,0.8620147705078125,0.21331787109375
1773149347394730000,9.85072998046875,-0.4318389892578125,0.8773956298828125,0.1680450439453125
1773149347404767000,9.86076708984375,-0.3192138671875,0.9248199462890625,0.0838623046875
1773149347414803000,9.870802978515625,-0.1215362548828125,0.96331787109375,0.01007080078125
1773149347424839000,9.8808388671875,0.0313262939453125,0.987884521484375,-0.0542144775390625
1773149347434876000,9.8908759765625,0.1292266845703125,0.952392578125,-0.1222686767578125
1773149347444911900,9.900911865234375,0.1374664306640625,0.8659820556640625,-0.1837310791015625
1773149347454948000,9.910947998046876,-0.0489654541015625,0.7931671142578125,-0.2947540283203125
1773149347464985000,9.920985107421876,-0.43048095703125,0.6640777587890625,-0.45574951171875
1773149347475021000,9.93102099609375,-0.591552734375,0.4365081787109375,-0.5790252685546875
1773149347485058000,9.94105810546875,-0.426513671875,0.2516326904296875,-0.627349853515625
1773149347495094000,9.951093994140624,-0.194427490234375,0.2125396728515625,-0.62921142578125
1773149347505130000,9.9611298828125,0.0151519775390625,0.2546844482421875,-0.6242218017578125
1773149347515167000,9.9711669921875,0.1194610595703125,0.3027496337890625,-0.6530609130859375
1773149347525203000,9.981202880859374,0.123199462890625,0.3646087646484375,-0.7077789306640625
1773149347535240200,9.991240234375,0.026336669921875,0.4074249267578125,-0.76202392578125
1773149347545276200,10.001276123046875,-0.10491943359375,0.4401702880859375,-0.80426025390625
1773149347555312000,10.01131201171875,-0.2001953125,0.592864990234375,-0.7702484130859375
1773149347565349000,10.02134912109375,-0.2572479248046875,0.9073944091796875,-0.6104888916015625
1773149347575385000,10.031385009765625,-0.2606201171875,1.197906494140625,-0.4439849853515625
1773149347585421000,10.041421142578125,-0.2591705322265625,1.4215087890625,-0.3678436279296875
1773149347595458000,10.0514580078125,-0.3344573974609375,1.57098388671875,-0.3966827392578125
1773149347605494000,10.061493896484375,-0.518768310546875,1.7819976806640625,-0.4433441162109375
1773149347615531000,10.071531005859375,-0.7705535888671875,1.9721527099609375,-0.3968963623046875
1773149347625567000,10.08156689453125,-0.8715667724609375,1.8240509033203125,-0.2814483642578125
1773149347635603000,10.09160302734375,-0.7709197998046875,1.386016845703125,-0.2402801513671875
1773149347645640200,10.10164013671875,-0.6029205322265625,1.1204681396484375,-0.2643585205078125
1773149347655676200,10.11167626953125,-0.483856201171875,0.9487457275390625,-0.3343963623046875
1773149347665712000,10.121712158203126,-0.4237518310546875,0.81243896484375,-0.41973876953125
1773149347675749000,10.1317490234375,-0.3639373779296875,0.726837158203125,-0.4678192138671875
1773149347685785000,10.14178515625,-0.2895660400390625,0.67529296875,-0.4715423583984375
1773149347695822000,10.151822021484374,-0.23419189453125,0.660308837890625,-0.461669921875
1773149347705858000,10.161858154296874,-0.21136474609375,0.672393798828125,-0.4509735107421875
1773149347715894000,10.17189404296875,-0.192108154296875,0.6969146728515625,-0.4481201171875
1773149347725931300,10.18193115234375,-0.0916900634765625,0.7139892578125,-0.430267333984375
1773149347735967200,10.19196728515625,0.0422210693359375,0.729095458984375,-0.380096435546875
1773149347746003200,10.202003173828125,0.12237548828125,0.754058837890625,-0.3197784423828125
1773149347756040200,10.212040283203125,0.1395263671875,0.792510986328125,-0.2625732421875
1773149347766076200,10.222076171875,0.1370849609375,0.8534393310546875,-0.2169647216796875
1773149347776113200,10.232113037109375,0.1341094970703125,0.937713623046875,-0.1607208251953125
1773149347786149000,10.242149169921875,0.1302947998046875,0.9974365234375,-0.1204681396484375
1773149347796185000,10.25218505859375,0.0907745361328125,1.0598297119140625,-0.1179351806640625
1773149347806222000,10.26222216796875,0.0081634521484375,1.137847900390625,-0.1734771728515625
1773149347816258000,10.272258056640625,-0.0869598388671875,1.229278564453125,-0.2686920166015625
1773149347826294300,10.282294189453125,-0.152374267578125,1.2747955322265625,-0.3722686767578125
1773149347836331000,10.2923310546875,-0.1981048583984375,1.223114013671875,-0.4478302001953125
1773149347846367200,10.3023671875,-0.2530517578125,1.09429931640625,-0.490142822265625
1773149347856404000,10.312404052734376,-0.293975830078125,0.959442138671875,-0.5196075439453125
1773149347866440000,10.32243994140625,-0.3296661376953125,0.849517822265625,-0.531982421875
1773149347876476200,10.33247607421875,-0.3594512939453125,0.7765350341796875,-0.53070068359375
1773149347886513000,10.342512939453124,-0.3682708740234375,0.7208709716796875,-0.520050048828125
1773149347896548900,10.352548828125,-0.3280029296875,0.7006683349609375,-0.508575439453125
1773149347906585000,10.362585205078124,-0.225616455078125,0.7366485595703125,-0.4761199951171875
1773149347916622000,10.3726220703125,-0.0930633544921875,0.7975311279296875,-0.4184722900390625
1773149347926658000,10.382657958984375,-0.0221405029296875,0.8392181396484375,-0.35595703125
1773149347936695000,10.392695068359375,-0.0069580078125,0.8638763427734375,-0.3068389892578125
1773149347946731000,10.40273095703125,-0.0034942626953125,0.8933563232421875,-0.2710113525390625
1773149347956767000,10.41276708984375,-0.0082244873046875,0.932403564453125,-0.2387237548828125
1773149347966804000,10.422803955078125,-0.025848388671875,0.975555419921875,-0.207183837890625
1773149347976840000,10.43283984375,-0.042266845703125,1.0191802978515625,-0.18304443359375
1773149347986877000,10.442876953125,-0.0457763671875,1.048248291015625,-0.1747283935546875
1773149347996913000,10.452912841796875,-0.0195159912109375,1.0538787841796875,-0.1702880859375
1773149348006949000,10.46294921875,0.0023345947265625,1.0364532470703125,-0.1600341796875
1773149348016986000,10.472986083984376,-0.003631591796875,1.013153076171875,-0.14202880859375
1773149348027022000,10.48302197265625,-0.036712646484375,0.99542236328125,-0.13214111328125
1773149348037058000,10.49305810546875,-0.082916259765625,0.983978271484375,-0.124053955078125
1773149348047095000,10.503094970703126,-0.1352386474609375,0.98602294921875,-0.1262969970703125
1773149348057131000,10.513131103515626,-0.1627960205078125,1.0176239013671875,-0.1581573486328125
1773149348067168000,10.52316796875,-0.13507080078125,1.0587921142578125,-0.20806884765625
1773149348077204000,10.533203857421874,-0.0900726318359375,1.09466552734375,-0.255584716796875
1773149348087240000,10.543239990234374,-0.069854736328125,1.118316650390625,-0.3074493408203125
1773149348097277200,10.553277099609375,-0.0697784423828125,1.1085205078125,-0.3640899658203125
1773149348107313200,10.563313232421875,-0.05621337890625,1.063934326171875,-0.4231719970703125
1773149348117350100,10.57335009765625,-0.0409393310546875,0.9914398193359375,-0.4479522705078125
1773149348127386000,10.58338623046875,0.0043792724609375,0.8955078125,-0.4459381103515625
1773149348137422000,10.593422119140625,0.09271240234375,0.8111419677734375,-0.4279327392578125
1773149348147459000,10.603458984375,0.1956787109375,0.7443084716796875,-0.4144744873046875
1773149348157495000,10.6134951171875,0.24420166015625,0.711578369140625,-0.3816070556640625
1773149348167531000,10.623531005859375,0.2218017578125,0.727203369140625,-0.3311004638671875
1773149348177568000,10.633568115234375,0.148223876953125,0.80743408203125,-0.2698974609375
1773149348187604000,10.64360400390625,0.0652008056640625,0.909576416015625,-0.2236480712890625
1773149348197641200,10.65364111328125,0.019378662109375,1.0071258544921875,-0.2093963623046875
1773149348207677200,10.66367724609375,0.0140380859375,1.0881805419921875,-0.2036895751953125
1773149348217713200,10.673713134765626,0.0284423828125,1.159515380859375,-0.2012481689453125
1773149348227750100,10.683750244140626,0.0165252685546875,1.192901611328125,-0.170074462890625
1773149348237786000,10.6937861328125,-0.0385894775390625,1.14703369140625,-0.1262359619140625
1773149348247823000,10.703822998046874,-0.097137451171875,1.1124114990234375,-0.10589599609375
1773149348257859000,10.713859130859374,-0.1268310546875,1.0810394287109375,-0.1191558837890625
1773149348267895000,10.72389501953125,-0.1413726806640625,0.9763946533203125,-0.1767120361328125
1773149348277932300,10.733932373046875,-0.11474609375,0.9131317138671875,-0.236297607421875
1773149348287968300,10.74396826171875,-0.0936737060546875,0.87786865234375,-0.29730224609375
1773149348298005000,10.7540048828125,-0.095001220703125,0.8665771484375,-0.367156982421875
1773149348308041200,10.764041259765625,-0.0816192626953125,0.882598876953125,-0.4468994140625
1773149348318077200,10.7740771484375,-0.049346923828125,0.9235992431640625,-0.494903564453125
1773149348328114000,10.784114013671875,-0.011138916015625,0.954376220703125,-0.5038604736328125
1773149348338150100,10.794150146484375,-0.0207366943359375,0.960968017578125,-0.4767913818359375
1773149348348186000,10.80418603515625,-0.07171630859375,0.9635162353515625,-0.4413909912109375
1773149348358223400,10.814223388671875,-0.1159210205078125,0.9737548828125,-0.4149627685546875
1773149348368259300,10.82425927734375,-0.112152099609375,0.96441650390625,-0.3926239013671875
1773149348378296600,10.834296630859376,-0.0671844482421875,0.9271392822265625,-0.3754425048828125
1773149348388332500,10.84433251953125,-0.0233612060546875,0.8716278076171875,-0.367431640625
1773149348398368500,10.854368408203126,-0.0049591064453125,0.8208160400390625,-0.3826446533203125
1773149348408405500,10.864405517578126,0.000762939453125,0.7923126220703125,-0.4287872314453125
1773149348418441500,10.87444140625,0.0059661865234375,0.802337646484375,-0.499267578125
1773149348428478500,10.884478515625,0.0196075439453125,0.82763671875,-0.572357177734375
1773149348438514400,10.894514404296874,0.024566650390625,0.8436737060546875,-0.6351165771484375
1773149348448550400,10.90455029296875,0.012451171875,0.8418426513671875,-0.666656494140625
1773149348458587400,10.91458740234375,-0.031097412109375,0.8298187255859375,-0.68780517578125
1773149348468623600,10.92462353515625,-0.08636474609375,0.833465576171875,-0.6966705322265625
1773149348478660600,10.93466064453125,-0.1209564208984375,0.834747314453125,-0.6858367919921875
1773149348488696600,10.944696533203125,-0.1212310791015625,0.826751708984375,-0.65045166015625
1773149348498732500,10.954732666015625,-0.113433837890625,0.8331298828125,-0.6034393310546875
1773149348508769500,10.96476953125,-0.1089019775390625,0.863677978515625,-0.5534515380859375
1773149348518805500,10.974805419921875,-0.1162567138671875,0.90606689453125,-0.4995880126953125
1773149348528842500,10.984842529296875,-0.1208953857421875,0.9402618408203125,-0.4394073486328125
1773149348538878500,10.99487841796875,-0.119903564453125,0.956085205078125,-0.3847198486328125
1773149348548914400,11.00491455078125,-0.123931884765625,0.94805908203125,-0.3415679931640625
1773149348558951700,11.01495166015625,-0.1197662353515625,0.9384002685546875,-0.315399169921875
1773149348568987600,11.024987548828125,-0.1028900146484375,0.9132232666015625,-0.3129730224609375
1773149348579023600,11.035023681640626,-0.0914154052734375,0.886444091796875,-0.339630126953125
1773149348589060600,11.045060546875,-0.08251953125,0.886962890625,-0.3849945068359375
1773149348599096600,11.0550966796875,-0.0811004638671875,0.9054107666015625,-0.4180145263671875
1773149348609133600,11.065133544921874,-0.09246826171875,0.917388916015625,-0.439300537109375
1773149348619169500,11.07516943359375,-0.1307830810546875,0.9164886474609375,-0.458587646484375
1773149348629205500,11.08520556640625,-0.174896240234375,0.91314697265625,-0.465362548828125
1773149348639242500,11.095242431640624,-0.180877685546875,0.9093170166015625,-0.4542083740234375
1773149348649278700,11.10527880859375,-0.16094970703125,0.90484619140625,-0.4293975830078125
1773149348659315700,11.115315673828125,-0.1308441162109375,0.9001617431640625,-0.411468505859375
1773149348669351700,11.1253515625,-0.0934600830078125,0.896942138671875,-0.4028472900390625
1773149348679387600,11.1353876953125,-0.0815582275390625,0.9073028564453125,-0.383209228515625
1773149348689424600,11.145424560546875,-0.0952911376953125,0.929168701171875,-0.361175537109375
1773149348699460600,11.155460693359375,-0.1015472412109375,0.928466796875,-0.3492279052734375
1773149348709497300,11.165497314453125,-0.096038818359375,0.9255218505859375,-0.3446502685546875
1773149348719533600,11.175533447265625,-0.0589141845703125,0.9200897216796875,-0.365478515625
1773149348729569500,11.185569580078125,-0.02587890625,0.905059814453125,-0.400115966796875
1773149348739606500,11.1956064453125,-0.048065185546875,0.8827667236328125,-0.45233154296875
1773149348749642500,11.205642578125,-0.0969390869140625,0.874237060546875,-0.4675140380859375
1773149348759679500,11.215679443359376,-0.14019775390625,0.8676910400390625,-0.47027587890625
1773149348769715500,11.225715576171876,-0.14569091796875,0.8704833984375,-0.4693756103515625
1773149348779751400,11.23575146484375,-0.114410400390625,0.8754119873046875,-0.46343994140625
1773149348789788400,11.245788330078126,-0.0926666259765625,0.8699951171875,-0.4517974853515625
1773149348799824400,11.255824462890626,-0.09423828125,0.8554229736328125,-0.4408721923828125
1773149348809861400,11.265861328125,-0.1430206298828125,0.82489013671875,-0.4611968994140625
1773149348819897300,11.2758974609375,-0.1937408447265625,0.8175048828125,-0.4795989990234375
1773149348829933600,11.28593359375,-0.2228851318359375,0.82781982421875,-0.5006103515625
1773149348839970600,11.295970458984375,-0.2316436767578125,0.8452606201171875,-0.497100830078125
1773149348850006500,11.306006591796875,-0.23651123046875,0.8490142822265625,-0.5107269287109375
1773149348860043500,11.31604345703125,-0.2361297607421875,0.8184051513671875,-0.5092620849609375
1773149348870079500,11.32607958984375,-0.22088623046875,0.7640228271484375,-0.4674072265625
1773149348880115500,11.336115478515625,-0.241455078125,0.73504638671875,-0.385986328125
1773149348890152400,11.34615234375,-0.2770538330078125,0.7220458984375,-0.3062896728515625
1773149348900188400,11.3561884765625,-0.331024169921875,0.7040252685546875,-0.2286834716796875
1773149348910225700,11.3662255859375,-0.4093475341796875,0.68292236328125,-0.1800994873046875
1773149348920261600,11.37626171875,-0.4117584228515625,0.66485595703125,-0.177947998046875
1773149348930297600,11.386297607421875,-0.38946533203125,0.6644287109375,-0.205535888671875
1773149348940334600,11.39633447265625,-0.3732757568359375,0.6768951416015625,-0.2547454833984375
1773149348950370600,11.40637060546875,-0.3769378662109375,0.6820831298828125,-0.3020477294921875
1773149348960407600,11.416407470703126,-0.35888671875,0.717315673828125,-0.3073883056640625
1773149348970443500,11.426443603515626,-0.3270263671875,0.751129150390625,-0.326019287109375
1773149348980479500,11.4364794921875,-0.2306060791015625,0.8148345947265625,-0.31982421875
1773149348990516500,11.4465166015625,-0.157012939453125,0.83819580078125,-0.306121826171875
1773149349000552400,11.456552490234374,-0.1809539794921875,0.8162994384765625,-0.2913818359375
1773149349010589700,11.466589599609375,-0.305816650390625,0.7475128173828125,-0.291839599609375
1773149349020625700,11.476625732421875,-0.416656494140625,0.6725006103515625,-0.2657928466796875
1773149349030661600,11.48666162109375,-0.42657470703125,0.6569671630859375,-0.200469970703125
1773149349040698600,11.49669873046875,-0.3348846435546875,0.690521240234375,-0.2390594482421875
1773149349050734600,11.506734619140625,-0.104156494140625,0.7707672119140625,-0.2113037109375
1773149349060771600,11.516771484375,-0.094390869140625,0.79449462890625,-0.1427459716796875
1773149349070807600,11.5268076171875,-0.385833740234375,0.7629852294921875,-0.09991455078125
1773149349080844500,11.536844482421875,-0.5576171875,0.7583160400390625,-0.034149169921875
1773149349090880500,11.546880615234375,-0.42181396484375,0.7764129638671875,0.0117034912109375
1773149349100916700,11.556916748046875,-0.254974365234375,0.8535003662109375,-0.0124053955078125
1773149349110953500,11.566953369140625,-0.3345184326171875,0.9026641845703125,-0.0507049560546875
1773149349120989400,11.576989501953125,-0.4744720458984375,0.931488037109375,-0.0621490478515625
1773149349131026400,11.5870263671875,-0.4129180908203125,0.9674530029296875,-0.0573577880859375
1773149349141062400,11.5970625,-0.314300537109375,0.9895477294921875,-0.0479278564453125
1773149349151098400,11.607098388671876,-0.379241943359375,1.006805419921875,-0.04754638671875
1773149349161135400,11.61713525390625,-0.3712615966796875,1.0267181396484375,-0.053253173828125
1773149349171171300,11.62717138671875,-0.2466888427734375,1.034759521484375,-0.0928497314453125
1773149349181208600,11.63720849609375,-0.3245391845703125,0.9330291748046875,-0.1520843505859375
1773149349191244500,11.64724462890625,-0.4564666748046875,0.8330078125,-0.1785888671875
1773149349201280500,11.657280517578124,-0.448822021484375,0.8279876708984375,-0.162872314453125
1773149349211317500,11.6673173828125,-0.4846343994140625,0.8104248046875,-0.15728759765625
1773149349221353500,11.677353515625,-0.52178955078125,0.7725067138671875,-0.1424713134765625
1773149349231390500,11.687390380859375,-0.4420013427734375,0.7607879638671875,-0.1053009033203125
1773149349241426400,11.697426513671875,-0.4217376708984375,0.7815399169921875,-0.0615692138671875
1773149349251462400,11.70746240234375,-0.5654296875,0.792022705078125,-0.04864501953125
1773149349261499600,11.717499755859375,-0.5466461181640625,0.890472412109375,-0.00286865234375
1773149349271535600,11.72753564453125,-0.542449951171875,0.94866943359375,0.011810302734375
1773149349281572600,11.737572509765625,-0.5687103271484375,0.984893798828125,0.033233642578125
1773149349291608600,11.747608642578125,-0.544952392578125,1.01593017578125,0.0432891845703125
1773149349301644500,11.75764453125,-0.4610137939453125,1.0607452392578125,0.0638427734375
1773149349311681500,11.767681640625,-0.5652923583984375,1.0268096923828125,0.1466522216796875
1773149349321717500,11.777717529296876,-0.5538330078125,0.9608612060546875,0.1751708984375
1773149349331754500,11.78775439453125,-0.5594635009765625,0.904876708984375,0.1646881103515625
1773149349341790500,11.79779052734375,-0.546966552734375,0.8977508544921875,0.17767333984375
1773149349351831300,11.807831298828125,-0.6056671142578125,0.8694915771484375,0.1236572265625
1773149349361867300,11.8178671875,-0.5844573974609375,0.8354034423828125,0.069244384765625
1773149349371903200,11.8279033203125,-0.5040130615234375,0.83819580078125,-0.00897216796875
1773149349381940500,11.8379404296875,-0.6073760986328125,0.822418212890625,0.000732421875
1773149349391976400,11.8479765625,-0.6418914794921875,0.760955810546875,-0.001373291015625
1773149349402013200,11.85801318359375,-0.5635528564453125,0.8325042724609375,0.012481689453125
1773149349412049400,11.86804931640625,-0.6607666015625,0.8540496826171875,0.073944091796875
1773149349422085400,11.87808544921875,-0.63525390625,0.873748779296875,0.0988922119140625
1773149349432122000,11.8881220703125,-0.59814453125,0.87249755859375,0.1446533203125
1773149349442158300,11.898158447265626,-0.64385986328125,0.889892578125,0.18524169921875
1773149349452195000,11.908195068359374,-0.679168701171875,0.9243316650390625,0.213287353515625
1773149349462231000,11.91823095703125,-0.72491455078125,0.9178619384765625,0.173492431640625
1773149349472267300,11.928267333984374,-0.6888427734375,0.874267578125,0.1156463623046875
1773149349482304300,11.93830419921875,-0.71612548828125,0.8529052734375,0.04742431640625
1773149349492340200,11.94834033203125,-0.6819610595703125,0.833770751953125,-0.0637054443359375
1773149349502377200,11.958377197265625,-0.679595947265625,0.816070556640625,-0.100067138671875
1773149349512413200,11.9684130859375,-0.6625518798828125,0.80340576171875,-0.1071319580078125
1773149349522450200,11.9784501953125,-0.6665191650390625,0.8264312744140625,-0.038665771484375
1773149349532486100,11.988486083984375,-0.80926513671875,0.7637481689453125,0.048004150390625
1773149349542522000,11.998522216796875,-0.7539215087890625,0.7882080078125,0.1219940185546875
1773149349552558000,12.00855810546875,-0.7470855712890625,0.8153839111328125,0.144683837890625
1773149349562594000,12.018593994140625,-0.784881591796875,0.8395538330078125,0.1597747802734375
1773149349572630300,12.02863037109375,-0.8083038330078125,0.837646484375,0.1468048095703125
1773149349582667300,12.038667236328125,-0.793548583984375,0.8153533935546875,0.0849151611328125
1773149349592703200,12.048703125,-0.77105712890625,0.8058929443359375,0.0809478759765625
1773149349602740200,12.058740234375,-0.7362823486328125,0.79156494140625,0.0662994384765625
1773149349612776200,12.068776123046876,-0.7624053955078125,0.7515106201171875,0.0472412109375
1773149349622813200,12.078813232421876,-0.695556640625,0.69140625,0.0791168212890625
1773149349632849200,12.08884912109375,-0.6617584228515625,0.6697540283203125,0.180023193359375
1773149349642885000,12.098885009765626,-0.735015869140625,0.65673828125,0.283233642578125
1773149349652922400,12.10892236328125,-0.7543792724609375,0.7088623046875,0.2767333984375
1773149349662958300,12.118958251953124,-0.78076171875,0.7124786376953125,0.21795654296875
1773149349672995300,12.128995361328125,-0.70587158203125,0.684661865234375,0.1309967041015625
1773149349683031300,12.13903125,-0.6902923583984375,0.6710968017578125,0.0993194580078125
1773149349693067300,12.1490673828125,-0.6792144775390625,0.694244384765625,0.1640625
1773149349703104300,12.159104248046875,-0.72064208984375,0.7091217041015625,0.1860809326171875
1773149349713140200,12.16914013671875,-0.7279052734375,0.6976776123046875,0.165618896484375
1773149349723177200,12.17917724609375,-0.749176025390625,0.686859130859375,0.2055206298828125
1773149349733213200,12.189213134765625,-0.7468109130859375,0.6798858642578125,0.2466888427734375
1773149349743250400,12.19925048828125,-0.719818115234375,0.668914794921875,0.2187957763671875
1773149349753286400,12.209286376953125,-0.794281005859375,0.709197998046875,0.2025909423828125
1773149349763322400,12.219322265625,-0.8183135986328125,0.75677490234375,0.18560791015625
1773149349773359400,12.229359375,-0.812408447265625,0.7946624755859375,0.149810791015625
1773149349783395300,12.239395263671875,-0.8255767822265625,0.734710693359375,0.102752685546875
1773149349793432300,12.249432373046876,-0.7813873291015625,0.68505859375,0.077117919921875
1773149349803468300,12.25946826171875,-0.7330474853515625,0.6445159912109375,0.087738037109375
1773149349813504300,12.269504150390626,-0.7730865478515625,0.6245880126953125,0.152801513671875
1773149349823541200,12.279541259765624,-0.8914031982421875,0.627960205078125,0.2185516357421875
1773149349833577500,12.289577392578124,-0.8740081787109375,0.6411895751953125,0.2171630859375
1773149349843614500,12.299614501953124,-0.78643798828125,0.6562042236328125,0.1605682373046875
1773149349853650400,12.309650390625,-0.876434326171875,0.62103271484375,0.104400634765625
1773149349863687200,12.319687255859375,-0.831756591796875,0.5903472900390625,0.1088714599609375
1773149349873724200,12.32972412109375,-0.7790374755859375,0.5810699462890625,0.16534423828125
1773149349883760000,12.339760009765625,-0.8096160888671875,0.6170654296875,0.260162353515625
1773149349893796000,12.349796142578125,-0.921295166015625,0.631500244140625,0.3131866455078125
1773149349903833300,12.359833251953125,-0.9092559814453125,0.5835113525390625,0.225860595703125
1773149349913869300,12.369869384765625,-0.810943603515625,0.5723419189453125,0.1761932373046875
1773149349923906300,12.37990625,-0.7862396240234375,0.559356689453125,0.134674072265625
1773149349933942300,12.3899423828125,-0.831939697265625,0.587158203125,0.18023681640625
1773149349943978200,12.399978271484375,-0.88763427734375,0.6486358642578125,0.2820587158203125
1773149349954015200,12.41001513671875,-0.888397216796875,0.6182403564453125,0.2850494384765625
1773149349964051200,12.42005126953125,-0.8904266357421875,0.56390380859375,0.1909637451171875
1773149349974088200,12.430088134765626,-0.8491973876953125,0.5138702392578125,0.1535186767578125
1773149349984124200,12.440124267578126,-0.862091064453125,0.503692626953125,0.167724609375
1773149349994161400,12.450161376953124,-0.9170379638671875,0.5445709228515625,0.2075958251953125
1773149350004197400,12.460197265625,-0.93035888671875,0.584869384765625,0.28631591796875
1773149350014233300,12.4702333984375,-0.94158935546875,0.5951385498046875,0.2857818603515625
1773149350024270300,12.480270263671875,-0.9199981689453125,0.57958984375,0.228363037109375
1773149350034306300,12.490306396484375,-0.86346435546875,0.5430145263671875,0.1846466064453125
1773149350044343300,12.50034326171875,-0.8455810546875,0.539703369140625,0.1644744873046875
1773149350054379300,12.510379150390625,-0.84552001953125,0.589935302734375,0.1536712646484375
1773149350064415200,12.520415283203125,-0.863433837890625,0.608856201171875,0.207763671875
1773149350074452200,12.5304521484375,-0.86444091796875,0.6019439697265625,0.2304534912109375
1773149350084488400,12.540488525390625,-0.8296356201171875,0.5909271240234375,0.1959991455078125
1773149350094525400,12.550525390625,-0.801605224609375,0.58795166015625,0.169830322265625
1773149350104561400,12.5605615234375,-0.806365966796875,0.592498779296875,0.1549224853515625
1773149350114598400,12.570598388671876,-0.837005615234375,0.611541748046875,0.190216064453125
1773149350124634400,12.58063427734375,-0.8496246337890625,0.6189727783203125,0.2161712646484375
1773149350134670300,12.59067041015625,-0.853363037109375,0.6050872802734375,0.1942138671875
1773149350144707300,12.600707275390626,-0.8272552490234375,0.611907958984375,0.131744384765625
1773149350154743300,12.610743408203126,-0.8213348388671875,0.6411285400390625,0.1055755615234375
1773149350164780300,12.6207802734375,-0.83270263671875,0.6682586669921875,0.09979248046875
1773149350174816300,12.630816162109374,-0.8291778564453125,0.6827239990234375,0.1287078857421875
1773149350184853200,12.640853271484374,-0.816864013671875,0.697967529296875,0.1220550537109375
1773149350194889200,12.65088916015625,-0.8339385986328125,0.6890869140625,0.097686767578125
1773149350204925200,12.66092529296875,-0.815948486328125,0.644134521484375,0.05596923828125
1773149350214962200,12.670962158203125,-0.759490966796875,0.6211395263671875,0.0351715087890625
1773149350224998100,12.680998046875,-0.76239013671875,0.641082763671875,0.0384063720703125
1773149350235035100,12.69103515625,-0.760345458984375,0.67724609375,0.0416717529296875
1773149350245071000,12.701071044921875,-0.7725372314453125,0.723236083984375,0.0965118408203125
1773149350255108400,12.7111083984375,-0.8098297119140625,0.7552642822265625,0.12493896484375
1773149350265144300,12.721144287109375,-0.7694854736328125,0.7530517578125,0.0758514404296875
1773149350275180300,12.73118017578125,-0.7236480712890625,0.74853515625,0.0211029052734375
1773149350285217300,12.74121728515625,-0.7979736328125,0.7580413818359375,0.013427734375
1773149350295253200,12.751253173828125,-0.8023529052734375,0.7581787109375,-0.0033111572265625
1773149350305290200,12.761290283203126,-0.7682037353515625,0.7602081298828125,0.01983642578125
1773149350315326200,12.771326171875,-0.71484375,0.7371978759765625,0.042205810546875
1773149350325363200,12.78136328125,-0.6981658935546875,0.711700439453125,0.04827880859375
1773149350335399400,12.7913994140625,-0.7181854248046875,0.7070159912109375,0.0482330322265625
1773149350345435400,12.801435302734374,-0.6917724609375,0.6893310546875,-0.0098876953125
1773149350355468000,12.811468017578125,-0.7060546875,0.7011871337890625,-0.0457611083984375
1773149350365504000,12.82150390625,-0.748291015625,0.7323760986328125,-0.0537872314453125
1773149350375541000,12.831541015625,-0.7578582763671875,0.75054931640625,-0.0437469482421875
1773149350385577000,12.841576904296875,-0.7329559326171875,0.73828125,-0.020111083984375
1773149350395613000,12.851613037109376,-0.66802978515625,0.7186126708984375,0.00897216796875
1773149350405650200,12.861650146484376,-0.6369781494140625,0.7159576416015625,0.0434417724609375
1773149350415686100,12.87168603515625,-0.6525115966796875,0.7148284912109375,0.0655059814453125
1773149350425723100,12.88172314453125,-0.665374755859375,0.7351531982421875,0.0878753662109375
1773149350435759000,12.891759033203124,-0.73895263671875,0.774749755859375,0.101898193359375
1773149350445796000,12.901796142578124,-0.702545166015625,0.7884521484375,0.0844573974609375
1773149350455832000,12.91183203125,-0.5969696044921875,0.7655029296875,0.05841064453125
1773149350465868000,12.921867919921874,-0.6560516357421875,0.756561279296875,0.06842041015625
1773149350475905300,12.9319052734375,-0.67315673828125,0.7388916015625,0.043609619140625
1773149350485941200,12.941941162109375,-0.6722564697265625,0.7136077880859375,0.023468017578125
1773149350495978200,12.951978271484375,-0.6769256591796875,0.7248382568359375,0.030487060546875
1773149350506014200,12.96201416015625,-0.698089599609375,0.7425994873046875,0.0185699462890625
1773149350516051000,12.972051025390625,-0.689697265625,0.7460479736328125,0.020233154296875
1773149350526087200,12.982087158203125,-0.6075286865234375,0.7478485107421875,0.033111572265625
1773149350536123100,12.992123046875,-0.57781982421875,0.75250244140625,0.0450286865234375
1773149350546159900,13.002159912109375,-0.565582275390625,0.7627716064453125,0.046478271484375
1773149350556196000,13.012196044921875,-0.555938720703125,0.769195556640625,0.043212890625
1773149350566233000,13.022233154296876,-0.5828704833984375,0.782745361328125,0.0392913818359375
1773149350576269000,13.03226904296875,-0.6057891845703125,0.7845306396484375,0.030426025390625
1773149350586306000,13.04230615234375,-0.6092071533203125,0.80230712890625,0.0269317626953125
1773149350596342000,13.052342041015624,-0.6080169677734375,0.8039398193359375,0.0269927978515625
1773149350606378000,13.0623779296875,-0.513092041015625,0.8048858642578125,0.0224609375
1773149350616415000,13.0724150390625,-0.493682861328125,0.8441162109375,0.0207672119140625
