time,seconds_elapsed,z,y,x
1773149337658315500,0.1143154296875,0.07328613102436066,2.690099000930786,-1.6584815979003906
1773149337668351500,0.1243515625,-0.16469472646713257,2.9936795234680176,-2.0773797035217285
1773149337678387700,0.1343876953125,-0.48644372820854187,2.5653460025787354,-2.198303461074829
1773149337688423700,0.144423583984375,-0.6514161825180054,2.0917809009552,-1.8227652311325073
1773149337698460700,0.154460693359375,-0.7266331911087036,1.7202138900756836,-1.196647047996521
1773149337708496600,0.16449658203125,-0.7927983999252319,1.8623698949813843,-0.44554319977760315
1773149337718532600,0.17453271484375,-0.7524043917655945,2.538855791091919,0.11126626282930374
1773149337728568600,0.184568603515625,-0.679305374622345,2.970407724380493,0.5681297779083252
1773149337738604500,0.1946044921875,-0.6559699177742004,2.3893635272979736,0.9109622240066528
1773149337748640500,0.204640625,-0.5460380911827087,1.7244600057601929,0.927801787853241
1773149337758676500,0.214676513671875,-0.35567107796669006,1.617214560508728,0.6943994164466858
1773149337768712400,0.22471240234375,-0.2439754158258438,1.8250545263290405,0.44519495964050293
1773149337778748400,0.23474853515625,-0.16452214121818542,1.4893535375595093,0.14316478371620178
1773149337788784400,0.244784423828125,-0.1373201310634613,1.3763887882232666,-0.10439525544643402
1773149337798820600,0.254820556640625,-0.1518213152885437,1.2081902027130127,-0.08371102064847946
1773149337808856600,0.264856689453125,-0.06896604597568512,1.0564355850219727,0.12213060259819031
1773149337818893300,0.274893310546875,0.25194114446640015,1.034688949584961,0.51431804895401
1773149337828929500,0.284929443359375,0.6034631729125977,1.229322910308838,0.885775625705719
1773149337838965500,0.294965576171875,0.7200167179107666,1.451145887374878,0.8890774250030518
1773149337849001500,0.30500146484375,0.5608372092247009,1.279213309288025,0.5222875475883484
1773149337859037700,0.31503759765625,0.3294830322265625,0.8353890180587769,0.11973236501216888
1773149337869073700,0.32507373046875,0.2459854781627655,0.2748194634914398,-0.013905984349548817
1773149337879109600,0.335109619140625,0.3575277030467987,-1.062538743019104,0.6026192307472229
1773149337889145600,0.3451455078125,0.36735185980796814,-1.0921903848648071,0.9108099937438965
1773149337899181600,0.355181640625,0.3257860541343689,-0.5113028883934021,0.7383543252944946
1773149337909217500,0.365217529296875,0.09787674248218536,-0.0036615412682294846,0.30229097604751587
1773149337919253500,0.37525341796875,-0.10419220477342606,-0.34004756808280945,-0.004846057388931513
1773149337929289500,0.38528955078125,-0.15147823095321655,-1.0095473527908325,-0.11255381256341934
1773149337939326500,0.395326416015625,-0.07019243389368057,-1.410607099533081,-0.15269988775253296
1773149337949362400,0.405362548828125,0.1817074418067932,-1.7685649394989014,-0.2104642540216446
1773149337959398400,0.4153984375,0.3333110809326172,-2.0658442974090576,-0.378267377614975
1773149337969434600,0.4254345703125,0.29783913493156433,-2.192152738571167,-0.6874684691429138
1773149337979470600,0.435470703125,0.04346170648932457,-2.264096260070801,-1.0049341917037964
1773149337989506600,0.445506591796875,-0.3944527804851532,-2.44771671295166,-1.1766679286956787
1773149337999542500,0.45554248046875,-0.9249877333641052,-3.2275583744049072,-1.2126333713531494
1773149338009578500,0.46557861328125,-1.3174502849578857,-3.5815136432647705,-1.13748300075531
1773149338019614500,0.475614501953125,-1.3882627487182617,-2.9726357460021973,-0.9942933320999146
1773149338029650400,0.485650390625,-1.3653308153152466,-1.9997702836990356,-0.7345746755599976
1773149338039687700,0.495687744140625,-1.3982961177825928,-1.152206540107727,-0.4457964301109314
1773149338049723600,0.5057236328125,-1.530715823173523,-0.589968204498291,-0.2964068055152893
1773149338059759600,0.515759521484375,-1.5754235982894897,-0.3894108533859253,-0.3036381006240845
1773149338069795600,0.525795654296875,-1.4913302659988403,-0.5232174396514893,-0.3111327588558197
1773149338079831600,0.53583154296875,-1.3467379808425903,-0.773473858833313,-0.16672098636627197
1773149338089867500,0.545867431640625,-1.2198820114135742,-0.8811912536621094,0.0950392633676529
1773149338099903500,0.555903564453125,-1.1165771484375,-0.7409233450889587,0.33572110533714294
1773149338109939500,0.565939453125,-1.0755761861801147,-0.496755987405777,0.5256116390228271
1773149338119975700,0.5759755859375,-1.0620441436767578,-0.37923893332481384,0.6168739199638367
1773149338130011600,0.58601171875,-0.9062566757202148,-0.3322139084339142,0.6091786026954651
1773149338140048400,0.59604833984375,-0.6512063145637512,-0.2471810281276703,0.593207061290741
1773149338150084600,0.606084716796875,-0.48306652903556824,-0.33765286207199097,0.6043892502784729
1773149338160120600,0.61612060546875,-0.3305635452270508,-0.46574026346206665,0.5798250436782837
1773149338170156500,0.626156494140625,-0.2394469529390335,-0.5982056260108948,0.5266164541244507
1773149338180192500,0.636192626953125,-0.19387094676494598,-0.6999378204345703,0.43753182888031006
1773149338190228500,0.646228515625,-0.17411932349205017,-0.6950027942657471,0.3437148630619049
1773149338200264400,0.656264404296875,-0.1670161485671997,-0.3070790469646454,0.13178181648254395
1773149338210300400,0.666300537109375,-0.2139330506324768,-0.002519137691706419,-0.27330994606018066
1773149338220336400,0.67633642578125,-0.2786140441894531,0.1636706292629242,-0.5796056985855103
1773149338230372400,0.686372314453125,-0.26909512281417847,-0.08253797143697739,-0.7255963683128357
1773149338240409600,0.69640966796875,-0.32509902119636536,-0.7257606387138367,-0.8039311170578003
1773149338250445600,0.706445556640625,-0.3287765383720398,-0.9255686402320862,-0.97426837682724
1773149338260481500,0.7164814453125,-0.49145200848579407,-1.5760356187820435,-1.2703109979629517
1773149338270517500,0.726517578125,-0.8180937767028809,-1.4032799005508423,-1.3055082559585571
1773149338280553500,0.736553466796875,-1.1267458200454712,-0.5387692451477051,-1.0930864810943604
1773149338290589700,0.746589599609375,-1.3859443664550781,0.45113858580589294,-0.9494813680648804
1773149338300625700,0.756625732421875,-1.6549500226974487,1.323026418685913,-1.1604933738708496
1773149338310661600,0.76666162109375,-2.0943856239318848,1.9588459730148315,-1.6716034412384033
1773149338320698600,0.77669873046875,-2.6783981323242188,2.459366798400879,-2.4101080894470215
1773149338330734600,0.786734619140625,-3.1524412631988525,3.113680362701416,-3.1128296852111816
1773149338340770600,0.7967705078125,-3.607569456100464,3.8557052612304688,-3.624239683151245
1773149338350802000,0.806802001953125,-4.049930095672607,4.286095142364502,-4.1900715827941895
1773149338360838000,0.816837890625,-4.59584379196167,4.4692206382751465,-4.906528472900391
1773149338370873900,0.826873779296875,-5.059725284576416,4.314671516418457,-5.556090831756592
1773149338380909800,0.836909912109375,-5.184433937072754,3.880756378173828,-6.058419227600098
1773149338390945800,0.84694580078125,-4.830715179443359,2.8010592460632324,-6.28853702545166
1773149338400982000,0.85698193359375,-4.2851786613464355,0.7674381732940674,-6.360775947570801
1773149338411018800,0.867018798828125,-3.6956522464752197,-1.6559829711914062,-6.591443061828613
1773149338421054700,0.8770546875,-3.1797759532928467,-3.270815372467041,-6.918042182922363
1773149338431091000,0.887091064453125,-2.9457015991210938,-3.5737032890319824,-7.189305782318115
1773149338441127000,0.897126953125,-2.926992654800415,-2.439770221710205,-7.338863849639893
1773149338451163000,0.907162841796875,-3.0569350719451904,-0.23936103284358978,-7.517463684082031
1773149338461198800,0.91719873046875,-3.536957263946533,3.4153940677642822,-8.19136905670166
1773149338471234800,0.92723486328125,-3.894538164138794,6.412387847900391,-8.694551467895508
1773149338481270800,0.937270751953125,-3.56000018119812,7.145144939422607,-8.40103816986084
1773149338491307000,0.94730712890625,-2.364061117172241,6.616276264190674,-7.5132975578308105
1773149338501344000,0.957343994140625,-0.7752125859260559,5.922083854675293,-6.213446617126465
1773149338511380000,0.9673798828125,0.4450874924659729,6.257699489593506,-3.6472315788269043
1773149338521416000,0.977416015625,0.7939131259918213,4.637479305267334,-1.5505191087722778
1773149338531452000,0.987451904296875,0.7429910898208618,3.1809093952178955,-0.9411262273788452
1773149338541487900,0.99748779296875,0.6834486722946167,2.4643683433532715,-0.7675067782402039
1773149338551523800,1.00752392578125,0.5626189112663269,1.9141498804092407,-0.8129417896270752
1773149338561559800,1.017559814453125,0.6774988770484924,1.3339905738830566,-1.0787031650543213
1773149338571596000,1.027595947265625,0.9768912196159363,1.106930136680603,-1.3089337348937988
1773149338581632800,1.0376328125,1.2820055484771729,1.1063251495361328,-1.4758564233779907
1773149338591668700,1.047668701171875,1.5107210874557495,1.274822473526001,-1.7180447578430176
1773149338601705000,1.057705078125,1.6998432874679565,1.5009621381759644,-2.0227160453796387
1773149338611741000,1.067740966796875,1.915535569190979,1.670075535774231,-2.267449378967285
1773149338621777000,1.07777685546875,2.1214969158172607,1.4939402341842651,-2.260032892227173
1773149338631812900,1.087812744140625,2.265279531478882,0.8312168121337891,-2.048910140991211
1773149338641848800,1.097848876953125,2.299030303955078,0.14748136699199677,-1.7993749380111694
1773149338651884800,1.107884765625,2.0248067378997803,-0.20557285845279694,-1.5479521751403809
1773149338661922000,1.117922119140625,1.7858693599700928,-0.6458415985107422,-1.4069663286209106
1773149338671958000,1.1279580078125,1.8975064754486084,-1.3718035221099854,-1.6256146430969238
1773149338681994000,1.137993896484375,1.8866567611694336,-1.6344761848449707,-1.7661746740341187
1773149338692030000,1.148030029296875,1.5697896480560303,-1.4314236640930176,-1.6421763896942139
1773149338702066000,1.15806591796875,1.1919076442718506,-1.1502996683120728,-1.465454339981079
1773149338712102000,1.168101806640625,0.6418319940567017,-0.9302000999450684,-1.2429651021957397
1773149338722137900,1.178137939453125,0.16816139221191406,-0.7706969976425171,-1.0115920305252075
1773149338732173800,1.188173828125,-0.11661359667778015,-0.8918665647506714,-0.783323347568512
1773149338742210800,1.1982109375,-0.16413159668445587,-1.0082480907440186,-0.5114319324493408
1773149338752246800,1.208246826171875,-0.12847396731376648,-0.9132116436958313,-0.3291914165019989
1773149338762282800,1.21828271484375,-0.29416653513908386,-0.7394155859947205,-0.17554698884487152
1773149338772318700,1.228318603515625,-0.7007822394371033,-0.5125772953033447,0.05819180607795715
1773149338782355000,1.23835498046875,-1.1499923467636108,-0.29259780049324036,0.23638205230236053
1773149338792391000,1.248390869140625,-1.330928087234497,-0.0635690987110138,0.32372260093688965
1773149338802427000,1.258427001953125,-1.3499782085418701,-0.03822459280490875,0.1993122398853302
1773149338812463900,1.2684638671875,-1.2811002731323242,-0.1491156816482544,-0.0373530238866806
1773149338822500000,1.2785,-1.3622840642929077,-0.2869531810283661,-0.11789406836032867
1773149338832536000,1.2885361328125,-1.4413748979568481,-0.30197590589523315,-0.018640127032995224
1773149338842572000,1.298572021484375,-1.6556501388549805,-0.42097339034080505,0.05989089980721474
1773149338852608000,1.30860791015625,-1.55545175075531,-0.5805991291999817,0.18498817086219788
1773149338862644000,1.31864404296875,-0.9286321997642517,-1.2006198167800903,0.20444069802761078
1773149338872680000,1.328679931640625,0.013619240373373032,-1.70375657081604,0.27100029587745667
1773149338882717000,1.338717041015625,1.110681176185608,-1.513964295387268,0.6323549747467041
1773149338892753000,1.3487529296875,1.5125200748443604,-1.0521444082260132,0.6318734288215637
1773149338902788900,1.358788818359375,1.2589921951293945,-0.02226223051548004,0.2143249362707138
1773149338912824800,1.368824951171875,0.8386406898498535,1.0123417377471924,-0.08362604677677155
1773149338922860800,1.37886083984375,0.6185645461082458,1.112795114517212,-0.22482553124427795
1773149338932896800,1.388896728515625,0.6674697399139404,0.6542888879776001,-0.03076470084488392
1773149338942932700,1.3989326171875,0.7727343440055847,0.06398721784353256,0.29708346724510193
1773149338952969700,1.4089697265625,0.872962474822998,-0.673629641532898,0.6196444630622864
1773149338963006000,1.419005859375,0.8921899795532227,-1.3872630596160889,0.7478237748146057
1773149338973042000,1.4290419921875,0.9755082726478577,-1.7740490436553955,0.7655423879623413
1773149338983078000,1.439077880859375,1.1306390762329102,-1.8869963884353638,0.9315979480743408
1773149338993114000,1.449114013671875,1.2597736120224,-1.5706908702850342,1.238804578781128
1773149339003150000,1.459150146484375,1.0681266784667969,-0.5312660932540894,1.2284401655197144
1773149339013186000,1.46918603515625,0.7886060476303101,0.9006985425949097,0.8696544766426086
1773149339023223000,1.47922314453125,0.8194675445556641,2.2425405979156494,0.9992327094078064
1773149339033259000,1.489259033203125,1.8200706243515015,3.287083387374878,1.7683892250061035
1773149339043295000,1.499294921875,3.015381336212158,2.922581434249878,1.9879000186920166
1773149339053331000,1.5093310546875,3.340566635131836,2.9596197605133057,1.7202157974243164
1773149339063367000,1.519366943359375,3.572338819503784,3.327026844024658,0.9583093523979187
1773149339073403000,1.52940283203125,2.9159293174743652,3.4937744140625,0.18693692982196808
1773149339083438800,1.53943896484375,2.2128689289093018,3.457634925842285,0.030891939997673035
1773149339093475800,1.549475830078125,2.2767765522003174,2.1620898246765137,0.07344905287027359
1773149339103511800,1.55951171875,2.149287700653076,0.3499259352684021,0.47629716992378235
1773149339113547800,1.5695478515625,1.64503812789917,-0.8764482736587524,0.8116863965988159
1773149339123583700,1.579583740234375,0.8323809504508972,-1.3073229789733887,0.9449824094772339
1773149339133619700,1.58961962890625,0.010201135650277138,-1.6325112581253052,1.1378235816955566
1773149339143656000,1.599656005859375,0.0022212397307157516,-1.6661152839660645,1.1572819948196411
1773149339153692000,1.60969189453125,0.36551713943481445,-1.8661373853683472,0.9983911514282227
1773149339163729000,1.61972900390625,0.7524086833000183,-2.0382003784179688,0.779296875
1773149339173764900,1.629764892578125,1.2205876111984253,-1.897047519683838,0.562507688999176
1773149339183800800,1.63980078125,1.6423574686050415,-1.6680577993392944,0.3391292095184326
1773149339193836800,1.6498369140625,1.882267713546753,-1.5671764612197876,0.1848187893629074
1773149339203873000,1.659873046875,1.8977702856063843,-1.4885088205337524,0.17601783573627472
1773149339213909000,1.669908935546875,1.6922799348831177,-1.546522855758667,0.2569020390510559
1773149339223946000,1.679946044921875,1.388142466545105,-1.4565412998199463,0.3624066114425659
1773149339233982000,1.68998193359375,1.0539921522140503,-1.208654522895813,0.4624282419681549
1773149339244018000,1.700017822265625,0.8212679028511047,-0.704527735710144,0.505199670791626
1773149339254054000,1.710053955078125,0.7533903121948242,-0.4302327632904053,0.4313577711582184
1773149339264089900,1.72008984375,0.8557470440864563,-0.3076586425304413,0.2299216240644455
1773149339274125800,1.730125732421875,0.8213520646095276,-0.6685888767242432,0.1049174964427948
1773149339284161800,1.740161865234375,0.8682274222373962,-0.8735005259513855,0.2617872655391693
1773149339294199000,1.750198974609375,0.791878879070282,-1.12888765335083,0.34556007385253906
1773149339304235000,1.760235107421875,0.6202157735824585,-1.5201960802078247,0.35139185190200806
1773149339314271000,1.77027099609375,0.25651076436042786,-1.6426661014556885,0.2423211634159088
1773149339324307000,1.780306884765625,-0.26956474781036377,-1.4502661228179932,0.046957261860370636
1773149339334343000,1.790343017578125,-0.6245909929275513,-1.2691441774368286,0.02116747573018074
1773149339344383700,1.8003837890625,-1.1135090589523315,-1.5014110803604126,0.007504660170525312
1773149339354420700,1.810420654296875,-1.507381796836853,-1.8626211881637573,-0.08747757971286774
1773149339364456700,1.820456787109375,-1.730126976966858,-2.015594720840454,-0.328142911195755
1773149339374492700,1.83049267578125,-1.8964269161224365,-1.7944830656051636,-0.49207139015197754
1773149339384528600,1.840528564453125,-2.209642171859741,-1.1331638097763062,-0.47198182344436646
1773149339394564600,1.850564697265625,-2.590038299560547,-0.7327142357826233,-0.36448925733566284
1773149339404600600,1.8606005859375,-2.9654159545898438,-0.6823431849479675,-0.09978756308555603
1773149339414637800,1.870637939453125,-3.206752061843872,-0.6415386199951172,0.17442627251148224
1773149339424673800,1.880673828125,-3.3740766048431396,-0.5344268083572388,0.12878528237342834
1773149339434709800,1.890709716796875,-3.5434651374816895,-0.4865698516368866,-0.02466612309217453
1773149339444745700,1.900745849609375,-3.5625107288360596,-0.920224666595459,-0.05735030025243759
1773149339454781700,1.91078173828125,-3.6257309913635254,-1.485403299331665,0.009468278847634792
1773149339464817700,1.920817626953125,-3.5731589794158936,-2.0389037132263184,-0.05326700955629349
1773149339474854700,1.930854736328125,-3.38851261138916,-2.2165262699127197,-0.37251511216163635
1773149339484890600,1.940890625,-2.9573512077331543,-2.2113404273986816,-0.7887895703315735
1773149339494926600,1.950926513671875,-2.5190205574035645,-1.8630627393722534,-1.2588307857513428
1773149339504962600,1.960962646484375,-2.100038528442383,-1.4999257326126099,-1.593626856803894
1773149339514998800,1.970998779296875,-1.7554460763931274,-1.2605104446411133,-1.7377707958221436
1773149339525034800,1.98103466796875,-1.4604579210281372,-1.044978380203247,-1.5275646448135376
1773149339535071500,1.991071533203125,-1.1941710710525513,-0.7080215215682983,-0.8900315165519714
1773149339545107700,2.001107666015625,-0.8883275389671326,-0.36266836524009705,-0.024203002452850342
1773149339555143700,2.011143798828125,-0.4501131772994995,0.3013845980167389,0.6737089157104492
1773149339565179600,2.0211796875,-0.24628014862537384,0.704659640789032,1.0514894723892212
1773149339575215600,2.031215576171875,-0.26949524879455566,0.7874765992164612,1.0955661535263062
1773149339585251800,2.041251953125,-0.244258314371109,0.7568467855453491,0.9511533379554749
1773149339595288800,2.051288818359375,-0.14330215752124786,0.5081056952476501,0.6449167728424072
1773149339605324800,2.06132470703125,-0.0479588583111763,-0.12912751734256744,0.15609733760356903
1773149339615360800,2.07136083984375,-0.09726805239915848,-0.44120529294013977,-0.386364609003067
1773149339625396700,2.081396728515625,-0.18713083863258362,-0.14151901006698608,-0.7779377102851868
1773149339635432700,2.0914326171875,-0.21174299716949463,0.6359655857086182,-0.8173587918281555
1773149339645468700,2.10146875,-0.2120164930820465,1.65614914894104,-0.499582439661026
1773149339655505700,2.111505615234375,-0.09988454729318619,2.1927874088287354,-0.05482180789113045
1773149339665541600,2.121541748046875,-0.06350097060203552,2.317863941192627,0.24144980311393738
1773149339675577600,2.13157763671875,-0.055123262107372284,2.0564162731170654,0.2938012480735779
1773149339685613600,2.141613525390625,-0.07823044806718826,1.4463990926742554,0.1976345330476761
1773149339695649500,2.1516494140625,-0.08940532803535461,0.7834937572479248,0.08230073750019073
1773149339705685500,2.161685546875,-0.02681279182434082,0.165916308760643,0.03516625240445137
1773149339715722800,2.17172265625,0.08574462682008743,-0.19745707511901855,0.022765371948480606
1773149339725758700,2.1817587890625,0.13494466245174408,0.05908789485692978,0.06342624872922897
1773149339735794700,2.191794677734375,0.16581711173057556,0.615135908126831,0.15043072402477264
1773149339745830700,2.20183056640625,0.10304480791091919,1.1684608459472656,0.19201412796974182
1773149339755867000,2.211866943359375,-0.05791902542114258,1.2244760990142822,0.087873674929142
1773149339765902800,2.22190283203125,-0.24701464176177979,1.182271122932434,-0.12659388780593872
1773149339775939600,2.231939697265625,-0.4087042212486267,1.1783515214920044,-0.4253801107406616
1773149339785975800,2.241975830078125,-0.17894265055656433,1.3198639154434204,-0.6911865472793579
1773149339796011800,2.25201171875,0.033742986619472504,1.0768957138061523,-0.8868687748908997
1773149339806047700,2.2620478515625,0.12331999838352203,0.4418759346008301,-1.064466953277588
1773149339816083700,2.272083740234375,0.3215273320674896,-0.35434553027153015,-1.0304393768310547
1773149339826119700,2.28211962890625,0.3935357630252838,-0.8952460885047913,-0.8330145478248596
1773149339836156700,2.29215673828125,0.22688287496566772,-1.168589472770691,-0.7157981991767883
1773149339846192600,2.302192626953125,-0.06537747383117676,-1.3065239191055298,-0.567142128944397
1773149339856228600,2.312228515625,-0.6301162242889404,-1.338038682937622,-0.41698646545410156
1773149339866264600,2.3222646484375,-1.3689159154891968,-1.2226308584213257,-0.3369353115558624
1773149339876300800,2.33230078125,-2.119105339050293,-0.8758674263954163,-0.3100029230117798
1773149339886337800,2.342337890625,-2.675527572631836,-0.23514147102832794,-0.27411016821861267
1773149339896373800,2.352373779296875,-3.0284557342529297,0.6051804423332214,-0.3136218190193176
1773149339906409700,2.36240966796875,-3.185713529586792,1.2083901166915894,-0.4682700037956238
1773149339916445700,2.37244580078125,-2.994093418121338,1.47786283493042,-0.823772132396698
1773149339926481700,2.382481689453125,-2.520716428756714,1.2429081201553345,-1.2381365299224854
1773149339936517600,2.392517578125,-1.504204273223877,0.8737280368804932,-1.7942407131195068
1773149339946554600,2.4025546875,-0.5210906863212585,1.166110873222351,-1.6483231782913208
1773149339956590600,2.412590576171875,0.041123177856206894,1.7782020568847656,-1.2030495405197144
1773149339966626600,2.42262646484375,0.27529892325401306,2.137463092803955,-0.8074636459350586
1773149339976662500,2.43266259765625,0.28637126088142395,2.2556605339050293,-0.7490691542625427
1773149339986698800,2.44269873046875,-0.005965784657746553,2.068538188934326,-0.9312621355056763
1773149339996734700,2.452734619140625,-0.5957326292991638,1.6108886003494263,-1.1564321517944336
1773149340006771700,2.462771728515625,-1.4288579225540161,1.3539435863494873,-1.0788942575454712
1773149340016807700,2.4728076171875,-2.377180337905884,1.2130554914474487,-0.6756109595298767
1773149340026844000,2.482843994140625,-2.799255847930908,0.9831549525260925,-0.22988438606262207
1773149340036880000,2.4928798828125,-2.610947608947754,0.4834584891796112,0.11989546567201614
1773149340046915800,2.502915771484375,-2.7435410022735596,-0.3022552728652954,0.20801253616809845
1773149340056952800,2.512952880859375,-2.8272366523742676,-1.3463528156280518,0.002513505984097719
1773149340066988800,2.52298876953125,-3.009727716445923,-2.2548539638519287,-0.19435907900333405
1773149340077024800,2.533024658203125,-3.325448751449585,-2.753692626953125,-0.21466580033302307
1773149340087060700,2.543060791015625,-3.5453641414642334,-2.832392930984497,-0.14401346445083618
1773149340097096700,2.5530966796875,-3.6846184730529785,-2.675410509109497,-0.13082310557365417
1773149340107132700,2.563132568359375,-3.652820587158203,-2.7197136878967285,-0.29606878757476807
1773149340117169700,2.573169677734375,-3.2923574447631836,-3.1062400341033936,-0.5226882100105286
1773149340127205600,2.58320556640625,-2.712456464767456,-3.570098638534546,-0.6076358556747437
1773149340137241600,2.59324169921875,-2.31931209564209,-3.607057571411133,-0.5512657165527344
1773149340147277600,2.603277587890625,-1.8702067136764526,-3.344125986099243,-0.3983549475669861
1773149340157313500,2.6133134765625,-1.5898613929748535,-2.654726028442383,-0.1929910033941269
1773149340167350800,2.623350830078125,-1.3400495052337646,-1.9705363512039185,-0.17049100995063782
1773149340177386800,2.63338671875,-1.0787297487258911,-1.3618717193603516,-0.20031502842903137
1773149340187422700,2.643422607421875,-0.8385770320892334,-0.9684572815895081,-0.2474423199892044
1773149340197458700,2.653458740234375,-0.5136388540267944,-0.8147848844528198,-0.1810249537229538
1773149340207494700,2.66349462890625,-0.3655359148979187,-0.7741820812225342,-0.07155944406986237
1773149340217530600,2.673530517578125,-0.24001631140708923,-0.6474247574806213,0.10720080882310867
1773149340227567600,2.683567626953125,-0.22700010240077972,-0.39102813601493835,0.23820514976978302
1773149340237603600,2.693603515625,-0.3656107783317566,-0.15669113397598267,0.3123237192630768
1773149340247639600,2.7036396484375,-0.6829311847686768,-0.06645418703556061,0.30978652834892273
1773149340257675500,2.713675537109375,-1.1190544366836548,-0.12141251564025879,0.3770182132720947
1773149340267711700,2.723711669921875,-1.4348022937774658,-0.23863953351974487,0.4635624289512634
1773149340277748500,2.73374853515625,-1.8089321851730347,-0.07780779153108597,0.6870930790901184
1773149340287784700,2.74378466796875,-1.743446946144104,0.04698420688509941,0.9174085259437561
1773149340297821000,2.753821044921875,-1.3108512163162231,-0.07957619428634644,0.9300007224082947
1773149340307857000,2.76385693359375,-0.7958359122276306,-0.060598764568567276,0.9474412202835083
1773149340317892900,2.773892822265625,-0.3169955611228943,0.20368696749210358,0.7823191285133362
1773149340327929900,2.783929931640625,-0.17608636617660522,0.308946818113327,0.5864319205284119
1773149340337965800,2.7939658203125,-0.23278504610061646,0.2807638943195343,0.4850580096244812
1773149340347997700,2.803997802734375,-0.2540477514266968,0.263751357793808,0.4461095333099365
1773149340358033700,2.81403369140625,-0.2854791581630707,0.3122885227203369,0.3765065371990204
1773149340368069600,2.824069580078125,-0.4198606610298157,0.4866930842399597,0.31396248936653137
1773149340378106600,2.834106689453125,-0.5107985734939575,0.6499510407447815,0.25098299980163574
1773149340388142600,2.844142578125,-0.5073024034500122,0.7343546152114868,0.2939445674419403
1773149340398178600,2.854178466796875,-0.38951075077056885,0.7397544384002686,0.3139234781265259
1773149340408214500,2.864214599609375,-0.1344987154006958,0.6274576783180237,0.26469653844833374
1773149340418250500,2.87425048828125,0.13689470291137695,0.38782939314842224,0.16390833258628845
1773149340428287700,2.884287841796875,0.29651740193367004,0.19016718864440918,0.05035434663295746
1773149340438323700,2.89432373046875,0.4051823914051056,0.050714705139398575,-0.04881690442562103
1773149340448359700,2.904359619140625,0.3585192561149597,0.0029876609332859516,-0.17939221858978271
1773149340458395600,2.914395751953125,0.2688564956188202,0.03889134153723717,-0.30679452419281006
1773149340468431600,2.924431640625,0.2692714035511017,0.06708942353725433,-0.341426283121109
1773149340478468600,2.934468505859375,0.36625924706459045,0.08196257054805756,-0.2376258820295334
1773149340488504600,2.944504638671875,0.572111189365387,0.09543336927890778,-0.04515044391155243
1773149340498540500,2.95454052734375,0.7604184746742249,0.16386659443378448,0.08555109053850174
1773149340508576500,2.964576416015625,0.7995235323905945,0.34244802594184875,0.07886335998773575
1773149340518612700,2.97461279296875,0.7220077514648438,0.5067628622055054,-0.02457360364496708
1773149340528648700,2.984648681640625,0.6831392049789429,0.5910409688949585,-0.17393434047698975
1773149340538685400,2.994685546875,0.627313494682312,0.8071905970573425,-0.25083374977111816
1773149340548721700,3.0047216796875,0.4121449589729309,1.4268935918807983,-0.25644025206565857
1773149340558757600,3.014757568359375,-0.21562950313091278,1.706494927406311,-0.43519023060798645
1773149340568793600,3.024793701171875,-0.5353683829307556,1.3505545854568481,-0.7172064781188965
1773149340578829800,3.034829833984375,-0.6669407486915588,0.43491536378860474,-0.948941171169281
1773149340588866800,3.04486669921875,-0.6535842418670654,-0.666072428226471,-0.8343589305877686
1773149340598902800,3.05490283203125,-0.47609835863113403,-1.4286597967147827,-0.3825995922088623
1773149340608938800,3.064938720703125,-0.3192674517631531,-1.5644160509109497,0.28121140599250793
1773149340618974700,3.074974609375,-0.25440508127212524,-0.8760963082313538,1.0061681270599365
1773149340629010700,3.0850107421875,-0.29166561365127563,0.0872742161154747,1.4366121292114258
1773149340639047700,3.095047607421875,-0.41247597336769104,0.7857133150100708,1.4620624780654907
1773149340649083600,3.105083740234375,-0.30301687121391296,0.7302202582359314,1.0527628660202026
1773149340659119600,3.11511962890625,-0.41574206948280334,0.4260914623737335,0.5982618927955627
1773149340669155600,3.125155517578125,-0.7118227481842041,0.16275863349437714,0.24494808912277222
1773149340679191600,3.135191650390625,-0.9667269587516785,0.11585158854722977,0.020673299208283424
1773149340689228500,3.145228515625,-0.9791330099105835,0.3619247376918793,-0.03903210908174515
1773149340699264800,3.1552646484375,-0.7349570393562317,0.8113811016082764,0.03246292099356651
1773149340709300700,3.16530078125,-0.3105922043323517,1.2672077417373657,0.16900745034217834
1773149340719336700,3.175336669921875,0.24298787117004395,1.5582177639007568,0.2641976773738861
1773149340729372700,3.18537255859375,0.8105572462081909,1.673868179321289,0.296413391828537
1773149340739409700,3.19540966796875,1.1745240688323975,1.7113873958587646,0.32216137647628784
1773149340749445600,3.205445556640625,1.3969409465789795,1.5288678407669067,0.3783569931983948
1773149340759481600,3.215481689453125,1.503967523574829,1.187178373336792,0.4672919511795044
1773149340769517600,3.225517578125,1.4146294593811035,0.9941953420639038,0.5824247002601624
1773149340779553500,3.235553466796875,1.1809335947036743,1.0044834613800049,0.6982487440109253
1773149340789590500,3.245590576171875,0.929332971572876,1.1797029972076416,0.7612924575805664
1773149340799626500,3.25562646484375,0.727510929107666,1.426498532295227,0.787257969379425
1773149340809662500,3.265662353515625,0.5941656231880188,1.6802964210510254,0.8039078116416931
1773149340819698700,3.27569873046875,0.5203433036804199,1.860137701034546,0.860249936580658
1773149340829734700,3.285734619140625,0.48671773076057434,1.81850266456604,0.94438236951828
1773149340839771600,3.295771728515625,0.4854958951473236,1.5008482933044434,1.0388669967651367
1773149340849807600,3.3058076171875,0.4476182758808136,1.004919171333313,1.0988904237747192
1773149340859843800,3.31584375,0.34558457136154175,0.5357972383499146,1.146669626235962
1773149340869879800,3.3258798828125,0.22507120668888092,0.24369746446609497,1.15884268283844
1773149340879915800,3.335915771484375,0.12547725439071655,0.13486254215240479,1.0840263366699219
1773149340889952800,3.345952880859375,0.08628112077713013,0.06955144554376602,0.9302111864089966
1773149340899988700,3.35598876953125,0.0884111076593399,-0.02849016711115837,0.7436773180961609
1773149340910024700,3.366024658203125,0.045774705708026886,-0.0465376116335392,0.5220748782157898
1773149340920060700,3.376060791015625,-0.012823330238461494,0.006387063767760992,0.3083096444606781
1773149340930097700,3.38609765625,-0.043938107788562775,0.05165201425552368,0.1398061066865921
1773149340940133600,3.396133544921875,-0.049236223101615906,0.04200609400868416,0.026741258800029755
1773149340950169600,3.406169677734375,-0.05610078573226929,-0.019867129623889923,-0.05999496951699257
1773149340960205600,3.41620556640625,-0.0740630179643631,-0.1168367937207222,-0.1324443370103836
1773149340970241500,3.426241455078125,-0.09171871840953827,-0.2340017557144165,-0.20754122734069824
1773149340980278800,3.43627880859375,-0.08995194733142853,-0.3561229109764099,-0.3120988607406616
1773149340990314800,3.446314697265625,-0.06333179026842117,-0.44561630487442017,-0.4419926702976227
1773149341000350700,3.456350830078125,-0.03167610242962837,-0.48009416460990906,-0.5749006867408752
1773149341010386700,3.46638671875,-0.00819128192961216,-0.4756365716457367,-0.6986940503120422
1773149341020422700,3.476422607421875,0.0112221110612154,-0.436605840921402,-0.7917715311050415
1773149341030459600,3.486459716796875,0.03349785506725311,-0.38069093227386475,-0.857031524181366
1773149341040495600,3.49649560546875,0.04911830276250839,-0.3510285019874573,-0.8951170444488525
1773149341050531600,3.506531494140625,0.05233220383524895,-0.3697654604911804,-0.9098600149154663
1773149341060567600,3.516567626953125,0.0403277613222599,-0.4366728961467743,-0.8911563158035278
1773149341070603500,3.526603515625,0.015854910016059875,-0.5409178733825684,-0.8199633955955505
1773149341080640500,3.536640625,-0.031260136514902115,-0.6871410608291626,-0.6924547553062439
1773149341090676500,3.546676513671875,-0.09867805987596512,-0.8688775300979614,-0.512834370136261
1773149341100712400,3.55671240234375,-0.18939439952373505,-1.0089720487594604,-0.31495627760887146
1773149341110748700,3.566748779296875,-0.27036648988723755,-1.0411843061447144,-0.10159501433372498
1773149341120785700,3.57678564453125,-0.2959405183792114,-1.0213971138000488,0.09753108024597168
1773149341130821600,3.586821533203125,-0.2667200565338135,-0.9578762054443359,0.22207622230052948
1773149341140857600,3.596857666015625,-0.14552734792232513,-0.7799735069274902,0.3133981227874756
1773149341150893600,3.6068935546875,-0.0029422352090477943,-0.5060948133468628,0.3384787142276764
1773149341160929800,3.6169296875,0.1419404149055481,-0.2123335599899292,0.27652865648269653
1773149341170966500,3.626966552734375,0.28360167145729065,0.10394718497991562,0.1731351763010025
1773149341181002500,3.63700244140625,0.4285884499549866,0.41672927141189575,0.09317716956138611
1773149341191038700,3.647038818359375,0.594586193561554,0.7382940053939819,0.0010895882733166218
1773149341201074700,3.65707470703125,0.8607337474822998,1.0450915098190308,-0.1355876922607422
1773149341211110700,3.667110595703125,1.2285103797912598,1.2543041706085205,-0.26326045393943787
1773149341221147600,3.677147705078125,1.4164499044418335,1.128015398979187,-0.29589003324508667
1773149341231184000,3.687183837890625,1.2897878885269165,0.8609424233436584,-0.19222967326641083
1773149341241219800,3.6972197265625,0.9579716324806213,0.6555898189544678,-0.0665682852268219
1773149341251255800,3.707255859375,0.41303399205207825,0.5832573175430298,0.050968196243047714
1773149341261291800,3.717291748046875,-0.06184037774801254,0.2660987675189972,0.29054006934165955
1773149341271328800,3.727328857421875,-0.2371874302625656,-0.39813941717147827,0.5916447639465332
1773149341281364700,3.73736474609375,-0.22946694493293762,-1.2031415700912476,0.8313047885894775
1773149341291400700,3.747400634765625,-0.16901372373104095,-1.935325026512146,0.9469190239906311
1773149341301436700,3.757436767578125,-0.13816310465335846,-2.4724273681640625,0.940089225769043
1773149341311473700,3.7674736328125,-0.13224449753761292,-2.75636887550354,0.8555232286453247
1773149341321509600,3.777509521484375,-0.15265202522277832,-2.789844036102295,0.729974627494812
1773149341331545600,3.787545654296875,-0.1738838106393814,-2.592853546142578,0.6502965688705444
1773149341341581600,3.79758154296875,-0.1950937658548355,-2.1697957515716553,0.5907729268074036
1773149341351616800,3.80761669921875,-0.1576598435640335,-1.578093409538269,0.5030243992805481
1773149341361653800,3.81765380859375,-0.04341261088848114,-0.960618257522583,0.3514823019504547
1773149341371689700,3.827689697265625,0.16387319564819336,-0.4048682153224945,0.08742723613977432
1773149341381725700,3.8377255859375,0.4389724135398865,-0.0186318326741457,-0.29121115803718567
1773149341391762000,3.847761962890625,0.6738448143005371,0.19621634483337402,-0.7061494588851929
1773149341401799000,3.857798828125,0.7673744559288025,0.2601710855960846,-1.0236668586730957
1773149341411835000,3.8678349609375,0.6976915001869202,0.3518061935901642,-1.10184907913208
1773149341421870800,3.877870849609375,0.5659888982772827,0.502649188041687,-0.9347881078720093
1773149341431906800,3.88790673828125,0.4866432547569275,0.6119070053100586,-0.6561698317527771
1773149341441943000,3.897943115234375,0.44348111748695374,0.6186218857765198,-0.42809298634529114
1773149341451979800,3.907979736328125,0.33548569679260254,0.4630749225616455,-0.33138400316238403
1773149341462015700,3.918015625,0.1455911099910736,0.22170493006706238,-0.3152924180030823
1773149341472052000,3.928052001953125,-0.07288717478513718,0.004167274571955204,-0.2620587646961212
1773149341482088000,3.938087890625,-0.2559826374053955,-0.21434491872787476,-0.18413248658180237
1773149341492124700,3.948124755859375,-0.39299216866493225,-0.33505964279174805,-0.11268492043018341
1773149341502161000,3.958160888671875,-0.4960029721260071,-0.3377070426940918,-0.07194877415895462
1773149341512197000,3.968197021484375,-0.5485389232635498,-0.2788429260253906,-0.0626538097858429
1773149341522233000,3.978233154296875,-0.5641000270843506,-0.2657366693019867,-0.06210441514849663
1773149341532270000,3.98827001953125,-0.5471551418304443,-0.30846044421195984,-0.04922483488917351
1773149341542306000,3.99830615234375,-0.5165790319442749,-0.38886532187461853,-0.022386331111192703
1773149341552342000,4.008342041015625,-0.4502605199813843,-0.48798152804374695,-0.00708407536149025
1773149341562378000,4.0183779296875,-0.3248453736305237,-0.5482320189476013,-0.03700684383511543
1773149341572414000,4.0284140625,-0.1781531274318695,-0.5016852617263794,-0.13051600754261017
1773149341582451000,4.038450927734375,-0.035806626081466675,-0.34791573882102966,-0.265596479177475
1773149341592487000,4.04848681640625,0.09122775495052338,-0.15642696619033813,-0.4092535078525543
1773149341602523000,4.05852294921875,0.19359859824180603,0.034765616059303284,-0.5256197452545166
1773149341612558800,4.068558837890625,0.2746164798736572,0.15383076667785645,-0.6049209237098694
1773149341622595800,4.078595947265625,0.321367472410202,0.16087430715560913,-0.63396817445755
1773149341632632000,4.088632080078125,0.33294689655303955,0.03521358221769333,-0.6080202460289001
1773149341642668000,4.09866796875,0.304025262594223,-0.1875750571489334,-0.5208867788314819
1773149341652704000,4.1087041015625,0.23322618007659912,-0.41461804509162903,-0.3809960186481476
1773149341662740000,4.118739990234375,0.12826703488826752,-0.5602397918701172,-0.22440771758556366
1773149341672777000,4.12877685546875,0.022230885922908783,-0.6209795475006104,-0.10474789142608643
1773149341682813000,4.13881298828125,-0.0717020109295845,-0.6218138933181763,-0.04733734577894211
1773149341692849000,4.148848876953125,-0.15456946194171906,-0.5872527360916138,-0.030770353972911835
1773149341702884900,4.158884765625,-0.2096780240535736,-0.5086843371391296,-0.02421867847442627
1773149341712921900,4.168921875,-0.22491423785686493,-0.41827988624572754,-0.007940905168652534
1773149341722957800,4.178957763671875,-0.22369927167892456,-0.3248911499977112,0.013603238388895988
1773149341732993800,4.188993896484375,-0.21611244976520538,-0.2429070621728897,0.013041578233242035
1773149341743029800,4.19902978515625,-0.18744167685508728,-0.17806090414524078,-0.012604153715074062
1773149341753067000,4.20906689453125,-0.15398278832435608,-0.1078658401966095,-0.06140311807394028
1773149341763103000,4.21910302734375,-0.12884944677352905,-0.020069723948836327,-0.11307986825704575
1773149341773139000,4.229138916015625,-0.11471526324748993,0.08355307579040527,-0.1440630853176117
1773149341783175000,4.2391748046875,-0.10112437605857849,0.17909401655197144,-0.14142584800720215
1773149341793211000,4.2492109375,-0.07551488280296326,0.26452770829200745,-0.12279437482357025
1773149341803247900,4.259247802734375,-0.04454280436038971,0.34495773911476135,-0.11399850994348526
1773149341813283800,4.269283935546875,0.0000544888898730278,0.40523067116737366,-0.11558201909065247
1773149341823319800,4.27931982421875,0.04269272834062576,0.44971856474876404,-0.13490508496761322
1773149341833355800,4.289355712890625,0.08184891939163208,0.49869728088378906,-0.1422271877527237
1773149341843392800,4.299392822265625,0.11745993793010712,0.5402867794036865,-0.1366233229637146
1773149341853428700,4.3094287109375,0.1453016847372055,0.554900586605072,-0.13649815320968628
1773149341863465000,4.31946484375,0.15694208443164825,0.5366662740707397,-0.15428116917610168
1773149341873501000,4.3295009765625,0.15230552852153778,0.49348145723342896,-0.19606882333755493
1773149341883538000,4.339537841796875,0.13667407631874084,0.44249793887138367,-0.24072593450546265
1773149341893574000,4.349573974609375,0.12596231698989868,0.41487351059913635,-0.24505409598350525
1773149341903610000,4.359610107421875,0.11915688216686249,0.4005533754825592,-0.19264580309391022
1773149341913646000,4.36964599609375,0.12057395279407501,0.373364120721817,-0.1219005212187767
1773149341923682800,4.379682861328125,0.12596233189105988,0.3111284375190735,-0.06825913488864899
1773149341933719000,4.389718994140625,0.12355749309062958,0.23304909467697144,-0.04480068385601044
1773149341943755000,4.399755126953125,0.11243797838687897,0.14289578795433044,-0.05158590152859688
1773149341953791000,4.409791015625,0.0993536040186882,0.05385672673583031,-0.07113616913557053
1773149341963828000,4.419827880859375,0.08880672603845596,-0.015327462926506996,-0.08482211828231812
1773149341973864000,4.429864013671875,0.09009463340044022,-0.06387369334697723,-0.09244009107351303
1773149341983900000,4.43989990234375,0.09183186292648315,-0.09360797703266144,-0.10061121731996536
1773149341993936000,4.449935791015625,0.09206143021583557,-0.10533440858125687,-0.11269530653953552
1773149342003973000,4.45997314453125,0.09184300899505615,-0.10227437317371368,-0.12071971595287323
1773149342014009000,4.470009033203125,0.09106643497943878,-0.10286533087491989,-0.1258699893951416
1773149342024045000,4.480045166015625,0.08839716017246246,-0.09821761399507523,-0.1221759170293808
1773149342034081000,4.4900810546875,0.08634279668331146,-0.09886768460273743,-0.11022204905748367
1773149342044117000,4.500116943359375,0.08487405627965927,-0.09439381211996078,-0.09723349660634995
1773149342054154800,4.51015478515625,0.08773215860128403,-0.101316437125206,-0.08506977558135986
1773149342064191000,4.52019091796875,0.08020845800638199,-0.10918234288692474,-0.062066592276096344
1773149342074227000,4.53022705078125,0.052622102200984955,-0.09334452450275421,-0.03704778850078583
1773149342084263700,4.540263671875,-0.0047580767422914505,-0.09361087530851364,-0.010102834552526474
1773149342094300000,4.5502998046875,-0.03913043066859245,-0.10711629688739777,0.014313026331365108
1773149342104336000,4.5603359375,-0.0406721755862236,-0.08745092153549194,0.031623464077711105
1773149342114372000,4.5703720703125,-0.055240731686353683,-0.06265050172805786,0.031739313155412674
1773149342124408000,4.580407958984375,-0.057579994201660156,-0.030043380334973335,0.02077494002878666
1773149342134445000,4.590445068359375,-0.04627647250890732,0.030108638107776642,0.007571520283818245
1773149342144481000,4.60048095703125,-0.021674450486898422,0.10293462872505188,-0.002579442923888564
1773149342154517000,4.61051708984375,0.013643858022987843,0.1974206566810608,-0.024394994601607323
1773149342164553000,4.620552978515625,0.025247208774089813,0.27361613512039185,-0.04667224735021591
1773149342174590000,4.63058984375,0.06317195296287537,0.3992116153240204,-0.1042412668466568
1773149342184626000,4.6406259765625,0.07424727827310562,0.5334250330924988,-0.187076136469841
1773149342194662000,4.650661865234375,0.052419472485780716,0.6529333591461182,-0.27360808849334717
1773149342204697900,4.66069775390625,0.02240084856748581,0.7600206732749939,-0.33684197068214417
1773149342214734800,4.67073486328125,-0.01657584309577942,0.8626178503036499,-0.38479965925216675
1773149342224770800,4.680770751953125,-0.046249594539403915,0.9634765982627869,-0.40837058424949646
1773149342234807000,4.69080712890625,-0.0601145438849926,1.0516620874404907,-0.4083935022354126
1773149342244843000,4.700843017578125,-0.06914849579334259,1.1007007360458374,-0.4144856929779053
1773149342254880000,4.7108798828125,-0.0750788152217865,1.1057913303375244,-0.43741312623023987
1773149342264916000,4.720916015625,-0.08090022951364517,1.1071058511734009,-0.4799044728279114
1773149342274952000,4.730951904296875,-0.0818544402718544,1.1131688356399536,-0.5232889652252197
1773149342284989000,4.740989013671875,-0.030714236199855804,1.0829061269760132,-0.5508955121040344
1773149342295025000,4.75102490234375,0.009611346758902073,1.0326213836669922,-0.5788464546203613
1773149342305060900,4.761060791015625,-0.03579290583729744,1.0011823177337646,-0.5737350583076477
1773149342315096800,4.771096923828125,-0.07274585962295532,0.9778029918670654,-0.5322914719581604
1773149342325133800,4.7811337890625,-0.07965733110904694,0.9232652187347412,-0.47838258743286133
1773149342335169800,4.791169677734375,-0.06506773829460144,0.8254057765007019,-0.4404594600200653
1773149342345206300,4.801206298828125,-0.06605839729309082,0.730301022529602,-0.4155042767524719
1773149342355242200,4.8112421875,-0.08189035207033157,0.6764415502548218,-0.39557236433029175
1773149342365279200,4.821279296875,-0.0319204181432724,0.6205766797065735,-0.3505658507347107
1773149342375315200,4.831315185546875,0.013343730941414833,0.5579774975776672,-0.29866456985473633
1773149342385351200,4.84135107421875,0.019491873681545258,0.4914560317993164,-0.23838087916374207
1773149342395387100,4.85138720703125,0.0251055508852005,0.41103363037109375,-0.17895697057247162
1773149342405424000,4.861424072265625,0.04296743869781494,0.3113767206668854,-0.12987075746059418
1773149342415460000,4.871460205078125,0.047847680747509,0.19018210470676422,-0.11038414388895035
1773149342425496000,4.88149609375,0.05809101089835167,0.07348264008760452,-0.10271868854761124
1773149342435532000,4.891531982421875,0.0652831494808197,-0.016882678493857384,-0.10170002281665802
1773149342445569300,4.9015693359375,0.08477368205785751,-0.08288394659757614,-0.08820614218711853
1773149342455605200,4.911605224609375,0.09426438808441162,-0.12945863604545593,-0.07608237117528915
1773149342465641200,4.92164111328125,0.09416110813617706,-0.17482887208461761,-0.054008569568395615
1773149342475677200,4.93167724609375,0.08955490589141846,-0.2274705022573471,-0.026562562212347984
1773149342485714200,4.941714111328125,0.08175824582576752,-0.2696046531200409,0.003848687745630741
1773149342495750100,4.951750244140625,0.06996310502290726,-0.3011380732059479,0.032307494431734085
1773149342505786000,4.9617861328125,0.0650753527879715,-0.3104209899902344,0.06018347293138504
1773149342515822000,4.971822021484375,0.058272309601306915,-0.3015390932559967,0.10626760870218277
1773149342525859000,4.981859130859375,0.03698042780160904,-0.30474328994750977,0.16652235388755798
1773149342535895000,4.99189501953125,0.014162196777760983,-0.35431617498397827,0.22063325345516205
1773149342545931000,5.001930908203125,-0.019819755107164383,-0.4407365024089813,0.24412722885608673
1773149342555967000,5.011967041015625,-0.050156086683273315,-0.535843551158905,0.24316103756427765
1773149342566004200,5.022004150390625,-0.06697558611631393,-0.6086924076080322,0.22986042499542236
1773149342576040200,5.032040283203125,-0.07093597203493118,-0.6472216844558716,0.1955019235610962
1773149342586076200,5.042076171875,-0.06906401365995407,-0.6812175512313843,0.1527170091867447
1773149342596113200,5.052113037109375,-0.05009857937693596,-0.6967557668685913,0.13538461923599243
1773149342606149000,5.062149169921875,-0.016564885154366493,-0.7050091028213501,0.1501363068819046
1773149342616185000,5.07218505859375,0.019824016839265823,-0.6838628053665161,0.17200379073619843
1773149342626221000,5.082220947265625,0.11509568244218826,-0.688738226890564,0.18089134991168976
1773149342636258000,5.092258056640625,0.13591919839382172,-0.6681727766990662,0.14554640650749207
1773149342646294000,5.1022939453125,0.10082035511732101,-0.5803369879722595,0.10799180716276169
1773149342656330000,5.112330078125,0.1068902313709259,-0.4573860168457031,0.08039027452468872
1773149342666366200,5.1223662109375,0.10232026129961014,-0.3261430561542511,0.03471647575497627
1773149342676403200,5.1324033203125,0.10652432590723038,-0.27108246088027954,-0.027811884880065918
1773149342686439200,5.142439208984375,0.09921956062316895,-0.3028750419616699,-0.07412415742874146
1773149342696475400,5.152475341796875,0.08194389939308167,-0.340710312128067,-0.08033837378025055
1773149342706511400,5.162511474609375,0.050359658896923065,-0.36643466353416443,-0.027470100671052933
1773149342716548000,5.172548095703125,0.0036518117412924767,-0.4806608557701111,0.07001917064189911
1773149342726584300,5.182584228515625,-0.03780005872249603,-0.7028541564941406,0.18831339478492737
1773149342736620300,5.192620361328125,-0.09743595868349075,-1.0664756298065186,0.3168641924858093
1773149342746656300,5.20265625,-0.10994164645671844,-1.2479866743087769,0.4050746560096741
1773149342756693200,5.212693359375,-0.06318692117929459,-1.0363197326660156,0.40773913264274597
1773149342766729200,5.222729248046875,-0.013073991984128952,-0.6218159794807434,0.37314629554748535
1773149342776765200,5.23276513671875,0.014333131723105907,-0.2634149193763733,0.30685463547706604
1773149342786802200,5.24280224609375,0.03165303170681,-0.09811471402645111,0.21880431473255157
1773149342796838400,5.25283837890625,0.03559824079275131,-0.06860876083374023,0.11515994369983673
1773149342806874400,5.262874267578125,0.04844669997692108,-0.0636524111032486,0.034270141273736954
1773149342816910300,5.272910400390625,0.06620173156261444,-0.018191447481513023,-0.022095128893852234
1773149342826947300,5.282947265625,0.09095874428749084,0.05209603160619736,-0.04621651768684387
1773149342836983300,5.2929833984375,0.10224494338035583,0.1154683530330658,-0.05401158705353737
1773149342847019300,5.303019287109375,0.109819196164608,0.2012011706829071,-0.06913195550441742
1773149342857055200,5.31305517578125,0.12053894996643066,0.38957613706588745,-0.09909331798553467
1773149342867092200,5.32309228515625,0.13549664616584778,0.5564023852348328,-0.10996741056442261
1773149342877128200,5.333128173828125,0.1424568146467209,0.5273216962814331,-0.08442556113004684
1773149342887164200,5.3431640625,0.13040095567703247,0.3913145661354065,-0.05294937640428543
1773149342897201400,5.353201416015625,0.11255805194377899,0.27102118730545044,-0.03825272247195244
1773149342907237400,5.3632373046875,0.08906284719705582,0.20495161414146423,-0.032287634909152985
1773149342917273300,5.3732734375,0.06246612221002579,0.19259081780910492,-0.034208305180072784
1773149342927309300,5.383309326171875,0.034458160400390625,0.18306846916675568,-0.03396892920136452
1773149342937346300,5.39334619140625,0.010494235903024673,0.17450426518917084,-0.03598654270172119
1773149342947382300,5.40338232421875,-0.004783491604030132,0.1512708067893982,-0.04030754789710045
1773149342957418200,5.413418212890625,-0.01425076276063919,0.1577412188053131,-0.04162820801138878
1773149342967454200,5.4234541015625,-0.014834776520729065,0.17832928895950317,-0.025867661461234093
1773149342977491200,5.4334912109375,-0.027235519140958786,0.18697258830070496,0.013991869986057281
1773149342987527200,5.443527099609375,-0.04261957108974457,0.17066450417041779,0.04944821074604988
1773149342997563100,5.453563232421875,-0.06568414717912674,0.09393937140703201,0.07531629502773285
1773149343007600400,5.463600341796875,-0.09499222040176392,-0.03846529498696327,0.09451830387115479
1773149343017636400,5.47363623046875,-0.11961021274328232,-0.18854959309101105,0.11831764131784439
1773149343027672300,5.48367236328125,-0.13379022479057312,-0.31009864807128906,0.14849138259887695
1773149343037708300,5.493708251953125,-0.13201096653938293,-0.3717455267906189,0.18221338093280792
1773149343047745300,5.503745361328125,-0.10502249002456665,-0.37946414947509766,0.19016991555690765
1773149343057781200,5.51378125,-0.05125059932470322,-0.35104823112487793,0.18841730058193207
1773149343067817200,5.523817138671875,-0.005605353508144617,-0.3079036772251129,0.18200060725212097
1773149343077853200,5.533853271484375,0.036060333251953125,-0.2763468325138092,0.16046175360679626
1773149343087890200,5.54389013671875,0.08479701727628708,-0.18783298134803772,0.1059805229306221
1773149343097926100,5.553926025390625,0.1333293914794922,-0.014772257767617702,0.025810055434703827
1773149343107962000,5.563962158203125,0.15574140846729279,0.17603562772274017,-0.0639575645327568
1773149343117999000,5.5739990234375,0.16391971707344055,0.30907386541366577,-0.13299869000911713
1773149343128035300,5.584035400390625,0.17105306684970856,0.4186609089374542,-0.17697274684906006
1773149343138071300,5.5940712890625,0.1703643798828125,0.5564526319503784,-0.22769610583782196
1773149343148107300,5.604107177734375,0.14267200231552124,0.6356961131095886,-0.2506697177886963
1773149343158144300,5.614144287109375,0.10515417903661728,0.5935076475143433,-0.23854009807109833
1773149343168180200,5.62418017578125,0.08723698556423187,0.4648239314556122,-0.2038089781999588
1773149343178216200,5.63421630859375,0.07354407757520676,0.3027932047843933,-0.1602732241153717
1773149343188253200,5.644253173828125,0.0472554937005043,0.10914569348096848,-0.09423306584358215
1773149343198289200,5.6542890625,0.01571141928434372,-0.13837622106075287,-0.017475171014666557
1773149343208325000,5.6643251953125,0.013230642303824425,-0.3090698719024658,0.03529377654194832
1773149343218361000,5.674361083984375,0.019433945417404175,-0.3521454632282257,0.06535607576370239
1773149343228398000,5.684398193359375,0.02939419075846672,-0.2924422025680542,0.08826421946287155
1773149343238434000,5.69443408203125,0.0340946726500988,-0.2320462316274643,0.12011323124170303
1773149343248470300,5.70447021484375,0.039133649319410324,-0.19924835860729218,0.1344469040632248
1773149343258507300,5.71450732421875,0.03928385302424431,-0.20806582272052765,0.11540983617305756
1773149343268543200,5.724543212890625,0.03696025535464287,-0.21917441487312317,0.1007118672132492
1773149343278579200,5.7345791015625,0.02975800260901451,-0.22264264523983002,0.10058430582284927
1773149343288615200,5.744615234375,0.020415369421243668,-0.22367514669895172,0.11065644770860672
1773149343298652200,5.754652099609375,0.026913214474916458,-0.2252807766199112,0.1256503164768219
1773149343308688100,5.764688232421875,0.037652891129255295,-0.2408553957939148,0.13466176390647888
1773149343318724000,5.77472412109375,0.05013139545917511,-0.27285218238830566,0.12622886896133423
1773149343328761000,5.784760986328125,0.06723799556493759,-0.30410340428352356,0.12143491953611374
1773149343338797000,5.794797119140625,0.08530781418085098,-0.29509153962135315,0.13619336485862732
1773149343348833000,5.8048330078125,0.1064692884683609,-0.23268942534923553,0.18951117992401123
1773149343358869000,5.814868896484375,0.1269761621952057,-0.18921411037445068,0.24927011132240295
1773149343368906000,5.824906005859375,0.0841783732175827,-0.18667292594909668,0.28458091616630554
1773149343378942000,5.83494189453125,0.051512040197849274,-0.26431286334991455,0.28803983330726624
1773149343388978000,5.84497802734375,0.04017627239227295,-0.3798663318157196,0.272119402885437
1773149343399015000,5.855014892578125,0.006889156065881252,-0.4797931909561157,0.26516884565353394
1773149343409051000,5.86505078125,-0.031317077577114105,-0.5233582258224487,0.2949221432209015
1773149343419086800,5.8750869140625,-0.0527547262609005,-0.5132861733436584,0.3415977656841278
1773149343429122800,5.885122802734375,-0.06403664499521255,-0.49043604731559753,0.36841270327568054
1773149343439160000,5.89516015625,-0.06771740317344666,-0.4864426255226135,0.3571954667568207
1773149343449196000,5.905196044921875,-0.06416581571102142,-0.5329638123512268,0.3149428069591522
1773149343459232000,5.91523193359375,-0.05124389007687569,-0.5938199758529663,0.2509017884731293
1773149343469269000,5.92526904296875,-0.04513299837708473,-0.6267062425613403,0.18459874391555786
1773149343479305000,5.935304931640625,-0.06094525009393692,-0.6060627698898315,0.13053257763385773
1773149343489341000,5.9453408203125,-0.0858503207564354,-0.5319523215293884,0.10735524445772171
1773149343499377000,5.955376953125,-0.1114446297287941,-0.43736937642097473,0.11665340512990952
1773149343509414000,5.965413818359375,-0.13551397621631622,-0.3492451608181,0.14407682418823242
1773149343519449900,5.975449951171875,-0.15264475345611572,-0.29251980781555176,0.1693536788225174
1773149343529485800,5.98548583984375,-0.17134150862693787,-0.27128639817237854,0.17549969255924225
1773149343539523000,5.995523193359375,-0.19476453959941864,-0.266060471534729,0.16390082240104675
1773149343549559000,6.00555908203125,-0.2150445133447647,-0.2664458453655243,0.15971313416957855
1773149343559595000,6.015594970703125,-0.22522711753845215,-0.25598761439323425,0.16521522402763367
1773149343569631000,6.025630859375,-0.22562366724014282,-0.21856726706027985,0.17985215783119202
1773149343579668000,6.03566796875,-0.2231389284133911,-0.13432243466377258,0.19522525370121002
1773149343589704000,6.045703857421875,-0.22256338596343994,-0.016639787703752518,0.1974172294139862
1773149343599740000,6.055739990234375,-0.21902644634246826,0.11636326462030411,0.17698226869106293
1773149343609777000,6.06577685546875,-0.20766571164131165,0.24562840163707733,0.13340933620929718
1773149343619812900,6.075812744140625,-0.18041731417179108,0.37024354934692383,0.10037999600172043
1773149343629848800,6.085848876953125,-0.15857188403606415,0.47731637954711914,0.09979034215211868
1773149343639886000,6.095885986328125,-0.1398157775402069,0.5797410607337952,0.12387064099311829
1773149343649922000,6.105922119140625,-0.11477702856063843,0.685998260974884,0.137616828083992
1773149343659958000,6.1159580078125,-0.09484672546386719,0.8130267858505249,0.1128544956445694
1773149343669994200,6.125994140625,-0.0777137503027916,0.9320034384727478,0.06635027378797531
1773149343680031000,6.136031005859375,-0.06368448585271835,1.0369071960449219,0.020100222900509834
1773149343690067000,6.14606689453125,-0.0584585927426815,1.1072427034378052,-0.022313125431537628
1773149343700103200,6.156103271484375,-0.06519585102796555,1.1462175846099854,-0.07283994555473328
1773149343710140000,6.166139892578125,-0.07791461050510406,1.1555907726287842,-0.12656787037849426
1773149343720175900,6.17617578125,-0.09427787363529205,1.1340337991714478,-0.1463295966386795
1773149343730212000,6.186212158203125,-0.12054496258497238,1.1046513319015503,-0.11876971274614334
1773149343740248000,6.196248046875,-0.14850176870822906,1.0667542219161987,-0.027145516127347946
1773149343750284800,6.206284912109375,-0.16936488449573517,1.0094085931777954,0.09119591116905212
1773149343760321000,6.216321044921875,-0.18358536064624786,0.9228936433792114,0.19652420282363892
1773149343770357200,6.226357177734375,-0.20257237553596497,0.8015664219856262,0.2715180516242981
1773149343780394000,6.23639404296875,-0.2228611260652542,0.6585980653762817,0.3272921144962311
1773149343790430000,6.246429931640625,-0.23574790358543396,0.5414993762969971,0.37174472212791443
1773149343800466200,6.256466064453125,-0.22294849157333374,0.4624602496623993,0.3812796473503113
1773149343810503000,6.2665029296875,-0.20210179686546326,0.44615185260772705,0.3365326225757599
1773149343820539000,6.276538818359375,-0.20011641085147858,0.5662881135940552,0.28137511014938354
1773149343830575000,6.2865751953125,-0.18807360529899597,0.7963101267814636,0.272307425737381
1773149343840611800,6.29661181640625,-0.15418647229671478,1.0404053926467896,0.3123509883880615
1773149343850647800,6.306647705078125,-0.11767882108688354,1.2093554735183716,0.36264315247535706
1773149343860684000,6.31668408203125,-0.09890434145927429,1.263332486152649,0.3926284611225128
1773149343870720000,6.326719970703125,-0.09611647576093674,1.235238790512085,0.40812215209007263
1773149343880757000,6.336757080078125,-0.09341443330049515,1.20085871219635,0.41771700978279114
1773149343890793000,6.34679296875,-0.10696543753147125,1.1656745672225952,0.41848239302635193
1773149343900829200,6.3568291015625,-0.15966007113456726,1.145978331565857,0.3946066200733185
1773149343910866000,6.366865966796875,-0.237558051943779,1.1819097995758057,0.3740626275539398
1773149343920902000,6.37690185546875,-0.31224775314331055,1.294210433959961,0.3816521167755127
1773149343930938000,6.386938232421875,-0.32985010743141174,1.4643360376358032,0.414611279964447
1773149343940974800,6.396974853515625,-0.32512912154197693,1.5487323999404907,0.4581949710845947
1773149343951010800,6.4070107421875,-0.31639182567596436,1.5388906002044678,0.48038631677627563
1773149343961047000,6.417047119140625,-0.29594355821609497,1.4337455034255981,0.4908211827278137
1773149343971083000,6.4270830078125,-0.2632431089878082,1.2460854053497314,0.5069288015365601
1773149343981120000,6.4371201171875,-0.21211786568164825,1.0067564249038696,0.5342350006103516
1773149343991156200,6.44715625,-0.1690143644809723,0.770902156829834,0.5555175542831421
1773149344001192200,6.457192138671875,-0.1301575005054474,0.5693392157554626,0.571812629699707
1773149344011229000,6.46722900390625,-0.0899171456694603,0.4003557860851288,0.5937384963035583
1773149344021265200,6.47726513671875,-0.026104075834155083,0.2936077415943146,0.603473424911499
1773149344031301000,6.487301025390625,0.033907122910022736,0.25161975622177124,0.5761880278587341
1773149344041337900,6.497337890625,0.06418353319168091,0.258696585893631,0.490837961435318
1773149344051374000,6.5073740234375,0.0719253197312355,0.2787400782108307,0.36940670013427734
1773149344061410000,6.51741015625,0.07354293018579483,0.29050856828689575,0.2456623911857605
1773149344071447000,6.527447021484375,0.09065424650907516,0.30259671807289124,0.13443464040756226
1773149344081483000,6.53748291015625,0.11814764887094498,0.3064878582954407,0.036690495908260345
1773149344091519200,6.547519287109375,0.14808262884616852,0.28229546546936035,-0.043779157102108
1773149344101555200,6.55755517578125,0.1690763235092163,0.2260684221982956,-0.09766555577516556
1773149344111592000,6.567592041015625,0.1722489893436432,0.15114805102348328,-0.11376670747995377
1773149344121628200,6.577628173828125,0.169461190700531,0.03730803728103638,-0.10377611964941025
1773149344131664100,6.5876640625,0.1861134171485901,-0.1004493236541748,-0.08432982116937637
1773149344141700900,6.597700927734375,0.14968642592430115,-0.2577659785747528,-0.05903804302215576
1773149344151737000,6.607737060546875,0.05628960207104683,-0.4423123300075531,-0.026667457073926926
1773149344161773000,6.61777294921875,-0.04504793509840965,-0.6489349603652954,0.0015439409762620926
1773149344171809800,6.627809814453125,-0.09655291587114334,-0.8690498471260071,0.01033207681030035
1773149344181846000,6.637845947265625,-0.10454559326171875,-1.085884928703308,-0.005726784933358431
1773149344191882200,6.64788232421875,-0.07057404518127441,-1.2740236520767212,-0.039800528436899185
1773149344201919000,6.6579189453125,-0.010154910385608673,-1.4789270162582397,-0.11391230672597885
1773149344211955000,6.667954833984375,0.053332697600126266,-1.6996090412139893,-0.23159590363502502
1773149344221991200,6.6779912109375,0.09668149799108505,-1.8636560440063477,-0.37223902344703674
1773149344232028000,6.68802783203125,0.10909666121006012,-1.8816829919815063,-0.4844514727592468
1773149344242064000,6.69806396484375,0.08805688470602036,-1.6623157262802124,-0.47364142537117004
1773149344252100000,6.70810009765625,0.04532323032617569,-1.1948535442352295,-0.3086050748825073
1773149344262136000,6.718135986328125,0.025026481598615646,-0.40473324060440063,0.04460224509239197
1773149344272172800,6.7281728515625,0.10094496607780457,0.6008068323135376,0.5783063769340515
1773149344282209000,6.738208984375,0.2842186391353607,1.3113099336624146,0.800937294960022
1773149344292245000,6.748244873046875,0.5119165778160095,1.4461513757705688,0.49931272864341736
1773149344302282000,6.758281982421875,0.6422889232635498,1.0272692441940308,0.03402120992541313
1773149344312318200,6.768318115234375,0.633456289768219,0.4568570852279663,-0.25103676319122314
1773149344322354200,6.778354248046875,0.5504457950592041,0.0023545576259493828,-0.3138636648654938
1773149344332391000,6.788390869140625,0.37307506799697876,-0.2703574299812317,-0.09319216758012772
1773149344342427100,6.79842724609375,0.17328713834285736,-0.3183539807796478,0.3785220980644226
1773149344352463600,6.808463623046875,0.09654251486063004,-0.1110774427652359,0.9097504019737244
1773149344362500600,6.81850048828125,0.11340272426605225,0.0849706307053566,1.3131526708602905
1773149344372536600,6.82853662109375,0.12746873497962952,0.10268598049879074,1.4358875751495361
1773149344382572500,6.838572509765625,0.15642447769641876,0.06242538243532181,1.2574362754821777
1773149344392609500,6.848609619140625,0.22126027941703796,0.04313306137919426,0.9688698053359985
1773149344402645500,6.8586455078125,0.33225175738334656,0.16256171464920044,0.732808530330658
1773149344412681500,6.868681396484375,0.47096383571624756,0.5321498513221741,0.5987777709960938
1773149344422718700,6.87871875,0.6163740158081055,0.9833891987800598,0.5082516074180603
1773149344432754700,6.888754638671875,0.6999828815460205,1.3154032230377197,0.3971719443798065
1773149344442790700,6.898790771484375,0.7228924632072449,1.478930115699768,0.26432228088378906
1773149344452826600,6.90882666015625,0.7068248391151428,1.470529317855835,0.1480732560157776
1773149344462863600,6.918863525390625,0.6949974894523621,1.37160325050354,0.10898789763450623
1773149344472899600,6.928899658203125,0.7142135500907898,1.305851936340332,0.14269529283046722
1773149344482935600,6.938935546875,0.7851263284683228,1.1803864240646362,0.1862691342830658
1773149344492972500,6.94897265625,0.844835638999939,0.970177412033081,0.16457471251487732
1773149344503008500,6.959008544921875,0.8400310277938843,0.776975691318512,0.11315679550170898
1773149344513044500,6.96904443359375,0.7925549149513245,0.7318905591964722,0.09547623246908188
1773149344523081700,6.979081787109375,0.7295215725898743,0.7793611288070679,0.13180388510227203
1773149344533117700,6.98911767578125,0.6557317972183228,0.8253698348999023,0.22042731940746307
1773149344543153700,6.999153564453125,0.5731178522109985,0.8571120500564575,0.36636215448379517
1773149344553190700,7.009190673828125,0.5041377544403076,0.8085804581642151,0.5052672624588013
1773149344563226600,7.0192265625,0.45415687561035156,0.5294864773750305,0.6269806623458862
1773149344573262600,7.0292626953125,0.4086724817752838,0.1659860759973526,0.7386041283607483
1773149344583299600,7.039299560546875,0.3664507269859314,-0.09582609683275223,0.8387410640716553
1773149344593335600,7.04933544921875,0.3102670907974243,-0.19925425946712494,0.9035998582839966
1773149344603371500,7.05937158203125,0.22322915494441986,-0.19258996844291687,0.8947938680648804
1773149344613408800,7.06940869140625,0.14111454784870148,-0.08571410179138184,0.7984951734542847
1773149344623444700,7.07944482421875,0.13286222517490387,0.054182279855012894,0.6372202634811401
1773149344633480700,7.089480712890625,0.19529816508293152,0.11427012085914612,0.4374048113822937
1773149344643517700,7.099517578125,0.2673388123512268,0.05205734819173813,0.25827714800834656
1773149344653553700,7.1095537109375,0.34747111797332764,-0.06901733577251434,0.08818905055522919
1773149344663589600,7.119589599609375,0.4273374676704407,-0.17480288445949554,0.027187488973140717
1773149344673625600,7.12962548828125,0.5095136761665344,-0.1748059093952179,0.08982689678668976
1773149344683662600,7.13966259765625,0.5806397795677185,-0.160098597407341,0.23084713518619537
1773149344693698600,7.149698486328125,0.6032518148422241,-0.1609073430299759,0.3777264654636383
1773149344703734500,7.159734619140625,0.5346506237983704,-0.30424293875694275,0.4592101275920868
1773149344713771500,7.169771484375,0.47558820247650146,-0.43078577518463135,0.6067349314689636
1773149344723807700,7.179807861328125,0.4795350134372711,-0.43717336654663086,0.9033764004707336
1773149344733843700,7.18984375,0.49969565868377686,-0.5046350359916687,1.2232115268707275
1773149344743880700,7.199880615234375,0.5014099478721619,-0.7392608523368835,1.4801265001296997
1773149344753916700,7.209916748046875,0.40864184498786926,-1.0153974294662476,1.7717900276184082
1773149344763952600,7.21995263671875,0.24701672792434692,-1.0287960767745972,2.0898196697235107
1773149344773989600,7.22998974609375,0.12294220924377441,-0.9044947028160095,2.2965891361236572
1773149344784025600,7.240025634765625,0.03198567032814026,-0.8271796703338623,2.3492822647094727
1773149344794061600,7.2500615234375,-0.046395428478717804,-0.7276389598846436,2.2215802669525146
1773149344804098600,7.2600986328125,-0.10077904164791107,-0.5615139007568359,1.9552271366119385
1773149344814134500,7.270134521484375,-0.12363366782665253,-0.3436613380908966,1.6214076280593872
1773149344824170500,7.28017041015625,-0.11228860169649124,-0.14560629427433014,1.2699811458587646
1773149344834207700,7.290207763671875,-0.09106029570102692,0.07662466168403625,1.0093580484390259
1773149344844243700,7.30024365234375,-0.07516682147979736,0.30648475885391235,0.8763222098350525
1773149344854279700,7.31027978515625,-0.09815767407417297,0.4786946773529053,0.6664031147956848
1773149344864316700,7.320316650390625,-0.15387338399887085,0.6712252497673035,0.3356427848339081
1773149344874352600,7.3303525390625,-0.1525614708662033,1.0897703170776367,-0.04861312732100487
1773149344884388600,7.340388671875,-0.17996247112751007,1.506624698638916,-0.40139302611351013
1773149344894425600,7.350425537109375,-0.2583513557910919,1.491934061050415,-0.6675794720649719
1773149344904461600,7.360461669921875,-0.3281954228878021,1.0991966724395752,-0.8000112771987915
1773149344914497500,7.37049755859375,-0.3204024136066437,0.667380690574646,-0.7898995876312256
1773149344924534800,7.38053466796875,-0.2233794629573822,0.44926029443740845,-0.7251661419868469
1773149344934570800,7.39057080078125,-0.1507447063922882,0.38620996475219727,-0.6918880939483643
1773149344944606700,7.400606689453125,-0.20296449959278107,0.30219390988349915,-0.6770231127738953
1773149344954643700,7.410643798828125,-0.398936927318573,0.07554212957620621,-0.6943245530128479
1773149344964679700,7.4206796875,-0.6060344576835632,-0.23963578045368195,-0.7961574196815491
1773149344974715600,7.430715576171875,-0.6880102753639221,-0.481006920337677,-1.023990273475647
1773149344984752600,7.440752685546875,-0.6698794364929199,-0.42814210057258606,-1.332979440689087
1773149344994788600,7.45078857421875,-0.62368243932724,0.06363224238157272,-1.5935161113739014
1773149345004824600,7.460824462890625,-0.5373611450195312,0.8787065744400024,-1.688876748085022
1773149345014861600,7.470861572265625,-0.4233219623565674,1.2242029905319214,-1.9925121068954468
1773149345024897500,7.4808974609375,-0.4421566128730774,0.6830516457557678,-2.597794771194458
1773149345034933800,7.490933837890625,-0.3970327079296112,0.687507152557373,-3.049619436264038
1773149345044970800,7.500970703125,-0.20723401010036469,0.8292022347450256,-3.3716845512390137
1773149345055006700,7.5110068359375,-0.14749272167682648,-0.27559512853622437,-3.3360254764556885
1773149345065042700,7.521042724609375,-0.12722499668598175,-1.0208061933517456,-2.7401304244995117
1773149345075078700,7.53107861328125,-0.1951550394296646,-0.12535768747329712,-1.5718822479248047
1773149345085115600,7.54111572265625,-0.33481281995773315,1.0993616580963135,0.00046321447007358074
1773149345095151600,7.551151611328125,-0.5264706611633301,-0.4231073260307312,0.664470911026001
1773149345105187600,7.5611875,-0.5096794366836548,-2.1966700553894043,0.5411865711212158
1773149345115224600,7.571224609375,-0.38275691866874695,-2.6298115253448486,0.22977842390537262
1773149345125260500,7.581260498046875,-0.2700071930885315,-2.0848076343536377,-0.15091273188591003
1773149345135296500,7.591296630859375,-0.23518207669258118,-1.094136118888855,-0.5445204377174377
1773149345145333800,7.601333740234375,-0.3838575482368469,-0.14232975244522095,-0.942288339138031
1773149345155369700,7.61136962890625,-0.7206680774688721,0.4412574768066406,-1.2577002048492432
1773149345165405700,7.62140576171875,-1.0625470876693726,0.4840768575668335,-1.4994171857833862
1773149345175442700,7.631442626953125,-1.2192844152450562,0.2727837562561035,-1.6120498180389404
1773149345185478700,7.641478759765625,-1.1136184930801392,0.2085198014974594,-1.539297342300415
1773149345195514600,7.6515146484375,-0.9063292741775513,0.24905315041542053,-1.2867282629013062
1773149345205551600,7.661551513671875,-0.6474966406822205,0.24201227724552155,-0.9399228096008301
1773149345215587600,7.671587646484375,-0.3855772018432617,0.10800742357969284,-0.6785284280776978
1773149345225623600,7.68162353515625,-0.2574269473552704,-0.10438233613967896,-0.5804189443588257
1773149345235660800,7.691660888671875,-0.22635211050510406,-0.3024890422821045,-0.6194408535957336
1773149345245696800,7.70169677734375,-0.21190686523914337,-0.35600897669792175,-0.7145601511001587
1773149345255732700,7.711732666015625,-0.21541659533977509,-0.32051151990890503,-0.7951418161392212
1773149345265769700,7.721769775390625,-0.25108563899993896,-0.2299075722694397,-0.8351653814315796
1773149345275805700,7.7318056640625,-0.34655943512916565,-0.21854811906814575,-0.7836930155754089
1773149345285841700,7.741841552734375,-0.4779275953769684,-0.26206496357917786,-0.6692430973052979
1773149345295878700,7.751878662109375,-0.6033707857131958,-0.29859018325805664,-0.5025916695594788
1773149345305914600,7.76191455078125,-0.6837878823280334,-0.2792865037918091,-0.31664758920669556
1773149345315950600,7.77195068359375,-0.6984788775444031,-0.25607576966285706,-0.17173196375370026
1773149345325987600,7.781987548828125,-0.6796812415122986,-0.25153639912605286,-0.1011243686079979
1773149345336023800,7.79202392578125,-0.6642703413963318,-0.2973942160606384,-0.11554037779569626
1773149345346059800,7.802059814453125,-0.6481534242630005,-0.311398446559906,-0.17552915215492249
1773149345356096500,7.812096435546875,-0.6067476272583008,-0.22025707364082336,-0.22212618589401245
1773149345366132500,7.822132568359375,-0.541942834854126,-0.016935117542743683,-0.22455179691314697
1773149345376168400,7.83216845703125,-0.46006205677986145,0.24860870838165283,-0.17718379199504852
1773149345386205400,7.842205322265625,-0.38458698987960815,0.42502716183662415,-0.12972413003444672
1773149345396241400,7.852241455078125,-0.3132549524307251,0.5135672688484192,-0.11578787118196487
1773149345406277400,7.86227734375,-0.24205882847309113,0.5832001566886902,-0.14345066249370575
1773149345416314600,7.872314697265625,-0.1952674239873886,0.6471725702285767,-0.1826186180114746
1773149345426350600,7.8823505859375,-0.17044462263584137,0.7742266654968262,-0.21783599257469177
1773149345436386600,7.892386474609375,-0.1690453290939331,0.8928831815719604,-0.20272943377494812
1773149345446423600,7.902423583984375,-0.19912654161453247,0.9590954780578613,-0.16293354332447052
1773149345456459500,7.91245947265625,-0.23310765624046326,0.9962303638458252,-0.1342821717262268
1773149345466495500,7.92249560546875,-0.22775150835514069,0.9547414779663086,-0.07680556178092957
1773149345476532500,7.932532470703125,-0.20426379144191742,0.8295646905899048,-0.03015855699777603
1773149345486568400,7.942568359375,-0.15359261631965637,0.7226912379264832,-0.018628668040037155
1773149345496604400,7.9526044921875,-0.0757627934217453,0.6042338609695435,-0.035110484808683395
1773149345506641700,7.9626416015625,-0.023434877395629883,0.5446690917015076,-0.09013378620147705
1773149345516677600,7.972677734375,-0.009002731181681156,0.6005992293357849,-0.1599964052438736
1773149345526713600,7.982713623046875,0.005360495299100876,0.7693882584571838,-0.22663694620132446
1773149345536750600,7.99275048828125,0.007758925668895245,0.9427315592765808,-0.311957985162735
1773149345546786600,8.00278662109375,0.001070663332939148,0.981802761554718,-0.4161008894443512
1773149345556821500,8.012821533203125,-0.02903979830443859,0.8844146728515625,-0.528902530670166
1773149345566858500,8.0228583984375,-0.0603865385055542,0.7254170179367065,-0.6119561195373535
1773149345576894500,8.03289453125,-0.06856964528560638,0.5588142275810242,-0.6281276941299438
1773149345586930400,8.042930419921875,-0.03081347607076168,0.4490022361278534,-0.5669357180595398
1773149345596967400,8.052967529296875,0.0231991745531559,0.39308464527130127,-0.460065096616745
1773149345607003400,8.06300341796875,0.045563869178295135,0.23935790359973907,-0.32566893100738525
1773149345617039400,8.073039306640625,0.011965741403400898,-0.09925536066293716,-0.19119106233119965
1773149345627076600,8.08307666015625,-0.016526086255908012,-0.4305739104747772,-0.07208278775215149
1773149345637112600,8.093112548828126,-0.011724190786480904,-0.6023283004760742,0.05672123283147812
1773149345647148500,8.1031484375,0.014628853648900986,-0.671830415725708,0.18664275109767914
1773149345657185500,8.113185546875,0.048514652997255325,-0.7434872984886169,0.2961661219596863
1773149345667221500,8.123221435546874,0.09403099864721298,-0.8572428822517395,0.37996700406074524
1773149345677257500,8.133257568359374,0.13222765922546387,-0.9960793256759644,0.4474662244319916
1773149345687294500,8.14329443359375,0.14649181067943573,-1.0848346948623657,0.5060967803001404
1773149345697330400,8.153330322265624,0.13615375757217407,-1.1246650218963623,0.545987069606781
1773149345707366400,8.163366455078124,0.11194828897714615,-1.0786216259002686,0.5491647720336914
1773149345717403400,8.1734033203125,0.09556502848863602,-0.9343990087509155,0.4904729127883911
1773149345727439600,8.183439697265625,0.08304018527269363,-0.7271621823310852,0.37674954533576965
1773149345737475600,8.1934755859375,0.08719155192375183,-0.5168547630310059,0.23043718934059143
1773149345747512600,8.2035126953125,0.10450848937034607,-0.35917219519615173,0.11722195148468018
1773149345757548500,8.213548583984375,0.1184953898191452,-0.24084286391735077,0.06432168930768967
1773149345767584500,8.22358447265625,0.12011831998825073,-0.12594477832317352,0.058949559926986694
1773149345777621500,8.23362158203125,0.11976432800292969,-0.04440268874168396,0.07110029458999634
1773149345787657500,8.243657470703125,0.1292819231748581,-0.005252358037978411,0.07349953800439835
1773149345797693400,8.253693359375,0.14752085506916046,-0.019259262830018997,0.0826585590839386
1773149345807730400,8.26373046875,0.1521475613117218,-0.051017455756664276,0.10221122205257416
1773149345817766400,8.273766357421875,0.13546375930309296,-0.0858629047870636,0.11824935674667358
1773149345827802400,8.28380224609375,0.11672522127628326,-0.13677135109901428,0.11761365830898285
1773149345837839600,8.293839599609376,0.08949197083711624,-0.18339022994041443,0.11471295356750488
1773149345847875600,8.30387548828125,0.08113257586956024,-0.18753410875797272,0.10649950057268143
1773149345857912600,8.31391259765625,0.06509764492511749,-0.13165614008903503,0.0885385274887085
1773149345867948500,8.323948486328124,0.04381472244858742,-0.033401474356651306,0.06151517108082771
1773149345877984500,8.333984619140624,0.03674303740262985,0.0648789331316948,0.03951413556933403
1773149345888021500,8.344021484375,0.04101927578449249,0.12300162017345428,0.01192378532141447
1773149345898057500,8.354057373046874,0.042068544775247574,0.1523856371641159,-0.019431235268712044
1773149345908093400,8.364093505859374,0.013388165272772312,0.18714547157287598,-0.05659831315279007
1773149345918130700,8.374130615234375,-0.04294859990477562,0.20718228816986084,-0.09016723185777664
1773149345928166700,8.384166748046875,-0.08938054740428925,0.21803680062294006,-0.09775377810001373
1773149345938202600,8.39420263671875,-0.1285325139760971,0.18957962095737457,-0.09948675334453583
1773149345948239600,8.404239501953125,-0.15090571343898773,0.10735771805047989,-0.1125735267996788
1773149345958275600,8.414275634765625,-0.12675616145133972,0.057425305247306824,-0.1235799640417099
1773149345968311600,8.4243115234375,-0.07384608685970306,0.051952242851257324,-0.13865958154201508
1773149345978348500,8.4343486328125,-0.028124891221523285,0.12095815688371658,-0.16574518382549286
1773149345988384500,8.444384521484375,-0.016764378175139427,0.15562692284584045,-0.1222405731678009
1773149345998420500,8.45442041015625,-0.016534317284822464,0.18213048577308655,-0.03627873212099075
1773149346008457500,8.46445751953125,-0.04250972718000412,0.11455516517162323,0.042469609528779984
1773149346018493400,8.474493408203125,-0.06372642517089844,-0.030793657526373863,0.11284885555505753
1773149346028529700,8.48452978515625,-0.06329552084207535,-0.16133888065814972,0.18786557018756866
1773149346038566700,8.494566650390626,-0.048633381724357605,-0.25391075015068054,0.2520093619823456
1773149346048602600,8.5046025390625,-0.0654349997639656,-0.28542715311050415,0.3309478461742401
1773149346058638600,8.514638671875,-0.09773142635822296,-0.2813493013381958,0.3891282379627228
1773149346068675600,8.524675537109376,-0.1169075071811676,-0.271992564201355,0.39361220598220825
1773149346078713300,8.53471337890625,-0.15161757171154022,-0.32824140787124634,0.36826494336128235
1773149346088749300,8.544749267578124,-0.17896690964698792,-0.4077247977256775,0.35322606563568115
1773149346098785500,8.55478564453125,-0.17285113036632538,-0.4127418100833893,0.3235442042350769
1773149346108822500,8.564822509765625,-0.14024871587753296,-0.3549807667732239,0.28924083709716797
1773149346118858500,8.5748583984375,-0.12189853191375732,-0.2971016764640808,0.2792414426803589
1773149346128895500,8.5848955078125,-0.12355022132396698,-0.23355118930339813,0.26201319694519043
1773149346138931500,8.594931396484375,-0.11364273726940155,-0.1856987029314041,0.2286972552537918
1773149346148967400,8.604967529296875,-0.08733469992876053,-0.13271936774253845,0.15945667028427124
1773149346159004400,8.61500439453125,-0.08188321441411972,-0.17912627756595612,0.10891956835985184
1773149346169040400,8.625040283203125,-0.10582716017961502,-0.26153564453125,0.08956477791070938
1773149346179076400,8.635076416015625,-0.12864536046981812,-0.32064321637153625,0.07231114059686661
1773149346189113600,8.645113525390625,-0.12030381709337234,-0.3842781186103821,0.07108688354492188
1773149346199149600,8.655149658203126,-0.07899255305528641,-0.4147822856903076,0.07572273910045624
1773149346209185500,8.665185546875,-0.015392804518342018,-0.4339735507965088,0.03251161798834801
1773149346219222500,8.675222412109376,0.027018235996365547,-0.4485897123813629,-0.04643592610955238
1773149346229258500,8.685258544921876,0.03263644129037857,-0.45142704248428345,-0.13528110086917877
1773149346239294500,8.69529443359375,0.032712068408727646,-0.4473941922187805,-0.22704845666885376
1773149346249331500,8.70533154296875,0.017890512943267822,-0.4364291727542877,-0.3189608156681061
1773149346259367400,8.715367431640624,0.008702196180820465,-0.40859130024909973,-0.38440048694610596
1773149346269403400,8.7254033203125,0.003701845183968544,-0.3791463375091553,-0.42186078429222107
1773149346279440600,8.735440673828125,-0.0011345408856868744,-0.3549056053161621,-0.44882670044898987
1773149346289476600,8.7454765625,0.0027281083166599274,-0.3831058144569397,-0.4882974326610565
1773149346299513600,8.755513671875,0.01866157352924347,-0.39839959144592285,-0.5040419697761536
1773149346309549600,8.765549560546875,0.04639999195933342,-0.3946293592453003,-0.49625226855278015
1773149346319585500,8.77558544921875,0.06283222883939743,-0.4230322241783142,-0.49058499932289124
1773149346329622500,8.78562255859375,0.07481033354997635,-0.48015037178993225,-0.5046957731246948
1773149346339658500,8.795658447265625,0.08607227355241776,-0.5682844519615173,-0.527788519859314
1773149346349694200,8.805694091796875,0.10320065915584564,-0.6154767274856567,-0.544748842716217
1773149346359731200,8.815731201171875,0.09252486377954483,-0.6148991584777832,-0.5522353649139404
1773149346369767200,8.82576708984375,0.07605214416980743,-0.6116751432418823,-0.570719301700592
1773149346379803100,8.83580322265625,0.02420462667942047,-0.5996586084365845,-0.6031267642974854
1773149346389840100,8.845840087890625,-0.018146026879549026,-0.5725529789924622,-0.6407852172851562
1773149346399876000,8.8558759765625,-0.031434111297130585,-0.5226663947105408,-0.6787816286087036
1773149346409912000,8.865912109375,-0.02793072536587715,-0.45952630043029785,-0.6990799903869629
1773149346419949000,8.875948974609376,-0.01318478025496006,-0.400330126285553,-0.6851834654808044
1773149346429985000,8.885985107421876,-0.0016466351225972176,-0.3391714096069336,-0.6607478857040405
1773149346440022300,8.896022216796876,0.03023201785981655,-0.26824596524238586,-0.5912079215049744
1773149346450058200,8.906058349609374,0.07085427641868591,-0.21337471902370453,-0.4978817105293274
1773149346460094200,8.91609423828125,0.06834125518798828,-0.23020102083683014,-0.44372114539146423
1773149346470131200,8.926131103515624,-0.0063907671719789505,-0.3191567361354828,-0.47769027948379517
1773149346480167200,8.936167236328124,-0.1291111260652542,-0.47935834527015686,-0.593069314956665
1773149346490203100,8.946203125,-0.21985752880573273,-0.6401624083518982,-0.7105900645256042
1773149346500240100,8.956240234375,-0.1805221289396286,-0.7080810070037842,-0.7350757122039795
1773149346510276000,8.966276123046875,-0.10662206262350082,-0.6670345067977905,-0.6491730213165283
1773149346520312000,8.97631201171875,-0.06005403399467468,-0.5753008723258972,-0.5452311635017395
1773149346530349300,8.986349365234375,-0.0795462355017662,-0.5375798344612122,-0.5566559433937073
1773149346540385300,8.99638525390625,-0.12294290214776993,-0.5606942772865295,-0.6904588937759399
1773149346550421200,9.006421142578125,-0.11301250755786896,-0.4418747127056122,-0.7599809765815735
1773149346560458200,9.016458251953125,-0.08787765353918076,-0.18088485300540924,-0.6858974695205688
1773149346570494200,9.026494140625,-0.07788227498531342,0.11838547140359879,-0.5728582739830017
1773149346580531200,9.03653125,-0.09809798002243042,0.241280660033226,-0.5103768110275269
1773149346590567200,9.046567138671875,-0.13262932002544403,0.16710789501667023,-0.5010597109794617
1773149346600603100,9.05660302734375,-0.1786152571439743,-0.034130848944187164,-0.49181434512138367
1773149346610640100,9.06664013671875,-0.15800344944000244,-0.2668546438217163,-0.4298793375492096
1773149346620676000,9.076676025390626,-0.08030202239751816,-0.4047868847846985,-0.2520814538002014
1773149346630712300,9.08671240234375,-0.02460334450006485,-0.4228585660457611,-0.00007794739212840796
1773149346640749300,9.096749267578126,-0.014692356809973717,-0.4215255081653595,0.19880804419517517
1773149346650785300,9.106785400390624,-0.015207411721348763,-0.4594411849975586,0.2839335799217224
1773149346660821200,9.1168212890625,0.02313942089676857,-0.4766073226928711,0.2999594509601593
1773149346670858200,9.126858154296874,0.1104452908039093,-0.3706395924091339,0.3108115494251251
1773149346680894200,9.136894287109374,0.2241537719964981,-0.10912201553583145,0.33267325162887573
1773149346690931200,9.14693115234375,0.4022771418094635,0.12758612632751465,0.3216208815574646
1773149346700967200,9.15696728515625,0.5848525762557983,0.24717853963375092,0.3067319393157959
1773149346711003100,9.167003173828125,0.6141196489334106,0.31882503628730774,0.32176709175109863
1773149346721040100,9.1770400390625,0.5257365107536316,0.3301522731781006,0.2765503525733948
1773149346731076400,9.187076416015625,0.45746853947639465,0.250399649143219,0.19843453168869019
1773149346741112300,9.1971123046875,0.4125537872314453,0.17782877385616302,0.22262056171894073
1773149346751149000,9.207149169921875,0.3373485207557678,0.1630980372428894,0.3196059465408325
1773149346761185300,9.217185302734375,0.21428140997886658,0.19133003056049347,0.4050488770008087
1773149346771221200,9.22722119140625,0.06968188285827637,0.2119133323431015,0.37339746952056885
1773149346781258000,9.237258056640625,-0.06264712661504745,0.27374523878097534,0.25516656041145325
1773149346791294200,9.247294189453125,-0.12315787374973297,0.45455658435821533,0.24028748273849487
1773149346801331000,9.2573310546875,-0.09566151350736618,0.6440801024436951,0.33149832487106323
1773149346811367000,9.267366943359375,-0.02068447135388851,0.6884398460388184,0.4306395649909973
1773149346821403400,9.2774033203125,0.03171906620264053,0.5392772555351257,0.4827001094818115
1773149346831440100,9.287440185546876,0.029253514483571053,0.24311460554599762,0.5333850979804993
1773149346841476000,9.29747607421875,-0.009779095649719238,-0.05939602106809616,0.6337161064147949
1773149346851512300,9.30751220703125,-0.03838863596320152,-0.24748018383979797,0.6950687170028687
1773149346861549000,9.317549072265624,-0.06829756498336792,-0.2731021046638489,0.6672995090484619
1773149346871585000,9.3275849609375,-0.08863159269094467,-0.18158842623233795,0.6113795042037964
1773149346881621200,9.337621337890624,-0.0853271558880806,-0.048309169709682465,0.5865175724029541
1773149346891658000,9.347657958984374,-0.06571590155363083,0.03704327717423439,0.5735477209091187
1773149346901694000,9.35769384765625,-0.03962651267647743,0.06017549708485603,0.5614136457443237
1773149346911731200,9.367731201171875,-0.037422213703393936,-0.017391998320817947,0.54912930727005
1773149346921767200,9.37776708984375,-0.06279251724481583,-0.0994105413556099,0.4859580099582672
1773149346931803100,9.38780322265625,-0.09815556555986404,-0.11580149829387665,0.3871757686138153
1773149346941840100,9.397840087890625,-0.06701817363500595,0.011407904326915741,0.309933066368103
1773149346951876000,9.4078759765625,-0.004815517924726009,0.1697690486907959,0.2579739987850189
1773149346961912000,9.417912109375,0.06951593607664108,0.3467487394809723,0.15171515941619873
1773149346971949000,9.427948974609375,0.14458219707012177,0.45419609546661377,0.015408714301884174
1773149346981985000,9.437985107421875,0.20869040489196777,0.4425230324268341,-0.006010561715811491
1773149346992021000,9.44802099609375,0.22869393229484558,0.3810308873653412,0.14318637549877167
1773149347002058200,9.458058349609376,0.14525094628334045,0.284414678812027,0.3762269616127014
1773149347012094200,9.46809423828125,0.03908882662653923,0.13058462738990784,0.5668123960494995
1773149347022131200,9.478131103515626,0.030380263924598694,-0.015808988362550735,0.6252219676971436
1773149347032167200,9.488167236328126,0.09907516837120056,-0.12562815845012665,0.5722143650054932
1773149347042203100,9.498203125,0.15606525540351868,-0.23767061531543732,0.5237157940864563
1773149347052240100,9.508240234375,0.1658739298582077,-0.3083786070346832,0.4835721254348755
1773149347062276000,9.518276123046874,0.16079498827457428,-0.2789391577243805,0.4581960141658783
1773149347072312000,9.52831201171875,0.1274074763059616,-0.15402436256408691,0.4013980031013489
1773149347082349000,9.53834912109375,0.06933140009641647,0.05223822221159935,0.2883634567260742
1773149347092385000,9.548385009765624,0.003047446720302105,0.3003612160682678,0.13494114577770233
1773149347102422300,9.55842236328125,-0.06775454431772232,0.5406457185745239,0.04745974391698837
1773149347112458200,9.568458251953125,-0.13833923637866974,0.7190445065498352,0.060724951326847076
1773149347122494200,9.578494140625,-0.17807438969612122,0.7894270420074463,0.13086877763271332
1773149347132531200,9.58853125,-0.19167569279670715,0.7760686278343201,0.20407775044441223
1773149347142567200,9.598567138671875,-0.15655526518821716,0.8025148510932922,0.21732647716999054
1773149347152603100,9.60860302734375,-0.1615702509880066,0.8540305495262146,0.17590393126010895
1773149347162640100,9.61864013671875,-0.23439094424247742,0.9232812523841858,0.12698432803153992
1773149347172676000,9.628676025390625,-0.3522281050682068,0.9959700703620911,0.07727589458227158
1773149347182712000,9.638712158203125,-0.45574864745140076,0.9805728197097778,0.08379983901977539
1773149347192749300,9.648749267578125,-0.514805793762207,0.8473678827285767,0.1999639868736267
1773149347202785300,9.658785400390625,-0.5538530945777893,0.6248490214347839,0.37852761149406433
1773149347212822300,9.668822265625,-0.558297336101532,0.45444610714912415,0.5098190903663635
1773149347222858200,9.678858154296876,-0.5265913605690002,0.4009708762168884,0.5224036574363708
1773149347232894200,9.688894287109376,-0.4650515913963318,0.4369256794452667,0.4340932071208954
1773149347242931200,9.69893115234375,-0.36978307366371155,0.5535409450531006,0.3232097625732422
1773149347252967200,9.70896728515625,-0.2964015305042267,0.8044381737709045,0.224258691072464
1773149347263003100,9.719003173828124,-0.24391573667526245,1.1709110736846924,0.20336368680000305
1773149347273040100,9.7290400390625,-0.19965612888336182,1.556397795677185,0.27590927481651306
1773149347283076000,9.739076171875,-0.11273081600666046,1.922722339630127,0.3382231295108795
1773149347293113300,9.74911328125,-0.04890069738030434,2.0621249675750732,0.346369206905365
1773149347303149300,9.7591494140625,-0.025388451293110847,2.033679723739624,0.36414220929145813
1773149347313185300,9.769185302734375,-0.02491760440170765,1.8841749429702759,0.4722750782966614
1773149347323222300,9.77922216796875,-0.07346916198730469,1.5674092769622803,0.6845242381095886
1773149347333258200,9.78925830078125,-0.1961657851934433,1.06868577003479,0.9807822704315186
1773149347343294200,9.799294189453125,-0.3572268784046173,0.5005654692649841,1.2888689041137695
1773149347353331200,9.809331298828125,-0.5019848346710205,0.02143053524196148,1.5065546035766602
1773149347363367200,9.8193671875,-0.4509011209011078,-0.2274714857339859,1.5313786268234253
1773149347373404000,9.82940380859375,-0.21858426928520203,-0.25967416167259216,1.267347812652588
1773149347383440100,9.839440185546875,0.14041782915592194,-0.3631507158279419,0.8268911838531494
1773149347393476000,9.84947607421875,0.46943217515945435,-0.6759131550788879,0.4629979431629181
1773149347403512800,9.859512939453126,0.6887392401695251,-0.9961569309234619,0.23131176829338074
1773149347413549300,9.86954931640625,0.7518463134765625,-1.1870484352111816,0.10502253472805023
1773149347423585300,9.879585205078126,0.6801539659500122,-1.1943790912628174,0.06575901061296463
1773149347433622000,9.8896220703125,0.5207986831665039,-0.9754113554954529,0.194590225815773
1773149347443658200,9.899658203125,0.275453120470047,-0.5051978826522827,0.4518185257911682
1773149347453694200,9.909694091796876,-0.006365498527884483,-0.2628217339515686,0.5663661360740662
1773149347463731000,9.91973095703125,-0.20557846128940582,-0.7632688283920288,0.31723305583000183
1773149347473767200,9.92976708984375,-0.29200124740600586,-1.5773420333862305,-0.06531056761741638
1773149347483804000,9.939803955078125,-0.30464377999305725,-2.257620096206665,-0.4140109717845917
1773149347493840000,9.94983984375,-0.3517415225505829,-2.593179941177368,-0.6829510927200317
1773149347503876000,9.9598759765625,-0.41497454047203064,-2.5628480911254883,-0.7958146333694458
1773149347513913000,9.9699130859375,-0.5043081641197205,-2.236640691757202,-0.7933940887451172
1773149347523949000,9.979948974609375,-0.6299465298652649,-1.7845584154129028,-0.7557381391525269
1773149347533986000,9.989986083984375,-0.6754567623138428,-1.4039604663848877,-0.792863667011261
1773149347544022000,10.00002197265625,-0.5607781410217285,-1.2340975999832153,-0.9793012142181396
1773149347554058000,10.01005810546875,-0.4752451181411743,-1.1181541681289673,-1.364377737045288
1773149347564095000,10.020094970703125,-0.38472241163253784,-0.8270962238311768,-1.8138867616653442
1773149347574131000,10.030130859375,-0.21138043701648712,-0.31158360838890076,-2.108516216278076
1773149347584167000,10.0401669921875,0.014826341532170773,0.2510969936847687,-2.1169962882995605
1773149347594204200,10.0502041015625,0.14158907532691956,0.8547689914703369,-1.7731144428253174
1773149347604240100,10.060240234375,0.16814905405044556,1.1814042329788208,-1.2300893068313599
1773149347614277000,10.070277099609376,0.1355636715888977,0.9356117248535156,-0.7727971076965332
1773149347624313000,10.08031298828125,0.15758535265922546,0.42573219537734985,-0.514218807220459
1773149347634349000,10.09034912109375,0.20544075965881348,0.05233865976333618,-0.3491329252719879
1773149347644386000,10.100385986328124,0.20895560085773468,-0.16460168361663818,-0.19066551327705383
1773149347654422000,10.110422119140624,0.1869240701198578,-0.28050485253334045,-0.04117163270711899
1773149347664458000,10.1204580078125,0.13356363773345947,-0.34614241123199463,0.0823868066072464
1773149347674495000,10.130494873046874,0.06262367963790894,-0.3256448805332184,0.21920670568943024
1773149347684531000,10.140531005859375,0.013987701386213303,-0.24218857288360596,0.35963550209999084
1773149347694568200,10.150568115234375,-0.02188188210129738,-0.20713764429092407,0.4413554072380066
1773149347704604200,10.160604248046875,-0.06395504623651505,-0.319867879152298,0.43471693992614746
1773149347714640100,10.17064013671875,-0.10946366935968399,-0.5098287463188171,0.3658404052257538
1773149347724677000,10.180677001953125,-0.13416847586631775,-0.6361585259437561,0.2909074127674103
1773149347734713000,10.190713134765625,-0.1644400954246521,-0.7198320627212524,0.2202601283788681
1773149347744749000,10.2007490234375,-0.19042932987213135,-0.7623037099838257,0.11165224015712738
1773149347754786000,10.2107861328125,-0.2259623110294342,-0.7770339250564575,-0.05783692002296448
1773149347764822000,10.220822021484375,-0.2911381423473358,-0.7643516063690186,-0.25326797366142273
1773149347774859000,10.23085888671875,-0.32117965817451477,-0.6782641410827637,-0.4320204257965088
1773149347784895200,10.240895263671876,-0.2455887496471405,-0.5455750823020935,-0.5641770958900452
1773149347794931200,10.25093115234375,-0.0795166864991188,-0.3989776372909546,-0.6734103560447693
1773149347804968200,10.26096826171875,0.14066016674041748,-0.23707185685634613,-0.8102074861526489
1773149347815004200,10.271004150390626,0.3544488847255707,-0.03833773359656334,-0.9396600127220154
1773149347825040100,10.2810400390625,0.4644899070262909,0.15077337622642517,-0.970298171043396
1773149347835077000,10.2910771484375,0.47195446491241455,0.237346351146698,-0.877059817314148
1773149347845113000,10.301113037109374,0.41981828212738037,0.22796215116977692,-0.6963623762130737
1773149347855150000,10.311150146484374,0.3367103636264801,0.1576315313577652,-0.46509772539138794
1773149347865186000,10.32118603515625,0.21971474587917328,0.037119269371032715,-0.22550533711910248
1773149347875222000,10.331221923828124,0.1015218049287796,-0.14871478080749512,0.01642659492790699
1773149347885259300,10.34125927734375,0.03995778411626816,-0.39485347270965576,0.22411052882671356
1773149347895295200,10.351295166015625,0.01860535331070423,-0.5859352946281433,0.35997274518013
1773149347905331200,10.361331298828125,-0.020135922357439995,-0.5849994421005249,0.41447359323501587
1773149347915368200,10.3713681640625,-0.04994867742061615,-0.4150168001651764,0.4012906551361084
1773149347925404200,10.381404052734375,-0.030090566724538803,-0.24572782218456268,0.33364030718803406
1773149347935441000,10.39144091796875,0.015521393157541752,-0.12962305545806885,0.2202351987361908
1773149347945477000,10.40147705078125,0.06112245097756386,0.012341189198195934,0.08190428465604782
1773149347955513000,10.41151318359375,0.1108093187212944,0.1725790649652481,-0.033372778445482254
1773149347965550000,10.421550048828125,0.16765396296977997,0.25359031558036804,-0.110261470079422
1773149347975586000,10.4315859375,0.19944624602794647,0.2066321223974228,-0.1638605147600174
1773149347985623000,10.441623046875,0.1889491081237793,0.02415952831506729,-0.17222188413143158
1773149347995659000,10.451658935546876,0.16247595846652985,-0.25080224871635437,-0.1159823089838028
1773149348005695200,10.4616953125,0.1488347202539444,-0.5488944053649902,-0.05016292259097099
1773149348015732000,10.47173193359375,0.17104469239711761,-0.7647310495376587,-0.02810928225517273
1773149348025768000,10.481767822265626,0.19212760031223297,-0.9207473397254944,-0.0059889862313866615
1773149348035804200,10.49180419921875,0.2122320830821991,-1.0238611698150635,0.0528266578912735
1773149348045841000,10.5018408203125,0.23374268412590027,-1.102387547492981,0.12181355804204941
1773149348055876900,10.511876953125,0.22474998235702515,-1.1915034055709839,0.21282894909381866
1773149348065914000,10.5219140625,0.18807587027549744,-1.3054665327072144,0.37863433361053467
1773149348075950000,10.5319501953125,0.09148247539997101,-1.4107391834259033,0.5659747123718262
1773149348085986000,10.541986083984375,-0.010946961119771004,-1.4438661336898804,0.6949411630630493
1773149348096023000,10.55202294921875,-0.07385668903589249,-1.3441786766052246,0.7169079780578613
1773149348106059000,10.56205908203125,-0.10010053962469101,-1.1757769584655762,0.6413280367851257
1773149348116096000,10.572095947265625,-0.11722999066114426,-0.9830897450447083,0.5151983499526978
1773149348126132000,10.582132080078125,-0.14098003506660461,-0.7358198761940002,0.3697175085544586
1773149348136168000,10.59216796875,-0.1470046490430832,-0.4144420921802521,0.2453303039073944
1773149348146205200,10.602205078125,-0.1146421879529953,-0.037295591086149216,0.1790498048067093
1773149348156241200,10.6122412109375,-0.05251676216721535,0.3441436290740967,0.13777559995651245
1773149348166277000,10.622277099609375,-0.00450527761131525,0.6789332628250122,0.05008608475327492
1773149348176314000,10.632314208984376,0.015372289344668388,0.927527129650116,-0.10946229845285416
1773149348186350000,10.64235009765625,0.026705600321292877,1.1248387098312378,-0.3078019618988037
1773149348196387000,10.652386962890626,0.06672678142786026,1.184953212738037,-0.41430097818374634
1773149348206423000,10.662423095703126,0.08737055212259293,1.1409037113189697,-0.381806343793869
1773149348216459000,10.672458984375,-0.005963924340903759,1.1041356325149536,-0.290011465549469
1773149348226496000,10.68249609375,-0.13510297238826752,1.0804173946380615,-0.21973258256912231
1773149348236532000,10.692531982421874,-0.16665397584438324,0.9984519481658936,-0.2019738256931305
1773149348246569200,10.7025693359375,-0.11404377967119217,0.8895028829574585,-0.18496283888816833
1773149348256605200,10.712605224609375,0.008751644752919674,0.6597650051116943,-0.10390526056289673
1773149348266641200,10.72264111328125,0.09959632158279419,0.3435450494289398,0.017306139692664146
1773149348276678100,10.73267822265625,0.10521772503852844,0.07010789960622787,0.11911319196224213
1773149348286714000,10.742714111328125,0.06978915631771088,-0.15711456537246704,0.16360178589820862
1773149348296751000,10.752751220703125,0.06687405705451965,-0.30682840943336487,0.168390154838562
1773149348306787000,10.762787109375,0.05848110839724541,-0.3825972080230713,0.1569487601518631
1773149348316823000,10.772822998046875,-0.02918935753405094,-0.41606223583221436,0.19287188351154327
1773149348326860000,10.782860107421875,-0.14986462891101837,-0.44821494817733765,0.29461202025413513
1773149348336896300,10.792896240234375,-0.2384786605834961,-0.6093143224716187,0.3945024013519287
1773149348346932200,10.80293212890625,-0.2939925193786621,-0.862133800983429,0.4025023877620697
1773149348356969500,10.812969482421876,-0.3207085430622101,-1.1055914163589478,0.3306846618652344
1773149348367005700,10.823005615234376,-0.3123214542865753,-1.213376522064209,0.2672814726829529
1773149348377042400,10.83304248046875,-0.27111756801605225,-1.1220815181732178,0.2673528492450714
1773149348387078400,10.843078369140626,-0.20383094251155853,-0.8822184801101685,0.29051846265792847
1773149348397114600,10.853114501953126,-0.10577254742383957,-0.5692054629325867,0.2751554846763611
1773149348407151400,10.8631513671875,0.01693846471607685,-0.28047996759414673,0.19390429556369781
1773149348417187300,10.873187255859374,0.13247890770435333,-0.04926857352256775,0.09325569868087769
1773149348427224600,10.883224609375,0.19576013088226318,0.144239142537117,0.008511895313858986
1773149348437260500,10.893260498046875,0.19533802568912506,0.3034224212169647,-0.053345344960689545
1773149348447296500,10.903296630859375,0.1501263529062271,0.42741432785987854,-0.13453441858291626
1773149348457333500,10.91333349609375,0.07251624763011932,0.47359034419059753,-0.23795029520988464
1773149348467369500,10.923369384765625,-0.018406473100185394,0.45244354009628296,-0.30262520909309387
1773149348477406500,10.933406494140625,-0.09817374497652054,0.43485787510871887,-0.29984670877456665
1773149348487442400,10.9434423828125,-0.17575162649154663,0.44309982657432556,-0.2255074679851532
1773149348497478400,10.953478515625,-0.25309062004089355,0.45601511001586914,-0.14788085222244263
1773149348507515400,10.963515380859375,-0.3211972415447235,0.43812325596809387,-0.0980597585439682
1773149348517551400,10.97355126953125,-0.37072643637657166,0.37816324830055237,-0.07505004853010178
1773149348527588600,10.983588623046876,-0.3818078637123108,0.25691136717796326,-0.04794029891490936
1773149348537624600,10.99362451171875,-0.35230058431625366,0.09809456020593643,0.0063274698331952095
1773149348547660500,11.00366064453125,-0.30262380838394165,-0.04960918426513672,0.05800280347466469
1773149348557697500,11.013697509765626,-0.23968426883220673,-0.07132113724946976,0.08222424983978271
1773149348567733500,11.0237333984375,-0.1587984710931778,0.06156096234917641,0.04080783203244209
1773149348577769500,11.03376953125,-0.06742088496685028,0.28159719705581665,-0.027101442217826843
1773149348587806500,11.043806396484374,-0.003458959050476551,0.48598340153694153,-0.06325414776802063
1773149348597842400,11.053842529296874,0.0021033184602856636,0.578178882598877,-0.06411248445510864
1773149348607879700,11.063879638671875,-0.018364660441875458,0.5629175901412964,-0.07093727588653564
1773149348617915600,11.07391552734375,-0.05020541325211525,0.46946030855178833,-0.08945689350366592
1773149348627951600,11.08395166015625,-0.09109745919704437,0.35063862800598145,-0.10234595835208893
1773149348637988600,11.093988525390625,-0.12473904341459274,0.24533990025520325,-0.06612697243690491
1773149348648024600,11.104024658203125,-0.15237866342067719,0.14641864597797394,0.019262250512838364
1773149348658061600,11.1140615234375,-0.16037693619728088,0.07688216865062714,0.10611218959093094
1773149348668097500,11.12409765625,-0.14156782627105713,0.0503496378660202,0.13128209114074707
1773149348678133500,11.134133544921875,-0.15365192294120789,-0.014987293630838394,0.11819450557231903
1773149348688170500,11.14417041015625,-0.15897023677825928,-0.08219484239816666,0.09717650711536407
1773149348698206500,11.15420654296875,-0.14051294326782227,-0.1151442676782608,0.0712951123714447
1773149348708243700,11.16424365234375,-0.10286997258663177,-0.08005894720554352,0.05570339411497116
1773149348718279700,11.17427978515625,-0.06077471375465393,0.06563007831573486,0.07417428493499756
1773149348728315600,11.184315673828126,-0.01275019533932209,0.2280980795621872,0.10290251672267914
1773149348738352600,11.1943525390625,-0.004182273522019386,0.30490416288375854,0.11965060234069824
1773149348748388600,11.204388671875,-0.027923032641410828,0.28728049993515015,0.10773526132106781
1773149348758425600,11.214425537109374,-0.04664851725101471,0.21522681415081024,0.09287375956773758
1773149348768461600,11.224461669921874,-0.0548342727124691,0.1529591679573059,0.11301268637180328
1773149348778497500,11.23449755859375,-0.04972046986222267,0.16470129787921906,0.17340998351573944
1773149348788534500,11.244534423828124,-0.06660729646682739,0.25305190682411194,0.24735577404499054
1773149348798570800,11.25457080078125,-0.06135794147849083,0.3933061957359314,0.30247440934181213
1773149348808607500,11.264607421875,-0.038997240364551544,0.46493855118751526,0.34399133920669556
1773149348818643500,11.2746435546875,-0.04485007002949715,0.523574709892273,0.36790093779563904
1773149348828679700,11.2846796875,-0.07875771820545197,0.5526472330093384,0.4102548062801361
1773149348838716400,11.29471630859375,-0.14512795209884644,0.563518226146698,0.5198161602020264
1773149348848752400,11.30475244140625,-0.1772930771112442,0.6024810075759888,0.7074506282806396
1773149348858789400,11.314789306640625,-0.108045294880867,0.6808967590332031,0.8997553586959839
1773149348868825300,11.324825439453125,0.051308680325746536,0.8199946880340576,1.0342432260513306
1773149348878861300,11.334861328125,0.23267634212970734,1.0320656299591064,1.1025722026824951
1773149348888898600,11.344898681640625,0.395641028881073,1.2723875045776367,1.100766658782959
1773149348898934500,11.3549345703125,0.5454502105712891,1.3026878833770752,1.0420827865600586
1773149348908971500,11.364971435546876,0.6416539549827576,1.0688745975494385,0.9599577188491821
1773149348919007500,11.375007568359376,0.7069882750511169,0.8538704514503479,0.9171172976493835
1773149348929043500,11.38504345703125,0.6975971460342407,0.7390095591545105,0.9613269567489624
1773149348939080400,11.39508056640625,0.6429765224456787,0.5536895394325256,0.9756364226341248
1773149348949116400,11.405116455078126,0.6037608981132507,0.4274892508983612,0.9952252507209778
1773149348959153400,11.4151533203125,0.6060195565223694,0.603866696357727,0.9925783276557922
1773149348969189600,11.425189697265624,0.6022652983665466,0.8504365682601929,0.8250792622566223
1773149348979225600,11.4352255859375,0.5075182914733887,1.0176154375076294,0.6424005627632141
1773149348989262600,11.4452626953125,0.4233112633228302,1.1836438179016113,0.6467905640602112
1773149348999298600,11.455298583984375,0.41817590594291687,1.274991750717163,0.77560955286026
1773149349009335600,11.46533544921875,0.5735177993774414,1.1877573728561401,0.9386835098266602
1773149349019371500,11.47537158203125,0.8586206436157227,1.0716228485107422,0.9719168543815613
1773149349029407500,11.485407470703125,1.1328513622283936,1.0417670011520386,0.8651014566421509
1773149349039444500,11.495444580078125,1.2553730010986328,1.1891940832138062,0.6647526621818542
1773149349049480400,11.50548046875,1.2374635934829712,1.4390944242477417,0.4822115898132324
1773149349059517700,11.515517578125,1.2322893142700195,1.4452284574508667,0.45887109637260437
1773149349069553700,11.5255537109375,1.2297523021697998,1.1534932851791382,0.584854781627655
1773149349079590700,11.535590576171876,1.192055583000183,0.6818840503692627,0.6971949338912964
1773149349089626600,11.545626708984376,1.1858253479003906,0.5446467995643616,0.7574889063835144
1773149349099662600,11.55566259765625,1.1140815019607544,0.609247088432312,0.8009147047996521
1773149349109699600,11.565699462890626,1.0295718908309937,0.5552117824554443,0.853579580783844
1773149349119735600,11.575735595703126,0.9411067366600037,0.43549633026123047,0.867778480052948
1773149349129772500,11.5857724609375,0.8778449296951294,0.45512041449546814,0.8105828762054443
1773149349139808500,11.59580859375,0.8601564764976501,0.5784343481063843,0.7779056429862976
1773149349149844500,11.605844482421874,0.8566408157348633,0.6247422099113464,0.7043356895446777
1773149349159881500,11.615881591796875,0.7965428829193115,0.6829727292060852,0.5606603026390076
1773149349169917700,11.625917724609375,0.6711223721504211,0.7756193280220032,0.49917837977409363
1773149349179954400,11.635954345703125,0.6595674753189087,0.798209547996521,0.6011255383491516
1773149349189990400,11.645990478515625,0.7138482928276062,0.8090305328369141,0.6456258893013
1773149349200026600,11.656026611328125,0.755260705947876,0.8380134701728821,0.63545823097229
1773149349210063400,11.6660634765625,0.7877959609031677,0.7966029644012451,0.5796875357627869
1773149349220099300,11.676099365234375,0.7919363975524902,0.744457483291626,0.47464632987976074
1773149349230136600,11.686136474609375,0.7550995349884033,0.8863669037818909,0.3833337128162384
1773149349240172500,11.696172607421875,0.7640019655227661,1.038110613822937,0.4415123462677002
1773149349250208500,11.70620849609375,0.7698644399642944,1.0173269510269165,0.42300644516944885
1773149349260245500,11.71624560546875,0.7408194541931152,1.0244090557098389,0.36487042903900146
1773149349270281500,11.726281494140625,0.7126671671867371,0.9265009760856628,0.37218132615089417
1773149349280318500,11.736318359375,0.7234894633293152,0.7708607912063599,0.4469687342643738
1773149349290354400,11.7463544921875,0.7183895111083984,0.7045552730560303,0.558312714099884
1773149349300390400,11.756390380859376,0.6956572532653809,0.5452934503555298,0.6768721342086792
1773149349310427400,11.766427490234374,0.6756848692893982,0.2966437041759491,0.7939790487289429
1773149349320463400,11.77646337890625,0.6236456632614136,0.15746665000915527,0.8430429697036743
1773149349330500600,11.78650048828125,0.5783421397209167,0.1328028440475464,0.8214707374572754
1773149349340536600,11.79653662109375,0.5580054521560669,0.1802033931016922,0.7745770215988159
1773149349350577400,11.806577392578125,0.5624395608901978,0.1263749897480011,0.720872163772583
1773149349360613400,11.81661328125,0.5668875575065613,0.19630879163742065,0.6758900284767151
1773149349370649300,11.8266494140625,0.47370654344558716,0.28814896941185,0.703345775604248
1773149349380686300,11.836686279296876,0.514370322227478,0.18205875158309937,0.7522680163383484
1773149349390722300,11.846722412109376,0.4998832643032074,0.27674558758735657,0.7571122646331787
1773149349400759300,11.85675927734375,0.47881844639778137,0.29867619276046753,0.674091637134552
1773149349410795300,11.866795166015624,0.4762634336948395,0.23748824000358582,0.5695385932922363
1773149349420831200,11.876831298828124,0.4871198236942291,0.25245147943496704,0.44149351119995117
1773149349430868500,11.886868408203124,0.5627487897872925,0.30983009934425354,0.4765474200248718
1773149349440904400,11.896904541015624,0.6011565923690796,0.2747967541217804,0.523069441318512
1773149349450941400,11.90694140625,0.5504521727561951,0.19848649203777313,0.6142147183418274
1773149349460977400,11.916977294921875,0.4561064839363098,0.08771630376577377,0.6479367613792419
1773149349471013400,11.927013427734375,0.4098223149776459,0.09204316884279251,0.6585288047790527
1773149349481050400,11.93705029296875,0.38010331988334656,0.10176317393779755,0.6494029760360718
1773149349491086300,11.94708642578125,0.35539746284484863,0.17280538380146027,0.5842345356941223
1773149349501123000,11.957123046875,0.35459744930267334,0.20086444914340973,0.5191439390182495
1773149349511159300,11.9671591796875,0.3305791914463043,0.2802247405052185,0.4508402943611145
1773149349521196300,11.9771962890625,0.35922253131866455,0.2148555964231491,0.5003907680511475
1773149349531232300,11.987232177734375,0.3874664604663849,0.10203853994607925,0.5242209434509277
1773149349541268200,11.997268310546875,0.3823888599872589,0.13197514414787292,0.5270076990127563
1773149349551303400,12.007303466796875,0.31437572836875916,0.1610129028558731,0.614687442779541
1773149349561340400,12.01734033203125,0.227212592959404,0.1014060229063034,0.6677698493003845
1773149349571376400,12.02737646484375,0.17054079473018646,0.03255559131503105,0.7209412455558777
1773149349581412400,12.037412353515625,0.15094950795173645,-0.043492838740348816,0.7335904240608215
1773149349591449300,12.047449462890626,0.1346765160560608,-0.03503063693642616,0.7202361822128296
1773149349601485300,12.0574853515625,0.10997037589550018,-0.014156780205667019,0.6801921129226685
1773149349611522300,12.067522216796876,0.1216728463768959,-0.01984667219221592,0.6431037187576294
1773149349621558300,12.077558349609374,0.15676450729370117,0.07564336061477661,0.596434473991394
1773149349631594200,12.08759423828125,0.24029961228370667,0.12406449019908905,0.6916153430938721
1773149349641631500,12.097631591796874,0.20866712927818298,0.11560443043708801,0.7820416688919067
1773149349651667500,12.10766748046875,0.11248653382062912,-0.045032963156700134,0.8469391465187073
1773149349661704200,12.1177041015625,0.038999803364276886,-0.1189950704574585,0.8583686351776123
1773149349671740400,12.127740478515625,0.0173240564763546,-0.10593883693218231,0.7979207038879395
1773149349681776400,12.1377763671875,0.04460921138525009,0.019882474094629288,0.7359249591827393
1773149349691813000,12.147813232421875,0.05305569991469383,0.09658626466989517,0.6493224501609802
1773149349701849300,12.157849365234375,0.03088541328907013,0.06691225618124008,0.6779825687408447
1773149349711886000,12.167885986328125,-0.010633806698024273,-0.04250047728419304,0.7450873255729675
1773149349721922000,12.177922119140625,-0.04233527556061745,-0.09639886021614075,0.7562017440795898
1773149349731959300,12.187959228515625,-0.06493965536355972,-0.06086055934429169,0.6880398988723755
1773149349741995300,12.197995361328125,-0.06258516013622284,0.02251289412379265,0.7121614813804626
1773149349752031200,12.20803125,-0.0709725171327591,-0.01803695224225521,0.7731001377105713
1773149349762068200,12.218068115234376,-0.09366877377033234,-0.05364927276968956,0.8314582705497742
1773149349772104200,12.228104248046876,-0.09504109621047974,-0.16821156442165375,0.848160445690155
1773149349782141200,12.23814111328125,-0.043414387851953506,-0.21007859706878662,0.8422317504882812
1773149349792177200,12.24817724609375,-0.03933709114789963,-0.12416840344667435,0.7736694812774658
1773149349802213000,12.258213134765626,-0.06470397114753723,-0.006273727398365736,0.7431703805923462
1773149349812250400,12.26825048828125,-0.10600026696920395,-0.00923626683652401,0.7400283217430115
1773149349822286300,12.278286376953124,-0.12328817695379257,-0.17259323596954346,0.8012275099754333
1773149349832323300,12.2883232421875,-0.16415172815322876,-0.15715914964675903,0.809391975402832
1773149349842359300,12.298359375,-0.15774601697921753,-0.17659810185432434,0.7805603742599487
1773149349852396300,12.308396240234375,-0.12488741427659988,-0.23491603136062622,0.6715813875198364
1773149349862432300,12.318432373046875,-0.08247843384742737,-0.09075485914945602,0.4900533854961395
1773149349872470300,12.32847021484375,-0.05144142359495163,-0.007919063791632652,0.41981974244117737
1773149349882506500,12.338506591796875,-0.07875427603721619,-0.008789651095867157,0.48026418685913086
1773149349892542500,12.34854248046875,-0.06659720838069916,-0.19245827198028564,0.5241695046424866
1773149349902579200,12.3585791015625,-0.05470406264066696,-0.23395006358623505,0.4573681056499481
1773149349912615400,12.368615478515625,-0.02163824439048767,-0.17443223297595978,0.2704891562461853
1773149349922652200,12.378652099609376,0.05906112492084503,-0.05409064143896103,0.0927463099360466
1773149349932688100,12.388688232421876,0.11616329103708267,-0.06090880185365677,0.03322705253958702
1773149349942724400,12.398724365234376,0.16809387505054474,-0.11450651288032532,-0.034742411226034164
1773149349952761000,12.408760986328126,0.2253241240978241,-0.15709979832172394,-0.06857448071241379
1773149349962797000,12.418797119140624,0.22954922914505005,-0.21241791546344757,-0.14064574241638184
1773149349972834300,12.428834228515624,0.23738160729408264,-0.16879533231258392,-0.25383105874061584
1773149349982870300,12.438870361328124,0.2643604874610901,-0.11263751983642578,-0.34271830320358276
1773149349992907300,12.4489072265625,0.25770336389541626,-0.10165593028068542,-0.38616520166397095
1773149350002943200,12.458943115234375,0.2518417537212372,-0.13825282454490662,-0.39558374881744385
1773149350012979200,12.468979248046875,0.23384465277194977,-0.18357901275157928,-0.3697781562805176
1773149350023016200,12.47901611328125,0.19579553604125977,-0.26399847865104675,-0.37691357731819153
1773149350033052200,12.48905224609375,0.19153474271297455,-0.2904066741466522,-0.4308953583240509
1773149350043089400,12.49908935546875,0.21298225224018097,-0.2633380591869354,-0.5058476328849792
1773149350053125400,12.50912548828125,0.23114526271820068,-0.26032522320747375,-0.5597792267799377
1773149350063161300,12.519161376953125,0.22961793839931488,-0.28079721331596375,-0.5930524468421936
1773149350073198300,12.5291982421875,0.24005115032196045,-0.2991093397140503,-0.6232820749282837
