time,seconds_elapsed,z,y,x
1773149337637044500,0.09304443359375,-19.990509033203125,108.95713806152344,-118.77867126464844
1773149337647134500,0.103134521484375,-20.423782348632812,108.96707153320312,-118.28498840332031
1773149337657223400,0.113223388671875,-21.0660400390625,109.38504028320312,-117.851318359375
1773149337667313700,0.123313720703125,-21.569412231445312,109.94931030273438,-117.01155090332031
1773149337677402600,0.133402587890625,-22.829147338867188,110.21188354492188,-116.53898620605469
1773149337687492600,0.14349267578125,-22.981735229492188,110.550537109375,-115.88172912597656
1773149337697582600,0.15358251953125,-23.503143310546875,110.84208679199219,-115.71926879882812
1773149337707671600,0.163671630859375,-24.189346313476562,110.79043579101562,-115.15403747558594
1773149337717760500,0.173760498046875,-24.74798583984375,110.79368591308594,-114.56108093261719
1773149337727850500,0.1838505859375,-25.27587890625,110.45101928710938,-113.93962097167969
1773149337737941500,0.19394140625,-25.9017333984375,109.844482421875,-113.12806701660156
1773149337748032500,0.204032470703125,-26.487213134765625,109.70298767089844,-112.68028259277344
1773149337758122500,0.21412255859375,-26.383758544921875,109.48855590820312,-112.1656494140625
1773149337768213500,0.224213623046875,-26.86669921875,109.18255615234375,-111.75267028808594
1773149337778305500,0.234305419921875,-27.338058471679688,108.82978820800781,-111.32759094238281
1773149337788396500,0.244396484375,-27.747970581054688,108.79347229003906,-110.78694152832031
1773149337798486500,0.254486572265625,-27.964813232421875,108.94131469726562,-110.54875183105469
1773149337808576500,0.264576416015625,-27.720367431640625,108.98616027832031,-110.03627014160156
1773149337818665500,0.27466552734375,-27.839202880859375,109.05723571777344,-110.11587524414062
1773149337828755700,0.284755615234375,-28.020584106445312,108.72602844238281,-109.59555053710938
1773149337838844400,0.294844482421875,-28.32159423828125,108.59263610839844,-109.27333068847656
1773149337848935700,0.304935791015625,-28.952789306640625,108.37037658691406,-108.72286987304688
1773149337859026400,0.3150263671875,-29.015716552734375,108.65762329101562,-108.42924499511719
1773149337869116700,0.32511669921875,-29.010543823242188,108.43812561035156,-108.36726379394531
1773149337879205400,0.335205322265625,-28.846908569335938,108.4227294921875,-108.68608093261719
1773149337889296600,0.345296630859375,-28.907058715820312,108.05712890625,-108.82685852050781
1773149337899387600,0.3553876953125,-28.78582763671875,107.80375671386719,-109.04609680175781
1773149337909476600,0.3654765625,-28.560302734375,107.94569396972656,-109.06478881835938
1773149337919565300,0.3755654296875,-28.7215576171875,107.88494873046875,-109.30009460449219
1773149337929655600,0.385655517578125,-28.595077514648438,107.91787719726562,-109.52059936523438
1773149337939745500,0.39574560546875,-28.521560668945312,107.98374938964844,-109.97454833984375
1773149337949836500,0.40583642578125,-27.994094848632812,108.13754272460938,-110.30723571777344
1773149337959925500,0.415925537109375,-27.696685791015625,108.4073486328125,-111.06620788574219
1773149337970014500,0.426014404296875,-27.4010009765625,108.67430114746094,-111.59754943847656
1773149337980104400,0.4361044921875,-26.987579345703125,108.69822692871094,-112.28727722167969
1773149337990194400,0.4461943359375,-26.392166137695312,109.35469055175781,-113.03890991210938
1773149338000283400,0.456283447265625,-25.23828125,109.26136779785156,-113.61039733886719
1773149338010374700,0.466374755859375,-24.629364013671875,109.31861877441406,-114.69195556640625
1773149338020465700,0.476465576171875,-24.128677368164062,109.46110534667969,-115.53028869628906
1773149338030554600,0.4865546875,-24.032089233398438,109.37643432617188,-116.19793701171875
1773149338040645600,0.496645751953125,-23.590240478515625,109.114013671875,-116.39822387695312
1773149338050735400,0.5067353515625,-23.20819091796875,108.80323791503906,-116.38400268554688
1773149338060825600,0.51682568359375,-23.207138061523438,108.441650390625,-116.7169189453125
1773149338070915600,0.52691552734375,-23.142608642578125,108.05824279785156,-116.75419616699219
1773149338081004500,0.537004638671875,-23.00732421875,107.99140930175781,-116.88388061523438
1773149338091095600,0.547095458984375,-22.962188720703125,107.70237731933594,-117.15753173828125
1773149338101185500,0.557185546875,-22.305404663085938,107.36509704589844,-117.19874572753906
1773149338111275500,0.567275634765625,-22.41680908203125,106.95193481445312,-117.44677734375
1773149338121364500,0.577364501953125,-22.309524536132812,106.54989624023438,-117.28440856933594
1773149338131454500,0.587454345703125,-22.365005493164062,106.10621643066406,-117.28456115722656
1773149338141544700,0.597544677734375,-22.199813842773438,105.87997436523438,-117.31326293945312
1773149338151634400,0.607634521484375,-21.994796752929688,105.57562255859375,-117.41110229492188
1773149338161724700,0.617724609375,-21.919082641601562,105.424072265625,-117.56050109863281
1773149338171814400,0.627814453125,-21.824783325195312,105.19642639160156,-117.60008239746094
1773149338181903600,0.637903564453125,-21.819122314453125,105.0767822265625,-117.88299560546875
1773149338191992600,0.64799267578125,-21.581771850585938,104.7889404296875,-117.57411193847656
1773149338202082600,0.65808251953125,-21.207138061523438,104.85466003417969,-117.79920959472656
1773149338212172500,0.668172607421875,-21.418258666992188,104.88638305664062,-117.97111511230469
1773149338222263600,0.678263671875,-21.428268432617188,104.90960693359375,-117.85438537597656
1773149338232353500,0.688353515625,-21.572784423828125,105.01786804199219,-117.78132629394531
1773149338242442500,0.6984423828125,-20.767959594726562,105.13887023925781,-117.74754333496094
1773149338252534500,0.708534423828125,-20.982559204101562,105.30793762207031,-118.08535766601562
1773149338262624500,0.71862451171875,-20.8155517578125,105.46797180175781,-118.56068420410156
1773149338272715500,0.728715576171875,-20.662216186523438,105.62718200683594,-118.73764038085938
1773149338282805500,0.738805419921875,-20.463912963867188,105.83583068847656,-119.01289367675781
1773149338292896500,0.748896484375,-20.403640747070312,105.46780395507812,-118.46612548828125
1773149338302986500,0.758986572265625,-20.607818603515625,105.23384094238281,-118.07252502441406
1773149338313077500,0.769077392578125,-21.5802001953125,104.86367797851562,-117.77230834960938
1773149338323167500,0.77916748046875,-22.225082397460938,105.02064514160156,-117.12701416015625
1773149338333259500,0.789259521484375,-23.322280883789062,104.84877014160156,-116.37335205078125
1773149338343347000,0.799346923828125,-24.161911010742188,104.88482666015625,-115.16441345214844
1773149338353438000,0.80943798828125,-25.412353515625,105.1888427734375,-113.80746459960938
1773149338363529000,0.819529052734375,-26.355987548828125,105.50808715820312,-112.36932373046875
1773149338373622000,0.8296220703125,-27.396041870117188,106.04264831542969,-111.00410461425781
1773149338383711700,0.839711669921875,-27.758575439453125,107.02711486816406,-109.72080993652344
1773149338393801000,0.849801025390625,-28.863174438476562,108.09291076660156,-108.97660827636719
1773149338403891000,0.859890869140625,-29.047088623046875,109.40614318847656,-108.65841674804688
1773149338413979000,0.869978759765625,-28.6934814453125,111.07859802246094,-109.27281188964844
1773149338424068000,0.880068115234375,-27.072738647460938,112.35174560546875,-110.34809875488281
1773149338434157800,0.89015771484375,-26.632553100585938,114.34365844726562,-111.25773620605469
1773149338444247000,0.9002470703125,-26.05035400390625,115.61683654785156,-112.13949584960938
1773149338454337800,0.910337890625,-25.341964721679688,117.17045593261719,-112.60305786132812
1773149338464428800,0.9204287109375,-24.884963989257812,118.77536010742188,-112.12249755859375
1773149338474519000,0.93051904296875,-25.365493774414062,120.4581298828125,-110.91593933105469
1773149338484608000,0.94060791015625,-25.24273681640625,122.35588073730469,-109.58218383789062
1773149338494697700,0.95069775390625,-25.52142333984375,123.85893249511719,-108.38864135742188
1773149338504788000,0.9607880859375,-25.5394287109375,125.54635620117188,-107.05731201171875
1773149338514877000,0.970876953125,-25.752426147460938,126.67706298828125,-105.60563659667969
1773149338524967000,0.980966796875,-26.170089721679688,126.96414184570312,-104.14422607421875
1773149338535057000,0.991056884765625,-26.08038330078125,127.16258239746094,-103.28274536132812
1773149338545146000,1.00114599609375,-26.087158203125,127.46369934082031,-102.57012939453125
1773149338555235800,1.01123583984375,-26.5733642578125,128.00730895996094,-101.90037536621094
1773149338565324800,1.02132470703125,-26.420318603515625,128.2673797607422,-101.67787170410156
1773149338575414800,1.031414794921875,-26.210952758789062,128.6304931640625,-101.01033020019531
1773149338585505000,1.041505126953125,-26.192535400390625,129.135009765625,-100.56459045410156
1773149338595595800,1.051595703125,-26.211471557617188,129.94320678710938,-100.06547546386719
1773149338605686800,1.061686767578125,-25.327102661132812,130.47694396972656,-99.16342163085938
1773149338615777000,1.071777099609375,-25.148040771484375,131.2659912109375,-98.64938354492188
1773149338625867000,1.081866943359375,-24.952178955078125,132.12008666992188,-97.590576171875
1773149338635955000,1.091954833984375,-24.604629516601562,132.57701110839844,-97.28010559082031
1773149338646044000,1.1020439453125,-24.435821533203125,133.17111206054688,-96.74810791015625
1773149338656132900,1.1121328125,-23.944549560546875,133.8656768798828,-96.34150695800781
1773149338666222800,1.122222900390625,-23.630401611328125,133.8013153076172,-96.02967834472656
1773149338676312000,1.13231201171875,-23.28021240234375,134.5811767578125,-95.95603942871094
1773149338686400800,1.14240087890625,-22.665252685546875,134.95919799804688,-95.95780944824219
1773149338696491000,1.152490966796875,-22.393768310546875,135.65895080566406,-96.03727722167969
1773149338706581000,1.1625810546875,-22.013442993164062,135.86770629882812,-95.95278930664062
1773149338716671000,1.1726708984375,-21.845748901367188,136.28067016601562,-95.95477294921875
1773149338726761700,1.18276171875,-21.598175048828125,136.4599609375,-96.16648864746094
1773149338736853800,1.192853759765625,-21.2010498046875,136.76553344726562,-96.39949035644531
1773149338746945000,1.202945068359375,-21.235015869140625,136.85675048828125,-96.70811462402344
1773149338757033700,1.21303369140625,-20.741180419921875,136.8849334716797,-96.85392761230469
1773149338767124000,1.2231240234375,-20.513916015625,136.82484436035156,-96.9661865234375
1773149338777213700,1.233213623046875,-20.801956176757812,137.005126953125,-97.52987670898438
1773149338787305000,1.243304931640625,-20.647232055664062,136.79823303222656,-97.87435913085938
1773149338797395000,1.25339501953125,-20.988815307617188,136.65676879882812,-98.21382141113281
1773149338807485700,1.263485595703125,-20.929656982421875,136.69244384765625,-98.53492736816406
1773149338817577000,1.273576904296875,-20.614151000976562,136.60047912597656,-98.70939636230469
1773149338827668000,1.28366796875,-20.67822265625,136.56178283691406,-99.32487487792969
1773149338837759000,1.293759033203125,-20.898834228515625,136.56211853027344,-99.80258178710938
1773149338847848000,1.303847900390625,-20.512313842773438,136.30081176757812,-100.28189086914062
1773149338857939000,1.31393896484375,-21.019210815429688,136.25807189941406,-100.63490295410156
1773149338868029000,1.32402880859375,-20.354721069335938,136.10696411132812,-101.10993957519531
1773149338878118000,1.334117919921875,-20.478683471679688,135.81886291503906,-101.3262939453125
1773149338888210000,1.3442099609375,-20.813613891601562,135.97457885742188,-101.45712280273438
1773149338898299000,1.354298828125,-20.596694946289062,135.69931030273438,-101.24971008300781
1773149338908390000,1.364389892578125,-20.764572143554688,136.09231567382812,-100.9078369140625
1773149338918478000,1.37447802734375,-20.359786987304688,136.0868682861328,-100.09727478027344
1773149338928566000,1.38456591796875,-20.943695068359375,136.150634765625,-99.92819213867188
1773149338938655000,1.394655029296875,-21.005661010742188,135.97364807128906,-99.68812561035156
1773149338948744000,1.404743896484375,-20.770355224609375,136.09779357910156,-99.61038208007812
1773149338958831900,1.414831787109375,-21.086517333984375,136.0174560546875,-99.32130432128906
1773149338968924000,1.424923828125,-21.345352172851562,135.7908172607422,-99.44476318359375
1773149338979014000,1.435013916015625,-21.286834716796875,135.6748046875,-99.718017578125
1773149338989103900,1.445103759765625,-21.710617065429688,135.4055633544922,-99.48052978515625
1773149338999195000,1.45519482421875,-21.869735717773438,135.21121215820312,-99.74137878417969
1773149339009286000,1.465285888671875,-21.523452758789062,135.18553161621094,-99.38961791992188
1773149339019377000,1.475376953125,-22.106643676757812,135.0256805419922,-99.11669921875
1773149339029468000,1.485468017578125,-22.852767944335938,134.43881225585938,-98.14530944824219
1773149339039559000,1.495558837890625,-23.297286987304688,133.9713592529297,-96.75588989257812
1773149339049651000,1.50565087890625,-23.50616455078125,133.5596160888672,-95.16313171386719
1773149339059743000,1.515742919921875,-24.036026000976562,133.29010009765625,-93.53462219238281
1773149339069834000,1.525833984375,-24.380508422851562,133.00588989257812,-91.987060546875
1773149339079924000,1.535924072265625,-24.3973388671875,132.85232543945312,-90.53797912597656
1773149339090016000,1.54601611328125,-24.63482666015625,132.8101806640625,-89.28684997558594
1773149339100106000,1.55610595703125,-24.482711791992188,132.631591796875,-88.36763000488281
1773149339110197800,1.56619775390625,-24.671722412109375,132.32130432128906,-87.95428466796875
1773149339120288000,1.5762880859375,-24.932403564453125,131.8686981201172,-87.87361145019531
1773149339130378000,1.5863779296875,-25.468276977539062,131.57156372070312,-88.27133178710938
1773149339140468000,1.596468017578125,-25.753707885742188,131.43875122070312,-88.66525268554688
1773149339150558000,1.606557861328125,-25.999740600585938,131.13133239746094,-88.97050476074219
1773149339160648000,1.61664794921875,-26.550201416015625,130.69618225097656,-89.21243286132812
1773149339170738000,1.626738037109375,-26.635589599609375,130.28143310546875,-89.58219909667969
1773149339180828000,1.636827880859375,-26.458892822265625,130.29429626464844,-89.95272827148438
1773149339190918000,1.64691796875,-26.618133544921875,130.1504364013672,-89.8997802734375
1773149339201005800,1.657005859375,-26.704315185546875,130.0149383544922,-89.80702209472656
1773149339211095800,1.667095703125,-27.156707763671875,129.61044311523438,-89.88713073730469
1773149339221186000,1.67718603515625,-27.321868896484375,129.53173828125,-90.12545776367188
1773149339231275800,1.68727587890625,-27.325973510742188,129.30250549316406,-90.32875061035156
1773149339241365000,1.697364990234375,-27.419189453125,128.91429138183594,-90.21080017089844
1773149339251454700,1.707454833984375,-27.443679809570312,128.9230194091797,-90.30366516113281
1773149339261545000,1.717544921875,-27.54876708984375,128.62611389160156,-90.03753662109375
1773149339271636000,1.727635986328125,-27.6160888671875,128.5470733642578,-90.06153869628906
1773149339281726700,1.737726806640625,-27.544265747070312,128.5384979248047,-90.09727478027344
1773149339291816000,1.74781591796875,-27.694122314453125,128.17918395996094,-90.34440612792969
1773149339301907000,1.757906982421875,-27.845535278320312,128.07882690429688,-90.65916442871094
1773149339311998000,1.767998046875,-27.92279052734375,128.0170135498047,-90.95463562011719
1773149339322089000,1.7780888671875,-28.28143310546875,128.03392028808594,-91.22218322753906
1773149339332179000,1.788178955078125,-28.222183227539062,127.91642761230469,-91.82803344726562
1773149339342270000,1.79827001953125,-27.955535888671875,127.92446899414062,-92.19070434570312
1773149339352365800,1.80836572265625,-28.163787841796875,127.76760864257812,-92.93858337402344
1773149339362456800,1.818456787109375,-27.966079711914062,127.80796813964844,-93.68913269042969
1773149339372547600,1.828547607421875,-27.988250732421875,128.13406372070312,-94.55950927734375
1773149339382638600,1.838638671875,-27.800430297851562,128.31564331054688,-95.35520935058594
1773149339392728800,1.848728759765625,-27.630599975585938,128.4431915283203,-95.89967346191406
1773149339402818600,1.858818603515625,-27.629913330078125,128.35423278808594,-96.6986083984375
1773149339412908800,1.86890869140625,-27.950210571289062,128.2677764892578,-97.60928344726562
1773149339422997800,1.878997802734375,-27.570556640625,128.063720703125,-98.23568725585938
1773149339433086700,1.889086669921875,-27.369949340820312,128.03216552734375,-98.92820739746094
1773149339443177700,1.899177734375,-27.280731201171875,127.61430358886719,-99.71234130859375
1773149339453269800,1.909269775390625,-27.219558715820312,127.40322875976562,-100.74063110351562
1773149339463357700,1.919357666015625,-27.26904296875,127.40425109863281,-101.90318298339844
1773149339473446700,1.92944677734375,-26.968948364257812,126.94798278808594,-102.99473571777344
1773149339483536600,1.93953662109375,-26.366134643554688,126.6915283203125,-104.05743408203125
1773149339493626600,1.949626708984375,-25.820892333984375,126.94123840332031,-104.998779296875
1773149339503715800,1.9597158203125,-25.3125,127.05831909179688,-105.86714172363281
1773149339513804800,1.9698046875,-24.736328125,127.157958984375,-106.60978698730469
1773149339523892700,1.979892822265625,-24.526199340820312,127.33299255371094,-107.26542663574219
1773149339533980700,1.989980712890625,-24.065536499023438,127.52175903320312,-107.59196472167969
1773149339544070000,2.00006982421875,-24.06951904296875,127.64637756347656,-107.99494934082031
1773149339554159600,2.01015966796875,-24.086135864257812,127.43197631835938,-108.06002807617188
1773149339564249900,2.020249755859375,-24.535491943359375,127.09841918945312,-107.984375
1773149339574338600,2.030338623046875,-24.807174682617188,126.64027404785156,-107.88893127441406
1773149339584427500,2.040427490234375,-24.518142700195312,126.49504089355469,-107.494140625
1773149339594516700,2.050516845703125,-24.892257690429688,125.87374877929688,-107.56443786621094
1773149339604606700,2.060606689453125,-25.269866943359375,126.16520690917969,-107.50135803222656
1773149339614697700,2.07069775390625,-25.030746459960938,125.84661865234375,-107.53753662109375
1773149339624788700,2.080788818359375,-25.119430541992188,126.28437805175781,-107.87686157226562
1773149339634879500,2.09087939453125,-24.823501586914062,126.54159545898438,-107.60691833496094
1773149339644970800,2.100970703125,-25.154632568359375,126.41598510742188,-107.35604858398438
1773149339655061800,2.111061767578125,-25.461746215820312,126.70256042480469,-107.01701354980469
1773149339665150700,2.121150634765625,-25.72479248046875,126.59361267089844,-106.24772644042969
1773149339675241700,2.13124169921875,-25.594818115234375,126.66673278808594,-105.74507141113281
1773149339685331500,2.14133154296875,-25.724960327148438,126.40672302246094,-105.33767700195312
1773149339695421700,2.151421630859375,-26.065231323242188,126.41281127929688,-105.03533935546875
1773149339705512000,2.161511962890625,-25.706222534179688,126.10357666015625,-104.84295654296875
1773149339715600600,2.1716005859375,-25.860198974609375,125.99510192871094,-105.00697326660156
1773149339725690600,2.181690673828125,-26.177261352539062,125.94346618652344,-104.76329040527344
1773149339735779800,2.19177978515625,-26.216384887695312,125.9129638671875,-104.69114685058594
1773149339745868800,2.201868896484375,-26.023727416992188,125.97682189941406,-104.42855834960938
1773149339755959800,2.211959716796875,-26.50885009765625,126.15950012207031,-104.12844848632812
1773149339766049500,2.222049560546875,-26.432479858398438,126.01371765136719,-103.73011779785156
1773149339776140800,2.232140869140625,-26.515731811523438,126.18190002441406,-103.4617919921875
1773149339786230800,2.242230712890625,-26.364501953125,126.34124755859375,-103.17843627929688
1773149339796320800,2.25232080078125,-26.292709350585938,126.49015808105469,-102.89250183105469
1773149339806411800,2.262411865234375,-26.529098510742188,126.79171752929688,-102.69215393066406
1773149339816501500,2.27250146484375,-26.01654052734375,127.23637390136719,-102.81135559082031
1773149339826591700,2.282591796875,-25.46942138671875,127.46881103515625,-102.44993591308594
1773149339836681700,2.292681640625,-25.696884155273438,127.42372131347656,-103.08151245117188
1773149339846770700,2.302770751953125,-25.359115600585938,127.86076354980469,-103.3673095703125
1773149339856860700,2.312860595703125,-25.2640380859375,127.60220336914062,-103.92872619628906
1773149339866951700,2.32295166015625,-24.919036865234375,127.85227966308594,-104.42570495605469
1773149339877041700,2.333041748046875,-24.66888427734375,127.54930114746094,-104.81828308105469
1773149339887131600,2.343131591796875,-24.602783203125,127.37873840332031,-105.33375549316406
1773149339897220600,2.353220703125,-24.481475830078125,127.1732177734375,-105.86831665039062
1773149339907311600,2.3633115234375,-24.498641967773438,126.78240966796875,-106.11198425292969
1773149339917402600,2.373402587890625,-24.359786987304688,126.66117858886719,-106.12281799316406
1773149339927494700,2.38349462890625,-24.627044677734375,126.49766540527344,-106.19976806640625
1773149339937586700,2.393586669921875,-24.01226806640625,126.66371154785156,-106.11338806152344
1773149339947676700,2.4036767578125,-24.143402099609375,127.05625915527344,-106.04585266113281
1773149339957768700,2.413768798828125,-23.8951416015625,127.40809631347656,-105.60215759277344
1773149339967860700,2.42386083984375,-23.971481323242188,127.68983459472656,-105.0399169921875
1773149339977952800,2.433952880859375,-24.389236450195312,127.8211669921875,-104.40660095214844
1773149339988043800,2.444043701171875,-24.280807495117188,127.85685729980469,-103.90025329589844
1773149339998133800,2.4541337890625,-24.266952514648438,128.2844696044922,-103.71537780761719
1773149340008224800,2.464224853515625,-24.334320068359375,128.39306640625,-103.71485900878906
1773149340018313700,2.474313720703125,-23.853347778320312,128.32240295410156,-103.62559509277344
1773149340028403700,2.48440380859375,-24.163131713867188,128.2717742919922,-104.04637145996094
1773149340038494500,2.494494384765625,-24.130340576171875,127.86802673339844,-104.21574401855469
1773149340048585700,2.504585693359375,-24.054855346679688,127.32623291015625,-104.733642578125
1773149340058675700,2.51467578125,-24.229034423828125,127.06327819824219,-105.39297485351562
1773149340068764700,2.5247646484375,-23.564178466796875,126.49725341796875,-106.25518798828125
1773149340078855000,2.53485498046875,-23.587356567382812,125.8602294921875,-107.34967041015625
1773149340088943600,2.544943603515625,-22.890869140625,125.62318420410156,-108.67837524414062
1773149340099032600,2.555032470703125,-22.219345092773438,124.87347412109375,-109.71734619140625
1773149340109122800,2.565122802734375,-21.80401611328125,124.31118774414062,-110.8099365234375
1773149340119213600,2.575213623046875,-21.097518920898438,123.99739074707031,-111.84188842773438
1773149340129304600,2.5853046875,-20.627548217773438,123.37838745117188,-113.05789184570312
1773149340139395800,2.595395751953125,-19.342315673828125,123.04814147949219,-114.04501342773438
1773149340149486800,2.60548681640625,-18.808929443359375,122.60140991210938,-114.91426086425781
1773149340159577600,2.61557763671875,-17.840499877929688,122.38505554199219,-115.5194091796875
1773149340169666800,2.625666748046875,-17.446197509765625,121.88336181640625,-116.14154052734375
1773149340179756500,2.635756591796875,-17.166412353515625,121.65437316894531,-116.49717712402344
1773149340189845800,2.645845703125,-17.247344970703125,121.66502380371094,-116.89971923828125
1773149340199935700,2.655935791015625,-16.905563354492188,121.26702880859375,-116.9979248046875
1773149340210025700,2.666025634765625,-16.413803100585938,121.40431213378906,-117.07928466796875
1773149340220115700,2.67611572265625,-16.164749145507812,121.48040771484375,-117.34278869628906
1773149340230205700,2.686205810546875,-16.467666625976562,121.29769897460938,-117.35134887695312
1773149340240295700,2.696295654296875,-16.0731201171875,120.94906616210938,-117.51564025878906
1773149340250385700,2.7063857421875,-16.240936279296875,121.12533569335938,-117.62289428710938
1773149340260476700,2.7164765625,-16.272018432617188,120.38897705078125,-117.592529296875
1773149340270567700,2.726567626953125,-16.555755615234375,119.91873168945312,-117.86756896972656
1773149340280657700,2.73665771484375,-16.588882446289062,119.782958984375,-118.27537536621094
1773149340290748700,2.746748779296875,-16.588912963867188,118.90565490722656,-118.13150024414062
1773149340300840700,2.7568408203125,-16.517059326171875,118.47915649414062,-118.33467102050781
1773149340310931700,2.766931640625,-16.688796997070312,118.29721069335938,-118.47760009765625
1773149340321022700,2.777022705078125,-16.80560302734375,117.72718811035156,-118.24040222167969
1773149340331114800,2.78711474609375,-16.88787841796875,117.77232360839844,-118.29484558105469
1773149340341206800,2.797206787109375,-16.9718017578125,117.61256408691406,-118.45582580566406
1773149340351293400,2.80729345703125,-16.771377563476562,117.36521911621094,-118.15988159179688
1773149340361385500,2.817385498046875,-17.423065185546875,117.33367919921875,-118.34446716308594
1773149340371473700,2.8274736328125,-17.656005859375,117.02165222167969,-118.15379333496094
1773149340381570600,2.837570556640625,-17.696243286132812,116.79121398925781,-118.16549682617188
1773149340391662600,2.84766259765625,-17.659210205078125,116.81303405761719,-117.87887573242188
1773149340401753600,2.857753662109375,-17.540863037109375,116.51316833496094,-117.68202209472656
1773149340411843600,2.867843505859375,-18.114944458007812,116.30842590332031,-117.59001159667969
1773149340421934600,2.8779345703125,-18.27642822265625,116.51766967773438,-117.65463256835938
1773149340432026600,2.888026611328125,-18.377792358398438,116.43714904785156,-117.5577392578125
1773149340442117600,2.89811767578125,-18.40350341796875,116.58369445800781,-117.59526062011719
1773149340452207600,2.90820751953125,-18.0137939453125,116.45669555664062,-117.43437194824219
1773149340462298600,2.918298583984375,-18.286575317382812,116.97744750976562,-117.53755187988281
1773149340472389600,2.9283896484375,-17.947357177734375,117.00813293457031,-117.53240966796875
1773149340482480600,2.938480712890625,-18.121688842773438,117.22563171386719,-117.41093444824219
1773149340492571600,2.948571533203125,-18.229537963867188,117.18507385253906,-117.34146118164062
1773149340502661600,2.95866162109375,-18.099258422851562,117.44210815429688,-117.123291015625
1773149340512750600,2.96875048828125,-18.33294677734375,117.68507385253906,-117.11689758300781
1773149340522840800,2.9788408203125,-18.590423583984375,117.59207153320312,-116.83946228027344
1773149340532930600,2.9889306640625,-18.4796142578125,117.88449096679688,-116.769775390625
1773149340543021600,2.999021484375,-18.55328369140625,118.11483764648438,-116.43228149414062
1773149340553112800,3.00911279296875,-18.936111450195312,118.40682983398438,-116.348876953125
1773149340563202600,3.01920263671875,-19.390045166015625,118.64897155761719,-115.95742797851562
1773149340573293600,3.02929345703125,-19.613616943359375,118.61839294433594,-115.745361328125
1773149340583385600,3.039385498046875,-19.5643310546875,118.35098266601562,-115.61782836914062
1773149340593477600,3.0494775390625,-19.11273193359375,118.6763916015625,-115.4984130859375
1773149340603569700,3.059569580078125,-19.102798461914062,118.51760864257812,-116.25753784179688
1773149340613660700,3.06966064453125,-18.501190185546875,118.35719299316406,-116.43611145019531
1773149340623752700,3.079752685546875,-18.4447021484375,118.08135986328125,-116.71272277832031
1773149340633844700,3.0898447265625,-18.728836059570312,117.70376586914062,-116.57600402832031
1773149340643935700,3.099935791015625,-18.826995849609375,117.30580139160156,-116.36643981933594
1773149340654027800,3.11002783203125,-18.96124267578125,117.29405212402344,-116.38311767578125
1773149340664118800,3.120118896484375,-19.35211181640625,116.92666625976562,-116.33601379394531
1773149340674210600,3.13021044921875,-19.287200927734375,116.7421875,-116.36332702636719
1773149340684302600,3.140302490234375,-19.22198486328125,116.22959899902344,-116.4541015625
1773149340694393600,3.1503935546875,-19.363693237304688,116.18693542480469,-116.30638122558594
1773149340704484600,3.160484619140625,-19.777847290039062,116.09120178222656,-116.35711669921875
1773149340714576600,3.17057666015625,-19.899703979492188,116.09123229980469,-116.14631652832031
1773149340724667600,3.180667724609375,-20.548995971679688,115.94894409179688,-115.67997741699219
1773149340734758700,3.190758544921875,-20.654373168945312,116.11004638671875,-115.14207458496094
1773149340744848600,3.2008486328125,-21.022323608398438,116.359619140625,-114.81007385253906
1773149340754938600,3.210938720703125,-21.616500854492188,116.62001037597656,-114.49711608886719
1773149340765030700,3.22103076171875,-21.625762939453125,116.99778747558594,-114.10008239746094
1773149340775122700,3.231122802734375,-22.23162841796875,117.00105285644531,-113.68714904785156
1773149340785213700,3.241213623046875,-22.279190063476562,117.08451843261719,-113.20930480957031
1773149340795305700,3.2513056640625,-22.98687744140625,116.97268676757812,-113.06741333007812
1773149340805396500,3.261396484375,-23.138397216796875,117.01132202148438,-112.67436218261719
1773149340815486700,3.27148681640625,-23.590591430664062,116.839599609375,-112.21977233886719
1773149340825577700,3.28157763671875,-23.8009033203125,116.83366394042969,-111.70112609863281
1773149340835667700,3.291667724609375,-24.02825927734375,116.56343078613281,-111.29252624511719
1773149340845759700,3.301759765625,-24.565933227539062,116.434814453125,-110.88162231445312
1773149340855850800,3.311850830078125,-25.173080444335938,116.36924743652344,-110.63795471191406
1773149340865941800,3.321941650390625,-25.264083862304688,116.32110595703125,-110.702880859375
1773149340876033500,3.332033447265625,-25.351165771484375,115.72795104980469,-110.54518127441406
1773149340886125600,3.34212548828125,-24.972976684570312,115.54598999023438,-110.41810607910156
1773149340896216600,3.352216552734375,-25.36077880859375,115.47358703613281,-110.38652038574219
1773149340906306800,3.362306884765625,-25.438613891601562,114.92118835449219,-110.38682556152344
1773149340916397600,3.3723974609375,-25.505508422851562,115.11689758300781,-110.52203369140625
1773149340926488600,3.382488525390625,-25.030120849609375,115.29444885253906,-110.27763366699219
1773149340936579600,3.39257958984375,-25.473159790039062,114.99824523925781,-110.39767456054688
1773149340946671600,3.402671630859375,-25.42108154296875,115.15652465820312,-110.46546936035156
1773149340956761600,3.41276171875,-25.482437133789062,115.0574951171875,-110.52574157714844
1773149340966853600,3.422853515625,-25.424163818359375,115.10643005371094,-110.65243530273438
1773149340976945700,3.432945556640625,-25.268310546875,115.11854553222656,-110.41404724121094
1773149340987036700,3.44303662109375,-24.837066650390625,115.230224609375,-110.75529479980469
1773149340997128700,3.453128662109375,-25.169464111328125,115.42100524902344,-110.83767700195312
1773149341007219500,3.463219482421875,-24.741195678710938,115.6846923828125,-110.93794250488281
1773149341017311500,3.4733115234375,-24.632186889648438,115.81416320800781,-111.16693115234375
1773149341027403500,3.483403564453125,-24.085922241210938,116.12312316894531,-110.99107360839844
1773149341037494800,3.493494873046875,-24.713623046875,116.34619140625,-111.32115173339844
1773149341047585800,3.503585693359375,-24.607025146484375,116.34817504882812,-111.45231628417969
1773149341057676500,3.513676513671875,-24.27178955078125,116.91777038574219,-111.67915344238281
1773149341067767600,3.523767578125,-24.154190063476562,117.02023315429688,-111.64747619628906
1773149341077856500,3.5338564453125,-23.826751708984375,117.51759338378906,-111.82952880859375
1773149341087948500,3.543948486328125,-23.5655517578125,117.57675170898438,-111.98033142089844
1773149341098038800,3.554038818359375,-22.893173217773438,117.59187316894531,-112.25285339355469
1773149341108129800,3.5641298828125,-23.071044921875,117.57240295410156,-112.23715209960938
1773149341118220500,3.574220458984375,-22.77764892578125,117.61729431152344,-112.52360534667969
1773149341128313600,3.584313720703125,-22.133651733398438,117.72636413574219,-112.81900024414062
1773149341138405600,3.594405517578125,-22.51983642578125,117.73396301269531,-113.03392028808594
1773149341148498400,3.60449853515625,-22.040191650390625,117.69429016113281,-113.14326477050781
1773149341158589700,3.614589599609375,-22.140899658203125,117.77655029296875,-113.19686889648438
1773149341168681700,3.624681640625,-21.54638671875,117.64886474609375,-113.03877258300781
1773149341178774500,3.6347744140625,-22.253799438476562,117.75729370117188,-113.02162170410156
1773149341188865500,3.644865478515625,-22.332901000976562,117.98558044433594,-112.980712890625
1773149341198958600,3.65495849609375,-22.269622802734375,118.10054016113281,-112.53973388671875
1773149341209049600,3.665049560546875,-22.418746948242188,118.52560424804688,-112.26078796386719
1773149341219140900,3.675140869140625,-22.238052368164062,118.75,-111.74430847167969
1773149341229231600,3.685231689453125,-22.7171630859375,119.32270812988281,-111.59169006347656
1773149341239321600,3.695321533203125,-22.598648071289062,119.553466796875,-111.27548217773438
1773149341249411600,3.70541162109375,-23.106796264648438,119.63717651367188,-111.17509460449219
1773149341259504600,3.715504638671875,-23.426513671875,119.431640625,-110.87420654296875
1773149341269596700,3.7255966796875,-23.011016845703125,119.60696411132812,-110.96087646484375
1773149341279689500,3.735689453125,-23.195846557617188,119.38507080078125,-111.19053649902344
1773149341289780700,3.74578076171875,-22.924209594726562,119.01902770996094,-111.58204650878906
1773149341299871700,3.755871826171875,-22.643646240234375,118.83998107910156,-112.06532287597656
1773149341309961500,3.76596142578125,-22.0074462890625,118.50640869140625,-112.50907897949219
1773149341320053500,3.776053466796875,-21.570053100585938,118.21707153320312,-113.31210327148438
1773149341330144800,3.786144775390625,-21.189895629882812,118.13575744628906,-113.89077758789062
1773149341340235800,3.79623583984375,-20.9432373046875,117.78466796875,-114.36915588378906
1773149341350325800,3.80632568359375,-19.854141235351562,117.58702087402344,-114.61219787597656
1773149341360416800,3.816416748046875,-19.610214233398438,117.74827575683594,-114.54289245605469
1773149341370508000,3.826508056640625,-19.63970947265625,117.67558288574219,-115.12239074707031
1773149341380597800,3.83659765625,-19.60986328125,117.46844482421875,-114.96548461914062
1773149341390688000,3.84668798828125,-19.901824951171875,117.71463012695312,-114.961181640625
1773149341400779000,3.856779052734375,-19.756927490234375,118.06962585449219,-114.87744140625
1773149341410869000,3.866868896484375,-19.231109619140625,118.47998046875,-114.64414978027344
1773149341420960000,3.8769599609375,-19.854782104492188,119.07127380371094,-114.65315246582031
1773149341431049700,3.8870498046875,-19.655807495117188,119.32200622558594,-114.64024353027344
1773149341441139000,3.897138916015625,-19.623489379882812,119.52003479003906,-114.3128662109375
1773149341451229000,3.90722900390625,-19.95172119140625,119.59152221679688,-114.10183715820312
1773149341461320000,3.91731982421875,-19.818191528320312,119.73171997070312,-113.93234252929688
1773149341471411000,3.927410888671875,-20.046585083007812,120.05339050292969,-114.08004760742188
1773149341481501000,3.9375009765625,-19.873458862304688,119.87179565429688,-114.21400451660156
1773149341491591000,3.9475908203125,-19.850784301757812,120.03359985351562,-114.30262756347656
1773149341501681000,3.957680908203125,-19.551956176757812,119.90422058105469,-114.36680603027344
1773149341511771000,3.96777099609375,-19.493392944335938,119.58639526367188,-114.51507568359375
1773149341521860900,3.97786083984375,-19.70709228515625,119.54318237304688,-114.45339965820312
1773149341531950800,3.987950927734375,-19.557586669921875,119.81211853027344,-114.83598327636719
1773149341542040800,3.998040771484375,-19.032958984375,119.54170227050781,-114.75965881347656
1773149341552130800,4.008130859375,-18.690826416015625,119.45458984375,-114.74696350097656
1773149341562220800,4.018220703125,-18.809219360351562,119.40794372558594,-115.16325378417969
1773149341572311800,4.028311767578125,-18.671966552734375,119.38090515136719,-115.27676391601562
1773149341582403000,4.038403076171875,-18.606246948242188,119.510498046875,-115.38226318359375
1773149341592492800,4.048492919921875,-18.686309814453125,119.76142883300781,-115.31352233886719
1773149341602583800,4.058583740234375,-18.26580810546875,119.91795349121094,-115.19975280761719
1773149341612674000,4.068674072265625,-18.07470703125,120.14442443847656,-114.98861694335938
1773149341622763800,4.078763671875,-18.431228637695312,120.48263549804688,-115.05775451660156
1773149341632854000,4.08885400390625,-18.166046142578125,120.17219543457031,-115.23617553710938
1773149341642944800,4.09894482421875,-18.173309326171875,120.53413391113281,-115.14651489257812
1773149341653035000,4.109034912109375,-18.093292236328125,120.57635498046875,-115.09843444824219
1773149341663126000,4.1191259765625,-18.135513305664062,120.47480773925781,-115.14936828613281
1773149341673218000,4.129218017578125,-17.969757080078125,120.515869140625,-115.3822021484375
1773149341683311000,4.13931103515625,-17.418701171875,120.64202880859375,-115.40397644042969
1773149341693401900,4.14940185546875,-17.69158935546875,120.60993957519531,-115.51486206054688
1773149341703492900,4.159492919921875,-17.4993896484375,120.76173400878906,-115.56968688964844
1773149341713585000,4.1695849609375,-17.266220092773438,120.39491271972656,-115.893798828125
1773149341723676000,4.179676025390625,-17.396240234375,120.43809509277344,-115.86445617675781
1773149341733767000,4.189766845703125,-17.31488037109375,120.32569885253906,-116.03523254394531
1773149341743861000,4.199861083984375,-17.02239990234375,120.58233642578125,-115.95896911621094
1773149341753954800,4.209954833984375,-17.402877807617188,120.34309387207031,-116.08258056640625
1773149341764046800,4.220046875,-17.089569091796875,120.71136474609375,-116.06492614746094
1773149341774139000,4.230138916015625,-17.276382446289062,120.58634948730469,-116.20060729980469
1773149341784232000,4.24023193359375,-17.2421875,120.88397216796875,-116.21090698242188
1773149341794324000,4.250323974609375,-17.102127075195312,120.61497497558594,-116.02058410644531
1773149341804416800,4.260416748046875,-17.275115966796875,120.59756469726562,-116.11300659179688
1773149341814509800,4.270509765625,-17.76605224609375,120.86380004882812,-116.19448852539062
1773149341824603000,4.280602783203125,-17.822006225585938,120.87590026855469,-116.07688903808594
1773149341834697000,4.290697021484375,-17.713775634765625,120.71870422363281,-115.9310302734375
1773149341844788700,4.300788818359375,-17.777999877929688,120.78187561035156,-115.73310852050781
1773149341854882000,4.310882080078125,-17.953277587890625,121.04962158203125,-115.68260192871094
1773149341864974800,4.320974853515625,-17.898941040039062,120.85972595214844,-115.55438232421875
1773149341875067000,4.33106689453125,-18.0587158203125,121.14138793945312,-115.41557312011719
1773149341885159000,4.341158935546875,-17.973052978515625,121.35780334472656,-115.50039672851562
1773149341895250000,4.35125,-18.12396240234375,121.29209899902344,-115.43960571289062
1773149341905342700,4.3613427734375,-17.97869873046875,121.43643188476562,-115.44578552246094
1773149341915434800,4.371434814453125,-18.394119262695312,121.4984130859375,-115.35313415527344
1773149341925527800,4.38152783203125,-18.547164916992188,121.45326232910156,-115.20161437988281
1773149341935618800,4.391618896484375,-17.840377807617188,121.52200317382812,-115.08363342285156
1773149341945710800,4.4017109375,-18.158432006835938,121.52088928222656,-115.08012390136719
1773149341955803000,4.411802978515625,-18.126846313476562,121.75181579589844,-114.99136352539062
1773149341965896000,4.42189599609375,-18.256256103515625,121.6356201171875,-114.98794555664062
1773149341975989000,4.431989013671875,-18.166778564453125,121.85813903808594,-115.09869384765625
1773149341986081800,4.442081787109375,-18.04180908203125,121.86836242675781,-114.92274475097656
1773149341996174800,4.4521748046875,-18.358856201171875,121.93252563476562,-115.02735900878906
1773149342006268000,4.462267822265625,-18.244461059570312,122.02145385742188,-115.01704406738281
1773149342016359000,4.47235888671875,-18.091384887695312,121.69102478027344,-115.03038024902344
1773149342026450000,4.482449951171875,-17.980499267578125,122.09066772460938,-115.11451721191406
1773149342036540000,4.492539794921875,-17.6798095703125,122.25503540039062,-115.04780578613281
1773149342046630000,4.5026298828125,-18.042984008789062,122.36502075195312,-115.266845703125
1773149342056720100,4.51272021484375,-18.028900146484375,122.26799011230469,-115.17425537109375
1773149342066809900,4.522809814453125,-17.82720947265625,122.43385314941406,-115.1239013671875
1773149342076898800,4.53289892578125,-18.05377197265625,122.39643859863281,-115.14501953125
1773149342086989800,4.54298974609375,-18.217422485351562,122.50663757324219,-115.25567626953125
1773149342097078800,4.553078857421875,-18.027175903320312,122.20751953125,-115.29400634765625
1773149342107169800,4.563169677734375,-18.140945434570312,122.25521850585938,-115.32046508789062
1773149342117261000,4.573260986328125,-16.906463623046875,122.25770568847656,-115.26087951660156
1773149342127352000,4.58335205078125,-17.715621948242188,122.39920043945312,-114.98562622070312
1773149342137442800,4.59344287109375,-17.506744384765625,122.14753723144531,-115.18199157714844
1773149342147534800,4.603534912109375,-18.02154541015625,122.23435974121094,-115.26872253417969
1773149342157629000,4.61362890625,-18.244720458984375,122.3006591796875,-115.27232360839844
1773149342167720700,4.623720703125,-17.915557861328125,122.27012634277344,-115.0775146484375
1773149342177812700,4.633812744140625,-17.816574096679688,122.328857421875,-114.91514587402344
1773149342187904800,4.64390478515625,-18.034988403320312,122.62881469726562,-115.11190795898438
1773149342197996800,4.653996826171875,-18.14080810546875,122.61199951171875,-115.01429748535156
1773149342208088800,4.6640888671875,-18.5731201171875,122.59147644042969,-114.73582458496094
1773149342218182000,4.674181884765625,-18.221221923828125,122.75688171386719,-114.58909606933594
1773149342228275000,4.68427490234375,-18.313018798828125,122.80442810058594,-114.33322143554688
1773149342238367700,4.69436767578125,-18.8111572265625,123.01513671875,-114.27070617675781
1773149342248459800,4.704459716796875,-18.651397705078125,123.14846801757812,-114.14012145996094
1773149342258551800,4.7145517578125,-19.170791625976562,123.37265014648438,-113.92301940917969
1773149342268643800,4.724643798828125,-19.366622924804688,123.47378540039062,-113.65701293945312
1773149342278737000,4.73473681640625,-19.426315307617188,123.54330444335938,-113.59419250488281
1773149342288829000,4.744828857421875,-19.540878295898438,123.72018432617188,-113.30744934082031
1773149342298921000,4.7549208984375,-19.739212036132812,123.69088745117188,-113.12249755859375
1773149342309013000,4.765012939453125,-19.442977905273438,123.87896728515625,-112.89845275878906
1773149342319105000,4.77510498046875,-19.791366577148438,124.06056213378906,-112.61639404296875
1773149342329197000,4.785197021484375,-20.03643798828125,124.54447937011719,-112.76292419433594
1773149342339289900,4.795289794921875,-20.167770385742188,124.43452453613281,-112.64834594726562
1773149342349382100,4.805382080078125,-20.255279541015625,124.73365783691406,-112.46226501464844
1773149342359474200,4.81547412109375,-20.425827026367188,124.75198364257812,-112.43704223632812
1773149342369566200,4.825566162109375,-20.03936767578125,124.78762817382812,-112.06991577148438
1773149342379657200,4.8356572265625,-20.407577514648438,124.73030090332031,-112.08934020996094
1773149342389749200,4.845749267578125,-20.522811889648438,124.85556030273438,-112.13328552246094
1773149342399840000,4.855840087890625,-20.0067138671875,124.98870849609375,-111.95512390136719
1773149342409932000,4.86593212890625,-20.327789306640625,124.91914367675781,-111.84938049316406
1773149342420023300,4.876023193359375,-20.284561157226562,125.15641784667969,-111.76948547363281
1773149342430114300,4.8861142578125,-20.756195068359375,124.90695190429688,-111.912841796875
1773149342440206300,4.896206298828125,-20.497314453125,125.04562377929688,-111.84112548828125
1773149342450298400,4.90629833984375,-20.452194213867188,125.06431579589844,-111.90126037597656
1773149342460389000,4.91638916015625,-20.344589233398438,125.25856018066406,-111.81338500976562
1773149342470481200,4.926481201171875,-20.268157958984375,125.47065734863281,-111.86363220214844
1773149342480574200,4.93657421875,-20.330001831054688,125.24844360351562,-111.9610595703125
1773149342490666200,4.946666259765625,-20.05810546875,125.28657531738281,-111.88722229003906
1773149342500758300,4.95675830078125,-19.793243408203125,125.42549133300781,-111.96133422851562
1773149342510850300,4.966850341796875,-19.790359497070312,125.34893798828125,-111.72430419921875
1773149342520942300,4.9769423828125,-19.926010131835938,125.15802001953125,-112.06883239746094
1773149342531034000,4.9870341796875,-19.7952880859375,125.19752502441406,-112.00723266601562
1773149342541126100,4.997126220703125,-19.81378173828125,125.13902282714844,-111.98103332519531
1773149342551218200,5.00721826171875,-19.60040283203125,125.19389343261719,-112.2685546875
1773149342561309200,5.01730908203125,-19.543624877929688,125.14161682128906,-112.23760986328125
1773149342571401200,5.027401123046875,-19.911041259765625,125.21408081054688,-112.34184265136719
1773149342581492200,5.0374921875,-19.798995971679688,125.13505554199219,-112.76126098632812
1773149342591584300,5.047584228515625,-19.586212158203125,124.88490295410156,-112.7996826171875
1773149342601676300,5.05767626953125,-18.9814453125,124.8427734375,-112.79248046875
1773149342611768300,5.067768310546875,-18.696746826171875,124.74223327636719,-112.83094787597656
1773149342621859300,5.077859375,-18.683242797851562,124.74351501464844,-113.14630126953125
1773149342631952400,5.087952392578125,-18.842147827148438,124.911376953125,-113.14369201660156
1773149342642043100,5.098043212890625,-18.71295166015625,124.66372680664062,-113.21430969238281
1773149342652135200,5.10813525390625,-18.412155151367188,124.81588745117188,-113.47589111328125
1773149342662227200,5.118227294921875,-18.441497802734375,124.74800109863281,-113.4398193359375
1773149342672319200,5.1283193359375,-18.211135864257812,124.77529907226562,-113.48780822753906
1773149342682411300,5.138411376953125,-18.384002685546875,124.59808349609375,-113.59184265136719
1773149342692503300,5.14850341796875,-18.304824829101562,124.53123474121094,-113.55624389648438
1773149342702595300,5.15859521484375,-17.93695068359375,124.85772705078125,-113.47073364257812
1773149342712688000,5.168688232421875,-18.2286376953125,124.72161865234375,-113.73907470703125
1773149342722781200,5.17878125,-17.895767211914062,124.64045715332031,-113.83749389648438
1773149342732872200,5.1888720703125,-17.760238647460938,124.39645385742188,-113.88763427734375
1773149342742964200,5.198964111328125,-17.806655883789062,124.32830810546875,-114.11012268066406
1773149342753055000,5.209054931640625,-17.417800903320312,124.35697937011719,-114.26641845703125
1773149342763146200,5.219146240234375,-17.641876220703125,124.40321350097656,-114.65187072753906
1773149342773237200,5.2292373046875,-17.449310302734375,124.36268615722656,-114.74363708496094
1773149342783327000,5.239326904296875,-17.47625732421875,124.40130615234375,-114.91175842285156
1773149342793418200,5.249418212890625,-17.722152709960938,124.50091552734375,-114.7808837890625
1773149342803510300,5.25951025390625,-17.346817016601562,124.62103271484375,-114.71797180175781
1773149342813600300,5.269600341796875,-17.436416625976562,124.38713073730469,-114.67764282226562
1773149342823690200,5.279690185546875,-17.791397094726562,124.80799865722656,-114.73916625976562
1773149342833780200,5.2897802734375,-17.650466918945312,124.84065246582031,-114.98834228515625
1773149342843871200,5.299871337890625,-17.781631469726562,124.82473754882812,-115.06198120117188
1773149342853963300,5.30996337890625,-18.061141967773438,124.873291015625,-115.051025390625
1773149342864053200,5.32005322265625,-19.075057983398438,124.87640380859375,-115.40814208984375
1773149342874143200,5.330143310546875,-19.19451904296875,124.9449462890625,-115.37527465820312
1773149342884233200,5.340233154296875,-19.2537841796875,125.31301879882812,-115.30978393554688
1773149342894323200,5.3503232421875,-19.489715576171875,125.58662414550781,-115.36566162109375
1773149342904414200,5.360414306640625,-20.029220581054688,125.34367370605469,-115.40449523925781
1773149342914506200,5.37050634765625,-20.422500610351562,125.5797119140625,-115.38191223144531
1773149342924596200,5.38059619140625,-20.3121337890625,125.54371643066406,-115.36372375488281
1773149342934687200,5.390687255859375,-20.512496948242188,125.58056640625,-115.49429321289062
1773149342944779300,5.400779296875,-20.763336181640625,125.78172302246094,-115.27349853515625
1773149342954871300,5.410871337890625,-21.001876831054688,125.38409423828125,-115.51780700683594
1773149342964963000,5.420963134765625,-20.888885498046875,125.69297790527344,-115.54295349121094
1773149342975054300,5.431054443359375,-20.878799438476562,125.96037292480469,-115.50576782226562
1773149342985144000,5.44114404296875,-20.800262451171875,125.86473083496094,-115.23725891113281
1773149342995236000,5.451236083984375,-20.9586181640625,125.86604309082031,-114.952880859375
1773149343005328100,5.461328125,-20.936233520507812,125.8580322265625,-114.81781005859375
1773149343015421200,5.471421142578125,-20.6666259765625,125.80470275878906,-114.84197998046875
1773149343025512200,5.48151220703125,-20.660202026367188,126.04417419433594,-114.89447021484375
1773149343035603200,5.491603271484375,-20.48272705078125,125.69970703125,-114.85690307617188
1773149343045695200,5.5016953125,-20.119140625,125.66287231445312,-114.87751770019531
1773149343055787000,5.511787109375,-20.0079345703125,125.6322021484375,-115.08587646484375
1773149343065879000,5.521879150390625,-19.750137329101562,125.59341430664062,-115.16226196289062
1773149343075970000,5.531969970703125,-19.614944458007812,125.39605712890625,-115.22483825683594
1773149343086061300,5.542061279296875,-19.315933227539062,125.10997009277344,-115.12281799316406
1773149343096152300,5.55215234375,-19.636444091796875,125.32783508300781,-115.21173095703125
1773149343106243000,5.5622431640625,-19.788787841796875,125.2816162109375,-115.16447448730469
1773149343116335000,5.572335205078125,-19.765304565429688,125.39302062988281,-115.09088134765625
1773149343126427100,5.58242724609375,-19.824264526367188,125.33993530273438,-114.99118041992188
1773149343136520200,5.592520263671875,-19.641769409179688,125.51934814453125,-114.51728820800781
1773149343146614000,5.602614013671875,-20.239364624023438,125.47538757324219,-114.29208374023438
1773149343156708400,5.612708251953125,-20.610183715820312,125.6175537109375,-113.92373657226562
1773149343166802200,5.62280224609375,-20.364883422851562,125.34938049316406,-113.7069091796875
1773149343176894200,5.632894287109375,-20.613327026367188,125.647216796875,-113.79978942871094
1773149343186987300,5.6429873046875,-20.36932373046875,125.37857055664062,-113.56979370117188
1773149343197081000,5.6530810546875,-20.495162963867188,125.49899291992188,-113.80134582519531
1773149343207174400,5.66317431640625,-20.701370239257812,125.49655151367188,-114.07917785644531
1773149343217267200,5.67326708984375,-20.53533935546875,125.68756103515625,-114.2720947265625
1773149343227359200,5.683359130859375,-20.549285888671875,125.7567138671875,-114.238525390625
1773149343237451000,5.693450927734375,-20.265380859375,125.53408813476562,-114.35627746582031
1773149343247544300,5.70354443359375,-20.419281005859375,125.52139282226562,-114.23048400878906
1773149343257636400,5.71363623046875,-20.2060546875,125.57307434082031,-114.13600158691406
1773149343267728100,5.72372802734375,-20.388717651367188,125.265625,-114.34130859375
1773149343277820200,5.733820068359375,-20.084609985351562,125.2423095703125,-114.30517578125
1773149343287913000,5.743912841796875,-20.05126953125,125.32791137695312,-114.51081848144531
1773149343298005000,5.7540048828125,-20.064300537109375,125.34567260742188,-114.40597534179688
1773149343308096300,5.76409619140625,-20.208877563476562,125.22103881835938,-114.43162536621094
1773149343318187300,5.774187255859375,-20.248123168945312,125.15382385253906,-114.46820068359375
1773149343328278300,5.7842783203125,-19.8060302734375,125.38970947265625,-114.27572631835938
1773149343338371300,5.794371337890625,-19.8048095703125,125.3734130859375,-114.63995361328125
1773149343348464000,5.804464111328125,-20.027694702148438,125.13923645019531,-114.69088745117188
1773149343358555100,5.81455517578125,-19.934234619140625,125.03164672851562,-114.53849792480469
1773149343368646100,5.824646240234375,-19.888137817382812,125.10527038574219,-114.51278686523438
1773149343378737000,5.83473681640625,-19.635482788085938,125.17396545410156,-114.56552124023438
1773149343388828200,5.844828125,-19.732681274414062,124.8505859375,-114.81515502929688
1773149343398919200,5.854919189453125,-19.746078491210938,124.96104431152344,-114.76589965820312
1773149343409008000,5.865008056640625,-19.757293701171875,124.95204162597656,-114.79814147949219
1773149343419098000,5.87509814453125,-19.55218505859375,124.67507934570312,-114.98127746582031
1773149343429188900,5.88518896484375,-19.707916259765625,124.50245666503906,-115.12921142578125
1773149343439280000,5.895280029296875,-19.617874145507812,124.58180236816406,-115.041748046875
1773149343449372200,5.9053720703125,-19.55523681640625,124.21829223632812,-115.09799194335938
1773149343459463200,5.915463134765625,-19.583282470703125,124.00285339355469,-115.30332946777344
1773149343469555200,5.92555517578125,-19.031845092773438,124.14619445800781,-115.2379150390625
1773149343479648000,5.93564794921875,-19.207656860351562,123.85285949707031,-115.42802429199219
1773149343489740000,5.945739990234375,-19.241592407226562,123.59274291992188,-115.53816223144531
1773149343499833000,5.9558330078125,-18.996673583984375,123.77482604980469,-115.72021484375
1773149343509925000,5.965925048828125,-19.063308715820312,123.76078796386719,-115.70387268066406
1773149343520015000,5.97601513671875,-18.809829711914062,123.44932556152344,-115.5147705078125
1773149343530107100,5.986107177734375,-19.210617065429688,123.43028259277344,-115.88848876953125
1773149343540199200,5.99619921875,-19.2115478515625,123.20806884765625,-115.9544677734375
1773149343550291000,6.006291015625,-19.30169677734375,123.31834411621094,-115.94538879394531
1773149343560383000,6.016383056640625,-19.294418334960938,122.83322143554688,-116.04849243164062
1773149343570475000,6.02647509765625,-18.910064697265625,122.8861083984375,-116.10968017578125
1773149343580566000,6.03656591796875,-19.108963012695312,123.08358764648438,-116.40545654296875
1773149343590656000,6.046656005859375,-18.955886840820312,122.83502197265625,-116.3145751953125
1773149343600747000,6.0567470703125,-18.9757080078125,122.61946105957031,-116.40678405761719
1773149343610836000,6.0668359375,-19.3604736328125,122.54647827148438,-116.27865600585938
1773149343620927000,6.076927001953125,-19.4144287109375,122.45610046386719,-116.18319702148438
1773149343631016000,6.087015869140625,-19.453292846679688,122.39273071289062,-116.20771789550781
1773149343641107200,6.097107177734375,-19.578521728515625,122.22793579101562,-116.19769287109375
1773149343651197000,6.107197021484375,-19.62786865234375,122.02162170410156,-115.91217041015625
1773149343661288000,6.117287841796875,-19.815353393554688,122.03514099121094,-115.77424621582031
1773149343671379200,6.127379150390625,-20.267196655273438,122.08049011230469,-115.71336364746094
1773149343681471200,6.13747119140625,-20.525955200195312,122.00906372070312,-115.4322509765625
1773149343691563000,6.14756298828125,-20.891586303710938,121.9644775390625,-115.11807250976562
1773149343701654800,6.15765478515625,-21.101287841796875,121.98739624023438,-114.82563781738281
1773149343711746800,6.167746826171875,-21.056869506835938,122.03071594238281,-114.37237548828125
1773149343721838800,6.1778388671875,-21.48248291015625,122.10081481933594,-114.35623168945312
1773149343731931000,6.187930908203125,-21.969894409179688,121.9561767578125,-114.15150451660156
1773149343742023000,6.19802294921875,-21.771591186523438,122.01969909667969,-113.97019958496094
1773149343752115000,6.208114990234375,-22.15087890625,121.89851379394531,-113.73046875
1773149343762206000,6.2182060546875,-22.138900756835938,121.73779296875,-113.29592895507812
1773149343772296000,6.2282958984375,-22.502029418945312,121.63217163085938,-113.22254943847656
1773149343782388000,6.238387939453125,-22.71234130859375,121.55052185058594,-113.19657897949219
1773149343792480000,6.24847998046875,-22.920333862304688,121.57579040527344,-113.02705383300781
1773149343802573000,6.258572998046875,-22.980361938476562,121.29386901855469,-113.011962890625
1773149343812664000,6.2686640625,-23.498367309570312,121.37141418457031,-113.11358642578125
1773149343822756000,6.278756103515625,-23.146224975585938,121.00834655761719,-112.97529602050781
1773149343832849200,6.28884912109375,-23.381637573242188,120.90625,-112.83399963378906
1773149343842940200,6.298940185546875,-23.697677612304688,120.70487976074219,-112.75260925292969
1773149343853032200,6.3090322265625,-24.136978149414062,120.63125610351562,-112.32830810546875
1773149343863123000,6.319123046875,-24.359390258789062,120.4005126953125,-112.14044189453125
1773149343873215000,6.329215087890625,-25.06787109375,120.39617919921875,-111.92366027832031
1773149343883306000,6.339305908203125,-25.193618774414062,120.25962829589844,-111.74581909179688
1773149343893399000,6.34939892578125,-25.492874145507812,120.15647888183594,-111.23406982421875
1773149343903490000,6.359489990234375,-25.1826171875,119.92092895507812,-110.79769897460938
1773149343913582000,6.36958203125,-25.747085571289062,119.72804260253906,-110.83905029296875
1773149343923672800,6.3796728515625,-26.016952514648438,119.81184387207031,-110.56965637207031
1773149343933764900,6.389764892578125,-26.3870849609375,119.78712463378906,-110.29135131835938
1773149343943858000,6.39985791015625,-26.60455322265625,119.30296325683594,-109.74555969238281
1773149343953951200,6.409951171875,-26.544464111328125,119.39839172363281,-109.32345581054688
1773149343964044000,6.4200439453125,-27.168243408203125,119.216796875,-109.14485168457031
1773149343974135000,6.430135009765625,-27.390151977539062,118.89833068847656,-108.72846984863281
1773149343984226800,6.440226806640625,-27.800582885742188,118.81991577148438,-108.68772888183594
1773149343994318000,6.450318115234375,-27.642013549804688,118.55120849609375,-108.28561401367188
1773149344004409000,6.4604091796875,-28.008499145507812,118.298095703125,-108.276123046875
1773149344014499000,6.4704990234375,-27.940231323242188,118.03373718261719,-108.11529541015625
1773149344024592000,6.480591796875,-28.198013305664062,118.12037658691406,-108.13526916503906
1773149344034684000,6.490683837890625,-28.194976806640625,117.77621459960938,-107.98458862304688
1773149344044771800,6.500771728515625,-28.447784423828125,117.70346069335938,-107.67401123046875
1773149344054869000,6.510868896484375,-28.70166015625,117.60621643066406,-107.75827026367188
1773149344064961000,6.5209609375,-28.658096313476562,117.54994201660156,-107.71389770507812
1773149344075053000,6.531052978515625,-28.51031494140625,117.43435668945312,-107.4935302734375
1773149344085147100,6.541147216796875,-28.958084106445312,117.55763244628906,-107.49763488769531
1773149344095240200,6.551240234375,-28.408065795898438,117.51832580566406,-107.1162109375
1773149344105331000,6.5613310546875,-28.867538452148438,117.7197265625,-107.33645629882812
1773149344115423000,6.571423095703125,-28.721405029296875,117.59931945800781,-107.27871704101562
1773149344125516000,6.58151611328125,-28.966903686523438,117.89564514160156,-107.18997192382812
1773149344135608800,6.59160888671875,-28.841888427734375,118.01290893554688,-107.42778015136719
1773149344145700000,6.6017001953125,-28.727554321289062,118.18313598632812,-107.48587036132812
1773149344155792000,6.6117919921875,-28.36505126953125,118.193359375,-107.43649291992188
1773149344165884000,6.6218837890625,-28.5888671875,118.12306213378906,-107.94244384765625
1773149344175977000,6.63197705078125,-28.320404052734375,118.06306457519531,-108.03945922851562
1773149344186069000,6.642069091796875,-28.150436401367188,118.16488647460938,-108.31253051757812
1773149344196159200,6.6521591796875,-28.046646118164062,118.11495971679688,-108.75621032714844
1773149344206251300,6.662251220703125,-27.81005859375,118.23973083496094,-109.18064880371094
1773149344216341000,6.672341064453125,-27.187606811523438,118.23173522949219,-109.58006286621094
1773149344226432000,6.682431884765625,-26.893539428710938,118.26371765136719,-110.26704406738281
1773149344236524000,6.69252392578125,-26.433059692382812,118.46940612792969,-110.60426330566406
1773149344246616000,6.702615966796875,-26.092193603515625,118.60649108886719,-111.21943664550781
1773149344256708000,6.7127080078125,-26.0870361328125,118.70541381835938,-111.49554443359375
1773149344266798000,6.722798095703125,-25.685684204101562,118.92860412597656,-111.70596313476562
1773149344276889000,6.73288916015625,-25.728958129882812,118.82125854492188,-111.31494140625
1773149344286981000,6.742981201171875,-26.184112548828125,118.636474609375,-110.77783203125
1773149344297073200,6.7530732421875,-26.555877685546875,118.63568115234375,-110.61714172363281
1773149344307166200,6.763166259765625,-26.79486083984375,119.0596923828125,-110.46424865722656
1773149344317257000,6.773257080078125,-26.652725219726562,119.11473083496094,-110.12858581542969
1773149344327348000,6.783347900390625,-26.700286865234375,119.43214416503906,-110.12974548339844
1773149344337439000,6.79343896484375,-26.564376831054688,119.530517578125,-110.14747619628906
1773149344347529000,6.803529052734375,-26.485687255859375,119.32992553710938,-110.32907104492188
1773149344357620700,6.813620849609375,-26.938690185546875,119.32376098632812,-110.36724853515625
1773149344367712800,6.823712646484375,-26.701309204101562,118.89616394042969,-110.36711120605469
1773149344377805800,6.833805908203125,-26.76483154296875,118.78779602050781,-110.31645202636719
1773149344387898600,6.843898681640625,-26.891036987304688,118.55604553222656,-110.28041076660156
1773149344397990700,6.85399072265625,-27.028732299804688,118.29817199707031,-110.17813110351562
1773149344408082700,6.864082763671875,-27.28375244140625,118.03468322753906,-110.15830993652344
1773149344418174700,6.8741748046875,-27.016815185546875,118.31376647949219,-110.01506042480469
1773149344428266800,6.884266845703125,-27.5086669921875,118.11357116699219,-109.36572265625
1773149344438358800,6.89435888671875,-27.655242919921875,118.16029357910156,-109.16348266601562
1773149344448450800,6.904450927734375,-27.957748413085938,118.61756896972656,-108.64192199707031
1773149344458541600,6.91454150390625,-28.205337524414062,118.64813232421875,-108.23704528808594
1773149344468632600,6.924632568359375,-28.376007080078125,118.62474060058594,-107.8245849609375
1773149344478723800,6.934723876953125,-28.205322265625,118.89886474609375,-107.05990600585938
1773149344488813600,6.9448134765625,-28.891845703125,119.04045104980469,-106.91841125488281
1773149344498905600,6.954905517578125,-29.066131591796875,119.09248352050781,-106.62673950195312
1773149344508996600,6.96499658203125,-29.088623046875,119.29470825195312,-106.29107666015625
1773149344519087900,6.975087890625,-28.965499877929688,119.0462646484375,-105.82466125488281
1773149344529177600,6.985177490234375,-29.299545288085938,119.16947937011719,-105.48941040039062
1773149344539268600,6.9952685546875,-29.1949462890625,119.30575561523438,-105.37220764160156
1773149344549359900,7.00535986328125,-28.953109741210938,119.1314697265625,-105.01560974121094
1773149344559450600,7.01545068359375,-29.37908935546875,119.0181884765625,-104.73062133789062
1773149344569539800,7.025539794921875,-29.473922729492188,119.05523681640625,-104.55245971679688
1773149344579630600,7.035630615234375,-29.583541870117188,118.6878662109375,-104.34709167480469
1773149344589721600,7.0457216796875,-29.7264404296875,118.385986328125,-104.34690856933594
1773149344599813600,7.055813720703125,-29.577041625976562,118.13650512695312,-104.44775390625
1773149344609900800,7.06590087890625,-29.802047729492188,117.83026123046875,-104.296142578125
1773149344619996700,7.07599658203125,-29.258193969726562,117.69509887695312,-104.05781555175781
1773149344630088700,7.086088623046875,-29.942581176757812,117.62631225585938,-104.19955444335938
1773149344640180500,7.096180419921875,-29.644638061523438,117.1702880859375,-104.02351379394531
1773149344650271700,7.106271728515625,-29.4105224609375,117.44566345214844,-104.05728149414062
1773149344660362800,7.11636279296875,-29.787460327148438,117.14089965820312,-103.86285400390625
1773149344670452500,7.126452392578125,-29.147705078125,117.40841674804688,-103.66336059570312
1773149344680542700,7.136542724609375,-29.5322265625,117.14608764648438,-103.68287658691406
1773149344690633700,7.1466337890625,-29.71240234375,116.83885192871094,-103.56269836425781
1773149344700724500,7.156724365234375,-29.1572265625,116.83735656738281,-103.53024291992188
1773149344710815700,7.166815673828125,-29.467605590820312,116.52659606933594,-103.49517822265625
1773149344720901600,7.176901611328125,-29.367111206054688,116.47982788085938,-103.4521484375
1773149344730999800,7.186999755859375,-29.345474243164062,115.97547912597656,-103.5994873046875
1773149344741091800,7.197091796875,-29.38427734375,115.36451721191406,-103.55126953125
1773149344751182800,7.207182861328125,-29.292877197265625,115.14479064941406,-103.84474182128906
1773149344761272600,7.2172724609375,-29.115509033203125,114.08247375488281,-104.11572265625
1773149344771362800,7.22736279296875,-29.499603271484375,113.71818542480469,-104.38301086425781
1773149344781453600,7.23745361328125,-29.404098510742188,112.57571411132812,-104.45143127441406
1773149344791543800,7.247543701171875,-29.71002197265625,111.87095642089844,-104.70365905761719
1773149344801635800,7.2576357421875,-29.281600952148438,111.20864868164062,-104.96385192871094
1773149344811726800,7.267726806640625,-29.267791748046875,110.36660766601562,-104.82878112792969
1773149344821815800,7.27781591796875,-29.486785888671875,110.19062805175781,-105.11375427246094
1773149344831901700,7.287901611328125,-29.792221069335938,109.51603698730469,-105.09193420410156
1773149344841996500,7.29799658203125,-29.376266479492188,109.36872863769531,-104.96343994140625
1773149344852087800,7.308087890625,-29.846939086914062,108.79264831542969,-104.8765869140625
1773149344862179800,7.318179931640625,-29.387374877929688,108.59930419921875,-104.4447021484375
1773149344872272000,7.32827197265625,-29.906341552734375,108.50363159179688,-104.38972473144531
1773149344882364700,7.33836474609375,-29.569732666015625,108.68446350097656,-103.98562622070312
1773149344892456700,7.348456787109375,-30.040679931640625,108.88116455078125,-103.57789611816406
1773149344902547700,7.358547607421875,-30.0179443359375,109.25054931640625,-103.195068359375
1773149344912639700,7.3686396484375,-29.947402954101562,109.35185241699219,-102.68995666503906
1773149344922730800,7.378730712890625,-29.99932861328125,109.67327880859375,-102.72328186035156
1773149344932822800,7.38882275390625,-30.218338012695312,110.06521606445312,-102.8013916015625
1773149344942914800,7.398914794921875,-30.15386962890625,110.211181640625,-102.45541381835938
1773149344953006800,7.4090068359375,-30.08837890625,110.599853515625,-102.477294921875
1773149344963099000,7.419098876953125,-29.850601196289062,110.564697265625,-102.45852661132812
1773149344973191000,7.42919091796875,-29.843429565429688,111.032958984375,-102.64657592773438
1773149344983281700,7.43928173828125,-29.608413696289062,111.50155639648438,-102.71388244628906
1773149344993372700,7.44937255859375,-29.33575439453125,111.48330688476562,-102.71311950683594
1773149345003463000,7.459462890625,-29.172882080078125,112.42776489257812,-102.37266540527344
1773149345013552600,7.469552734375,-29.358108520507812,113.06307983398438,-102.21658325195312
1773149345023644700,7.479644775390625,-28.995758056640625,113.72648620605469,-101.79937744140625
1773149345033736700,7.48973681640625,-28.89886474609375,114.61099243164062,-101.64112854003906
1773149345043827700,7.49982763671875,-28.516708374023438,115.89225769042969,-101.44563293457031
1773149345053919700,7.509919677734375,-27.90423583984375,117.00856018066406,-101.15025329589844
1773149345064010500,7.520010498046875,-27.8525390625,118.06072998046875,-101.66127014160156
1773149345074102500,7.5301025390625,-27.352203369140625,118.63125610351562,-102.07209777832031
1773149345084193800,7.54019384765625,-27.738204956054688,118.9365234375,-102.02799987792969
1773149345094284800,7.550284912109375,-27.600311279296875,118.58209228515625,-101.89918518066406
1773149345104375600,7.56037548828125,-27.516677856445312,118.63850402832031,-102.40101623535156
1773149345114466600,7.570466552734375,-27.301315307617188,118.542236328125,-103.32038879394531
1773149345124556800,7.580556884765625,-27.122161865234375,118.43757629394531,-104.06060791015625
1773149345134647600,7.5906474609375,-26.733612060546875,118.52760314941406,-104.67634582519531
1773149345144738600,7.600738525390625,-26.648956298828125,118.59613037109375,-104.75755310058594
1773149345154827500,7.61082763671875,-26.383743286132812,119.05522155761719,-104.76844787597656
1773149345164917800,7.620917724609375,-26.2489013671875,119.386474609375,-104.60014343261719
1773149345175008800,7.6310087890625,-26.232208251953125,119.76036071777344,-104.78244018554688
1773149345185099500,7.641099609375,-25.821533203125,120.06889343261719,-104.96160888671875
1773149345195191600,7.651191650390625,-25.67535400390625,120.65226745605469,-105.05335998535156
1773149345205282800,7.66128271484375,-25.382110595703125,120.95973205566406,-105.35321044921875
1773149345215373800,7.671373779296875,-25.34161376953125,121.03089904785156,-105.32501220703125
1773149345225466600,7.681466552734375,-25.392425537109375,121.18797302246094,-105.55589294433594
1773149345235559700,7.6915595703125,-25.414031982421875,121.39811706542969,-105.59039306640625
1773149345245651700,7.701651611328125,-25.175384521484375,121.65086364746094,-105.57310485839844
1773149345255744800,7.711744873046875,-24.900070190429688,121.67613220214844,-105.98773193359375
1773149345265835800,7.721835693359375,-24.841964721679688,121.98370361328125,-106.29484558105469
1773149345275926500,7.731926513671875,-24.505722045898438,122.08955383300781,-106.47755432128906
1773149345286018600,7.7420185546875,-24.595016479492188,122.13954162597656,-106.56535339355469
1773149345296109600,7.752109619140625,-24.48699951171875,122.27490234375,-106.69157409667969
1773149345306199800,7.76219970703125,-24.374786376953125,122.30624389648438,-106.88633728027344
1773149345316290600,7.77229052734375,-24.421981811523438,122.20338439941406,-107.05976867675781
1773149345326381600,7.782381591796875,-24.271041870117188,122.16421508789062,-107.39854431152344
1773149345336471800,7.792471923828125,-24.238555908203125,121.91021728515625,-107.57334899902344
1773149345346562600,7.8025625,-23.926345825195312,121.66787719726562,-107.52566528320312
1773149345356655600,7.812655517578125,-24.02203369140625,121.9512939453125,-107.8475341796875
1773149345366746400,7.822746337890625,-23.483474731445312,121.62518310546875,-108.03225708007812
1773149345376837400,7.83283740234375,-23.714553833007812,121.8935546875,-108.21847534179688
1773149345386929400,7.842929443359375,-23.495468139648438,121.99574279785156,-108.04925537109375
1773149345397020700,7.853020751953125,-23.510040283203125,121.62956237792969,-108.13502502441406
1773149345407111700,7.863111572265625,-23.309921264648438,121.61802673339844,-108.0133056640625
1773149345417202400,7.873202392578125,-23.772232055664062,121.35343933105469,-107.97239685058594
1773149345427293400,7.88329345703125,-23.894210815429688,121.86009216308594,-107.89987182617188
1773149345437385500,7.893385498046875,-23.559097290039062,121.93899536132812,-107.66444396972656
1773149345447476700,7.903476806640625,-23.669158935546875,121.70684814453125,-107.7130126953125
1773149345457567500,7.9135673828125,-23.910980224609375,121.89590454101562,-107.63455200195312
1773149345467659500,7.923659423828125,-23.678848266601562,122.029541015625,-107.61555480957031
1773149345477751600,7.93375146484375,-24.179031372070312,121.76187133789062,-107.1500244140625
1773149345487843600,7.943843505859375,-23.763946533203125,121.75973510742188,-107.01309204101562
1773149345497936400,7.953936279296875,-24.215194702148438,121.79148864746094,-107.0341796875
1773149345508027600,7.964027587890625,-24.247970581054688,121.6727294921875,-106.98051452636719
1773149345518120400,7.974120361328125,-23.99908447265625,121.612060546875,-106.89250183105469
1773149345528213500,7.984213623046875,-24.165069580078125,121.8157958984375,-106.83541870117188
1773149345538305500,7.994305419921875,-24.218948364257812,121.95057678222656,-106.46220397949219
1773149345548392400,8.004392333984375,-24.0009765625,122.12811279296875,-106.34771728515625
1773149345558488600,8.014488525390625,-24.068450927734375,122.2784423828125,-105.93205261230469
1773149345568579300,8.024579345703126,-23.89697265625,122.50119018554688,-105.72303771972656
1773149345578670600,8.034670654296875,-23.795761108398438,122.70283508300781,-105.61561584472656
1773149345588761600,8.04476171875,-23.667831420898438,122.91616821289062,-105.60942077636719
1773149345598853600,8.054853515625,-23.404159545898438,122.72430419921875,-105.43949890136719
1773149345608945700,8.064945556640625,-23.567916870117188,122.73782348632812,-105.35049438476562
1773149345619037700,8.07503759765625,-23.351226806640625,122.69984436035156,-105.388427734375
1773149345629130500,8.085130615234375,-23.058563232421875,122.88568115234375,-105.10765075683594
1773149345639222500,8.095222412109376,-23.11248779296875,122.60009765625,-105.54803466796875
1773149345649313500,8.1053134765625,-23.001602172851562,122.62358093261719,-105.75396728515625
1773149345659404500,8.115404541015625,-23.071182250976562,122.26063537597656,-105.91256713867188
1773149345669494500,8.12549462890625,-23.160842895507812,122.26010131835938,-106.10734558105469
1773149345679587600,8.135587646484375,-22.739349365234375,122.05096435546875,-106.09765625
1773149345689677600,8.145677490234375,-22.742477416992188,121.81500244140625,-106.45619201660156
1773149345699769600,8.15576953125,-22.506027221679688,121.56181335449219,-106.54483032226562
1773149345709860600,8.165860595703125,-22.387100219726562,121.46537780761719,-106.87945556640625
1773149345719951600,8.17595166015625,-22.4708251953125,121.29745483398438,-107.14894104003906
1773149345730043400,8.18604345703125,-22.511795043945312,121.00369262695312,-107.26446533203125
1773149345740134400,8.196134521484375,-22.404586791992188,120.92668151855469,-107.41600036621094
1773149345750224600,8.206224609375,-22.235946655273438,120.91114807128906,-107.4627685546875
1773149345760316700,8.216316650390626,-22.019821166992188,120.85118103027344,-107.41465759277344
1773149345770406400,8.226406494140624,-22.20892333984375,120.96041870117188,-107.39390563964844
1773149345780498400,8.23649853515625,-22.217544555664062,120.9923095703125,-107.47761535644531
1773149345790589700,8.246589599609376,-22.086181640625,121.03688049316406,-107.48866271972656
1773149345800680700,8.2566806640625,-22.302108764648438,121.07745361328125,-107.45716857910156
1773149345810770400,8.2667705078125,-22.130386352539062,120.813232421875,-107.37362670898438
1773149345820861700,8.27686181640625,-21.981948852539062,121.13517761230469,-107.26899719238281
1773149345830952700,8.28695263671875,-22.163238525390625,120.944580078125,-107.43498229980469
1773149345841044500,8.29704443359375,-21.978103637695312,120.70362854003906,-107.48464965820312
1773149345851134500,8.307134521484375,-22.111373901367188,120.85432434082031,-107.55477905273438
1773149345861225700,8.317225830078126,-22.014495849609375,120.80892944335938,-107.36293029785156
1773149345871316500,8.32731640625,-21.522064208984375,120.58695983886719,-107.42962646484375
1773149345881408500,8.337408447265625,-22.015853881835938,120.73789978027344,-107.54798889160156
1773149345891500500,8.34750048828125,-21.9781494140625,120.74449157714844,-107.43826293945312
1773149345901591600,8.357591552734375,-22.050857543945312,120.66598510742188,-107.37936401367188
1773149345911682600,8.3676826171875,-22.146469116210938,120.70172119140625,-107.40252685546875
1773149345921774600,8.377774658203125,-22.23956298828125,120.69821166992188,-107.214599609375
1773149345931866600,8.38786669921875,-22.3966064453125,120.94839477539062,-107.27748107910156
1773149345941958400,8.39795849609375,-22.383102416992188,120.84614562988281,-107.28382873535156
1773149345952049400,8.40804931640625,-22.5009765625,120.82911682128906,-107.2540283203125
1773149345962140700,8.418140625,-22.419448852539062,120.81684875488281,-107.14263916015625
1773149345972232700,8.428232666015624,-22.608078002929688,121.15301513671875,-107.28050231933594
1773149345982322400,8.438322509765625,-22.617141723632812,121.24131774902344,-107.20915222167969
1773149345992414500,8.44841455078125,-22.765579223632812,120.86294555664062,-107.2474365234375
1773149346002505500,8.45850537109375,-22.464981079101562,121.16056823730469,-107.28372192382812
1773149346012597500,8.468597412109375,-22.530014038085938,121.0731201171875,-107.091552734375
1773149346022688500,8.4786884765625,-22.719345092773438,121.02615356445312,-107.33285522460938
1773149346032780300,8.4887802734375,-22.884140014648438,120.88771057128906,-107.49508666992188
1773149346042872300,8.498872314453125,-22.881576538085938,121.12466430664062,-107.49856567382812
1773149346052965600,8.508965576171875,-23.142318725585938,120.66435241699219,-107.57646179199219
1773149346063057400,8.519057373046875,-23.01904296875,120.85406494140625,-107.46867370605469
1773149346073149400,8.5291494140625,-22.7584228515625,120.52851867675781,-107.824951171875
1773149346083240400,8.539240478515625,-23.039718627929688,120.78713989257812,-107.99897766113281
1773149346093331500,8.54933154296875,-23.338668823242188,120.55780029296875,-108.21766662597656
1773149346103423500,8.559423583984374,-22.80487060546875,120.386474609375,-108.38279724121094
1773149346113514500,8.569514404296875,-23.052841186523438,120.30657958984375,-108.36418151855469
1773149346123604500,8.5796044921875,-23.102615356445312,120.24270629882812,-108.57243347167969
1773149346133697500,8.589697509765625,-23.074951171875,120.09162902832031,-108.81936645507812
1773149346143789600,8.59978955078125,-23.013473510742188,120.03486633300781,-108.72683715820312
1773149346153880600,8.609880615234376,-23.120376586914062,120.17263793945312,-108.68272399902344
1773149346163971300,8.619971435546875,-23.304412841796875,119.93901062011719,-108.80155944824219
1773149346174061600,8.6300615234375,-23.436370849609375,120.02456665039062,-109.08125305175781
1773149346184153600,8.640153564453126,-23.358367919921875,119.85841369628906,-108.97425842285156
1773149346194244600,8.65024462890625,-23.167938232421875,120.02082824707031,-109.06260681152344
1773149346204334600,8.66033447265625,-22.878829956054688,119.80538940429688,-109.04899597167969
1773149346214425600,8.670425537109375,-23.074676513671875,119.6260986328125,-109.43428039550781
1773149346224515300,8.680515380859376,-23.06597900390625,119.77764892578125,-109.60903930664062
1773149346234605600,8.69060546875,-23.354232788085938,119.72315979003906,-109.86544799804688
1773149346244695600,8.700695556640625,-22.966094970703125,119.80952453613281,-109.75848388671875
1773149346254786600,8.71078662109375,-22.971603393554688,119.77479553222656,-109.82597351074219
1773149346264877600,8.720877685546874,-23.21197509765625,119.71192932128906,-110.05343627929688
1773149346274968600,8.730968505859375,-23.08599853515625,119.72586059570312,-109.98291015625
1773149346285058600,8.74105859375,-22.969314575195312,119.86970520019531,-110.28390502929688
1773149346295150600,8.751150634765626,-23.028152465820312,120.07192993164062,-110.38467407226562
1773149346305241600,8.76124169921875,-22.672500610351562,120.35174560546875,-110.431640625
1773149346315332400,8.771332275390625,-22.787612915039062,120.35990905761719,-110.50788879394531
1773149346325424400,8.78142431640625,-22.549163818359375,120.53355407714844,-110.78903198242188
1773149346335515400,8.791515380859375,-22.569595336914062,120.82534790039062,-111.00602722167969
1773149346345608400,8.8016083984375,-22.644744873046875,120.79353332519531,-111.044677734375
1773149346355699000,8.811698974609374,-22.298721313476562,121.05233764648438,-111.17439270019531
1773149346365791000,8.821791015625,-22.269561767578125,120.90689086914062,-111.29023742675781
1773149346375882200,8.83188232421875,-22.197601318359375,120.93328857421875,-111.44441223144531
1773149346385973200,8.84197314453125,-22.047027587890625,121.2984619140625,-111.64271545410156
1773149346396064000,8.85206396484375,-21.744415283203125,121.66191101074219,-111.62547302246094
1773149346406155000,8.862155029296876,-21.67913818359375,121.71200561523438,-111.8526611328125
1773149346416246300,8.872246337890624,-21.602340698242188,121.96943664550781,-111.99539184570312
1773149346426338300,8.88233837890625,-21.525222778320312,121.93492126464844,-112.09544372558594
1773149346436428000,8.892427978515625,-21.437484741210938,121.98297119140625,-112.13542175292969
1773149346446519000,8.90251904296875,-21.39654541015625,122.28689575195312,-112.07183837890625
1773149346456608000,8.91260791015625,-21.434616088867188,122.54183959960938,-112.23497009277344
1773149346466699000,8.922698974609375,-21.680191040039062,122.58099365234375,-112.33201599121094
1773149346476790300,8.932790283203126,-21.170364379882812,122.66642761230469,-112.38725280761719
1773149346486881300,8.94288134765625,-21.251113891601562,122.84831237792969,-112.4976806640625
1773149346496970200,8.95297021484375,-20.9871826171875,122.43148803710938,-112.55038452148438
1773149346507059200,8.96305908203125,-20.967636108398438,122.76853942871094,-112.74755859375
1773149346517150200,8.973150146484375,-20.951431274414062,122.87657165527344,-112.83718872070312
1773149346527240000,8.983239990234376,-20.818023681640625,122.98193359375,-112.96601867675781
1773149346537330200,8.993330078125,-20.485565185546875,123.12605285644531,-113.06977844238281
1773149346547420200,9.003420166015625,-20.717300415039062,123.21495056152344,-113.25642395019531
1773149346557510100,9.01351025390625,-20.5546875,123.67716979980469,-113.22959899902344
1773149346567601200,9.02360107421875,-20.406051635742188,123.66592407226562,-113.1790771484375
1773149346577692200,9.033692138671874,-20.73291015625,123.75375366210938,-113.04388427734375
1773149346587783200,9.043783203125,-19.910842895507812,123.94712829589844,-112.90115356445312
1773149346597873200,9.053873046875,-20.598068237304688,124.20028686523438,-112.86549377441406
1773149346607964200,9.063964111328126,-20.821853637695312,124.05833435058594,-112.90484619140625
1773149346618054100,9.07405419921875,-20.563873291015625,124.14004516601562,-112.96780395507812
1773149346628144400,9.084144287109375,-20.39434814453125,124.14057922363281,-112.84242248535156
1773149346638234000,9.094234130859375,-19.940353393554688,124.21908569335938,-112.80642700195312
1773149346648326100,9.104326171875,-20.164901733398438,124.39494323730469,-112.98600769042969
1773149346658417200,9.114417236328125,-20.322128295898438,124.16455078125,-112.99659729003906
1773149346668509200,9.12450927734375,-20.456634521484375,123.98587036132812,-112.92538452148438
1773149346678600200,9.13460009765625,-20.168121337890625,124.22088623046875,-113.083251953125
1773149346688691200,9.144691162109375,-20.218490600585938,124.27207946777344,-112.88465881347656
1773149346698781200,9.15478125,-20.432586669921875,124.17805480957031,-112.88777160644531
1773149346708870100,9.1648701171875,-20.644454956054688,123.999755859375,-112.66830444335938
1773149346718961200,9.174961181640626,-20.653076171875,124.21151733398438,-112.58552551269531
1773149346729052200,9.18505224609375,-20.838653564453125,124.18515014648438,-112.33428955078125
1773149346739143200,9.19514306640625,-20.577682495117188,124.37852478027344,-112.34378051757812
1773149346749233200,9.205233154296875,-20.888748168945312,124.16508483886719,-112.16622924804688
1773149346759325200,9.2153251953125,-21.1837158203125,124.22512817382812,-112.03776550292969
1773149346769412000,9.225412109375,-21.209396362304688,124.28532409667969,-112.15791320800781
1773149346779509000,9.235509033203124,-21.34454345703125,124.21763610839844,-111.89704895019531
1773149346789600300,9.245600341796875,-21.324249267578125,124.21572875976562,-112.02525329589844
1773149346799691300,9.255691162109375,-21.530975341796875,124.19953918457031,-111.98789978027344
1773149346809782300,9.2657822265625,-21.8807373046875,124.49226379394531,-111.7655029296875
1773149346819874000,9.2758740234375,-22.008071899414062,124.12684631347656,-111.518798828125
1773149346829965000,9.285965087890625,-22.115325927734375,124.18328857421875,-111.22946166992188
1773149346840055300,9.29605517578125,-22.254592895507812,123.97886657714844,-111.33015441894531
1773149346850148000,9.306148193359375,-22.261138916015625,123.79978942871094,-111.29739379882812
1773149346860238000,9.316238037109375,-22.374984741210938,123.68147277832031,-111.32235717773438
1773149346870328000,9.326328125,-22.1556396484375,123.64004516601562,-111.4019775390625
1773149346880418000,9.33641796875,-22.455795288085938,123.439208984375,-111.25051879882812
1773149346890507300,9.34650732421875,-22.469161987304688,123.26971435546875,-111.41389465332031
1773149346900598000,9.356597900390625,-22.514022827148438,123.03170776367188,-111.25077819824219
1773149346910688300,9.366688232421875,-22.969970703125,122.92924499511719,-111.36404418945312
1773149346920778000,9.376778076171876,-22.455902099609375,122.74261474609375,-111.18855285644531
1773149346930868200,9.3868681640625,-23.125762939453125,122.59024047851562,-111.18208312988281
1773149346940959200,9.396959228515625,-22.980209350585938,122.81436157226562,-111.32562255859375
1773149346951050000,9.407050048828125,-22.901580810546875,122.42063903808594,-111.1502685546875
1773149346961141000,9.41714111328125,-23.153167724609375,122.31893920898438,-110.82279968261719
1773149346971231200,9.427231201171875,-23.22857666015625,122.45504760742188,-110.5838623046875
1773149346981322000,9.437322021484375,-23.100830078125,122.24201965332031,-110.65034484863281
1773149346991412200,9.447412109375,-23.01800537109375,122.07484436035156,-110.22276306152344
1773149347001502000,9.457501953125,-23.195159912109375,122.11566162109375,-110.27436828613281
1773149347011592200,9.46759228515625,-23.2166748046875,122.07000732421875,-110.05818176269531
1773149347021683200,9.47768310546875,-23.167205810546875,121.75782775878906,-109.87704467773438
1773149347031774000,9.48777392578125,-23.487869262695312,121.53125,-109.93949890136719
1773149347041864200,9.4978642578125,-23.580963134765625,121.48574829101562,-109.79066467285156
1773149347051954200,9.5079541015625,-23.516616821289062,121.49540710449219,-110.02554321289062
1773149347062044200,9.518044189453125,-23.7972412109375,121.41200256347656,-109.89653015136719
1773149347072134100,9.528134033203125,-23.738052368164062,121.33174133300781,-109.89169311523438
1773149347082222300,9.538222412109375,-23.532485961914062,121.11827087402344,-110.10508728027344
1773149347092311000,9.54831103515625,-23.763717651367188,120.82147216796875,-109.83230590820312
1773149347102401300,9.5584013671875,-23.793289184570312,120.62527465820312,-109.784912109375
1773149347112491000,9.568490966796874,-24.050399780273438,120.58258056640625,-109.6312255859375
1773149347122580000,9.578580078125,-24.285659790039062,120.77442932128906,-109.42356872558594
1773149347132670200,9.588670166015625,-24.733932495117188,120.51713562011719,-109.24147033691406
1773149347142760000,9.598760009765625,-24.580429077148438,120.41215515136719,-109.01658630371094
1773149347152851200,9.608851318359376,-24.886016845703125,120.40216064453125,-108.90553283691406
1773149347162941200,9.618941162109374,-25.023208618164062,120.31932067871094,-108.58883666992188
1773149347173031200,9.62903125,-25.2841796875,120.28469848632812,-108.38139343261719
1773149347183123200,9.639123291015625,-25.377853393554688,120.377685546875,-108.29397583007812
1773149347193215200,9.64921533203125,-25.689529418945312,119.94612121582031,-108.09114074707031
1773149347203306200,9.65930615234375,-25.646163940429688,119.56095886230469,-107.88999938964844
1773149347213395200,9.669395263671875,-25.78253173828125,119.77128601074219,-107.70079040527344
1773149347223487200,9.6794873046875,-26.050308227539062,119.40647888183594,-107.8262939453125
1773149347233579300,9.689579345703125,-26.382675170898438,119.01654052734375,-107.75059509277344
1773149347243671300,9.69967138671875,-26.25372314453125,118.80645751953125,-107.70713806152344
1773149347253763000,9.70976318359375,-26.553482055664062,118.81466674804688,-107.83317565917969
1773149347263854300,9.719854248046875,-26.580780029296875,118.76516723632812,-107.17875671386719
1773149347273945000,9.729945068359376,-26.90509033203125,118.78309631347656,-106.99972534179688
1773149347284037000,9.740037109375,-27.3797607421875,118.73231506347656,-106.74241638183594
1773149347294129200,9.750129150390626,-27.665802001953125,118.59242248535156,-106.02241516113281
1773149347304219100,9.76021923828125,-27.912811279296875,118.57058715820312,-105.62705993652344
1773149347314311200,9.770311279296875,-28.08575439453125,118.19126892089844,-105.07244873046875
1773149347324403000,9.78040283203125,-28.5712890625,118.17726135253906,-104.67953491210938
1773149347334495000,9.790494873046875,-28.815048217773438,117.614013671875,-104.20242309570312
1773149347344588000,9.800588134765626,-28.688583374023438,117.27561950683594,-103.9241943359375
1773149347354679000,9.810678955078124,-28.858123779296875,117.04969787597656,-103.98768615722656
1773149347364772000,9.820772216796875,-28.81201171875,116.10903930664062,-104.09504699707031
1773149347374863000,9.830863037109374,-29.3941650390625,115.87457275390625,-104.28172302246094
1773149347384955100,9.840955078125,-29.057403564453125,115.68682861328125,-104.45263671875
1773149347395049200,9.85104931640625,-29.319198608398438,115.46339416503906,-104.55754089355469
1773149347405142000,9.86114208984375,-28.674148559570312,115.63951110839844,-104.51773071289062
1773149347415233000,9.87123291015625,-28.7662353515625,115.52876281738281,-105.0693359375
1773149347425325000,9.881324951171875,-29.079971313476562,115.76573181152344,-105.41708374023438
1773149347435418000,9.891418212890626,-28.618408203125,115.29551696777344,-105.57415771484375
1773149347445508900,9.9015087890625,-28.749191284179688,115.46327209472656,-105.76286315917969
1773149347455600000,9.91160009765625,-28.64947509765625,115.15846252441406,-105.68606567382812
1773149347465692200,9.921692138671874,-28.759063720703125,114.87336730957031,-105.96238708496094
1773149347475783200,9.931783203125,-28.648849487304688,115.02261352539062,-106.38536071777344
1773149347485874200,9.941874267578125,-28.160888671875,115.22065734863281,-107.04100036621094
1773149347495965000,9.95196484375,-27.747268676757812,115.18453979492188,-107.71142578125
1773149347506057000,9.962056884765625,-27.309555053710938,115.1514892578125,-108.57685852050781
1773149347516149000,9.97214892578125,-26.827346801757812,115.34957885742188,-109.24221801757812
1773149347526241000,9.982240966796875,-26.486282348632812,115.72789001464844,-109.90533447265625
1773149347536333000,9.9923330078125,-25.853530883789062,115.8585205078125,-110.12077331542969
1773149347546423000,10.002423095703126,-25.370208740234375,116.0185546875,-110.14898681640625
1773149347556514000,10.01251416015625,-25.643966674804688,116.14164733886719,-110.73054504394531
1773149347566606000,10.022606201171875,-24.91265869140625,116.56373596191406,-111.05625915527344
1773149347576697000,10.032697021484376,-24.955184936523438,117.267822265625,-111.28775024414062
1773149347586787000,10.042787109375,-24.833541870117188,117.86529541015625,-111.13671875
1773149347596878000,10.052878173828125,-24.634735107421875,118.23835754394531,-110.79856872558594
1773149347606969000,10.062968994140626,-25.095596313476562,118.86614990234375,-110.75297546386719
1773149347617060000,10.07306005859375,-25.164382934570312,118.95162963867188,-110.46955871582031
1773149347627151000,10.083151123046875,-25.077346801757812,119.14622497558594,-110.30972290039062
1773149347637243100,10.0932431640625,-24.9571533203125,119.37730407714844,-110.4486083984375
1773149347647334100,10.103334228515624,-25.0181884765625,119.41824340820312,-110.33695983886719
1773149347657425200,10.113425048828125,-24.949615478515625,119.67669677734375,-110.4005126953125
1773149347667517200,10.12351708984375,-25.07330322265625,119.51370239257812,-110.61273193359375
1773149347677610200,10.1336103515625,-25.1689453125,119.62368774414062,-110.71078491210938
1773149347687701000,10.143700927734375,-24.910888671875,119.58441162109375,-110.78630065917969
1773149347697791000,10.153791015625,-24.846588134765625,119.25242614746094,-110.67936706542969
1773149347707882200,10.16388232421875,-25.06854248046875,119.49871826171875,-110.90631103515625
1773149347717971200,10.17397119140625,-24.831069946289062,119.26116943359375,-110.96488952636719
1773149347728060000,10.184059814453125,-24.342742919921875,119.13322448730469,-111.1575927734375
1773149347738150100,10.194150146484375,-24.535369873046875,119.01506042480469,-111.32777404785156
1773149347748241200,10.2042412109375,-24.48309326171875,118.98405456542969,-111.60191345214844
1773149347758331100,10.2143310546875,-24.071060180664062,119.21231079101562,-111.89192199707031
1773149347768422100,10.224422119140625,-23.987258911132812,119.08357238769531,-112.33277893066406
1773149347778512100,10.23451220703125,-23.984970092773438,119.22496032714844,-112.31349182128906
1773149347788602000,10.24460205078125,-23.298385620117188,119.41102600097656,-112.43472290039062
1773149347798691000,10.254691162109374,-23.338027954101562,119.5821533203125,-112.54957580566406
1773149347808781000,10.264781005859374,-23.1082763671875,119.79376220703125,-112.73989868164062
1773149347818870000,10.2748701171875,-23.372116088867188,119.98004150390625,-112.70733642578125
1773149347828961000,10.2849609375,-23.275665283203125,120.50619506835938,-112.72747802734375
1773149347839052000,10.295052001953126,-22.701828002929688,120.67390441894531,-112.67974853515625
1773149347849142000,10.30514208984375,-22.986953735351562,120.9534912109375,-112.58464050292969
1773149347859233000,10.31523291015625,-22.8609619140625,121.33378601074219,-112.45657348632812
1773149347869323000,10.325322998046875,-22.848526000976562,121.081787109375,-112.529296875
1773149347879413200,10.335413330078126,-22.618728637695312,121.35078430175781,-112.64103698730469
1773149347889504000,10.34550390625,-22.611663818359375,121.38037109375,-112.61050415039062
1773149347899596000,10.355595947265625,-22.789474487304688,121.43312072753906,-112.88058471679688
1773149347909688000,10.36568798828125,-22.636032104492188,121.23590087890625,-112.99569702148438
1773149347919777300,10.37577734375,-22.5318603515625,121.31166076660156,-113.29182434082031
1773149347929868000,10.385867919921875,-22.654739379882812,121.04888916015625,-112.9820556640625
1773149347939958000,10.3959580078125,-22.670913696289062,121.28733825683594,-113.24330139160156
1773149347950048000,10.406048095703126,-22.495223999023438,121.403076171875,-113.28132629394531
1773149347960139000,10.416138916015624,-22.66058349609375,121.17965698242188,-113.15351867675781
1773149347970230000,10.42622998046875,-22.546524047851562,121.28233337402344,-113.06700134277344
1773149347980321300,10.4363212890625,-22.367599487304688,121.77140808105469,-112.93316650390625
1773149347990412000,10.446412109375,-22.7626953125,121.91378784179688,-113.15312194824219
1773149348000503000,10.4565029296875,-22.53900146484375,121.80677795410156,-113.04678344726562
1773149348010595000,10.466594970703126,-22.39141845703125,121.95440673828125,-113.447021484375
1773149348020686000,10.47668603515625,-22.1561279296875,121.79177856445312,-113.58944702148438
1773149348030777000,10.486777099609375,-21.755691528320312,121.80206298828125,-113.489501953125
1773149348040869000,10.496869140625,-21.7340087890625,121.87074279785156,-113.78994750976562
1773149348050960100,10.506960205078125,-21.381240844726562,121.96101379394531,-114.05670166015625
1773149348061051100,10.517051025390625,-21.260116577148438,121.81350708007812,-114.22969055175781
1773149348071142000,10.527141845703126,-21.094009399414062,121.81123352050781,-114.58518981933594
1773149348081233200,10.537233154296874,-20.927963256835938,121.69429016113281,-114.87034606933594
1773149348091322000,10.547322021484375,-20.6939697265625,121.43754577636719,-115.19847106933594
1773149348101413000,10.5574130859375,-20.185333251953125,121.2626953125,-115.2698974609375
1773149348111503000,10.567503173828126,-19.958663940429688,121.01699829101562,-115.55500793457031
1773149348121592000,10.577592041015626,-19.720184326171875,121.01449584960938,-115.71315002441406
1773149348131683000,10.58768310546875,-19.71026611328125,121.035400390625,-115.8927001953125
1773149348141774000,10.597774169921875,-19.813217163085938,120.9471435546875,-115.8988037109375
1773149348151865000,10.607864990234376,-19.638046264648438,120.62596130371094,-115.86080932617188
1773149348161955000,10.617955078125,-19.5511474609375,120.67138671875,-115.78897094726562
1773149348172046000,10.628046142578125,-19.741058349609375,120.739990234375,-115.53030395507812
1773149348182137900,10.638137939453125,-20.404693603515625,120.68057250976562,-115.33447265625
1773149348192229000,10.64822900390625,-20.702346801757812,120.70838928222656,-115.18962097167969
1773149348202320100,10.658320068359375,-20.495880126953125,120.89628601074219,-114.92903137207031
1773149348212412200,10.668412109375,-20.990341186523438,120.87600708007812,-114.52009582519531
1773149348222503200,10.678503173828124,-20.989044189453125,121.19979858398438,-114.09942626953125
1773149348232595000,10.688594970703125,-21.146713256835938,120.92095947265625,-114.02174377441406
1773149348242688300,10.698688232421874,-21.676193237304688,120.93721008300781,-113.70074462890625
1773149348252779000,10.708779052734375,-21.529998779296875,121.10516357421875,-113.64923095703125
1773149348262870000,10.7188701171875,-22.19354248046875,120.95256042480469,-113.37370300292969
1773149348272962000,10.728962158203124,-21.9476318359375,120.75291442871094,-113.14607238769531
1773149348283053000,10.739052978515625,-21.957107543945312,120.910400390625,-113.16128540039062
1773149348293143000,10.74914306640625,-22.016448974609375,120.72929382324219,-113.1614990234375
1773149348303234000,10.759234130859374,-22.031982421875,120.67469787597656,-113.30677795410156
1773149348313324000,10.769323974609375,-21.91986083984375,120.60574340820312,-113.16091918945312
1773149348323415000,10.7794150390625,-21.758270263671875,120.30015563964844,-113.16447448730469
1773149348333505300,10.78950537109375,-21.71771240234375,120.1556396484375,-113.292236328125
1773149348343594000,10.799593994140626,-21.532485961914062,119.89164733886719,-113.41348266601562
1773149348353683500,10.809683349609376,-21.487594604492188,119.96884155273438,-113.64376831054688
1773149348363774500,10.8197744140625,-21.12005615234375,119.62300109863281,-113.76213073730469
1773149348373865700,10.82986572265625,-20.951156616210938,119.47221374511719,-114.09593200683594
1773149348383956500,10.83995654296875,-20.61492919921875,119.32698059082031,-114.34329223632812
1773149348394047500,10.850047607421875,-21.068359375,119.07005310058594,-114.47509765625
1773149348404137700,10.8601376953125,-20.640899658203125,119.01991271972656,-114.65446472167969
1773149348414229500,10.8702294921875,-20.144668579101562,118.85798645019531,-114.34954833984375
1773149348424319500,10.880319580078124,-20.614227294921875,118.76814270019531,-114.4090576171875
1773149348434410500,10.890410400390625,-20.439071655273438,118.95181274414062,-114.32548522949219
1773149348444501800,10.900501708984375,-20.597503662109375,118.91964721679688,-114.37130737304688
1773149348454594600,10.910594482421875,-21.09979248046875,119.01820373535156,-114.06550598144531
1773149348464686600,10.9206865234375,-21.010726928710938,118.99082946777344,-113.85089111328125
1773149348474778400,10.9307783203125,-20.604965209960938,118.88307189941406,-113.89608764648438
1773149348484870400,10.940870361328125,-21.013427734375,118.97207641601562,-113.95388793945312
1773149348494962400,10.95096240234375,-21.378219604492188,119.08549499511719,-113.763916015625
1773149348505055500,10.961055419921875,-21.00732421875,119.04435729980469,-113.55607604980469
1773149348515148500,10.9711484375,-21.337997436523438,118.94032287597656,-113.76400756835938
1773149348525239600,10.981239501953125,-21.36212158203125,119.06329345703125,-113.74826049804688
1773149348535331600,10.99133154296875,-21.338668823242188,119.01470947265625,-113.68409729003906
1773149348545423600,11.001423583984375,-21.2811279296875,118.88864135742188,-113.781494140625
1773149348555514600,11.0115146484375,-21.113723754882812,118.77972412109375,-113.55867004394531
1773149348565607400,11.021607421875,-21.252395629882812,118.88282775878906,-113.84866333007812
1773149348575698700,11.03169873046875,-21.484771728515625,118.77003479003906,-113.70126342773438
1773149348585790700,11.041790771484376,-21.3509521484375,118.98748779296875,-113.736083984375
1773149348595884500,11.051884521484375,-21.665603637695312,118.586669921875,-113.58894348144531
1773149348605976600,11.0619765625,-21.50341796875,118.92854309082031,-113.27027893066406
1773149348616068600,11.072068603515625,-22.045944213867188,118.86041259765625,-113.33016967773438
1773149348626158600,11.08215869140625,-21.866302490234375,118.94993591308594,-113.26618957519531
1773149348636250400,11.09225048828125,-21.931533813476562,118.94633483886719,-113.07754516601562
1773149348646340600,11.102340576171875,-22.242324829101562,118.90766906738281,-113.1181640625
1773149348656430600,11.1124306640625,-22.162322998046875,118.78683471679688,-113.14759826660156
1773149348666519600,11.12251953125,-21.973175048828125,118.58097839355469,-112.97245788574219
1773149348676609500,11.132609619140625,-22.010299682617188,118.52616882324219,-113.13722229003906
1773149348686700500,11.142700439453124,-22.114791870117188,118.4403076171875,-113.1864013671875
1773149348696791300,11.152791259765625,-21.955657958984375,118.32768249511719,-113.09710693359375
1773149348706881500,11.162881591796875,-22.00518798828125,118.46322631835938,-113.34074401855469
1773149348716972500,11.17297265625,-22.183090209960938,118.26712036132812,-113.23408508300781
1773149348727063300,11.183063232421874,-22.19134521484375,118.3125,-113.1224365234375
1773149348737154600,11.193154541015625,-22.044677734375,118.44046020507812,-113.11289978027344
1773149348747245600,11.20324560546875,-22.333358764648438,118.64178466796875,-112.99217224121094
1773149348757336600,11.213336669921874,-22.039093017578125,118.151611328125,-112.89166259765625
1773149348767427300,11.22342724609375,-22.359237670898438,118.15110778808594,-113.05342102050781
1773149348777519400,11.233519287109376,-22.585739135742188,118.12385559082031,-112.88034057617188
1773149348787612400,11.2436123046875,-22.233169555664062,118.04356384277344,-112.94642639160156
1773149348797703400,11.253703369140625,-22.176971435546875,118.10871887207031,-112.78630065917969
1773149348807794700,11.263794677734374,-22.634979248046875,117.99772644042969,-112.81881713867188
1773149348817885700,11.2738857421875,-22.64752197265625,117.65428161621094,-112.58872985839844
1773149348827976400,11.2839765625,-22.950668334960938,117.61492919921875,-112.57518005371094
1773149348838067500,11.2940673828125,-22.981216430664062,117.44511413574219,-112.42509460449219
1773149348848158700,11.30415869140625,-22.957489013671875,117.20341491699219,-112.08711242675781
1773149348858249500,11.31424951171875,-23.061279296875,117.11360168457031,-112.03781127929688
1773149348868340500,11.324340576171876,-23.243743896484375,116.95341491699219,-111.93952941894531
1773149348878433500,11.33443359375,-23.716598510742188,116.86599731445312,-111.69456481933594
1773149348888526300,11.3445263671875,-24.122329711914062,116.62821960449219,-111.42279052734375
1773149348898617600,11.35461767578125,-24.519271850585938,116.22219848632812,-111.00810241699219
1773149348908708600,11.36470849609375,-24.949920654296875,116.16166687011719,-110.79071044921875
1773149348918799600,11.374799560546874,-24.91290283203125,115.93681335449219,-110.13720703125
1773149348928890400,11.384890380859375,-24.926727294921875,116.25132751464844,-110.16279602050781
1773149348938979600,11.3949794921875,-24.969955444335938,116.14361572265625,-109.78857421875
1773149348949070300,11.4050703125,-25.100784301757812,116.07919311523438,-109.90193176269531
1773149348959161600,11.41516162109375,-25.478805541992188,115.67137145996094,-109.71891784667969
1773149348969252600,11.425252685546875,-25.715591430664062,115.82408142089844,-109.41087341308594
1773149348979343400,11.43534326171875,-25.885498046875,115.86729431152344,-108.95724487304688
1773149348989434400,11.445434326171876,-25.882217407226562,115.57170104980469,-108.46304321289062
1773149348999525600,11.455525634765625,-26.240402221679688,115.53059387207031,-108.15234375
1773149349009615400,11.465615478515625,-26.661392211914062,115.40068054199219,-107.92532348632812
1773149349019705600,11.47570556640625,-26.95611572265625,115.48153686523438,-107.71516418457031
1773149349029797600,11.485797607421874,-26.874191284179688,115.14436340332031,-107.18022155761719
1773149349039888600,11.495888671875,-26.98724365234375,115.25538635253906,-106.87071228027344
1773149349049980700,11.505980712890626,-27.189056396484375,115.34954833984375,-106.32545471191406
1773149349060071400,11.516071533203124,-27.614501953125,115.38179016113281,-105.87214660644531
1773149349070163500,11.52616357421875,-27.508407592773438,115.44538879394531,-105.59597778320312
1773149349080256500,11.536256591796874,-27.815078735351562,115.58602905273438,-105.11466979980469
1773149349090347500,11.546347412109375,-27.890380859375,115.74803161621094,-104.89134216308594
1773149349100439600,11.556439453125,-27.937957763671875,115.5469970703125,-104.58358764648438
1773149349110531600,11.566531494140625,-28.115219116210938,115.55891418457031,-104.28404235839844
1773149349120623600,11.57662353515625,-28.177658081054688,115.41961669921875,-104.26663208007812
1773149349130714400,11.58671435546875,-28.393722534179688,115.27462768554688,-103.77084350585938
1773149349140805400,11.596805419921875,-28.236480712890625,115.23530578613281,-103.69664001464844
1773149349150896600,11.606896728515625,-28.16668701171875,115.15325927734375,-103.44332885742188
1773149349160986400,11.616986328125,-28.336563110351562,115.12252807617188,-102.84304809570312
1773149349171076600,11.62707666015625,-28.545883178710938,115.26899719238281,-102.7132568359375
1773149349181166300,11.637166259765625,-28.077117919921875,114.95515441894531,-102.03326416015625
1773149349191257600,11.647257568359375,-28.549240112304688,114.88897705078125,-101.86651611328125
1773149349201348600,11.6573486328125,-28.735763549804688,115.04673767089844,-101.67808532714844
1773149349211439600,11.667439697265625,-28.5380859375,114.73855590820312,-101.28358459472656
1773149349221530400,11.6775302734375,-28.703277587890625,114.67103576660156,-100.96002197265625
1773149349231621400,11.687621337890626,-28.578125,114.88824462890625,-100.43318176269531
1773149349241712600,11.697712646484375,-28.803207397460938,114.84320068359375,-100.22419738769531
1773149349251803600,11.7078037109375,-29.245742797851562,114.7108154296875,-99.83987426757812
1773149349261893600,11.7178935546875,-29.193984985351562,114.67454528808594,-99.43064880371094
1773149349271984600,11.727984619140624,-28.990264892578125,114.64352416992188,-99.06861877441406
1773149349282074400,11.738074462890625,-28.903823852539062,114.59452819824219,-98.67648315429688
1773149349292165600,11.74816552734375,-28.842391967773438,114.467041015625,-98.43234252929688
1773149349302257700,11.758257568359374,-28.772232055664062,114.37104797363281,-98.13734436035156
1773149349312347400,11.768347412109375,-29.088577270507812,114.14134216308594,-97.71165466308594
1773149349322437600,11.778437744140625,-28.81744384765625,113.93608093261719,-97.60731506347656
1773149349332529700,11.78852978515625,-28.834625244140625,113.72145080566406,-97.50929260253906
1773149349342619400,11.798619384765624,-28.79132080078125,113.45158386230469,-97.2481689453125
1773149349352708600,11.80870849609375,-28.696456909179688,113.40562438964844,-97.26896667480469
1773149349362802200,11.81880224609375,-28.644256591796875,113.12782287597656,-97.15525817871094
1773149349372893400,11.8288935546875,-28.39007568359375,113.12188720703125,-96.59359741210938
1773149349382985500,11.8389853515625,-28.644271850585938,113.08447265625,-96.6837158203125
1773149349393075200,11.8490751953125,-28.664932250976562,112.57855224609375,-96.39936828613281
1773149349403167200,11.859167236328124,-28.482284545898438,112.67034912109375,-96.33927917480469
1773149349413258200,11.86925830078125,-28.497573852539062,112.38917541503906,-96.16024780273438
1773149349423349500,11.879349609375,-28.316513061523438,112.34434509277344,-95.85989379882812
1773149349433441300,11.889441162109375,-28.354019165039062,112.08168029785156,-95.72012329101562
1773149349443531300,11.89953125,-28.335357666015625,112.26011657714844,-95.67500305175781
1773149349453622300,11.909622314453125,-27.99639892578125,111.97389221191406,-95.37654113769531
1773149349463713300,11.91971337890625,-28.29034423828125,111.42596435546875,-95.40115356445312
1773149349473803300,11.92980322265625,-28.2001953125,111.39625549316406,-95.21217346191406
1773149349483894300,11.939894287109375,-27.988937377929688,111.11091613769531,-95.06364440917969
1773149349493985300,11.9499853515625,-28.023818969726562,110.95785522460938,-94.85191345214844
1773149349504076300,11.960076171875,-27.859909057617188,110.76412963867188,-94.82504272460938
1773149349514166300,11.970166259765625,-27.884185791015625,110.64239501953125,-94.53208923339844
1773149349524256300,11.98025634765625,-28.032882690429688,110.57781982421875,-94.65797424316406
1773149349534345500,11.990345458984375,-27.803253173828125,110.438720703125,-94.56820678710938
1773149349544435200,12.000435302734376,-27.640106201171875,110.38325500488281,-94.33932495117188
1773149349554526200,12.010526123046875,-27.969650268554688,110.24452209472656,-94.33230590820312
1773149349564615200,12.020615234375,-27.365951538085938,110.04718017578125,-94.077392578125
1773149349574705400,12.030705322265625,-27.808792114257812,109.80155944824219,-93.97871398925781
1773149349584795100,12.040795166015625,-27.561279296875,109.56948852539062,-93.9842529296875
1773149349594885400,12.050885498046876,-27.985198974609375,109.21580505371094,-93.99459838867188
1773149349604975000,12.06097509765625,-27.838058471679688,109.18292236328125,-93.99436950683594
1773149349615065300,12.0710654296875,-27.563690185546875,109.0498046875,-93.86448669433594
1773149349625154300,12.081154296875,-27.5596923828125,109.05734252929688,-94.11154174804688
1773149349635242200,12.0912421875,-27.608627319335938,108.8934326171875,-93.83151245117188
1773149349645331500,12.10133154296875,-27.7960205078125,108.61231994628906,-93.66656494140625
1773149349655419400,12.11141943359375,-27.631698608398438,108.46514892578125,-93.77851867675781
1773149349665506300,12.12150634765625,-27.667587280273438,108.19528198242188,-93.71734619140625
1773149349675596300,12.13159619140625,-27.568405151367188,107.985107421875,-93.74549865722656
1773149349685684200,12.141684326171875,-27.30877685546875,107.889404296875,-93.73318481445312
1773149349695773400,12.1517734375,-27.55413818359375,107.37249755859375,-93.61746215820312
1773149349705862400,12.1618623046875,-27.132888793945312,107.4656982421875,-93.5758056640625
1773149349715950300,12.171950439453125,-27.641204833984375,107.32450866699219,-93.33869934082031
1773149349726040300,12.182040283203126,-27.065093994140625,107.06803894042969,-93.15019226074219
1773149349736130300,12.19213037109375,-27.39154052734375,106.78170776367188,-93.52490234375
1773149349746220300,12.20222021484375,-27.077743530273438,106.49787902832031,-93.52204895019531
1773149349756309200,12.212309326171875,-26.95379638671875,106.6256103515625,-93.17221069335938
1773149349766397200,12.222397216796875,-27.327392578125,106.17556762695312,-93.38923645019531
1773149349776487400,12.2324873046875,-26.940933227539062,105.98675537109375,-93.49481201171875
1773149349786573000,12.242572998046874,-27.251678466796875,105.72251892089844,-93.31083679199219
1773149349796661500,12.25266162109375,-27.125228881835938,105.68342590332031,-93.31793212890625
1773149349806748400,12.26274853515625,-26.809234619140625,105.35647583007812,-93.25057983398438
1773149349816836400,12.27283642578125,-27.026077270507812,105.20481872558594,-93.21728515625
1773149349826924300,12.28292431640625,-27.119583129882812,104.88938903808594,-93.26692199707031
1773149349837012200,12.29301220703125,-26.912353515625,104.92036437988281,-93.32670593261719
1773149349847100200,12.30310009765625,-27.077789306640625,104.44725036621094,-93.27482604980469
1773149349857188400,12.313188232421876,-26.9376220703125,104.3760986328125,-93.4166259765625
1773149349867277300,12.32327734375,-26.885208129882812,104.35202026367188,-93.45736694335938
1773149349877366300,12.3333662109375,-26.821456909179688,104.38127136230469,-93.39302062988281
1773149349887457300,12.343457275390625,-26.890182495117188,103.85969543457031,-93.26248168945312
1773149349897548300,12.35354833984375,-26.79705810546875,103.70765686035156,-93.29922485351562
1773149349907640300,12.363640380859374,-26.982376098632812,103.71690368652344,-93.36775207519531
1773149349917727200,12.373727294921874,-26.749649047851562,103.29600524902344,-93.32438659667969
1773149349927824400,12.383824462890624,-27.145599365234375,103.36077880859375,-93.52157592773438
1773149349937916200,12.393916259765625,-26.61553955078125,103.65653991699219,-93.48977661132812
1773149349948009200,12.40400927734375,-26.760757446289062,103.4049072265625,-93.28472900390625
1773149349958101200,12.414101318359375,-26.897262573242188,103.54415893554688,-93.5970458984375
1773149349968193300,12.424193359375,-26.860671997070312,103.53990173339844,-93.68412780761719
1773149349978286300,12.434286376953125,-26.749298095703125,103.69732666015625,-93.75851440429688
1773149349988377300,12.44437744140625,-27.048446655273438,103.59214782714844,-93.86875915527344
1773149349998468000,12.454468017578124,-26.666305541992188,103.74139404296875,-93.81840515136719
1773149350008559000,12.46455908203125,-26.913543701171875,103.87887573242188,-94.10377502441406
1773149350018650400,12.474650390625,-27.184158325195312,103.72480773925781,-94.11103820800781
1773149350028741400,12.484741455078124,-27.301040649414062,103.79312133789062,-94.32423400878906
1773149350038831400,12.494831298828124,-27.06317138671875,103.87968444824219,-94.44163513183594
1773149350048921300,12.50492138671875,-27.12896728515625,104.0042724609375,-94.4622802734375
1773149350059013400,12.515013427734376,-26.877792358398438,104.099853515625,-94.40745544433594
1773149350069104000,12.525104248046874,-27.187118530273438,104.30033874511719,-94.77322387695312
1773149350079195100,12.535195068359375,-27.412185668945312,104.405029296875,-94.91206359863281
1773149350089282300,12.5452822265625,-26.864181518554688,104.41569519042969,-94.85243225097656
1773149350099379200,12.555379150390625,-27.22528076171875,104.53819274902344,-95.19009399414062
1773149350109468200,12.56546826171875,-27.469100952148438,104.70359802246094,-95.31852722167969
1773149350119559200,12.57555908203125,-27.1837158203125,104.915771484375,-95.51284790039062
1773149350129649200,12.585649169921876,-27.599090576171875,105.10884094238281,-95.70234680175781
1773149350139739400,12.595739501953124,-27.549636840820312,105.44577026367188,-95.6768798828125
1773149350149830400,12.605830322265625,-27.667327880859375,105.64016723632812,-96.06776428222656
1773149350159919400,12.61591943359375,-27.532485961914062,105.83895874023438,-96.038330078125
1773149350170011400,12.626011474609374,-27.806533813476562,105.90782165527344,-96.17720031738281
1773149350180102400,12.636102294921875,-27.712860107421875,106.17672729492188,-96.30137634277344
1773149350190191400,12.64619140625,-27.568191528320312,106.22984313964844,-96.21414184570312
1773149350200282400,12.656282470703125,-27.956634521484375,106.58343505859375,-96.63417053222656
1773149350210373000,12.666373046875,-27.578216552734375,106.62440490722656,-96.65672302246094
1773149350220463400,12.67646337890625,-27.781936645507812,106.88203430175781,-96.83512878417969
1773149350230553300,12.68655322265625,-27.783187866210938,107.28364562988281,-96.904296875
1773149350240644000,12.69664404296875,-28.081405639648438,107.24868774414062,-96.85281372070312
1773149350250735400,12.7067353515625,-28.283905029296875,107.54658508300781,-97.01089477539062
1773149350260826400,12.716826416015625,-28.313522338867188,107.69081115722656,-97.044921875
1773149350270916000,12.726916015625,-27.75244140625,107.85920715332031,-97.33421325683594
1773149350281008000,12.737008056640626,-28.177825927734375,107.72755432128906,-97.27401733398438
1773149350291100200,12.74710009765625,-28.3673095703125,108.24139404296875,-97.58200073242188
1773149350301187300,12.757187255859375,-28.344757080078125,108.27365112304688,-97.60923767089844
1773149350311285200,12.76728515625,-28.155654907226562,108.05535888671875,-97.62945556640625
1773149350321373200,12.777373291015625,-28.223052978515625,108.53134155273438,-97.63639831542969
1773149350331470300,12.78747021484375,-28.01861572265625,108.69439697265625,-97.48809814453125
1773149350341563100,12.797563232421876,-28.490554809570312,108.70404052734375,-97.71974182128906
1773149350351654400,12.807654296875,-28.466033935546875,108.97714233398438,-97.99562072753906
