time,seconds_elapsed,z,y,x
1773522541509364000,0.079364013671875,0.7719692918807267,3.2273376606613398,-0.9837075241141021
1773522541519401700,0.089401611328125,1.876884005692601,3.204460058420896,-1.560297597888112
1773522541529440000,0.09943994140625,1.6947358789503573,2.8656515896752475,-1.8165454184554517
1773522541539477800,0.109477783203125,0.7583423330664635,1.8063193541258573,-1.0226103054169564
1773522541549515800,0.119515869140625,0.6764923173755407,1.0361990511126815,-0.381644753572531
1773522541559553800,0.1295537109375,0.04552198024690151,-0.426303942977637,-0.33996691806577145
1773522541569591800,0.139591796875,-0.6767027452558279,-1.8256446707122027,-0.25496461235638707
1773522541579629800,0.1496298828125,-1.278705931097269,-3.1056703061059117,0.4052458112493157
1773522541589666800,0.159666748046875,-1.2638497227489947,-3.15301628690958,0.6388980613879859
1773522541599704800,0.169704833984375,-1.425832428818941,-1.6556605906248092,0.28257311557624487
1773522541609742800,0.179742919921875,-1.2988222519308328,-0.0017135259196162222,-0.011268394723068922
1773522541619780900,0.18978076171875,-0.25540800874233244,0.9931459451973438,0.2610035637270659
1773522541629819000,0.19981884765625,0.6676508392721414,0.7519505862027406,0.441434547820501
1773522541639857000,0.20985693359375,1.24869599275887,-0.3724690385460853,0.44451640295125544
1773522541649894100,0.21989404296875,0.5276923334836959,-1.113196950597316,-0.036942879406735296
1773522541659932400,0.229932373046875,0.06585282061398029,-0.5083031578809023,-0.5962419189009815
1773522541669970200,0.23997021484375,0.2823229036748409,0.5975109889887273,-0.9591280133266001
1773522541680008400,0.250008544921875,0.471602197471261,0.7323737790733575,-1.0517544937714933
1773522541690045400,0.26004541015625,-0.6944488298267125,-0.07183189502358436,-0.45613136435598134
1773522541700083200,0.270083251953125,-2.2403338714808223,-1.1771101814508438,0.37831732618287206
1773522541710121500,0.28012158203125,-2.3098405384272334,-1.4689147608287632,0.4594728568036109
1773522541720159200,0.2901591796875,-1.5240496419429779,-1.011665059967339,0.46302974556758997
1773522541730197500,0.300197509765625,-0.6385393110781907,-0.5472147800773381,0.543453381717205
1773522541740235300,0.3102353515625,0.4521142376691103,-0.26645225758701563,0.49980859351903195
1773522541750273300,0.320273193359375,1.3397855459600687,0.1826331337802112,0.5166502765960991
1773522541760311300,0.330311279296875,1.0945891346305607,0.06484685844182968,-0.039654549518227576
1773522541770349300,0.340349365234375,-0.7243062079519033,-0.4701346091367304,-0.5083950739480555
1773522541780387300,0.35038720703125,-2.0901818884581327,-1.005527287864685,0.12964154830500482
1773522541790424300,0.36042431640625,-1.5417887122511862,-1.3631488858908414,0.8016833160124719
1773522541800462300,0.37046240234375,-0.9485948558092117,-1.4093817908860742,1.1394909371525048
1773522541810500400,0.380500244140625,-0.7913058605134486,-0.9310353798516094,1.3303075235188007
1773522541820538400,0.390538330078125,-1.390744164302945,-0.07122749938964844,1.532943434755504
1773522541830576400,0.400576416015625,-1.095181839826703,1.3827953972555695,1.6438766293287277
1773522541840614400,0.410614501953125,-0.4081774807870388,2.579422326211631,1.3252747900485993
1773522541850652200,0.420652099609375,1.4717279185533523,3.363326970557868,0.10114205106217414
1773522541860690400,0.4306904296875,3.8624434901595115,3.393729707606137,-1.1256696248099207
1773522541870728200,0.440728271484375,2.510863461509347,2.550289755229652,-2.632776315258443
1773522541880766500,0.450766357421875,1.3317249891012906,1.1894698968082666,-3.316415289518237
1773522541890803500,0.460803466796875,2.0635428878575564,0.44365036070644853,-3.325438261668384
1773522541900841200,0.47084130859375,2.2497043418943883,0.5286263994634152,-3.6120533095791933
1773522541910879500,0.48087939453125,0.6713701520562172,0.2649640648558736,-2.5489570453211665
1773522541920917200,0.490917236328125,-0.7370593065410852,0.27618352413699027,0.3322688378438353
1773522541930955500,0.50095556640625,0.3322895883709192,0.8928881661564111,2.1256575448565185
1773522541940993300,0.5109931640625,1.7263567596167324,-0.27551614626944065,2.503970194864273
1773522541951031300,0.52103125,0.8696668650448321,-3.1519618094205852,1.7283359507352112
1773522541961069300,0.5310693359375,0.12975450716018677,-3.4207986240565775,0.626752134911716
1773522541971107300,0.541107421875,-0.10261515582203865,-1.5240426276803016,-0.7137278230533003
1773522541981145300,0.551145263671875,-1.830827772438526,0.11305128270573914,-1.917408908304572
1773522541991183400,0.561183349609375,-2.7776906898885962,1.1660225318558513,-2.580344701753557
1773522542001220400,0.571220458984375,-3.122143009740114,0.8085198840342461,-1.7892536530345677
1773522542011258400,0.58125830078125,-3.5357968761116263,-0.823473707538098,1.1133721610337495
1773522542021296400,0.59129638671875,-3.7097289631724357,-1.2086752402767538,1.8851169965088366
1773522542031334400,0.60133447265625,-2.024266524001956,0.3389341409519315,0.30915655006468296
1773522542041372400,0.611372314453125,0.006901449951529502,1.5869453663170336,-0.8013239811807871
1773522542051410400,0.621410400390625,1.1313713435828685,1.9993721751116216,-1.5018191054344177
1773522542061448400,0.631448486328125,1.0803612873136996,0.595286590937525,-1.2580121026366948
1773522542071486200,0.641486328125,-0.9657084876954555,-1.0650802046168595,-1.0023018960773944
1773522542081524500,0.6515244140625,-0.42219548474550245,-0.22993344881124794,0.17122867332100866
1773522542091562200,0.661562255859375,2.5100433772981163,-0.7369407947279513,0.2571487149298191
1773522542101599200,0.67159912109375,5.729170843496918,-2.049669260805845,0.3479413310110569
1773522542111637200,0.68163720703125,3.824038063919544,0.19972535755224524,-0.5063724820792674
1773522542121675300,0.69167529296875,3.3387744208425283,1.1294281736258416,-2.2607634960472582
1773522542131713300,0.70171337890625,2.869772176736593,-0.4279113051090389,-2.88516439165771
1773522542141751300,0.711751220703125,2.8719857611328363,0.26124730935506524,-4.337810593122244
1773522542151789300,0.721789306640625,3.7554736462593077,1.1967900836285204,-5.405493016126751
1773522542161827300,0.731827392578125,3.197742732864618,1.1722292775414884,-5.255339279538393
1773522542171865300,0.741865234375,3.224219820901751,1.0953067813806234,-6.165664318186044
1773522542181903400,0.7519033203125,2.619738262248039,1.6547274014279245,-6.671895345968007
1773522542191941400,0.76194140625,1.858034928315878,1.8020812781646847,-7.015338196516036
1773522542201979400,0.7719794921875,1.4267770161926745,2.0240300848975776,-7.443088392779231
1773522542212016400,0.782016357421875,1.8146528827071189,2.430178982466459,-7.434773568898439
1773522542222054100,0.79205419921875,1.9741864420592783,2.8960978736042975,-6.416921636989712
1773522542232092400,0.802092529296875,1.6730705751091242,3.1261107443273066,-5.135372006899118
1773522542242130200,0.812130126953125,1.8777964443624018,2.942188009127974,-4.300418727838993
1773522542252168400,0.82216845703125,2.328532379415631,2.7916841439276934,-4.450660727232695
1773522542262206200,0.832206298828125,2.11732240884006,3.5443776574522254,-4.642181662476062
1773522542272244200,0.842244140625,2.122848478785157,4.634785707005858,-5.158024568212032
1773522542282282200,0.8522822265625,2.5112819791823626,5.558435506650805,-5.736699485436081
1773522542292320300,0.8623203125,2.654130361193418,6.358967460671066,-6.417571040809154
1773522542302358300,0.872358154296875,2.558568046492338,7.476874342525005,-6.571759732002019
1773522542312396300,0.882396240234375,1.9832775110095737,8.001395644757151,-6.188289406970143
1773522542322433300,0.892433349609375,1.1765186452984808,7.7868486387133595,-5.814789271810651
1773522542332471300,0.90247119140625,0.4152876050531864,7.622244936490058,-5.097147782444954
1773522542342509300,0.91250927734375,-0.45394554474949833,7.890164636281132,-4.144299945366383
1773522542352547300,0.92254736328125,-1.0575029742956161,8.421700785711407,-2.4494413168191906
1773522542362585300,0.93258544921875,-1.0697446162313222,8.605283329170941,-0.23745617246627806
1773522542372623400,0.942623291015625,-0.9511322653323412,8.810068819656967,1.7769547279536724
1773522542382661400,0.952661376953125,-0.12888240050077437,8.531454122850299,3.602445523278415
1773522542392699100,0.96269921875,0.4132949699312448,8.076062470945715,4.803831483329832
1773522542402737400,0.9727373046875,0.26535306417346,7.899015466734767,5.784105379733443
1773522542412775200,0.982775146484375,-0.06737140848338603,7.6257438845217225,6.738337364646792
1773522542422813400,0.9928134765625,-0.7547861018896103,7.784200170031189,7.0626862231463186
1773522542432850400,1.002850341796875,-1.7943308101683855,8.285852637851237,7.765114945811033
1773522542442888200,1.01288818359375,-2.445848260763287,8.060169320765137,8.06478879725933
1773522542452926500,1.022926513671875,-2.8653385782033203,8.195975967571139,8.195148869097233
1773522542462964200,1.032964111328125,-3.4119378567308187,7.62474084495902,8.553883981323242
1773522542473002500,1.04300244140625,-4.350106011071801,6.890431129387021,8.498742524337768
1773522542483040300,1.053040283203125,-5.344150366413593,6.640191463193297,8.747104706221819
1773522542493078300,1.063078369140625,-5.453709057763218,5.674513370636105,9.345574457240104
1773522542503116300,1.0731162109375,-5.63470626090467,4.7744139579266305,9.863058700442313
1773522542513154300,1.083154296875,-6.042042614692449,3.7863375710785387,10.1960245806396
1773522542523192300,1.0931923828125,-5.944402324673533,3.3184342281252146,9.730662738862634
1773522542533230300,1.103230224609375,-6.070633918404579,3.490351468232274,9.10277400113642
1773522542543268400,1.113268310546875,-6.518403404867649,3.0001819329351185,8.534595928007363
1773522542553305300,1.123305419921875,-6.794054575693607,2.091335150146484,7.8314593493342395
1773522542563343400,1.13334326171875,-7.030519399034977,1.6127742195785044,7.668639607918262
1773522542573381400,1.14338134765625,-7.037635368520021,1.4096464331716299,7.488775208199024
1773522542583419400,1.15341943359375,-7.066591413891315,1.4617752643376587,6.830619927024841
1773522542593457200,1.16345703125,-7.79367351629734,1.659013992705941,4.477932472778856
1773522542603495400,1.173495361328125,-9.505167637825013,0.6673392891049384,1.648969276292622
1773522542613533200,1.183533203125,-10.528159270709752,-0.6091010351479054,0.34456045640110966
1773522542623571500,1.193571533203125,-10.267134006607533,-0.9637702131092548,-1.056736958359182
1773522542633609200,1.203609130859375,-9.526478136879206,-1.29951724845767,-1.8733213447749613
1773522542643647500,1.2136474609375,-8.684311857700347,-1.2716063282251358,-2.8421690072789785
1773522542653685500,1.223685546875,-7.586504930067062,-0.8454460315018891,-2.6934353666216135
1773522542663722500,1.233722412109375,-6.509380724978446,-0.6525654983431101,-2.2256918904051184
1773522542673760800,1.2437607421875,-5.495478407478332,-0.43379882877767084,-1.7450287268608808
1773522542683798500,1.253798583984375,-4.8638300249576565,-0.453836239156127,-1.3956702225282787
1773522542693836500,1.26383642578125,-3.7221091367959973,-0.5456979457736015,-0.8714674847260117
1773522542703874600,1.27387451171875,-2.5131542027950284,-0.15487082823812962,-0.07387655259370804
1773522542713912600,1.28391259765625,-1.4566320562303066,-0.10158698181807994,0.8444099664524197
1773522542723950600,1.29395068359375,-0.8203320485115051,0.13671207121312617,1.575036901858449
1773522542733988600,1.303988525390625,-0.601457973048836,0.026072598889470097,2.0578841314435006
1773522542744026400,1.3140263671875,-0.841261439293623,-0.479966705712676,1.7924667698621748
1773522542754064600,1.324064697265625,-1.2048282094597815,-0.9240344150483608,1.7878502159774303
1773522542764102400,1.334102294921875,-1.1896996139109135,-1.154130872401595,1.0958078627705574
1773522542774140700,1.344140625,-0.9171289465088397,-1.4183049559235572,0.2702005042046308
1773522542784177700,1.354177734375,-0.9961233535729348,-1.987837366271019,0.8158698084056377
1773522542794215400,1.36421533203125,-0.9845416368506849,-1.660586356589198,0.6059276658087969
1773522542804253700,1.374253662109375,-0.9862848272562026,-2.4796143367648122,1.2539596123754977
1773522542814291500,1.38429150390625,-0.4098867689229548,-1.75168818475008,0.7028291201591491
1773522542824329700,1.394329833984375,0.2867324637454003,-1.6186241146504878,-0.48589901837110516
1773522542834367500,1.404367431640625,0.457183796018362,-2.394093523606658,-0.042837271207571026
1773522542844405800,1.41440576171875,-0.3022993776462972,-1.9877374130278824,-0.18088088328540325
1773522542854443500,1.424443603515625,-1.4124188204944133,-2.177080419710278,-0.682370269498229
1773522542864481500,1.4344814453125,-1.464527777916193,-1.8109405841857193,-2.1053432172328232
1773522542874519600,1.44451953125,-1.1515151369452477,-1.9019009580492972,-2.7483430148512125
1773522542884557600,1.4545576171875,-0.7685503502827137,-2.8295786980360744,-2.1456524312674996
1773522542894595600,1.464595703125,-0.27740707458257674,-2.752193260538578,-1.2228437586218117
1773522542904632600,1.474632568359375,1.2263269245624542,-1.5625105977624654,-2.038044873985648
1773522542914670600,1.484670654296875,2.2263667209267615,-2.1409341705739497,-1.9514543857693671
1773522542924708600,1.49470849609375,2.32707984251976,-1.9644857167780398,-2.5952678378582
1773522542934746600,1.50474658203125,2.3803934995561837,-0.9401596204191446,-3.016607582557201
1773522542944784600,1.51478466796875,2.1847850027382374,0.05780746132433414,-2.3029946180552243
1773522542954822700,1.52482275390625,1.4139257179260254,1.1331243247300387,-1.7307061869978904
1773522542964860400,1.5348603515625,0.7536030295848846,2.300553654643893,-2.0646412044882774
1773522542974898700,1.544898681640625,-0.40723822717554864,2.405145078974962,-2.2319021432220936
1773522542984936400,1.5549365234375,-1.6910130590349435,2.182223627817631,-2.2544763786017894
1773522542994974700,1.564974609375,-1.8668593091540038,0.983136007836461,-1.1326502774775027
1773522543005012500,1.575012451171875,-2.224065312116593,-0.28702187514603134,-0.21215572699308394
1773522543015050800,1.58505078125,-2.0856489212036133,-1.6406956612050532,-0.32064182067513464
1773522543025088500,1.595088623046875,-2.971087355875969,-0.9133920250028371,0.030092940446734426
1773522543035125500,1.60512548828125,-2.9447300948262214,-1.707246985477209,0.8090110285520553
1773522543045163500,1.61516357421875,-2.4500157557062803,-4.709883910349011,1.6697388003379106
1773522543055201500,1.625201416015625,-0.6831751561403274,-2.173377473539114,0.8431623044788837
1773522543065239600,1.635239501953125,1.1933066984921694,0.17377894232571123,0.8400567396789789
1773522543075277600,1.645277587890625,1.7804945925176143,1.2215741770774124,0.8700298531383276
1773522543085315600,1.655315673828125,2.925141012737155,1.9415473242610692,1.0993605868160723
1773522543095353600,1.665353515625,4.248897214916348,1.977208420228958,1.5419056166291236
1773522543105391600,1.6753916015625,5.060643805912137,1.7854016537815331,1.7035685892254113
1773522543115429600,1.6854296875,5.45536734636426,1.5782044259786605,1.1619593740701675
1773522543125467600,1.695467529296875,4.871193247202038,1.6420044057160614,0.2926712792098522
1773522543135505400,1.70550537109375,3.6086271345227954,1.6594962232649326,-0.6001964286804199
1773522543145543700,1.715543701171875,2.3911793897256253,1.0923609371870755,-1.059858597511053
1773522543155580400,1.725580322265625,1.1360241378247737,0.41137481552362437,-1.2735206374138592
1773522543165618400,1.735618408203125,0.05564078480973839,-0.24079437697827816,-1.4776421110332012
1773522543175656400,1.745656494140625,-0.7049477197483182,-0.2628676770985126,-1.8938000691801309
1773522543185694500,1.755694580078125,-1.044466674850881,0.011829554003477096,-2.0643279007554054
1773522543195732500,1.765732421875,-1.2798799433127044,1.5029396338969467,-3.0455238804399967
1773522543205770500,1.7757705078125,-1.9273171388566492,4.41264108543992,-4.669901444050669
1773522543215808500,1.78580859375,-3.416791141980886,5.581078715613484,-3.1286604288101194
1773522543225846500,1.795846435546875,-2.527721657329798,4.63950162961185,-0.8650964883893728
1773522543235884500,1.805884521484375,-1.760451921442151,4.253924103167653,0.3913362361013889
1773522543245922600,1.815922607421875,-1.3502566710919142,3.978274101385474,0.31843232793211934
1773522543255960600,1.825960693359375,-1.078034890192747,2.3223393699944017,-0.5808569374382495
1773522543265998600,1.83599853515625,-0.8621011059656739,1.2874550547420978,-1.4509662855535745
1773522543276036600,1.84603662109375,0.3516545063152909,1.351450264790654,-2.352877131599188
1773522543286074600,1.85607470703125,1.407440155299008,0.8535194478422403,-2.8787457567870613
1773522543296111600,1.866111572265625,0.6883566504314541,0.1681646095752716,-3.214576378765702
1773522543306149400,1.8761494140625,1.0121510899186135,-0.5568114604622125,-3.620031156590581
1773522543316187600,1.886187744140625,-0.11232406440973282,-1.066899163672328,-3.686020170804858
1773522543326225400,1.896225341796875,-1.7379367227733133,0.6231032570153474,-2.6578344764083623
1773522543336263400,1.906263427734375,-0.6526368100136518,0.3389233272969723,-2.239792604210973
1773522543346301400,1.916301513671875,1.0878533966347574,-2.2301661132097244,-1.3829624243855476
1773522543356339500,1.92633935546875,1.8491408432424068,-3.8749797311276195,-0.3856985224753618
1773522543366377500,1.93637744140625,1.0243161594867705,-3.3082273068875074,0.45642859373688693
1773522543376415500,1.94641552734375,0.7414177940115332,-2.956897502481937,1.0692723225444554
1773522543386453500,1.95645361328125,0.9983747857615352,-2.7913609033226967,1.3613286847263575
1773522543396491500,1.966491455078125,1.118095682424307,-2.8912434193104506,1.6792910570591688
1773522543406529500,1.976529541015625,-0.39261107834279535,-2.0480144793361426,1.8271335940957067
1773522543416567600,1.986567626953125,-2.0933657791912554,-0.6001297931849956,2.023824625453353
1773522543426605600,1.99660546875,-1.930835376110673,0.17146482016444206,2.559285839372873
1773522543436643600,2.0066435546875,-1.3027110760629177,0.12247837867736816,3.0143910755515098
1773522543446680600,2.0166806640625,-1.6153051993608474,-0.12306290056705474,3.309201704877615
1773522543456718300,2.02671826171875,-1.0434113205790518,-0.8593751881331205,3.0359754231110214
1773522543466756600,2.036756591796875,-0.2037277981266379,-1.411173788869381,2.59560335342288
1773522543476794400,2.04679443359375,0.6992033308774233,-2.877086883664131,1.2212658417806028
1773522543486832600,2.05683251953125,0.5475096713706851,-3.8601533333957194,0.46038785275667904
1773522543496870400,2.066870361328125,0.010705518409609795,-3.3939427658349275,0.7614405913427472
1773522543506908400,2.076908447265625,0.38108927511423824,-2.984723667040467,0.7224675943478942
1773522543516946400,2.086946533203125,1.0709104451403022,-2.826442738097906,0.636907033701241
1773522543526984400,2.096984375,1.208643091572821,-1.9385329448759554,0.709713034453988
1773522543537022500,2.1070224609375,0.921326032872498,-0.3326695275992155,1.0157242722302675
1773522543547060500,2.117060546875,1.0935504392325877,0.3240454916387796,1.4741612831801174
1773522543557098800,2.1270986328125,1.6394342629671095,-0.7994353909552097,1.8642472269594668
1773522543567136500,2.137136474609375,1.2780648567147552,-0.28269699768424034,2.0752514458298683
1773522543577174500,2.147174560546875,0.674952248326689,1.0496043300002813,2.1187609172105786
1773522543587211500,2.15721142578125,0.6804976074941456,2.0119132383853198,1.8786561299316584
1773522543597249500,2.16724951171875,0.6988432653933763,2.3597505245000123,1.211430530334264
1773522543607287600,2.17728759765625,0.7038743914283812,1.9881991853207348,0.5404837182566523
1773522543617325600,2.18732568359375,0.6496306139349937,2.4497142885416743,0.17600640911683438
1773522543627363300,2.19736328125,0.5970488513696939,2.9516327138215304,-0.20894626342728734
1773522543637401600,2.207401611328125,0.14099135596752166,3.260231630003452,-0.6374759196303784
1773522543647439400,2.217439453125,-0.7980692171685397,3.359237363156676,-0.986656144786626
1773522543657477000,2.22747705078125,-2.448281625390053,4.133917667561769,-1.4384431963279842
1773522543667515400,2.237515380859375,-3.670803312450647,4.743304533913731,-1.8619846888549625
1773522543677553200,2.24755322265625,-1.0753443359345196,3.3308699313282966,-1.85189511038661
1773522543687591400,2.25759130859375,-0.4299854079693556,1.417160462063551,-1.8876308790259062
1773522543697629200,2.267629150390625,-1.852562634384632,0.0927349823206663,-1.632333198790252
1773522543707667200,2.277667236328125,-2.314135020750761,-0.6178700325369835,-1.1687455270789564
1773522543717705200,2.287705322265625,-1.7081506563186644,-0.7555167542517185,-0.1344743752889335
1773522543727743200,2.2977431640625,-1.5898960328161715,-0.6724713912963867,0.5052244810879231
1773522543737781200,2.30778125,-1.3951315856069326,-0.8323737839609384,0.8498314069792627
1773522543747818200,2.317818359375,-1.5100772306919097,-1.5989596292376518,0.8032558260262012
1773522543757856300,2.327856201171875,-1.5142618229001759,-1.940844728949666,0.3749345518767834
1773522543767894300,2.337894287109375,-1.2181347772132605,-2.3889076454013582,0.23813041846603153
1773522543777932300,2.347932373046875,-1.0628688852429389,-2.691733238878846,0.4147420999996364
1773522543787970300,2.35797021484375,-1.4096668914377688,-2.7702731071084736,0.06909750162363051
1773522543798008300,2.36800830078125,-1.0738374385029077,-2.3069085766285657,0.13024667459130287
1773522543808046000,2.378046142578125,0.4088859213173389,-2.3680957435190675,0.2131861660193652
1773522543818084400,2.38808447265625,1.5808131471723317,-4.471721050918102,0.5451159081019461
1773522543828122000,2.3981220703125,0.4987888950824737,-6.268451907965541,0.6079333796080202
1773522543838160400,2.408160400390625,0.11508468822948634,-7.67386640265584,0.43912630741074676
1773522543848198100,2.4181982421875,0.19236315822117028,-7.0116066087722775,0.5315460497697815
1773522543858236400,2.428236328125,0.4045891374388709,-4.007849739959836,0.16366284117661414
1773522543868274200,2.438274169921875,1.1070108093082904,0.15258710121512412,-0.721928957426548
1773522543878312200,2.448312255859375,2.282677806213498,5.332546437859535,-1.920662211012095
1773522543888350200,2.45835009765625,3.588946282497048,10.017383000713586,-3.376945453804731
1773522543898388200,2.46838818359375,3.8546816239863633,12.419566891795396,-4.382314336237311
1773522543908426200,2.47842626953125,3.5028432855367657,12.127215930581093,-4.158653172628581
1773522543918463200,2.488463134765625,2.0016613089621065,9.811690916776657,-3.3625188690453767
1773522543928501200,2.498501220703125,-3.663329031047225,5.708331469085812,-3.0292107512816786
1773522543938539300,2.508539306640625,-6.154058051544427,1.4279519051909446,-2.2992124691680074
1773522543948577300,2.518577392578125,-3.86309873919785,-1.3313263451725244,-0.670622548559308
1773522543958615300,2.528615234375,-1.2689403238862753,-2.590336226674914,0.7794131781458854
1773522543968653300,2.5386533203125,0.47920153002645816,-3.082212565889954,1.4229904833912848
1773522543978691000,2.548691162109375,1.579917075115442,-3.252740397465229,1.4582318926423787
1773522543988729300,2.558729248046875,2.952511250221729,-3.237456903615594,1.0385478061959146
1773522543998767000,2.56876708984375,4.254052113461494,-2.995681114384532,0.057068041133880615
1773522544008805400,2.578805419921875,2.876234650748968,-1.8181407248228787,-0.5349290067389607
1773522544018843100,2.588843017578125,0.45470768822841345,-0.792607006239891,-0.23178601787537334
1773522544028881400,2.59888134765625,-1.5228022722303867,0.32937633127272126,0.09324117827713489
1773522544038919200,2.608919189453125,-2.6687831559240816,1.2322937240123748,0.1813248276606202
1773522544048957200,2.618957275390625,-2.5836264999032017,1.4657330620527267,0.06409837816208601
1773522544058995200,2.6289951171875,-2.0459902800321577,1.4026853619873523,-0.12381985641419886
1773522544069033200,2.639033203125,-1.3624234942257403,0.7721113306999207,-0.11691840646266936
1773522544079071200,2.6490712890625,-0.9625029696524142,0.1856622723430395,-0.05454086074382066
1773522544089109200,2.659109130859375,-0.8722551279723644,-0.23465046739578246,-0.06925561479479074
1773522544099147300,2.669147216796875,-1.008020858246088,-0.3705360246568918,-0.07168079611510038
1773522544109184300,2.679184326171875,-1.1451204674720763,-0.33770401463508604,-0.2012567318379879
1773522544119222300,2.68922216796875,-1.1127011299043894,-0.22784370999038217,-0.3971960680454969
1773522544129260300,2.69926025390625,-0.8745277490794658,-0.039823476344347,-0.5206923915937542
1773522544139298300,2.70929833984375,-0.4572632909953594,0.0143172791659832,-0.5543351334765553
1773522544149336000,2.719336181640625,0.05624445892446674,0.16133505581617355,-0.4768719545677304
1773522544159374300,2.729374267578125,0.3836982885688543,0.3436918568730354,-0.3533382216185331
1773522544169412000,2.739412109375,0.5740256301134824,0.30533377690613267,-0.1879021602243185
1773522544179450400,2.749450439453125,0.5947165359646082,0.036757074511051174,0.02169511445760727
1773522544189488000,2.759488037109375,0.5859621516227722,-0.2083358764439821,0.23635844035744666
1773522544199526400,2.7695263671875,0.6879419321507215,-0.15100070880651473,0.2962345246493816
1773522544209564200,2.779564208984375,0.7165361584722996,-0.07023731930851936,0.31831805390268564
1773522544219602200,2.789602294921875,0.6557178248941898,-0.12969313236176966,0.34345834037810563
1773522544229640200,2.79964013671875,0.5304489387154578,-0.10828910980522632,0.34334728121906516
1773522544239678200,2.80967822265625,0.3324257819712162,-0.11411971565485,0.3485407582089305
1773522544249716200,2.81971630859375,0.14883797781467437,-0.1254091714322567,0.27913609033226966
1773522544259754200,2.829754150390625,-0.007765976092685013,-0.09178338068425655,0.17083295200169085
1773522544269792300,2.839792236328125,-0.1093769233082421,-0.0776946495771408,0.08495762631744146
1773522544279830300,2.849830322265625,-0.2031061773632653,-0.10142916090786457,-0.0030479893937706945
1773522544289868000,2.859867919921875,-0.3196329358935356,-0.1241886897265911,-0.09775397952646017
1773522544299905300,2.8699052734375,-0.4239303091814741,-0.14047814574837683,-0.21962357865571974
1773522544309943300,2.879943359375,-0.5030337295779959,-0.12476502830982207,-0.3322767288893461
1773522544319981000,2.88998095703125,-0.5618226031551137,-0.07175356909036636,-0.41685003206431864
1773522544330019300,2.900019287109375,-0.5711457272956147,-0.03351473158895969,-0.4750485385328531
1773522544340057000,2.91005712890625,-0.5684358838150277,-0.035954525956511496,-0.48253071098178624
1773522544350095400,2.920095458984375,-0.5458593468803912,-0.07158055061101913,-0.44039895769506693
1773522544360133000,2.930133056640625,-0.5475111692080273,-0.08702712606787681,-0.36203503055423497
1773522544370171400,2.94017138671875,-0.528466240465641,-0.038547465059161186,-0.27860388315171003
1773522544380209200,2.950209228515625,-0.5438590764412656,0.037788755646347996,-0.20890344719886778
1773522544390247200,2.9602470703125,-0.5113199118861929,0.12984919970631598,-0.14475363111048936
1773522544400285200,2.97028515625,-0.4474094575116411,0.19609072737693786,-0.0818470930814743
1773522544410323200,2.9803232421875,-0.3945815381655469,0.21601941668391225,-0.058273909792304034
1773522544420361200,2.990361328125,-0.30853169616460796,0.21368951243162154,-0.05060878199189901
1773522544430399200,3.000399169921875,-0.20569672357942909,0.17911036648154258,-0.06783113494962453
1773522544440437200,3.010437255859375,-0.1109224174508825,0.12862228825986385,-0.13024988946169613
1773522544450475300,3.020475341796875,-0.0381330755719915,0.1070218663483858,-0.2335240937143564
1773522544460513000,3.030512939453125,0.0026607436418533323,0.06335691214501857,-0.32960721741914745
1773522544470551300,3.04055126953125,-0.0007388539348728954,0.03388590298891067,-0.4242047787413001
1773522544480589000,3.050589111328125,-0.029466917502880094,-0.014866145220398901,-0.5311439352422952
1773522544490627300,3.06062744140625,-0.0770586897611618,-0.029342998862266538,-0.632334026697278
1773522544500665000,3.0706650390625,-0.1338064311658032,0.0017038813084363936,-0.731069418476522
1773522544510703000,3.080703125,-0.17776600266788153,0.07413374222517014,-0.778337950129807
1773522544520740400,3.090740234375,-0.2003541935076937,0.17708090648055075,-0.7839829702794552
1773522544530778000,3.100778076171875,-0.2280769524906762,0.2298597259879112,-0.7326534727975725
1773522544540816400,3.11081640625,-0.2994003134702332,0.1555605640679598,-0.6509235763549804
1773522544550854100,3.120854248046875,-0.4143863088319078,0.019352935245633123,-0.5682254194021225
1773522544560892200,3.13089208984375,-0.48591421594023704,-0.09802256733477115,-0.49182665485441684
1773522544570930200,3.14093017578125,-0.3905004063317552,-0.11871990292668341,-0.4606725149169564
1773522544580968200,3.15096826171875,-0.22230306353066115,-0.1375958683103323,-0.3937003348842263
1773522544591006200,3.161006103515625,-0.0022831059684976936,-0.17161621133387087,-0.3519616725683212
1773522544601044200,3.171044189453125,0.17088499271618202,-0.1934001731187105,-0.23727029450535772
1773522544611082200,3.181082275390625,0.34914076992869375,-0.41235038255751133,-0.11169102720320224
1773522544621120300,3.191120361328125,0.7069032377302646,-0.6550327652394771,-0.04863134443908929
1773522544631158000,3.201157958984375,1.2625263651907443,-0.6554232258617878,-0.03524111699014902
1773522544641196300,3.2111962890625,1.6311831519722937,-0.5617500859081744,-0.05945230592191219
1773522544651233800,3.22123388671875,1.7099503992170095,-0.41916707683503623,-0.11451572923511266
1773522544661271800,3.231271728515625,1.4711907429367304,-0.3032762598544359,-0.098233579736948
1773522544671309800,3.241309814453125,1.118100943121314,-0.131678753221035,-0.05124269598126411
1773522544681347800,3.251347900390625,0.9423773695338516,0.09501929386556147,-0.10870791973918675
1773522544691386000,3.26138623046875,1.14972007022202,0.10484978300631045,-0.1276303546130657
1773522544701423900,3.271423828125,1.499655205398798,0.08912439060807227,-0.1697773054689169
1773522544711462100,3.281462158203125,1.8163959269821643,0.1455699159294367,-0.17365327011942863
1773522544721500000,3.2915,1.9035282669901847,0.2194809553146362,-0.13334201025813816
1773522544731538000,3.301537841796875,1.85467392745018,0.22526070775985715,-0.023305180002748966
1773522544741576000,3.311575927734375,1.7429567428924142,0.19450141235888002,0.11334610093384981
1773522544751614000,3.321614013671875,1.6135153933346271,0.16335282537937162,0.2674123347908258
1773522544761652000,3.33165185546875,1.5322795640192926,0.16596505370438097,0.38885698650628325
1773522544771689000,3.34168896484375,1.5280290669679641,0.20074352161884307,0.4429913122758269
1773522544781726700,3.351726806640625,1.5478082648016511,0.26006372559368607,0.45915305026471614
1773522544791765000,3.361764892578125,1.5536675122238695,0.3505494676828384,0.44677813733816146
1773522544801802800,3.371802734375,1.576224650338292,0.41151626982092854,0.46446109354496
1773522544811841000,3.381841064453125,1.5737690738797188,0.4443436036676168,0.5021887666538357
1773522544821878800,3.391878662109375,1.4948837532132864,0.5408464140892029,0.5134466582491993
1773522544831916800,3.401916748046875,1.3548480905354021,0.6126408997118473,0.5382981909111142
1773522544841955000,3.411955078125,1.102385633725673,0.8012859872579574,0.5183952205672859
1773522544851992800,3.421992919921875,0.869617253749445,0.9567045125067234,0.4906605336844921
1773522544862031000,3.432031005859375,0.7503834099512546,1.009589130476117,0.5107622414708137
1773522544872068900,3.44206884765625,0.6851952637910842,1.0806342590361833,0.5161173387631773
1773522544882107100,3.452107177734375,0.7483288885742425,1.0894178694725036,0.5749708020091057
1773522544892145000,3.462144775390625,0.7778998509734869,1.0588929673492908,0.6922402138665318
1773522544902183000,3.472182861328125,0.7516817061334848,0.8082821297556161,0.8320829843208193
1773522544912221000,3.482220947265625,0.6695172176659107,0.42135494226813314,0.8869169827923178
1773522544922259000,3.492259033203125,0.5816986489593983,0.12329495575726032,0.8949097351118922
1773522544932297000,3.502296875,0.4457201527178287,0.0025046762973070145,0.8853338052541017
1773522544942335000,3.5123349609375,0.3391641503155231,0.04538169499337673,0.8240820486947894
1773522544952373000,3.522373046875,0.21334464451670646,0.1155313360184431,0.6857061359226704
1773522544962411000,3.532410888671875,0.06363806717395783,0.10916823072731495,0.454306194755435
1773522544972448800,3.54244873046875,-0.04020458461642265,0.06417115113735199,0.11871318092495202
1773522544982487000,3.552487060546875,-0.013669647178519517,0.11143325304985045,-0.191002756588161
1773522544992524800,3.56252490234375,0.12163666715621947,0.2376712765216827,-0.3980342724353075
1773522545002563000,3.57256298828125,0.31858430362343787,0.34965748727917667,-0.5256307247787714
1773522545012600800,3.582600830078125,0.4816133038759231,0.3388186978787184,-0.5787780853375792
1773522545022638800,3.592638916015625,0.4780348608672619,0.24553718759119508,-0.5923644198805094
1773522545032676900,3.6026767578125,0.3593342471629381,0.25515432624220846,-0.6304436829060316
1773522545042715000,3.61271484375,0.23815814672317354,0.34401743556559083,-0.6392845764875411
1773522545052752100,3.622752197265625,0.22684242399334906,0.34694121405780315,-0.5700669556155801
1773522545062790000,3.632789794921875,0.34051731849014755,0.15599895548522472,-0.46585956216603513
1773522545072828000,3.642827880859375,0.6034066228985786,-0.15090250912904737,-0.40461628117412324
1773522545082866000,3.652865966796875,0.9818138923872262,-0.4025070339351892,-0.4142530013084411
1773522545092904000,3.662904052734375,1.3676099569529294,-0.5733534299403429,-0.5233960975944996
1773522545102942000,3.67294189453125,1.7972411446571348,-0.650519671729207,-0.7430988789662718
1773522545112980000,3.68297998046875,2.3356132775872944,-0.6326210269451141,-1.0152072626188398
1773522545123018000,3.69301806640625,2.871547954237461,-0.48883565634489057,-1.333712363526225
1773522545133056000,3.703055908203125,3.184874483463168,-0.19921908853054046,-1.6918436646401882
1773522545143093800,3.71309375,3.1717718407839537,0.023351064971089363,-2.080951703298092
1773522545153132000,3.723132080078125,2.8603824171006678,0.11733633961379528,-2.4251184842064974
1773522545163169800,3.733169677734375,2.3218267442971467,0.03609598025381565,-2.6621394801259037
1773522545173208000,3.7432080078125,1.5619558864891527,-0.1817985826522112,-2.661227625977993
1773522545183245800,3.753245849609375,0.9628267947793007,-0.161641929808259,-2.083535874572396
1773522545193283800,3.763283935546875,0.5696159969776868,-0.12631634940505027,-1.3345996677547693
1773522545203321900,3.77332177734375,0.1342413702506572,-0.17853636598587036,-0.6830281488850712
1773522545213359900,3.78335986328125,-0.44264666355662047,-0.1700426784068346,0.019016250637173653
1773522545223398000,3.79339794921875,-1.3958423642247915,0.21872049233615398,1.1894114446192978
1773522545233436000,3.803435791015625,-2.2292127580076455,0.7798544921725988,2.6604069572448727
1773522545243474000,3.813473876953125,-2.6989906626611946,1.0226830053269862,3.390172015124559
1773522545253512000,3.823511962890625,-3.0600264530450105,1.239164194303751,3.111609048505127
1773522545263549700,3.8335498046875,-2.969870381301641,1.4714900181442498,2.339213640166819
1773522545273588000,3.843587890625,-2.30594937620759,1.7018933494895696,1.839992491146922
1773522545283625700,3.853625732421875,-1.4490519763648508,1.5887176366865634,1.5734902569383382
1773522545293664000,3.8636640625,-0.7227818479288369,1.352132986357808,1.4275950545772909
1773522545303701800,3.87370166015625,-0.2172848335098475,1.2022639119297265,1.4069330825597046
1773522545313740000,3.883739990234375,-0.02538921973519027,1.1639900031149386,1.4963848054260014
1773522545323777800,3.89377783203125,-0.31466216174364087,1.2112006671011448,1.8467986640304326
1773522545333815800,3.90381591796875,-0.6535071631073951,1.1548767223328351,2.4348805842861534
1773522545343853800,3.913853759765625,-0.7977437846064567,0.8832359561920166,3.027978871399164
1773522545353891800,3.923891845703125,-0.6765723968744277,0.5810884081065655,3.5264515401393175
1773522545363930000,3.93393017578125,-0.5255617511957884,0.4151999267697334,3.780020643016696
1773522545373968000,3.9439677734375,-0.6859398716133087,0.390155501884222,3.77697236136198
1773522545384006100,3.954006103515625,-1.085203320517391,0.4716179795622825,3.675514851142466
1773522545394044000,3.9640439453125,-1.5202145938247442,0.6078957510113716,3.3745468682304023
1773522545404082000,3.97408203125,-1.6657050147771835,0.7577180636882781,3.0204493526771663
1773522545414119000,3.984118896484375,-1.5437264023154973,0.681609221997857,2.6541549111127853
1773522545424157000,3.994156982421875,-1.2256605696082115,0.5458692106872797,2.421855975279212
1773522545434194700,4.004194580078125,-0.9894559315729886,0.5101818112343549,2.2514587843462825
1773522545444233000,4.01423291015625,-1.0430530817259103,0.44718788718283176,1.9708891540795563
1773522545454270700,4.024270751953125,-1.436768833374977,0.3570072655200958,1.4055749459490179
1773522545464309000,4.03430908203125,-1.9630816951990127,0.26355390579700466,0.8149000865906476
1773522545474346800,4.0443466796875,-2.4067238725990054,0.09303016587495803,0.26506810975223777
1773522545484385000,4.054385009765625,-2.610979786252975,-0.048477907443046565,-0.20118775825500487
1773522545494423000,4.064423095703125,-2.481479546114802,-0.21314941420555114,-0.5609276636093855
1773522545504460800,4.074460693359375,-2.107044760453701,-0.305586874884367,-0.7688570050790906
1773522545514499000,4.0844990234375,-1.6060101322710514,-0.3233522486776113,-0.7516147783771157
1773522545524536800,4.094536865234375,-1.2046505148053168,-0.35413726304173465,-0.6110895786166191
1773522545534575000,4.1045751953125,-1.0231634092550723,-0.41731881861984726,-0.5162748674124479
1773522545544612900,4.11461279296875,-0.8793062155276536,-0.4500964681059122,-0.4930369074270129
1773522545554651100,4.124651123046875,-0.7570574078224599,-0.43985856720805167,-0.5747472223863005
1773522545564689000,4.13468896484375,-0.8141085708867758,-0.4128261833757162,-0.6776058315753937
1773522545574727000,4.144726806640625,-1.0200093291383237,-0.32832769900262354,-0.834478355024755
1773522545584765000,4.154764892578125,-1.2317962958842514,-0.1893301472008228,-1.0165075315624474
1773522545594803000,4.164802978515625,-1.410530960921198,-0.0468207878857851,-1.168896187596023
1773522545604841000,4.174841064453125,-1.576760072389245,-0.08686053732931613,-1.216979542763531
1773522545614879000,4.18487890625,-1.6906307817190884,-0.1790180120229721,-1.2410676898375153
1773522545624916700,4.194916748046875,-1.815299948439002,-0.2996978168457746,-1.2360489848926663
1773522545634955000,4.204955078125,-1.8949410559087991,-0.4517378055721521,-1.1539037856474519
1773522545644992800,4.21499267578125,-1.8209153041027486,-0.5765998645156621,-1.1299696600914
1773522545655031300,4.22503125,-1.5445838959276674,-0.5815723922312259,-0.9673094931513071
1773522545665069000,4.235069091796875,-1.2326214946620166,-0.6211790109544992,-0.7867366529017686
1773522545675107300,4.245107421875,-0.9294681305348873,-0.6953449018836021,-0.7388885677948593
1773522545685145000,4.25514501953125,-0.628854806279391,-0.9027753539204597,-0.8058367824301124
1773522545695183400,4.265183349609375,-0.19786825844347475,-0.9592097733259201,-0.6823319833144545
1773522545705221000,4.27522119140625,0.24854163010418415,-0.9925690220922231,-0.6905909853547811
1773522545715259100,4.285259033203125,0.705239103910327,-0.9058218820095062,-0.6162751645609736
1773522545725297200,4.295297119140625,1.0934097155876457,-0.7221458150476217,-0.3502151211619377
1773522545735335200,4.305335205078125,1.4084721286952495,-0.560158432802558,-0.350962432397902
1773522545745373200,4.315373291015625,1.327410340772569,-0.507848399850726,-0.2713654563307762
1773522545755411200,4.3254111328125,1.1206256392933427,-0.5800701709747315,-0.14891338113844393
1773522545765449000,4.335448974609375,0.7793909663140773,-0.6892787337124348,0.10752513969540595
1773522545775487200,4.3454873046875,0.4975352417595684,-0.8133201239228248,0.31632863365113734
1773522545785525000,4.35552490234375,0.2963794860780239,-0.8813502885758876,0.551062687677145
1773522545795563300,4.365563232421875,0.08330196806490421,-0.9497551317602395,0.6045362114503979
1773522545805601000,4.37560107421875,-0.04013794912099838,-1.1146551865816117,0.5886056518688798
1773522545815639300,4.385639404296875,-0.15714841778129338,-1.0513976431578398,0.6733239164724946
1773522545825677000,4.395677001953125,-0.3289215732425451,-0.9112322166204452,0.8278118828728794
1773522545835715000,4.405715087890625,-0.20596797826886176,-1.0741513267576694,0.827452694171667
1773522545845753000,4.415753173828125,-0.028598756366223096,-1.1573673701047897,1.0431073691964148
1773522545855791000,4.425791015625,-0.09884367445930838,-1.0608148753225803,1.1963716390207408
1773522545865829000,4.4358291015625,-0.3360911726109683,-0.9943366162866354,1.1637874662801622
1773522545875867100,4.4458671875,-0.634055443662405,-0.8077730111896991,1.0126067247316242
1773522545885905200,4.4559052734375,-1.0228916796416043,-0.49354573373198507,0.9969789474889635
1773522545895943200,4.465943115234375,-1.4026267636679113,-0.3200941236644983,1.0309683108523486
1773522545905981200,4.475981201171875,-1.8159252407304942,-0.3460316979974508,0.9904837402507662
1773522545916019200,4.486019287109375,-2.1316899568885566,-0.6542506749510765,0.9927467167466878
1773522545926057200,4.49605712890625,-2.4569950931996107,-0.9995248325794934,0.9504454521119594
1773522545936095200,4.50609521484375,-2.767172218483686,-1.1199684905588627,0.7736825255393982
1773522545946133200,4.51613330078125,-3.069689768925309,-1.0234060589045286,0.6110512924328446
1773522545956171300,4.526171142578125,-3.3995302105784413,-0.7627724244683981,0.5427627691045404
1773522545966209300,4.536209228515625,-3.5049972487002607,-0.41035891647934913,0.5576294988468289
1773522545976247000,4.5462470703125,-3.3940263524651524,0.14486848966181276,0.6392673330917954
1773522545986285300,4.556285400390625,-3.4330203922480345,1.0585749874413013,0.47995823014527556
1773522545996323000,4.566322998046875,-3.1784546795487403,2.14858030141294,0.0698433515548706
1773522546006360000,4.576360107421875,-2.0643232245802876,2.617651519101858,-0.28199732498228547
1773522546016398000,4.586398193359375,-0.010118658432364463,2.3499060068339106,-0.5027972539409995
1773522546026436000,4.59643603515625,2.185285353475809,1.4974854601442813,-0.455893171685934
1773522546036474000,4.60647412109375,3.488129700529575,0.5963426758617162,0.05153437240421772
1773522546046512000,4.61651220703125,3.3707840085655447,-0.31634967643916606,0.4115954725369811
1773522546056550100,4.626550048828125,2.186077965158224,-1.107865964832902,0.3206862443387508
1773522546066588200,4.636588134765625,0.36350057306215167,-1.4695803851306437,-0.22974545195847748
1773522546076626200,4.646626220703125,-0.9455391215004026,-1.0286498047769068,-1.1850310375779867
1773522546086664200,4.656664306640625,-1.64443134060204,-0.08542261348068714,-2.3509207368344067
1773522546096702200,4.6667021484375,-1.6701824524521827,0.9466215099096298,-3.270610692937672
1773522546106740200,4.676740234375,-0.7375322578150778,1.9380495452731847,-3.9381174475640055
1773522546116778200,4.6867783203125,0.9773258602529764,2.6175492277711627,-4.005468690042197
1773522546126816300,4.696816162109375,2.7162878344208,2.8652544070512054,-3.506920033456385
1773522546136854300,4.706854248046875,3.6508155864328145,2.7071938428610562,-2.9247274635002016
1773522546146892000,4.71689208984375,3.8126433942019937,1.85875856641531,-1.891043171687424
1773522546156930300,4.726930419921875,3.3084301359832287,0.8920096297562122,-0.3205149794250727
1773522546166968000,4.736968017578125,1.9778993251025676,0.5061205531448125,1.3601461969435213
1773522546177006300,4.74700634765625,0.16392273422181605,0.19734511135220525,2.714786197686195
1773522546187044000,4.757044189453125,-1.4681301863223313,-0.35372985128462314,3.6380949288085103
1773522546197082000,4.76708203125,-2.1258160964190957,-0.9741863931834697,4.191227116236091
1773522546207120100,4.7771201171875,-1.6590560782819985,-1.268528820475936,4.448677736721932
1773522546217158100,4.787158203125,-0.4505751915335655,-1.011955859607458,4.375644941475987
1773522546227196200,4.797196044921875,0.9245569776177406,-0.1423310801386833,4.090665385812521
1773522546237234200,4.807234130859375,1.9762065497100352,0.968674936285615,3.615361995735764
1773522546247272200,4.817272216796875,2.353179913938045,1.8819769449174404,3.1541049589291212
1773522546257310200,4.827310302734375,2.0080138928592204,2.456406479656696,2.870409597857296
1773522546267348000,4.837347900390625,1.2466367221415042,2.678443549194932,2.732964536194503
1773522546277386200,4.84738623046875,0.6591466302990913,2.326678860503435,2.4673706490024925
1773522546287424000,4.857424072265625,0.4791968903839588,1.3309732939511536,2.046532131823897
1773522546297462300,4.867462158203125,0.6485095009505748,0.7012994263738394,1.7819158574923872
1773522546307500000,4.8775,0.9005670302212238,0.7332669285207987,1.5177201466605066
1773522546317538300,4.887538330078125,1.025962173128128,0.9314625192224979,1.1481167266786099
1773522546327576000,4.897576171875,1.0910463474571703,0.8764829748004674,0.7815037206843495
1773522546337614000,4.907614013671875,1.0120086127080024,0.5647708950340747,0.44782852317392824
1773522546347652000,4.917652099609375,0.6314660116910934,0.15453297458589077,0.15235650732964276
1773522546357690000,4.927690185546875,-0.10585698728747665,-0.14277940842807293,-0.09713526310622692
1773522546367728000,4.93772802734375,-0.8519464994370937,-0.26953181116282937,-0.23152561337351799
1773522546377766100,4.94776611328125,-1.118162317919731,-0.3323690833479166,-0.27467355796545745
1773522546387804200,4.95780419921875,-1.0880666009940205,-0.2249760455995798,-0.3254854613140225
1773522546397842200,4.96784228515625,-0.9881658186972141,-0.05868892033398151,-0.4258250734195113
1773522546407880200,4.977880126953125,-0.9323030616998672,0.06230886439681053,-0.4038628324583173
1773522546417918200,4.987918212890625,-0.7430535785198211,0.5165753116637468,-0.09571429039239883
1773522546427956200,4.997956298828125,-0.6073905049029737,0.9105442343562841,0.4426230634853244
1773522546437994200,5.007994140625,-0.7120716533441096,1.1264064146518706,0.8436851593092084
1773522546448032300,5.0180322265625,-0.9134417824286967,0.9908780002653598,1.0788690029293297
1773522546458070300,5.0280703125,-0.8953402354836464,0.8377601531744003,1.199750760065019
1773522546468108300,5.0381083984375,-0.7717255462527275,0.8170037808716296,1.1827628003850579
1773522546478146000,5.04814599609375,-0.6711022949002683,0.7991741096705198,1.0417615075454116
1773522546488184300,5.058184326171875,-0.6456979506611824,0.7774234656333923,0.8530968385159969
1773522546498222000,5.06822216796875,-0.6940085387133061,0.6991635833889246,0.5966857902109622
1773522546508260400,5.07826025390625,-0.6898669088639319,0.5770972926437854,0.318470321854949
1773522546518298000,5.088298095703125,-0.626572613626346,0.4391173934519291,0.012765373548865318
1773522546528336100,5.098336181640625,-0.5481808486305176,0.37824996003508565,-0.30952479885518547
1773522546538374100,5.1083740234375,-0.544716971912235,0.45054830352663994,-0.6596548720821738
1773522546548412200,5.118412109375,-0.5423040655516088,0.7615572034597397,-1.0538631564885377
1773522546558450200,5.1284501953125,-0.5653507407486439,1.3271581195771693,-1.5231868876338004
1773522546568488200,5.13848828125,-0.6508640281874686,1.8310498907566068,-2.081310891999304
1773522546578526200,5.148526123046875,-0.866063872116804,2.0258727901548146,-2.706507614162564
1773522546588564200,5.158564208984375,-1.2663105599045752,1.8460037142604588,-3.343502618408203
1773522546598602000,5.16860205078125,-1.8296200040839612,1.6244570585876703,-4.097129613390565
1773522546608640300,5.17864013671875,-2.49360662176013,1.59351714592278,-4.857619187618792
1773522546618678000,5.188677978515625,-2.948382187592983,1.65435359967947,-5.308053801637888
1773522546628716300,5.19871630859375,-2.906017210072279,1.481717397648096,-5.054733705085516
1773522546638754000,5.208754150390625,-2.487999887794256,0.9508984565764665,-4.023257736971974
1773522546648792800,5.218792724609375,-2.0804338169038297,0.5478776279002427,-2.804040352153778
1773522546658830600,5.22883056640625,-1.9465227745860814,0.4392646929681301,-1.712844074831903
1773522546668868900,5.238868896484375,-2.159967956867814,0.7289993342041969,-0.7167164834752678
1773522546678906600,5.24890673828125,-2.831688822057843,1.2555419131308794,0.26625410466641186
1773522546688945000,5.25894482421875,-3.5336773997396227,1.8320768957167863,1.2204650467917322
1773522546698982700,5.268982666015625,-3.404562359526753,2.136404710450768,2.0406293375208975
1773522546709020700,5.279020751953125,-3.1050404837697743,2.2547651324152946,2.5694436607718467
1773522546719058700,5.28905859375,-1.8538541354998945,2.430333880767226,2.7097312523841857
1773522546729096700,5.2990966796875,0.8894082150861621,2.0444974111258984,2.471056644038856
1773522546739134700,5.309134765625,4.157754177962243,1.4550333888620137,2.2983295488536357
1773522546749172700,5.3191728515625,7.244485974842309,0.7289706926316022,1.9582368855163454
1773522546759210500,5.32921044921875,8.738702788579463,0.08304185582399368,1.7876608308851718
1773522546769248800,5.339248779296875,7.922587480980157,-0.5035831436216831,1.7819956447303293
1773522546779286500,5.34928662109375,5.7719017317205665,-1.0621142674833535,2.030346136176586
1773522546789324800,5.35932470703125,3.8734842318728564,-1.1730600292772053,2.311663662201166
1773522546799362600,5.369362548828125,3.0332690867617726,-0.7763432691812515,2.2638813358068464
1773522546809400800,5.37940087890625,2.520159989903867,-0.2593558695852756,1.8346560985550284
1773522546819438600,5.3894384765625,1.790799128910899,0.08205810548365115,1.2971131099253892
1773522546829476600,5.3994765625,0.966082581704855,0.3272755596011877,0.8830836882397531
1773522546839514600,5.4095146484375,0.3914914266631007,0.349050753557682,0.7787275339692831
1773522546849552600,5.419552734375,0.3766296653568744,0.0011649521261453627,0.9226523130401968
1773522546859590700,5.429590576171875,0.8185843280613422,-0.5342693737864495,1.130697097583115
1773522546869628700,5.439628662109375,1.6413509102433919,-1.0050298597365617,1.3232839084923267
1773522546879666700,5.449666748046875,2.4828952581316233,-1.334963824892044,1.4573323134541512
1773522546889704700,5.45970458984375,3.139291712939739,-1.5950521004050968,1.481254748572409
1773522546899742700,5.46974267578125,3.363494143818319,-2.0410078154444693,1.4735133406654
1773522546909780700,5.47978076171875,3.3279192648291587,-3.0797932297885415,1.4548177002847194
1773522546919818800,5.48981884765625,3.193773536972701,-4.172636982056498,1.4945555441722274
1773522546929856800,5.499856689453125,2.94859378451705,-4.901196171277761,1.527648835478723
1773522546939894800,5.509894775390625,2.620824303919077,-5.317249500006437,1.5229741216659545
1773522546949932800,5.519932861328125,2.252462700691819,-5.274028782439231,1.4370660627558827
1773522546959970800,5.529970703125,1.8807552941679953,-4.836346390226483,1.2747478411212563
1773522546970008600,5.540008544921875,1.4581123579159379,-4.118521945509315,1.0348194333225489
1773522546980046800,5.550046875,1.0136968580558896,-3.1960429432094095,0.6804635590940713
1773522546990084600,5.560084716796875,0.6656418375372887,-2.0959557956844566,0.3101344551861286
1773522547000123000,5.570122802734375,0.3341317091062665,-0.7729179709076881,0.057471945759654045
1773522547010160600,5.58016064453125,-0.3790940096437931,0.7014648460686207,-0.11166823084950446
1773522547020198700,5.59019873046875,-1.8386859385930001,2.3192291290193796,-0.21342004784047602
1773522547030237700,5.60023779296875,-3.4957097803950306,3.973157196763158,-0.3867591374441981
1773522547040274700,5.610274658203125,-4.443143191209435,5.224295321977138,-0.6827689134269952
1773522547050313700,5.620313720703125,-4.494239756718278,5.246868972834944,-0.7872720749527216
1773522547060351500,5.6303515625,-3.866938463491201,3.7953538212269544,-0.43746202746033663
1773522547070389800,5.6403896484375,-3.011950696662068,2.373026185658574,-0.146069097623229
1773522547080427500,5.650427490234375,-2.031446790894866,1.5368167690575123,-0.28432547566890715
1773522547090465800,5.6604658203125,-0.891760038909316,0.8317465919733047,-0.5879471879601478
1773522547100503800,5.67050390625,0.276325855217129,0.042616906455159184,-0.96739717143476
1773522547110541600,5.68054150390625,1.089796493526548,-0.5776736312270164,-1.3781734365433453
1773522547120579800,5.690579833984375,1.7470698772996662,-0.9731336692601442,-1.788010959497094
1773522547130617600,5.70061767578125,2.2934956989564,-1.1433166329205036,-2.3695883201643824
1773522547140655900,5.71065576171875,1.7264831624753771,-0.8118652489393949,-3.330937443606555
1773522547150693600,5.720693603515625,-1.0123865061096846,-0.16881109078526496,-4.990808053141832
1773522547160732000,5.73073193359375,-4.586026060011982,0.4012631713539362,-6.762658151432872
1773522547170769700,5.740769775390625,-5.535198423448205,0.38635318699181076,-7.555449282068014
1773522547180807700,5.7508076171875,-4.2616666801184415,0.07169687046706676,-7.61394414113462
1773522547190845700,5.760845703125,-2.6393074705928563,0.17135960622429847,-6.675044749909639
1773522547200883700,5.7708837890625,-0.30381679647192356,0.43790684861838813,-4.679557161146402
1773522547210921700,5.780921630859375,2.709858678156137,0.08495207335948944,-2.407929741257429
1773522547220959700,5.790959716796875,4.474075505089759,-0.7867658789962529,-0.9311573987960815
1773522547230997800,5.800997802734375,3.848176772136986,-1.9362895498633383,0.08428981005847454
1773522547241035800,5.811035888671875,2.1673794021680948,-2.8904285957962275,1.1141589274972676
1773522547251073500,5.821073486328125,1.549571182820946,-2.7293472224801776,2.2060452329099176
1773522547261111800,5.83111181640625,2.337331771942973,-1.3618582615584134,2.705391177353263
1773522547271149600,5.841149658203125,2.764867448672652,-0.1295733053743839,2.0347651216626166
1773522547281187800,5.851187744140625,1.8051444651275872,0.45067339121103284,0.579283989033103
1773522547291225600,5.8612255859375,-0.17984131110459564,0.6119879887610673,-0.4757447041034698
1773522547301264000,5.871263916015625,-1.1028311855360864,1.2995365376800299,0.2477054715409875
1773522547311301600,5.881301513671875,0.6945160498440265,2.046215320959687,2.3102570102736353
1773522547321339600,5.891339599609375,2.7959254347592593,2.235935344260931,3.785049869355559
1773522547331377700,5.901377685546875,3.0180630420625207,2.0434920334756375,4.278131492707133
1773522547341415700,5.911415771484375,1.9081185173898934,1.7155097869098186,3.8929160775735974
1773522547351453700,5.92145361328125,0.784509332241118,1.276904434633255,2.8099215191468594
1773522547361491700,5.93149169921875,-0.27721213653236626,0.9697498720407486,1.5726394853278993
1773522547371529700,5.94152978515625,-1.2853478533297777,1.07952132935822,0.6958662954092025
1773522547381567700,5.951567626953125,-0.769559308129549,1.4659031579226254,0.1165790915057063
1773522547391605500,5.96160546875,0.8150415408879518,1.6914461897552013,-0.2152209597826004
1773522547401643800,5.971643798828125,2.007888512913883,1.4544126266151667,-0.4856257543876767
1773522547411681500,5.981681640625,2.5012539216428995,0.8228180201083422,-0.5698454218193888
1773522547421719800,5.9917197265625,2.141752501219511,0.04827800095677375,-0.27423195167779923
1773522547431757600,6.001757568359375,1.489703427965939,-0.398734529659152,0.1439721253439784
1773522547441795600,6.011795654296875,0.9815522457763552,-0.45474283260703086,0.4165998566955328
1773522547451833600,6.02183349609375,0.3800608088493347,-0.4792109189093113,0.6954422247782349
1773522547461871600,6.03187158203125,-0.05322656327486038,-0.5082318462103605,1.0647025304108857
1773522547471910000,6.041909912109375,0.047563130685687065,-0.2018698953002691,1.4823358218073843
1773522547481947600,6.05194775390625,0.36337563150823116,0.25792495999932286,1.5950436248376965
1773522547491986000,6.06198583984375,0.5686585501223802,0.6297942790865898,1.1467618049383164
1773522547502023700,6.072023681640625,0.506869325685501,1.1307651943832635,0.6462661059379577
1773522547512061700,6.082061767578125,0.3604395780563354,1.5655278997570274,0.6325219504848122
1773522547522099700,6.092099609375,0.42827685048580166,1.544987800553441,0.6766504305467009
1773522547532137700,6.1021376953125,0.5898042140036821,1.1690274127602576,0.7067433709934353
1773522547542175700,6.11217578125,0.004561024305224418,0.982302479621768,0.5894190140783786
1773522547552213800,6.1222138671875,-0.9951251363158226,0.32452889124155043,0.6626113838002086
1773522547562251800,6.132251708984375,-1.0532961702555417,0.22585341295599937,1.0057292401775717
1773522547572289800,6.142289794921875,-0.49002457386851306,0.33123803349137304,1.0289826899930834
1773522547582327600,6.15232763671875,0.057445642274618146,0.0046808512926101685,0.9649632222861051
1773522547592365800,6.16236572265625,-0.036512159839272494,-0.35995091775655746,0.9815870248287916
1773522547602403600,6.172403564453125,-0.4393780902147293,-0.43239130006730553,1.1746344389870762
1773522547612441900,6.18244189453125,-0.9020265813797712,-0.09011398616731166,1.4333470422327517
1773522547622479600,6.192479736328125,-1.0200006343752146,0.39907822853028774,1.4234382271587849
1773522547632518000,6.202517822265625,-0.5962579201877117,0.8705681977987288,1.0245528908520936
1773522547642555600,6.2125556640625,-0.5199146852195262,1.156409923249483,0.6044210606381297
1773522547652597000,6.222596923828125,-0.763171652919054,0.38282384382188317,0.4235007221251726
1773522547662635000,6.232635009765625,-0.8326923483908176,0.5616255827456712,0.4799772271066904
1773522547672673000,6.242673095703125,-0.9895885449767112,0.7704816836714744,0.4865338091433048
1773522547682711000,6.2527109375,-0.9691256026625633,0.6757564043164253,0.63020402893126
1773522547692749000,6.2627490234375,-0.34443536871671676,0.5655792888075113,0.5109560104772448
1773522547702788000,6.2727880859375,0.2843874349892139,0.7688187188953161,0.22448007877618073
1773522547712826000,6.282826171875,0.044316111588478084,0.9373720355272293,-0.3366641501933336
1773522547722864000,6.292864013671875,-0.30139643745720385,0.28983342543542384,-0.8392018764153122
1773522547732902100,6.302902099609375,-0.05449380673170089,-0.32788696949779983,-0.8861664566859603
1773522547742940000,6.31293994140625,0.11074702435135841,0.4010059817224741,-0.5079746565788984
1773522547752978200,6.322978271484375,0.07770867810249328,0.8798691101074219,-0.32485096280276776
1773522547763016000,6.333015869140625,-0.040047932749986644,1.0300509037464856,-0.3052425914913416
1773522547773054200,6.34305419921875,0.0377799878180027,0.9987024102807044,-0.291149768730998
1773522547783092000,6.353092041015625,-0.29008535436987876,0.9443617482841015,-0.01795183627605438
1773522547793130000,6.3631298828125,-0.37043899402320385,0.8341267651081085,0.29568448955118654
1773522547803168000,6.37316796875,-0.16309154409468174,0.6018143852710723,0.36877369115948677
1773522547813206000,6.3832060546875,-0.16931377961039543,0.4246235886752605,0.269560452735424
1773522547823244000,6.393244140625,-0.3973714246124029,0.40765024204254147,0.1929822399675846
1773522547833282000,6.403281982421875,-0.2683160056322813,0.3365677040815353,0.04117781356275081
1773522547843320000,6.413320068359375,-0.1581482424736023,0.30256840384602546,-0.040056700578331945
1773522547853358000,6.423358154296875,-0.2958662758588791,0.15739420923590658,-0.02366962940096855
1773522547863395800,6.433395751953125,-0.3520516889393329,0.020792028138041495,0.20666063670814036
1773522547873434000,6.44343408203125,-0.24486791002750397,0.0021130466312170026,0.3398889574587345
1773522547883472000,6.453471923828125,-0.3387128994166851,0.03882335939109325,0.41683249640762804
1773522547893510100,6.46351025390625,-0.2409182956188917,-0.2986632131010294,0.202737325784564
1773522547903548000,6.4735478515625,-0.029016835647821426,-0.28792145433425903,-0.06681377460062503
1773522547913586200,6.483586181640625,-0.012613397857546806,-0.4041887034118175,-0.4125771770507097
1773522547923624000,6.4936240234375,0.14711013110876084,-0.5829536174565554,-0.6844587662100792
1773522547933662000,6.503661865234375,0.5129448462069034,-0.6029366672992706,-0.812963565570116
1773522547943700000,6.513699951171875,0.5347539424329996,-0.6122177058637142,-0.8221732924640178
1773522547953738000,6.523738037109375,0.5668278275638818,-0.6148170747071504,-0.9591285247832536
1773522547963776000,6.53377587890625,0.34194296737909313,-0.6581365764737129,-1.1745704338401555
1773522547973814000,6.54381396484375,0.23372224663496016,-0.6022714813888073,-1.313005091062188
1773522547983852000,6.55385205078125,0.2439338440477848,-0.45995326073169707,-1.3913105660140515
1773522547993890000,6.56389013671875,0.2684106981784105,-0.30469489448070525,-1.3617068703889845
1773522548003928000,6.573927978515625,0.2624012286305427,-0.19564999787211418,-1.1346014115452765
1773522548013966000,6.583966064453125,0.3156511727809906,-0.11187222898900508,-0.7646107458114624
1773522548024004000,6.594004150390625,0.41508828308880324,-0.007771803045272827,-0.33585692546367646
1773522548034042000,6.6040419921875,0.3162409553676844,0.09516776242554187,0.05343816019892692
1773522548044080000,6.614080078125,0.12120821261107921,0.0012678279787302017,0.2696007847458124
1773522548054118000,6.624117919921875,0.15851415317654607,-0.27958091149032116,0.2861059293448925
1773522548064156200,6.63415625,0.14024784412384034,-0.45336160738170145,0.24858313115835187
1773522548074194000,6.64419384765625,0.2333972524642944,-0.5696849705606699,0.2573831082075834
1773522548084232200,6.654232177734375,0.3476099070996046,-0.7501952669680119,0.2002244661808014
1773522548094270000,6.66427001953125,0.02075520325899124,-0.83774203299582,0.0602665449142456
1773522548104308200,6.67430810546875,-0.3807312554568052,-0.6378033980190754,-0.058280339533090586
1773522548114346000,6.684345947265625,-0.6168558870583772,-0.27769407483041286,-0.11212415792346
1773522548124384000,6.694384033203125,-0.7358312260508537,0.06429390073418617,-0.24623510672748086
1773522548134422000,6.704422119140625,-0.35536242092251774,0.18539163870811462,-0.3714771048992872
1773522548144460000,6.7144599609375,-0.147369074305892,-0.05278817185759544,-0.21069676035642623
1773522548154499000,6.7244990234375,-0.16788520811200142,-0.5120002588331699,-0.02269055523574352
1773522548164536800,6.734536865234375,-0.24219781403541563,-0.8687865750789642,0.18116028474867343
1773522548174575000,6.7445751953125,-0.4807394436508417,-0.8320347612649202,0.4401087425768375
1773522548184612900,6.75461279296875,-0.7881564565718173,-0.46529637532532214,0.4098340158224106
1773522548194651100,6.764651123046875,-0.7722557076066732,-0.0007236380994319916,0.034659225448966026
1773522548204689200,6.774689208984375,-0.5164344418883323,0.23777415237426758,-0.3303808321401477
1773522548214727000,6.784726806640625,-0.5747317325562238,0.2318079374462366,-0.4171089752614498
1773522548224765200,6.79476513671875,-0.5858242044568062,0.21125439423918724,-0.23315759848952292
1773522548234803000,6.804802978515625,-0.4256254591941833,0.09415829312205314,-0.09595949732512235
1773522548244841200,6.81484130859375,-0.08901566953659057,0.07282675127983093,0.019259119482338428
1773522548254879000,6.82487890625,-0.17583996650874614,0.21132745947539805,0.13103577914237977
1773522548264917200,6.834917236328125,-0.39894203492999075,0.33617022919654843,0.09301467604488134
1773522548274955000,6.844955078125,-0.2938379849016666,0.2996966478019953,-0.10454963101595639
1773522548284993000,6.854992919921875,-0.16485153950452805,0.2336240469574928,-0.22037994998097418
1773522548295031000,6.865031005859375,-0.17647534180283544,0.39093759217262264,0.07688157962858677
1773522548305069000,6.875069091796875,-0.2605985631227493,0.47605742331445217,0.3370551953375339
1773522548315107000,6.885107177734375,0.01763385636806488,0.49463995870947836,0.48900750578045843
1773522548325145000,6.89514501953125,0.23296003009080885,0.6364923154205083,0.7565870138317347
1773522548335183000,6.90518310546875,0.4528974970012903,0.6824234609901905,0.8279068676799535
1773522548345221000,6.91522119140625,0.6508885050415992,0.6764478937119245,0.8314484858095645
1773522548355259000,6.9252587890625,0.7405424724817276,0.7347089440226554,0.9213812701910734
1773522548365297200,6.935297119140625,0.9256722453832625,0.875071938958764,1.0108622191518544
1773522548375335000,6.9453349609375,0.8747177186936139,0.917711641767621,1.0627134024202822
1773522548385373200,6.955373291015625,0.7899871791303157,0.9812345581293106,1.277297525604069
1773522548395411000,6.965410888671875,0.7702133881241082,0.9153770613402128,1.4161740813747048
1773522548405449200,6.97544921875,0.6492343080937862,0.6774480106651782,1.260402797165513
1773522548415487000,6.985487060546875,0.5525608172804117,0.5989046353042126,1.087540677423775
1773522548425525000,6.99552490234375,0.5398328531324863,0.7468588160216808,0.8069073342710733
1773522548435563000,7.00556298828125,0.8459837916404008,0.9363421079576015,0.44482524970471854
1773522548445601000,7.01560107421875,1.021331590718031,0.9320639922469853,0.1707873592942953
1773522548455639000,7.02563916015625,0.7296271107137203,0.9391758700788021,0.09437398169934749
1773522548465677000,7.035677001953125,0.3992869028449058,0.9397942942380905,0.10388356832265853
1773522548475714800,7.04571484375,0.2327221296817064,0.7459463773518801,-0.1328960200563073
1773522548485753000,7.055753173828125,0.108808165243268,0.47110944551825523,-0.4685933710440993
1773522548495790800,7.065790771484375,-0.351954658305645,0.22490473392903804,-0.5555912710174918
1773522548505829000,7.0758291015625,-0.5910141743153333,0.1746311752408743,-0.33694647426605223
1773522548515867000,7.085866943359375,-0.47952130003273485,0.10876724871098994,-0.15263415522724388
1773522548525905200,7.0959052734375,-0.5934171438038349,-0.23493980573117731,-0.2830363126412034
1773522548535944000,7.10594384765625,-0.8290168747484683,-0.4499216960608959,-0.3459647702410817
1773522548545982200,7.115982177734375,-1.0677262621462345,-0.3506505899697542,-0.11358254003822803
1773522548556020000,7.12602001953125,-0.8038532073974609,-0.24181495219767093,0.1280988489076495
1773522548566058000,7.13605810546875,-0.287841374835372,-0.3419873910427093,0.2374576337710023
1773522548576096000,7.146095947265625,-0.28318858059346674,-0.5546218414634466,0.1847372664526105
1773522548586134000,7.156134033203125,-0.5426818128228187,-0.7888333329200744,-0.20033640212267637
1773522548596172000,7.166172119140625,-0.6129226392626762,-0.6805301945894956,-0.6034025312453508
1773522548606210000,7.1762099609375,-0.7275275080859661,-0.42434068008065223,-0.9086497989118099
1773522548616248000,7.186248046875,-0.5498872141569853,-0.25376667127609254,-1.0227893883109092
1773522548626286000,7.1962861328125,-0.2547469144850969,-0.35545535990297794,-1.029526295350492
1773522548636323800,7.20632373046875,-0.12195990776121615,-0.6308697993636131,-1.1379790712848306
1773522548646362000,7.216362060546875,-0.3049573448091745,-0.8795715884655714,-1.2575710808709264
1773522548656400000,7.22639990234375,-0.23360417321324348,-0.8148895651966332,-1.1886585804253815
1773522548666438100,7.236438232421875,-0.40790509358644483,-0.6214397077172994,-0.8784916842743754
1773522548676476000,7.246475830078125,-0.02743102776110172,-0.49010816049873823,-0.6447457645028829
1773522548686514200,7.25651416015625,0.22282208243608473,-0.6105512339562177,-0.6691831634059549
1773522548696552000,7.266552001953125,-0.04243862727880478,-0.7383376559138297,-0.7458928935989737
1773522548706590200,7.276590087890625,-0.021135727009177208,-0.6596107406795024,-0.7005892322778702
1773522548716628000,7.2866279296875,0.23715514369308946,-0.5222212085962296,-0.346232773527503
1773522548726666000,7.296666015625,0.40477556338906284,-0.5614373666971921,0.02340688681155443
1773522548736704000,7.3067041015625,0.5619768804013728,-0.7000117246508598,0.1799105769485235
1773522548746742000,7.316741943359375,0.6601385639458894,-0.8230395539045333,0.11216828932613133
1773522548756780000,7.326780029296875,0.3949444897264242,-0.8569234110668301,-0.1254497957035899
1773522548766818000,7.336818115234375,0.07472995455265044,-0.5799462523341179,-0.21444559149593115
1773522548776856000,7.34685595703125,0.0036363106757402418,-0.17629530906081198,-0.20961159546822308
1773522548786894000,7.35689404296875,0.41321547495424743,0.2354480475142598,-0.12137275552302598
1773522548796932000,7.36693212890625,0.555357754522562,0.5283776853993535,0.17475655518621205
1773522548806970000,7.37697021484375,0.31506898897886276,-0.008338204756379128,0.21821897255480288
1773522548817008000,7.387008056640625,-0.008783025914430618,-0.06529167959988116,0.3064288786664605
1773522548827046100,7.397046142578125,-0.2653489725202322,0.4898275899916887,0.5323059647589922
1773522548837084200,7.407084228515625,-0.5037631763637066,0.8979641542464494,0.5403361264795065
1773522548847122200,7.4171220703125,-0.1284545304775238,0.2978901829019189,0.38268092821985483
1773522548857160200,7.42716015625,0.35466917796134945,0.44902679304778575,0.7630366283625364
1773522548867198000,7.437197998046875,-0.07530687765777111,0.32768121779263015,0.9601663433983921
1773522548877236200,7.447236328125,-0.6084814419448376,0.022039397850632667,0.9296370573610067
1773522548887274000,7.45727392578125,-0.7924725662052631,-0.05869359650909901,0.6756313166320324
1773522548897313000,7.46731298828125,-0.44393736095428465,0.06205167476534843,0.40791941437274215
1773522548907351000,7.47735107421875,-0.38975627343356606,0.21841128025650977,0.18439736697375772
1773522548917389000,7.48738916015625,-0.3765063312381506,0.3452551606670022,0.17455664869993925
1773522548927427000,7.497427001953125,-0.26257424710988997,0.2316749587163329,0.20641630655825136
1773522548937465000,7.507465087890625,-0.291382992964983,-0.08174363270699977,0.08669394859075545
1773522548947503000,7.517503173828125,-0.5793786815792322,-0.1733209694251418,0.09966711967140436
1773522548957540900,7.527540771484375,-0.7821177609294653,-0.10454875423312186,0.16995266203582285
1773522548967579100,7.5375791015625,-0.8039215964585542,-0.14963000497519968,0.11200988389402627
1773522548977617200,7.5476171875,0.26562077519893645,-0.05243979681134223,-0.22595921141803263
1773522548987655200,7.5576552734375,0.09605682021975517,-0.22436288213729857,-0.29782997714728116
1773522548997693200,7.567693115234375,-0.37417175081074233,-0.3033186376914382,0.18239830211102961
1773522549007731000,7.57773095703125,-0.43156770872473715,-0.8751239614069461,-0.1790823094308376
1773522549017769200,7.587769287109375,1.0470862096995115,-0.682728289155662,-0.7653598106130958
1773522549027807000,7.597806884765625,0.9718167414426803,-1.1327683508992195,-1.286348847065866
1773522549037845200,7.60784521484375,0.5590893422663211,-1.179571310867369,-1.6332926914721726
1773522549047883000,7.617883056640625,0.260804314827919,-0.36402912698090073,-1.204414952483773
1773522549057921300,7.62792138671875,0.3481844921171665,0.016486439898610115,-0.6388175434976816
1773522549067959000,7.637958984375,0.48972529866099357,-0.03199409789294004,-0.18063713765740394
1773522549077997000,7.6479970703125,0.5124368966847658,-0.2404071312263608,0.48168286198079585
1773522549088035000,7.65803515625,-0.04791618190705776,-0.4792570961385965,0.37364334302246566
1773522549098073000,7.668072998046875,-0.18820494256317613,-0.8023053934335708,0.06468553040027618
1773522549108111000,7.678111083984375,0.25535890890359875,-0.7306669751554727,-0.4146341095805168
1773522549118149000,7.688149169921875,0.044397944653034205,0.190993404237926,-0.3597930968463421
1773522549128187100,7.698187255859375,0.035628362742066384,0.7871119159549474,-0.47061961617469783
1773522549138225200,7.70822509765625,-0.3443073584228754,0.3157765527263284,-0.3244786223590374
1773522549148263000,7.718262939453125,-0.31597149077653885,-0.22862316993027923,0.39119185919463634
1773522549158301200,7.72830126953125,0.32262919510006904,-0.10530834042876958,0.4966787710607052
1773522549168339000,7.7383388671875,0.44868601678609843,-0.3328302711188793,-0.06154197167754173
1773522549178377200,7.748377197265625,0.7656909422636031,0.4216325901657343,-0.4927852707535028
1773522549188415000,7.7584150390625,0.9214186795920133,1.785446661967039,0.062142860180139536
1773522549198453200,7.768453369140625,-0.7898965782374143,1.1718173357397317,-0.744868518987298
1773522549208491000,7.778490966796875,-1.1770330245614051,0.11649638165831565,-2.3745529568344352
1773522549218529000,7.788529052734375,-1.2472796962201596,-0.18784166220873594,-2.906402994519472
1773522549228567000,7.798567138671875,-1.050779803520441,0.4093529543071985,-2.4297218863487244
1773522549238605000,7.80860498046875,-0.16436989346742628,1.113302018406987,-1.9294874686330556
1773522549248643000,7.81864306640625,-0.1009440077394247,1.2778066441699862,-1.705559470781684
1773522549258681000,7.82868115234375,-0.4522948549330234,0.9949158774793148,-1.08144265280962
1773522549268720000,7.83872021484375,-0.6739046389698982,0.5718804347783327,-0.5151198521584273
1773522549278758100,7.848758056640625,-0.23114450510144233,1.068454284159839,-0.6789075618237257
1773522549288796200,7.858796142578125,-1.3097832064062356,1.4886843140512704,-1.3803595484107731
1773522549298834200,7.868834228515625,-1.0427011264830828,1.353108553391695,-1.814171821191907
1773522549308872000,7.878871826171875,-0.6408709688961506,1.566554904717207,-1.433919289162755
1773522549318910200,7.88891015625,-1.4191180258721112,1.5278230230018495,-0.474127332034707
1773522549328948000,7.898947998046875,-0.6206342365533113,0.9598673604518174,-0.13350655317008495
1773522549338986200,7.908986328125,-1.1632201877862214,0.6788853499919175,0.212705762091279
1773522549349024000,7.91902392578125,-0.590731265720725,0.3143704853206873,-0.013904022189974784
1773522549359062300,7.929062255859375,0.2557990538865328,0.05334814382791519,-0.18355916258394717
1773522549369100000,7.93910009765625,0.10004150594174861,-0.1265048577144742,-0.11372165624797344
1773522549379138000,7.949137939453125,-0.3474526707112789,0.18711860863119362,0.12973872506916523
1773522549389176000,7.959176025390625,-0.42334582382440566,0.4612485612392425,0.30174948867857454
1773522549399214000,7.969214111328125,-0.4173912993341684,0.4857569795519113,0.23489070589244365
1773522549409252000,7.979252197265625,-0.5140191974401473,0.6024421617805957,0.18409107750356196
1773522549419290000,7.9892900390625,-0.23304595480859278,0.5025304196983575,-0.15942951445579528
1773522549429328000,7.999327880859375,-0.007256254738569259,0.5954150396227836,-0.4293991325139999
1773522549439366100,8.0093662109375,0.05154664736390113,0.31870939130783077,-1.0300737001001834
1773522549449404000,8.01940380859375,0.15940204192698001,-0.01626782871186733,-1.3042688268989324
1773522549459442200,8.029442138671875,0.35319676732122895,-0.13760229805111884,-1.1611807909131049
1773522549469480000,8.03947998046875,0.7186229016184806,0.6420464424163103,-0.09574117839932442
1773522549479518200,8.049518310546874,0.7752396918535233,0.5617383954703807,0.6749585319370031
1773522549489556000,8.059555908203125,0.9061305095672607,0.35629940951168537,1.3179162439793348
1773522549499594000,8.069593994140625,1.3111889815509319,0.24472236407697198,1.579579805985093
1773522549509632000,8.079632080078126,1.2622259209394455,0.12841653655469418,1.4617314251959324
1773522549519670000,8.089669921875,0.85904025709033,0.09819500129222869,1.1743933237075805
1773522549529708000,8.0997080078125,0.38902503654956816,0.08705869024991988,0.8273802134573459
1773522549539746000,8.10974609375,0.17449731972813606,0.07471183437407017,0.45289983508884907
1773522549549784000,8.1197841796875,0.22746552432775496,0.12143617614805698,-0.16483751097917557
1773522549559822000,8.129822021484374,0.4542909971863031,0.4917506670087576,-0.5947627131938934
1773522549569860000,8.139860107421875,0.647047027182579,0.8845821101039647,-0.7276911742150783
1773522549579898000,8.149898193359375,0.8328244503378868,1.0183253946393727,-0.49499827062785623
1773522549589936000,8.15993603515625,0.8948328704833984,0.9572177227258681,0.006436755049228668
1773522549599974100,8.16997412109375,0.7769181464597582,0.8431769175261259,0.5974748947620392
1773522549610012200,8.18001220703125,0.5856082236185669,0.756795103624463,1.3390882113456726
1773522549620050200,8.19005029296875,0.47865036241710185,0.3798340143561363,2.036745481824875
1773522549630089000,8.2000888671875,0.7439657249286771,-0.7062707850456237,2.0781623648405074
1773522549640127200,8.210127197265624,0.7387035666167736,-1.5295271965712307,2.294884669096768
1773522549650165000,8.2201650390625,0.4399503371447325,-1.9654735587716101,2.296646418072283
1773522549660200000,8.230199951171874,0.8722656493663787,-2.551982822883129,-0.32050241220444436
1773522549670238000,8.240238037109375,5.828501570820808,-8.79863323340714,-20.776797835683823
1773522549680276000,8.25027587890625,2.947608280611038,-1.1627332810521125,-7.520587227523326
1773522549690314000,8.26031396484375,-2.3947639702141283,4.0205297733128065,9.50630628646612
1773522549700352000,8.27035205078125,-1.0468211290225387,0.3050070291697979,5.750529273346066
1773522549710389800,8.2803896484375,-1.1056617327868938,-1.1745569898366928,6.10838000395298
1773522549720428000,8.290427978515625,-1.4579364168271423,-2.60882640761137,6.555095012927055
1773522549730465800,8.3004658203125,-2.2549705918595193,-3.647214931592345,7.53889445310831
1773522549740504000,8.310504150390624,-3.4952293034017083,-4.0314340291649104,8.484986970707773
1773522549750541800,8.320541748046875,-4.5714872470498085,-4.328722446781397,8.687157310259341
1773522549760580000,8.330580078125,-5.2621612345129245,-4.423150204494595,7.403689863848686
1773522549770617900,8.340617919921876,-5.126727512672543,-3.0588527330905197,6.103901397234201
1773522549780655900,8.35065576171875,-3.8737747392520308,-1.000403953501582,4.825682957392931
1773522549790694000,8.36069384765625,-2.3881600419044493,0.6855009687393904,3.6073458625406025
1773522549800732000,8.37073193359375,-1.8198250246480105,2.0290157643556594,2.110445362677425
1773522549810770000,8.38077001953125,-1.54776837118268,2.93647080052495,0.7562250486515462
1773522549820808000,8.390807861328126,-1.3417451555952429,3.501047049769759,-0.20827055612280965
1773522549830846000,8.400845947265625,-1.1390519612133503,3.8943437722891567,-0.9578824702449142
1773522549840884000,8.410884033203125,-1.0158850157499313,3.3994483775138855,-1.6785851007468997
1773522549850922000,8.420921875,-0.9114560885041951,1.993120859631896,-1.7229409598238765
1773522549860960000,8.4309599609375,-0.8539150230310857,0.619185791310668,-1.0898650287181137
1773522549870998000,8.440998046875,-1.002028632093966,-0.1952086838454008,-0.586279547008872
1773522549881036000,8.4510361328125,-1.2900338191889225,-0.5969190144449472,-0.0702963560193777
1773522549891074000,8.461073974609375,-1.3426263223439454,-0.5926999354451894,0.5486228933095931
1773522549901111800,8.47111181640625,-1.034917925260961,0.20071020387113092,1.279851009479165
1773522549911150000,8.481150146484374,-0.24307547365278004,1.4418816463440656,1.9446151873990891
1773522549921187800,8.491187744140625,0.5904293601647019,2.208629988706112,2.458105684790015
1773522549931226000,8.50122607421875,1.0108680643707513,2.2758418227136135,2.7373966734230515
1773522549941264000,8.511263916015626,0.9706932903707027,1.8856266995966433,2.837318936899304
1773522549951302100,8.52130224609375,0.7466220846563577,1.3017524601638317,2.7877318991705775
1773522549961340000,8.53133984375,0.6855792946726084,0.47157063328921794,2.7272657400310036
1773522549971378000,8.5413779296875,0.8787843836106359,-0.16740823825001716,2.6911411182045937
1773522549981416000,8.551416015625,1.112062978131324,-0.5542956782490015,2.7001117756456137
1773522549991454000,8.561453857421874,1.1272153929471969,-1.104417285683751,2.598279879155755
1773522550001492000,8.571491943359375,1.115402205556631,-1.5197107359558344,2.265972755128145
1773522550011530000,8.581530029296875,1.3083655946932733,-1.0176315671563148,1.7090772696442902
1773522550021568000,8.591568115234375,1.592242449811846,0.16421967134177684,1.2247906549058853
1773522550031606000,8.60160595703125,1.8617333444423974,1.3291940093189478,0.7207704350411892
1773522550041643800,8.611643798828124,2.222285296832025,1.8646102150529622,0.12272124752253294
1773522550051682000,8.62168212890625,2.835307012555003,1.9643091911673545,-0.5296496050313115
1773522550061720800,8.631720947265626,2.7046067489773034,0.6669435677856207,-0.9613562838353216
1773522550071759000,8.641759033203124,1.4434095865637062,-2.1416168921411036,-0.9867214651077986
1773522550081796900,8.651796875,0.008807648899033665,-4.565034125387668,-0.9968059290096163
1773522550091835100,8.661835205078125,-0.7704162172198296,-5.97221446070671,-1.078882593063265
1773522550101873000,8.671872802734375,-0.41862632102183994,-6.01203326087594,-1.3095758472658694
1773522550111911200,8.6819111328125,0.624474472303316,-4.622625313612819,-1.5769015266865491
1773522550121949000,8.691948974609375,1.3391180219620464,-2.7255706265509128,-2.013883661675453
1773522550131987000,8.701987060546875,1.0363923817276954,-0.6393897904276847,-2.8719471826881167
1773522550142025000,8.71202490234375,-1.131806812390685,1.9272902508497236,-3.659648588968813
1773522550152063000,8.72206298828125,-2.992819879734516,3.871263925474882,-4.008769485153258
1773522550162101000,8.73210107421875,-1.6925608729988335,4.0429228069067,-3.918333135163784
1773522550172139000,8.742138916015625,0.4745511104047298,2.797939697191119,-3.732290339070558
1773522550182177000,8.752177001953125,1.7197107457309961,0.7143781036555766,-3.1931048439308998
1773522550192215000,8.762215087890626,1.824682693812251,-0.6703998457193374,-2.160974795822799
1773522550202252800,8.772252685546874,1.4577812262654304,-1.315323304876685,-1.2123363200675696
1773522550212291000,8.782291015625,0.8184850324053317,-1.871154522129893,-0.5598186794541776
1773522550222328800,8.792328857421875,0.03740297119915485,-2.2487001332879064,-0.07650280944406986
1773522550232367000,8.8023671875,-0.5333154340624809,-2.1974884169667956,0.39311815108209847
1773522550242404900,8.81240478515625,-1.0053794038265942,-1.7188135046303272,1.056349858737737
1773522550252443000,8.82244287109375,-1.1099252354502678,-0.7028922485232353,1.8125459735557437
1773522550262481000,8.83248095703125,-0.8855728747069835,0.40136838529407975,2.13140354116261
1773522550272519000,8.842518798828126,-0.263836814391613,0.6265554432958365,2.017254014891386
1773522550282557000,8.852556884765624,0.6184148069381713,0.6197720667660236,1.8992660795010625
1773522550292595000,8.862594970703125,1.258586103132367,0.5310720390498638,1.8653120797120033
1773522550302633000,8.872633056640625,1.6036382885731755,0.26097031904459,1.9206097501724957
1773522550312671000,8.8826708984375,1.6732691664211452,-0.05098083017468452,2.0868217643752693
1773522550322708700,8.892708740234376,1.31019923986122,-0.016760580664873122,2.3664643429249526
1773522550332747000,8.9027470703125,0.19614684147834777,0.6271575008422136,2.889576947402954
1773522550342784800,8.91278466796875,-1.1501987936496734,2.0761182917922736,3.5379707130193707
1773522550352823000,8.922822998046875,-1.3808509851895272,3.6255683324515817,3.797840669606626
1773522550362860800,8.93286083984375,-1.2007220893152057,3.99745401815176,3.8355721421077846
1773522550372899000,8.942899169921875,-1.912613052330166,2.9821979479551315,3.7705385289222
1773522550382936800,8.952936767578125,-2.9014035787969825,1.848086950275302,3.3642081373065706
1773522550392974800,8.962974853515625,-3.627475627377629,2.6696523399740455,3.0587185853168366
1773522550403012900,8.973012939453126,-3.2592239142656325,4.235071518659591,2.680838335376978
1773522550413051000,8.98305078125,-1.6459736016079782,4.686166934674978,1.971081754042208
1773522550423089200,8.993089111328125,0.12092267366796731,4.527710064643621,0.8948612197950482
1773522550433127000,9.003126953125,1.2980261331170797,3.966593600463867,-0.23262188417762517
1773522550443165200,9.013165283203126,1.9960446381241082,2.4763182178288696,-1.1243931020680815
1773522550453203000,9.023202880859374,2.5713106236875056,0.8288274896562099,-1.6696467381402849
1773522550463241000,9.033240966796875,2.865171697203815,-0.19391747499108314,-2.040954623952508
1773522550473279000,9.043279052734375,2.4855025180205703,-0.6574380728155375,-2.4741043411716817
1773522550483317000,9.05331689453125,1.6667399107828735,-0.5375508796751499,-3.263519857893884
1773522550493355000,9.06335498046875,1.1968255202680826,0.13798106823563575,-4.021909244972467
1773522550503393000,9.07339306640625,1.9761404987365006,1.0499527050465345,-4.739164949890971
1773522550513430800,9.0834306640625,3.7437905149891972,1.914877928522229,-5.20183740645349
1773522550523469000,9.093468994140625,5.220942504417896,2.304218606892228,-5.476075787872076
1773522550533506800,9.1035068359375,5.839635543775558,2.534128601762652,-5.946878943920135
1773522550543545000,9.113545166015625,5.433139732465148,2.145536111411452,-6.326881885102391
1773522550553582800,9.123582763671875,4.333147862008214,1.1922224103868007,-6.570352203291654
1773522550563621000,9.13362109375,3.4276802002638576,-0.06891279270648956,-6.437636508238315
1773522550573659000,9.143658935546876,3.8601322906076905,-0.7656213841587305,-6.2152931492298835
1773522550583697000,9.15369677734375,4.863555299669504,-1.1792091995567082,-5.845373795166611
1773522550593735000,9.16373486328125,5.808866311502456,-1.3896657214164734,-5.558844087451696
1773522550603773000,9.17377294921875,6.039938335889578,-1.3104822945863008,-5.504885702770948
1773522550613811000,9.18381103515625,5.053204595822096,-0.9287409853041172,-5.783022260671854
1773522550623849000,9.193848876953124,3.1271675599038598,-0.5721095673590898,-6.429369030630588
1773522550633887000,9.203886962890625,2.3489736944198607,-0.8287292899787425,-6.94970223352313
1773522550643925000,9.213925048828125,4.034414506280422,-1.803141893133521,-6.795491330498456
1773522550653965800,9.2239658203125,5.805929673528671,-3.5625966202318664,-6.57078942566514
1773522550664003600,9.234003662109375,6.058514441543817,-5.510861854571104,-6.025093817979097
1773522550674041900,9.244041748046875,4.869190090686082,-5.6922261374592775,-4.1179543747544285
1773522550684079600,9.25407958984375,0.7104281969860196,-3.271710470873117,-1.5863400939002632
1773522550694118000,9.264117919921874,-1.3237713997483254,0.1189122106283903,-0.6030144087105989
1773522550704156700,9.27415673828125,-0.8225900565713643,4.024911933919787,-0.898619695545733
1773522550714194700,9.284194580078125,1.6551193233549595,4.522103915199637,-0.4739779866918921
1773522550724232700,9.294232666015626,5.170937825798988,2.7410651328027247,0.2706058701351285
1773522550734270700,9.304270751953124,6.084187811982631,1.5071902770787478,1.0249576722607017
1773522550744308700,9.314308837890625,5.146476753759384,1.0182722031474112,2.0191575104251505
1773522550754346500,9.324346435546875,3.991459746173024,0.7611901237130164,2.8762837505877017
1773522550764384800,9.334384765625,2.809950452980399,0.7772410948038101,3.4812563076287506
1773522550774422500,9.344422607421874,1.023918100079894,1.2425608510047197,3.9202807621002194
1773522550784460800,9.354460693359375,-2.467219550094008,2.19099028711915,4.746680732348561
1773522550794498600,9.36449853515625,-5.253309819537401,3.0989450895041224,5.791574400439858
1773522550804536800,9.374536865234376,-4.347359927234053,3.528037348026037,6.461297954332828
1773522550814574600,9.38457470703125,-1.7593996359102426,3.7223002754539247,7.164984568104147
1773522550824612600,9.394612548828125,1.0866263390578328,3.5040082376629114,8.727995516604185
1773522550834651000,9.40465087890625,2.3615420840919015,2.2150608985364437,9.777267253649233
1773522550844688600,9.414688720703126,0.8340554534375667,0.12784312058091163,9.829163445103168
1773522550854727000,9.424726806640624,-3.282529386529326,-1.6125579464793205,8.93130742740631
1773522550864764700,9.4347646484375,-7.803823154389858,-2.849237338230014,6.720149381527304
1773522550874802700,9.444802734375,-9.089905167213082,-3.1264760705083607,4.16491427884996
1773522550884840700,9.4548408203125,-6.707085901814699,-1.9764707536041735,2.5815508626729247
1773522550894878700,9.464878662109374,-3.963876158198714,-0.0814770907253027,1.7179875752002
1773522550904916700,9.474916748046875,-2.3906530277639626,1.5879004750847816,0.9613009003862738
1773522550914954800,9.484954833984375,-1.6758564064353703,3.025520956853032,0.07218611528873443
1773522550924992800,9.49499267578125,-0.9185199624758213,4.285455551984906,-0.16433716024160383
1773522550935030800,9.50503076171875,0.06997311541438102,4.741638062006235,0.3740383336894214
1773522550945068500,9.515068603515624,0.7202421003181487,4.562641677293181,1.6370746942289172
1773522550955106800,9.52510693359375,0.42999834051616487,4.045101319989562,2.7127131908044215
1773522550965144600,9.53514453125,-0.25531090504340825,2.8200211806178093,3.5027632060378786
1773522550975182800,9.545182861328126,-0.9030442339897156,1.6794553077101706,4.336351334224641
1773522550985220600,9.555220703125,-1.2573840338662265,0.7030179207295179,5.011638659724593
1773522550995259000,9.5652587890625,-1.3914929368436335,-0.23248189118504523,5.208800231203437
1773522551005296600,9.575296630859375,-1.3087316515266894,-1.1015227332860231,5.229062682509422
1773522551015334700,9.585334716796876,-1.0062625433366745,-1.7409937722563742,5.006763162642717
1773522551025372700,9.59537255859375,-0.8581191967226565,-2.040557149067521,4.174654459358751
1773522551035410700,9.60541064453125,-0.7725358397223054,-2.0162872156858445,2.919207823295891
1773522551045448700,9.61544873046875,-0.6560546556331217,-1.6467957316458224,1.561791635838151
1773522551055486700,9.62548681640625,-0.20670272228419778,-1.0307803870648145,0.5707603447072208
1773522551065524700,9.635524658203124,0.6230115601439029,-0.40272330703437326,0.011743044763803482
1773522551075562800,9.645562744140625,1.488672039091587,0.01926291887462139,-0.33808336934149263
1773522551085600500,9.6556005859375,2.060950533276796,0.32113457262814044,-0.6863046863377094
1773522551095638800,9.665638671875,2.087763575270027,0.6243173089802265,-1.0526350759983063
1773522551105676500,9.675676513671876,1.7094773748777805,1.07907358559072,-1.464362796612829
1773522551115714800,9.68571484375,1.256857087382674,1.3314438340723513,-1.917873310945928
1773522551125752600,9.695752685546875,0.914017901816219,1.1850181780964135,-2.2453164821989833
1773522551135790600,9.70579052734375,0.8260019108414649,0.694393884769082,-2.363563799177855
1773522551145828600,9.71582861328125,0.8898562511146068,0.11027122353315352,-2.395926584252715
1773522551155866600,9.72586669921875,0.9735948570311069,-0.33794366860985753,-2.4463243538424373
1773522551165904600,9.735904541015625,0.8265823410779237,-0.6612520781457424,-2.5078964283972978
1773522551175942700,9.745942626953125,0.8509843764066696,-0.8816723601371049,-2.5361703367233277
1773522551185980700,9.755980712890626,1.3994827665537595,-0.8310229538738727,-2.499679804193973
1773522551196018700,9.766018798828124,2.217983361854404,-0.6487170062214136,-2.4247573958091437
1773522551206056700,9.776056640625,2.7662562726825475,-0.4900350952625274,-2.37420867344141
1773522551216094700,9.7860947265625,3.052426499435305,-0.49790743607282634,-2.3068191447794435
1773522551226132700,9.7961328125,3.0291847400575875,-0.6650865417420864,-2.2974453133650123
1773522551236170800,9.806170654296874,2.582255796071887,-1.0612322239518166,-2.31946571425423
1773522551246208800,9.816208740234375,2.1980799531191586,-1.3371686414599417,-2.2892018011547624
1773522551256246800,9.826246826171875,2.3352105420053,-1.4348831657588481,-2.366867224637419
1773522551266284800,9.836284912109376,2.3516053580977023,-1.3545529069811104,-2.497795013360679
1773522551276322600,9.846322509765624,2.3061831849634644,-0.3888789060771465,-2.452596565979719
1773522551286360800,9.85636083984375,2.2800863284155723,0.7347703188210726,-2.010119194575399
1773522551296398600,9.866398681640625,1.8275263928055763,0.9468190783083439,-1.4984262481257318
1773522551306436900,9.876436767578125,1.1817093458093701,0.7178823123842477,-0.9861858969263732
1773522551316474600,9.886474609375,0.35436084266453977,0.5252683212071657,-0.5672267637535929
1773522551326513000,9.896512939453125,-0.744251263871789,0.5562146636128426,-0.13251681148037314
1773522551336550700,9.906550537109375,-1.4146604619413614,0.8264251046895981,0.21471856321841476
1773522551346588700,9.916588623046875,-1.2820384365208446,1.287048227506876,0.5438043871119618
1773522551356626700,9.926626708984376,-0.7769517564684152,1.5786591840088366,0.7703719396866857
1773522551366664700,9.936664794921874,-0.3536059326440096,1.764573385286331,0.8512897890940309
1773522551376702700,9.94670263671875,-0.00035509704798460004,1.8514105417400597,0.9104058487989007
1773522551386740700,9.95674072265625,0.2650406372234225,1.7272019782692194,1.0952430684946477
1773522551396778500,9.966778564453126,0.21347557741999626,1.298111473312974,1.4548874045200646
1773522551406816800,9.976816650390624,-0.2227389341972768,0.6640098524212836,1.8402216237276792
1773522551416854500,9.9868544921875,-0.5800085039153695,0.1130085395425558,2.175933149371296
1773522551426892800,9.996892822265625,-0.6198128371678292,-0.10224573798775673,2.205872360561043
1773522551436930600,10.0069306640625,-0.2619318575531244,0.008745616513490677,1.6797969607546925
1773522551446968800,10.01696875,0.04023497975468635,0.16264496937096118,0.874899358870834
1773522551457006600,10.027006591796875,-0.04818856910765171,0.7234323477268219,0.1815739801160991
1773522551467044600,10.037044677734375,-0.4699567683517933,1.3586615113437175,-0.5352914103105664
1773522551477082600,10.04708251953125,-0.866149796834588,1.895377693760395,-1.448224731760472
1773522551487120600,10.05712060546875,-1.3616121778428554,2.0873755988657474,-2.1994776910878717
1773522551497158000,10.067157958984374,-1.8633640143841503,1.7050550283908843,-2.679234407311678
1773522551507195600,10.077195556640625,-2.1001503247648476,1.0736556521952152,-2.971630961233377
1773522551517233700,10.087233642578125,-2.023266699309647,0.5067997675806284,-3.229914233151078
1773522551527271700,10.097271728515626,-1.5605451429083943,0.04205985709428787,-3.533004030522704
1773522551537309700,10.107309814453124,-0.7552844068005681,-0.3375654829472303,-3.8379777419447896
1773522551547347700,10.11734765625,-0.17560381966531274,-0.8391653437972069,-3.8553158302366732
1773522551557385700,10.1273857421875,0.2962368627369404,-1.2905951063334942,-3.554037758462131
1773522551567423500,10.137423583984376,0.6497054327368735,-1.7275240498304365,-2.827117860880494
1773522551577461800,10.147461669921874,0.6676560999691485,-2.233066510826349,-1.7990680678233504
1773522551587499500,10.15749951171875,0.3190139272123575,-2.6188421901911494,-0.6140142338916659
1773522551597537800,10.167537841796875,0.04009995519816875,-2.927852025261521,0.5043476251881569
1773522551607575600,10.177575439453125,-0.03782324243783951,-3.0758786866933105,1.4325228663682936
1773522551617613800,10.18761376953125,-0.09773205995559692,-2.903778491234779,1.9841355891436336
1773522551627651600,10.197651611328125,-0.16674071425199508,-2.689474646297097,2.226536232274771
1773522551637689600,10.207689697265625,0.2790343835234642,-2.807639253428578,2.299640046930313
1773522551647727600,10.2177275390625,1.2468465654999017,-2.7755513397723433,1.983585992436856
1773522551657762000,10.227761962890625,2.128134310233593,-2.587809338545799,1.7617375773385167
1773522551667800000,10.237800048828126,2.505752986627817,-2.1128817960441113,1.597972371765971
1773522551677838000,10.247838134765624,2.2344196790009736,-1.4451304190069436,1.6284370681345461
1773522551687876000,10.2578759765625,1.4486816817477344,-0.8731354179382323,2.004505007955432
1773522551697914000,10.2679140625,0.6147270583361387,-0.5765794062495231,2.367248186779022
1773522551707952000,10.2779521484375,0.3138569828405976,-1.075744733428955,2.3520734140008686
1773522551717990100,10.287990234375,0.3561591242581606,-1.8265823899537323,1.9126346796400844
1773522551728028200,10.298028076171875,0.41220834373831744,-1.9682962149769068,1.6959315184757113
1773522551738066000,10.30806591796875,0.28620032963007686,-1.7115677712857722,1.5045067370831966
1773522551748104200,10.318104248046875,-0.040457682594656943,-1.2801684048652648,1.8322879081189631
1773522551758142000,10.328141845703126,-0.48156683438569303,-0.7554395973622798,2.2006169242508706
1773522551768180200,10.33818017578125,-0.865450416393578,-0.20309622222483156,2.001768568728864
1773522551778218000,10.348218017578125,-1.125330017592013,0.6231663853794336,2.1670887486584482
1773522551788256300,10.35825634765625,-1.6766130700215696,1.4460598088115453,2.0064681247219442
1773522551798294000,10.3682939453125,-2.5373025556236506,2.3256699757218358,1.221344898366183
1773522551808332000,10.37833203125,-3.8405332716464993,2.760114116665721,0.2730086934931576
1773522551818370000,10.3883701171875,-5.691000395056605,2.7305565982699394,-0.04782923427596688
1773522551828408000,10.398407958984375,-7.687557658877968,2.261232282602787,-0.3270839825518429
1773522551838446000,10.408446044921876,-7.730950225880742,1.5156640909135342,-0.7035721936114132
1773522551848484000,10.418484130859374,-4.670949491798877,0.894897167891264,-0.8043576497882604
1773522551858522000,10.428522216796875,-0.976359499438852,0.5563713154792785,-0.7659718050315976
1773522551868560100,10.43856005859375,1.3840000968702137,0.4873310970008373,-0.7721713903240859
1773522551878598000,10.448597900390626,1.8686849171459674,0.7098878064990043,-0.7714481906160712
1773522551888636200,10.45863623046875,0.5522394763715565,1.4035200592458248,-0.6429707176543772
1773522551898674000,10.468673828125,-1.7531990277044474,2.7789959272682667,-0.598320844066888
1773522551908712200,10.478712158203125,-2.530231594324112,3.4672482405424114,-0.3342452524833381
1773522551918750000,10.48875,-1.5785897720344364,2.0379624563992023,0.39557694241106506
1773522551928788200,10.498788330078124,-0.7941115655839442,-0.2675093654245138,0.9500763265386223
1773522551938826000,10.508825927734375,-0.17057985402345657,-1.8364596408456564,0.7621871719263493
1773522551948864000,10.518864013671875,0.44541327872574327,-2.5055080719560383,0.2551788761615753
1773522551958902000,10.528902099609375,1.01646544598639,-2.2385119167506695,-0.08496186410114169
1773522551968940000,10.53893994140625,1.4564327342659233,-1.5463783781290052,-0.29602555807381864
1773522551978978000,10.54897802734375,1.7283225067317485,-0.9511164832413196,-0.5251794738799334
1773522551989016000,10.55901611328125,1.9964180014811455,-0.47672202470302577,-0.7995588712044059
1773522551999054000,10.56905419921875,2.4037441261358556,-0.0981295348405838,-0.9544031036965548
1773522552009092000,10.579092041015626,2.823713605394959,0.16653028637170791,-0.9106972329609095
1773522552019130000,10.589130126953124,2.959255463784933,0.34875673904716964,-0.8550487032361328
1773522552029168000,10.599168212890625,2.7327888873666524,0.5108645328015089,-0.7061649865835905
1773522552039206100,10.6092060546875,2.2280694331914184,0.5850894604414701,-0.36072467860803004
1773522552049244200,10.619244140625,1.7033992240078746,0.578970685300231,0.06904708661064506
1773522552059282200,10.6292822265625,1.3509389542676509,0.42591245944201944,0.35813758472427726
1773522552069320000,10.63931982421875,0.9977285968124866,0.19775603024065494,0.4666315694518387
1773522552079358200,10.649358154296875,0.5484716482706368,0.06278349617123603,0.5121345527373254
1773522552089396000,10.65939599609375,0.023641572350263595,0.005210428124666214,0.44914545099139214
1773522552099434200,10.669434326171874,-0.4564708254434168,0.06704758335649967,0.2613490892291069
1773522552109472000,10.679471923828125,-0.8487965109735727,0.11020575708150863,0.11957593523412942
1773522552119510300,10.68951025390625,-1.2059329558312892,-0.020960370442271233,0.268810803411901
1773522552129548000,10.699548095703125,-1.5269184753775595,-0.14897534045875072,0.7662104360930622
1773522552139586000,10.7095859375,-1.6815221771121025,0.10972118843495846,1.2960450423024594
1773522552149624000,10.7196240234375,-1.420636613741517,0.4358955087959766,1.5166618697792291
1773522552159661000,10.7296611328125,-0.9639350482821464,0.6574111848086118,1.4362944938614963
1773522552169699000,10.739698974609375,-0.4428765267897397,0.5862292781263589,1.2142632695421576
1773522552179737000,10.749737060546876,0.021704466807842254,0.24946459016799924,0.9377939142011106
1773522552189775000,10.759775146484374,0.40736448390372093,-0.0944914705991745,0.57733110139966
1773522552199813000,10.769813232421875,0.7805015579044818,-0.2763315543055534,0.12315218628570437
1773522552209851100,10.77985107421875,1.1043243467032908,-0.24476444965302943,-0.3501673364974558
1773522552219889200,10.78988916015625,1.3296008365541696,-0.19338380650579928,-0.7325413907252252
1773522552229927200,10.79992724609375,1.4551292504519224,-0.24737784702181814,-0.9378148108586668
1773522552239965000,10.80996484375,1.5131196671277283,-0.20823300059139727,-1.0555131156526505
1773522552250003200,10.820003173828125,1.5006027153819799,-0.10311141490638255,-1.0963177119888365
1773522552260041000,10.830041015625,1.2239817496757954,-0.1261532677978277,-1.1050444776713848
1773522552270079200,10.840079345703124,0.8589772017914802,-0.27073534173369407,-1.1265196657679974
1773522552280117000,10.850116943359374,0.5973148088295013,-0.5253051460862159,-1.1271757915891707
1773522552290155300,10.8601552734375,0.6447850005347281,-0.5482417850375175,-0.9370584395334124
1773522552300193000,10.870193115234375,0.7591834600657225,-0.43140170450806614,-0.8297488422848284
1773522552310231000,10.88023095703125,0.6653396397203206,-0.3860638486564159,-0.8997330636151134
1773522552320269000,10.89026904296875,0.41569793941974637,-0.29939269641935823,-0.9936708458542823
1773522552330307000,10.90030712890625,0.14460139969084412,-0.17444120562672613,-1.0387322228521108
1773522552340345000,10.910344970703125,-0.03272387347221374,-0.07773439706563949,-1.0372450530342756
1773522552350383000,10.920383056640626,0.019249438338540495,0.11710603798925875,-1.0247546970345078
1773522552360421000,10.930421142578124,0.157572488412261,0.3893155439287424,-0.9397834805831312
1773522552370459100,10.940459228515625,0.24225098726106806,0.5905009640961885,-0.7096706566169858
1773522552380497000,10.950496826171875,-0.023092715429002417,0.5513678081035613,-0.26770079634338617
1773522552390535200,10.96053515625,-0.5915396594941615,0.5597375770419836,0.264571558406949
1773522552400573000,10.970572998046874,-1.1910650570452213,0.6658516808956861,0.7412593885794282
1773522552410611200,10.980611083984375,-1.453954945975542,0.7505553324520587,1.060429383136332
1773522552420649000,10.99064892578125,-1.3377847275316714,0.7567208693444728,1.2502119502797722
1773522552430687200,11.000687255859376,-1.0040180523455142,0.7162105797797441,1.3875395230427383
1773522552440725000,11.01072509765625,-0.8548585874915122,0.3869406314909458,1.546531084472686
1773522552450763000,11.020762939453125,-0.9797218154788017,0.034144261664152145,1.6748979366667567
1773522552460801000,11.030801025390625,-1.1303893468081951,-0.13370236800312996,1.5973542398676275
1773522552470839000,11.040839111328125,-1.0648317097485065,-0.10736790330708026,1.1835881452932953
1773522552480877000,11.050876953125,-0.6541244182229041,0.16002397321760653,0.6144850662738084
1773522552490915000,11.0609150390625,-0.09215572112798691,0.40052901186048984,0.07395648596212268
1773522552500952800,11.070952880859375,0.4239806145966053,0.2987678425192833,-0.4133488920755684
1773522552510991000,11.0809912109375,0.7582651761770248,0.05531915163993835,-0.816544346666336
1773522552521029000,11.091029052734376,0.9528583584725856,-0.03963818290531635,-1.088490233233571
1773522552531067100,11.101067138671874,1.0371271257430315,0.0671639032125473,-1.2351426837027073
1773522552541105200,11.111105224609375,1.1865870348483323,0.16956570854485034,-1.2202774152651428
1773522552551143200,11.12114306640625,1.360706168913841,0.050154900744557376,-1.11002854969427
1773522552561180200,11.13118017578125,1.5135884536832571,-0.18338263697326182,-0.9421415880165993
1773522552571218000,11.141218017578124,1.6478285818248986,-0.39687633457183835,-0.6868702112659811
1773522552581256200,11.151256103515625,1.6509996130764484,-0.3278635886222124,-0.3353935457356274
1773522552591294000,11.1612939453125,1.556411111843586,0.008527005326747893,0.09664821024164556
1773522552601332200,11.171332275390625,1.3237433426976204,0.17818214572072028,0.5187226989559829
1773522552611370000,11.181369873046876,1.0294465081125497,0.15445172604322432,0.8256950368493795
1773522552621408000,11.191407958984374,0.745709645986557,0.0925654709726572,1.0430670371860264
1773522552631446000,11.201446044921875,0.4728039744764566,0.16021511187553406,1.1817691131725907
1773522552641484000,11.211484130859375,0.32749062712397425,0.37322248726189133,1.222324264792353
1773522552651522000,11.22152197265625,0.30117841079235075,0.7118664130955934,1.2025823302291332
1773522552661560600,11.231560546875,0.4139456158597022,1.0449585500210523,1.1635443051740526
1773522552671598300,11.241598388671875,0.5549766462504864,1.165229774042964,1.0930603176280855
1773522552681636400,11.25163623046875,0.6184603996455669,0.9434247596949339,0.9108189596444368
1773522552691674400,11.26167431640625,0.676588763487339,0.5336638091087341,0.7804130028381944
1773522552701712400,11.27171240234375,0.7178074935823678,0.17517478059828281,0.7567588632673025
1773522552711750400,11.28175048828125,0.7657464718431234,-0.188708800432086,0.7595294970244169
1773522552721788400,11.291788330078125,0.7930033120810985,-0.3792290342003107,0.8023071469992399
1773522552731826400,11.301826416015626,0.729601391750574,-0.21960662752091883,0.9337117594540119
1773522552741864400,11.311864501953124,0.4413882609933614,0.16402151842117307,1.1425658145532012
1773522552751902500,11.32190234375,-0.09355389748811721,0.3071861267745495,1.3624290471836924
1773522552761940500,11.3319404296875,-0.5864385369628667,0.1359749891102314,1.51009535087049
1773522552771978500,11.341978515625,-0.7849374945253134,0.1710498096227646,1.481627965798974
1773522552782016500,11.3520166015625,-0.7186480360597371,0.601675269061327,1.258245034609735
1773522552792054500,11.362054443359375,-0.5658697961866855,1.0121540125280617,1.0166063157618046
1773522552802092500,11.372092529296875,-0.5478980861663818,1.0560229648709296,0.766847711083293
1773522552812130600,11.382130615234376,-0.7087140865445136,0.7205255203694104,0.5236641008809209
1773522552822168300,11.392168212890626,-0.7863339173197745,0.3347510100483894,0.3021183219909668
1773522552832206600,11.40220654296875,-0.6500187364697456,0.16422434751689433,0.11740589771866798
1773522552842244400,11.412244384765625,-0.4957610716938972,0.18725100283920765,-0.025217151103913784
1773522552852282600,11.42228271484375,-0.5216705889761447,0.2534633044153452,-0.054556642834842205
1773522552862320400,11.4323203125,-0.8021814747929572,0.14087386706769467,0.11137246277332305
1773522552872357400,11.442357421875,-1.414545311129093,-0.09959025504291057,0.4832637014314532
1773522552882395400,11.4523955078125,-2.1042069066792726,-0.0062111295998096465,0.7834475482285023
1773522552892433400,11.462433349609375,-2.4689468122780323,0.3937538186371326,0.8071829363420605
1773522552902471400,11.472471435546876,-2.4021114103674885,0.833232446616888,0.5780098774440586
1773522552912509400,11.482509521484374,-1.8705682466745375,1.1832424005955458,0.2054578367896378
1773522552922547500,11.49254736328125,-1.2108148826539515,1.4006278449356555,-0.009240122032165527
1773522552932585500,11.50258544921875,-0.2010368785422295,1.2476099510878325,-0.4060252711892128
1773522552942623500,11.51262353515625,0.5546282712042332,0.9665893621832132,-1.12761505978927
1773522552952661500,11.52266162109375,0.4495218830883503,0.8497644792228937,-1.8561099516026676
1773522552962699500,11.532699462890625,-0.30506022066175936,0.8906441866219044,-2.7455829024881124
1773522552972737500,11.542737548828125,-1.8495288196466861,1.2139818222522736,-3.8826130024850367
1773522552982775600,11.552775634765625,-3.4332419260442255,1.5561679507374762,-5.112912337809801
1773522552992813300,11.562813232421876,-3.328473976102471,1.8761399093270301,-5.506466249960661
1773522553002851600,11.5728515625,-1.3264409112185238,1.484815363663435,-5.105143457373976
1773522553012889300,11.582889404296875,0.9015367520362139,0.706207072159648,-4.263789663621783
1773522553022927600,11.592927734375,1.8458438475236296,-0.1766951220333576,-3.6010847563192248
1773522553032965400,11.60296533203125,1.4793313792943954,-0.87966745005548,-3.2537703250348566
1773522553043003600,11.613003662109374,1.6020990963071584,-1.328154729399085,-2.730571503578126
1773522553053041400,11.62304150390625,2.6384353639334437,-1.4753198055654764,-1.76992819031775
1773522553063079400,11.633079345703125,3.7318013865098356,-1.1705044995754956,-0.1162745556011796
1773522553073117400,11.643117431640626,4.048045556747913,-1.063523549759388,1.5295108299583196
1773522553083155500,11.653155517578124,3.2004742036551237,-0.9807996738433837,2.8439526758253573
1773522553093193500,11.663193359375,1.9068711476773021,-0.9198024765670298,3.92227515078783
1773522553103231500,11.6732314453125,1.0067483540922402,-1.0336521431088448,4.531269218429923
1773522553113269500,11.68326953125,0.6592670418083667,-1.2748662068039178,4.821583705380559
1773522553123306500,11.693306396484376,1.1711048035562037,-1.6891852590858936,4.840064241705835
1773522553133344500,11.703344482421874,2.2918308344841,-2.079346021667123,4.586024306446314
1773522553143382500,11.713382568359375,3.542822829225659,-2.4870985550403595,4.003861547106504
1773522553153420500,11.723420654296875,3.9931098514676093,-2.917110266494751,3.271277924674749
1773522553163458300,11.733458251953126,3.6116748316556215,-3.3114275642335413,2.190124902461469
1773522553173496600,11.74349658203125,2.6470257898852227,-3.4178649086922404,1.0970116856023668
1773522553183534300,11.753534423828125,1.4677604762271046,-3.1889579533845183,0.15755845988690853
1773522553193572600,11.763572509765625,0.5424541415467858,-2.7972172281354664,-0.7294096685707568
1773522553203610400,11.7736103515625,0.11444324852079152,-2.2874188632607457,-1.555039823490381
1773522553213648600,11.783648681640624,-0.3820721486717462,-1.6638386363834141,-2.453583531190455
1773522553223686400,11.793686279296875,-1.333325994557142,-1.093833347827196,-3.2952541358068586
1773522553233724400,11.803724365234375,-2.2700933421894907,-0.703586660528183,-3.9163101049035784
1773522553243762400,11.813762451171876,-2.626978442634642,-0.7030640979588031,-4.087584370931983
1773522553253800400,11.823800537109374,-2.6630899127185343,-0.6396715299785137,-3.952501654486358
1773522553263838500,11.83383837890625,-2.5704209813714027,-0.2922188592672348,-3.7318122001647946
1773522553273876500,11.84387646484375,-1.9058222231462596,0.020057868644595144,-3.8023531785950064
1773522553283914500,11.85391455078125,-1.080907230758667,0.0006260229438543319,-4.008184963263571
1773522553293952500,11.863952392578126,-0.7254448565930127,-0.03271627468764782,-4.238733840559423
1773522553303990300,11.873990234375,-0.6325692967578769,-0.31915596603155133,-4.417821995209157
1773522553314028500,11.884028564453125,-0.41225656679421663,-1.0299877753823996,-4.2317979038164015
1773522553324066300,11.89406640625,0.23126374756693838,-1.8153870422005651,-3.771463534812629
1773522553334104600,11.9041044921875,1.29005296228081,-2.425639585471153,-3.045430064676702
1773522553344142300,11.914142333984374,1.2283289120346308,-2.898551111975312,-2.5141826690599323
1773522553354179300,11.924179443359375,-0.5058239082857966,-3.6105765150249,-2.474221830071509
1773522553364217600,11.934217529296875,-2.715500483435392,-3.9740404093384742,-1.7455998047471046
1773522553374255400,11.94425537109375,-3.9543656947925685,-3.8007203166961667,-0.032606676833331585
1773522553384293600,11.954293701171874,-2.641152221676707,-2.8609230998486277,2.0868200108096002
1773522553394331400,11.964331298828125,0.6344599328100681,-1.674286965161562,3.106921182949841
1773522553404369400,11.974369384765625,1.971555509033799,-0.40059681639969347,2.7186688843384386
1773522553414407400,11.984407470703125,0.24335692094266415,1.3805138621896504,1.7203809000775216
1773522553424445400,11.994445556640626,-0.008393149814009666,2.9480232911527153,2.5635332676842806
1773522553434483500,12.0044833984375,3.371748469683528,2.80465176205039,4.697551375259459
1773522553444521500,12.014521484375,6.029094285792112,1.3411270236968993,4.653468195644021
1773522553454559500,12.0245595703125,4.993612589168548,0.038000937092304225,2.320694671527296
1773522553464597500,12.034597412109376,1.5690671797990798,-0.9738029468238353,-0.1864209817558527
1773522553474635300,12.04463525390625,0.2323170560121536,-2.206811541107297,-0.06817965612635016
1773522553484673500,12.054673583984375,3.537690142512321,-3.1979601750075815,1.8716627639129757
1773522553494711300,12.064711181640625,4.9132069270670415,-3.630516894769668,2.413290245377272
1773522553504749600,12.07474951171875,2.5115607961237427,-3.2805665620237585,2.546492408773303
1773522553514787300,12.084787353515624,0.8201005778431892,-2.172649743786454,2.87974558147937
1773522553524825300,12.094825439453125,0.8184767760336399,-0.6470511188358068,3.068249506989121
1773522553534863400,12.10486328125,1.055337905216217,1.1050146670550107,3.67920932174623
1773522553544901400,12.1149013671875,2.059906577181816,2.6679835299789905,3.986934669964015
1773522553554938600,12.124938720703126,2.16933784275949,3.7662107288509605,3.066082684344053
1773522553564976400,12.134976318359374,-0.147712188655138,4.793431962129473,1.8684622143059968
1773522553575014400,12.145014404296875,-1.7917852173388003,5.468219813674688,0.8680937705092131
1773522553585052400,12.155052490234375,-1.6728203997403381,5.539449066630006,0.03298964826893061
1773522553595090400,12.16509033203125,-1.7823147936820982,5.1492719374358655,-0.27339224945064633
1773522553605128400,12.17512841796875,0.31752222734987734,4.110907963374257,-0.37306455675382166
1773522553615166500,12.18516650390625,0.20053543182611464,3.059605597284436,-1.413223853266984
1773522553625204500,12.19520458984375,-1.4625164380937814,2.0758593485951424,-2.336208905392885
1773522553635242500,12.205242431640626,-0.24726269620954988,1.2733248225808143,-2.41788224934265
1773522553645280300,12.2152802734375,0.5311205543667078,0.556491726988554,-2.087560600043833
1773522553655318300,12.225318359375,-0.7793418664753436,0.03312719357609749,-1.0099632975507526
1773522553665356000,12.23535595703125,0.23797522790431974,0.1319090548455715,-0.37776999449841675
1773522553675394000,12.24539404296875,0.7881476887434721,0.3752648067444563,-0.4963199111530557
1773522553685432300,12.255432373046874,-1.021307040798664,0.7272112817436456,-0.436717346572876
1773522553695470000,12.265469970703125,-0.24505378798842428,1.2716776398956775,-0.34149686757940795
1773522553705508400,12.27550830078125,1.021432128483057,1.4428911156475543,0.026491719350684433
1773522553715546000,12.285546142578125,0.37287060508430003,1.4081272607803343,0.43038657264877106
1773522553725584400,12.29558447265625,-0.6065957743287086,1.7804443236351013,1.0199971272438764
1773522553735622100,12.3056220703125,-0.429029714679718,2.042505945047736,1.1011357797950505
1773522553745660200,12.31566015625,-0.1689046142876148,1.853043695899844,1.095055290837586
1773522553755697200,12.325697265625,-0.3470306459069252,1.3678417198821902,1.331317577344179
1773522553765735200,12.335735107421876,-0.64723173609972,0.5370774169445037,1.5664125736370682
1773522553775773000,12.34577294921875,-1.3508973070830106,-0.4614142731949687,1.0996867500305174
1773522553785811200,12.355811279296875,-0.47490591519176956,-1.2709724142357706,0.809152994306013
1773522553795849000,12.365848876953125,-0.6698164928734303,-2.024082984128594,0.9537496082238852
1773522553805887200,12.37588720703125,-0.5840349829524755,-1.9337582778200506,-0.030496388414781538
1773522553815925200,12.38592529296875,-0.30215047069489953,-1.9596894224122166,-0.6410245520226657
1773522553825963300,12.39596337890625,-0.7828466597259044,-1.665899952827394,-0.3464062669308856
1773522553836001300,12.406001220703125,-0.4514595731526613,-0.9057666446909308,0.1315795306302607
1773522553846039000,12.4160390625,-0.007480711144208908,-0.04662117366045713,0.6259764012988657
1773522553856077300,12.426077392578126,-0.3573907118797302,0.4369342041939497,0.3356599781194702
1773522553866115000,12.436114990234374,-1.2166203540623188,0.2647404852330684,-0.4180682487476617
1773522553876153300,12.4461533203125,-2.0357745909661054,-0.26159838781505823,-0.15330931454245
1773522553886191000,12.456191162109375,-1.265430854460597,-0.8485381522983312,-0.02635181768964976
1773522553896229400,12.4662294921875,-0.43500528195798394,-0.6577493307217955,-0.18551860782233998
1773522553906267100,12.47626708984375,-0.9161305100560188,-0.8996449469402432,-0.513350540930964
1773522553916305200,12.48630517578125,-0.6805851396471262,-0.4568915350735187,-1.3954701699115335
1773522553926342100,12.496342041015625,0.050370004799962044,0.35748598894774913,-2.279341355267167
1773522553936380200,12.506380126953125,-1.0847744275808333,0.3397068788900971,-2.3552285170309246
1773522553946418000,12.51641796875,-1.3992086257874965,0.4964987383186817,-1.852376464162767
1773522553956456200,12.526456298828125,-0.06051087506413459,0.4881885906130075,-1.4095740985877812
1773522553966494200,12.536494140625,0.724894236972928,0.32958149845600127,-0.920281492255628
1773522553976532200,12.5465322265625,0.1474070682287216,0.4160115354135632,-0.2390821297002956
1773522553986570200,12.5565703125,-0.6761708303362131,0.5620002612769603,0.3108177247425541
1773522553996608300,12.566608154296874,-1.15449444501698,0.46271161952912804,0.33850130249261856
1773522554006646300,12.576646240234375,-1.4591852478444576,0.15791516437008976,-0.03487272206917405
1773522554016684000,12.58668408203125,-1.4670774623990057,0.16843787355870007,-0.19706399285588413
1773522554026722300,12.596722412109376,-0.306390592482686,0.32240561547726393,-0.6566656271383166
1773522554036760000,12.606760009765624,-0.47404257636070246,0.20960823446735738,-1.077426256775111
1773522554046798300,12.61679833984375,-1.4793705422610044,0.1131969017215073,-0.5544380093291401
1773522554056836000,12.626836181640625,-1.2071154436141251,-0.1962031017102301,0.05973090366758406
1773522554066874400,12.636874267578126,-1.2006079614162444,-0.0905652370661497,0.36156872821673747
1773522554076912000,12.646912109375,-1.15145493119061,0.1886718294225633,-0.6011904812190682
1773522554086950100,12.6569501953125,-1.508223127257824,0.31095965396389363,-1.1358269347522407
1773522554096987100,12.666987060546875,-1.2917407692372798,0.06845438141450286,-0.426311907088384
