time,seconds_elapsed,z,y,x
1773522541504344800,0.0743447265625,-0.9300079345703125,0.085357666015625,-0.0508270263671875
1773522541514382800,0.0843828125,-0.8169403076171875,0.0953521728515625,-0.1151275634765625
1773522541524420900,0.0944208984375,-0.776153564453125,0.0964202880859375,-0.1800079345703125
1773522541534459000,0.104458984375,-0.867279052734375,0.01531982421875,-0.1344451904296875
1773522541544497000,0.114496826171875,-0.91943359375,-0.0658111572265625,-0.059967041015625
1773522541554535000,0.124534912109375,-0.938232421875,-0.167999267578125,-0.0228424072265625
1773522541564573000,0.134572998046875,-1.0300445556640625,-0.3188934326171875,-0.036346435546875
1773522541574610700,0.144610595703125,-1.09417724609375,-0.449066162109375,0.0306243896484375
1773522541584648000,0.15464794921875,-1.119598388671875,-0.521728515625,0.073883056640625
1773522541594685700,0.164685791015625,-1.11669921875,-0.4141082763671875,0.073577880859375
1773522541604724000,0.174723876953125,-1.134765625,-0.2411956787109375,0.023040771484375
1773522541614761700,0.18476171875,-1.049957275390625,-0.11163330078125,0.0511627197265625
1773522541624799700,0.1947998046875,-0.9477081298828125,-0.0904693603515625,0.084136962890625
1773522541634837800,0.204837646484375,-0.857330322265625,-0.1851959228515625,0.1165771484375
1773522541644875300,0.214875244140625,-0.889312744140625,-0.2957611083984375,0.101806640625
1773522541654913500,0.22491357421875,-0.9618377685546875,-0.2820281982421875,0.0579376220703125
1773522541664951300,0.234951416015625,-0.960968017578125,-0.163726806640625,0.02105712890625
1773522541674989300,0.2449892578125,-0.9278106689453125,-0.0951690673828125,0.0045013427734375
1773522541685026300,0.2550263671875,-0.9849700927734375,-0.142852783203125,0.0330810546875
1773522541695064300,0.265064208984375,-1.1614990234375,-0.250701904296875,0.1331787109375
1773522541705102300,0.275102294921875,-1.228546142578125,-0.319244384765625,0.16650390625
1773522541715140400,0.285140380859375,-1.1670684814453125,-0.291046142578125,0.1669158935546875
1773522541725178400,0.295178466796875,-1.0775604248046875,-0.2388763427734375,0.1791839599609375
1773522541735216400,0.30521630859375,-0.9746856689453125,-0.2075958251953125,0.187591552734375
1773522541745254400,0.31525439453125,-0.860443115234375,-0.1676025390625,0.2021942138671875
1773522541755292400,0.32529248046875,-0.83538818359375,-0.1507110595703125,0.185760498046875
1773522541765330400,0.335330322265625,-0.9556121826171875,-0.198577880859375,0.12841796875
1773522541775368200,0.3453681640625,-1.1578826904296875,-0.254730224609375,0.158294677734375
1773522541785405400,0.355405517578125,-1.1553192138671875,-0.3022308349609375,0.238433837890625
1773522541795443200,0.365443115234375,-1.085784912109375,-0.32305908203125,0.2713165283203125
1773522541805481500,0.3754814453125,-1.048431396484375,-0.302215576171875,0.281646728515625
1773522541815519200,0.385519287109375,-1.091278076171875,-0.2389678955078125,0.2754974365234375
1773522541825557200,0.39555712890625,-1.1085052490234375,-0.1284332275390625,0.268585205078125
1773522541835595300,0.40559521484375,-1.045318603515625,0.006866455078125,0.2219085693359375
1773522541845633300,0.41563330078125,-0.91766357421875,0.0843658447265625,0.1065216064453125
1773522541855671300,0.42567138671875,-0.6369171142578125,0.1177520751953125,-0.0472869873046875
1773522541865709300,0.435709228515625,-0.62701416015625,0.0560302734375,-0.1953887939453125
1773522541875747300,0.445747314453125,-0.820159912109375,-0.0730743408203125,-0.316253662109375
1773522541885785300,0.455785400390625,-0.7941131591796875,-0.186370849609375,-0.3164520263671875
1773522541895822300,0.465822265625,-0.7274322509765625,-0.1865081787109375,-0.3261566162109375
1773522541905860400,0.4758603515625,-0.8267974853515625,-0.18896484375,-0.26483154296875
1773522541915898400,0.4858984375,-1.0200347900390625,-0.1943817138671875,0.0109710693359375
1773522541925936000,0.49593603515625,-1.001556396484375,-0.1306915283203125,0.29974365234375
1773522541935974400,0.505974365234375,-0.8230133056640625,-0.1291961669921875,0.4353485107421875
1773522541946012200,0.51601220703125,-0.8204803466796875,-0.388916015625,0.430908203125
1773522541956050400,0.526050537109375,-0.925262451171875,-0.5380096435546875,0.3862152099609375
1773522541966088200,0.536088134765625,-0.9256439208984375,-0.3702239990234375,0.2985076904296875
1773522541976126500,0.54612646484375,-1.02618408203125,-0.1638031005859375,0.2300872802734375
1773522541986164200,0.556164306640625,-1.168212890625,-0.0185546875,0.1772613525390625
1773522541996201200,0.566201171875,-1.16656494140625,0.02734375,0.239532470703125
1773522542006239500,0.576239501953125,-1.2062530517578125,-0.10906982421875,0.5107574462890625
1773522542016277200,0.58627734375,-1.2150726318359375,-0.2202606201171875,0.756134033203125
1773522542026315300,0.596315185546875,-1.107330322265625,-0.1199188232421875,0.665313720703125
1773522542036353300,0.606353271484375,-0.8649139404296875,0.040313720703125,0.556671142578125
1773522542046391300,0.616391357421875,-0.6827545166015625,0.116058349609375,0.4930572509765625
1773522542056429300,0.62642919921875,-0.60955810546875,0.05841064453125,0.5237579345703125
1773522542066467300,0.63646728515625,-0.7554473876953125,-0.1528167724609375,0.5595855712890625
1773522542076505300,0.64650537109375,-0.8132171630859375,-0.15325927734375,0.6605682373046875
1773522542086543400,0.65654345703125,-0.627716064453125,-0.1015472412109375,0.70623779296875
1773522542096581000,0.6665810546875,-0.2271728515625,-0.2775421142578125,0.697418212890625
1773522542106618400,0.676618408203125,-0.247772216796875,-0.1786346435546875,0.667938232421875
1773522542116656400,0.686656494140625,-0.43548583984375,0.0488128662109375,0.47711181640625
1773522542126694400,0.6966943359375,-0.4257965087890625,-0.079376220703125,0.3729705810546875
1773522542136732400,0.706732421875,-0.49755859375,-0.1067962646484375,0.2686004638671875
1773522542146770200,0.716770263671875,-0.39630126953125,0.025360107421875,0.116668701171875
1773522542156808400,0.726808349609375,-0.3903961181640625,0.0559844970703125,0.1212158203125
1773522542166846200,0.73684619140625,-0.4158782958984375,0.0461578369140625,0.08575439453125
1773522542176884500,0.746884521484375,-0.42401123046875,0.1081390380859375,0.0220489501953125
1773522542186922200,0.756922119140625,-0.4965667724609375,0.15863037109375,-0.0079345703125
1773522542196960300,0.766960205078125,-0.565185546875,0.20135498046875,-0.0369110107421875
1773522542206997500,0.77699755859375,-0.5508575439453125,0.25762939453125,-0.081298828125
1773522542217035300,0.78703515625,-0.524566650390625,0.33819580078125,-0.012939453125
1773522542227073500,0.797073486328125,-0.55560302734375,0.40118408203125,0.0925750732421875
1773522542237111300,0.807111328125,-0.5727691650390625,0.4373321533203125,0.2005615234375
1773522542247149300,0.8171494140625,-0.5231781005859375,0.43865966796875,0.1953277587890625
1773522542257187300,0.827187255859375,-0.523895263671875,0.51910400390625,0.166595458984375
1773522542267225300,0.837225341796875,-0.5434417724609375,0.6615447998046875,0.1137237548828125
1773522542277263400,0.847263427734375,-0.509307861328125,0.8041534423828125,0.0408477783203125
1773522542287301400,0.85730126953125,-0.4792938232421875,0.92474365234375,-0.04254150390625
1773522542297339400,0.86733935546875,-0.476165771484375,1.0746307373046875,-0.1077423095703125
1773522542307377400,0.87737744140625,-0.50531005859375,1.211395263671875,-0.1028900146484375
1773522542317415200,0.887415283203125,-0.5779266357421875,1.2586669921875,-0.0957489013671875
1773522542327452400,0.897452392578125,-0.646514892578125,1.2864990234375,-0.072235107421875
1773522542337490400,0.907490478515625,-0.7186126708984375,1.3418121337890625,-0.0249176025390625
1773522542347528200,0.917528076171875,-0.789306640625,1.4464874267578125,0.064666748046875
1773522542357566500,0.92756640625,-0.7915191650390625,1.516998291015625,0.2335205078125
1773522542367604200,0.937604248046875,-0.7791900634765625,1.577545166015625,0.3943939208984375
1773522542377642500,0.947642578125,-0.695068359375,1.610321044921875,0.544097900390625
1773522542387680300,0.95768017578125,-0.5945281982421875,1.5947723388671875,0.6507720947265625
1773522542397718500,0.967718505859375,-0.5462188720703125,1.6020050048828125,0.716766357421875
1773522542407756300,0.97775634765625,-0.550140380859375,1.6111907958984375,0.800933837890625
1773522542417794300,0.987794189453125,-0.550628662109375,1.62451171875,0.836639404296875
1773522542427832300,0.997832275390625,-0.6152191162109375,1.7137451171875,0.8787078857421875
1773522542437869300,1.007869384765625,-0.6503753662109375,1.7263336181640625,0.9323883056640625
1773522542447907300,1.0179072265625,-0.6527862548828125,1.7530670166015625,0.9369049072265625
1773522542457945300,1.0279453125,-0.6503753662109375,1.7484130859375,0.973968505859375
1773522542467983400,1.0379833984375,-0.6757965087890625,1.6751556396484375,0.9913482666015625
1773522542478021400,1.048021484375,-0.7468109130859375,1.65887451171875,0.99700927734375
1773522542488059400,1.058059326171875,-0.7397613525390625,1.5931396484375,1.065338134765625
1773522542498097400,1.068097412109375,-0.6985321044921875,1.4990234375,1.12982177734375
1773522542508135400,1.078135498046875,-0.704620361328125,1.4074859619140625,1.1946868896484375
1773522542518173200,1.088173095703125,-0.6734161376953125,1.32568359375,1.195281982421875
1773522542528211500,1.09821142578125,-0.630828857421875,1.3307647705078125,1.1484832763671875
1773522542538249200,1.108249267578125,-0.644805908203125,1.3107757568359375,1.11572265625
1773522542548286500,1.118286376953125,-0.6469879150390625,1.213897705078125,1.0683135986328125
1773522542558324200,1.12832421875,-0.6496734619140625,1.139556884765625,1.0506439208984375
1773522542568362200,1.1383623046875,-0.6364898681640625,1.0994873046875,1.073577880859375
1773522542578400300,1.148400146484375,-0.6124267578125,1.0849151611328125,1.052276611328125
1773522542588438300,1.158438232421875,-0.6295166015625,1.0961761474609375,0.924163818359375
1773522542598476300,1.168476318359375,-0.766326904296875,1.0390472412109375,0.629241943359375
1773522542608514300,1.178514404296875,-0.9050445556640625,0.8892974853515625,0.4649505615234375
1773522542618552300,1.18855224609375,-0.910736083984375,0.8083038330078125,0.343109130859375
1773522542628590300,1.19859033203125,-0.8369598388671875,0.7849884033203125,0.2448883056640625
1773522542638628400,1.20862841796875,-0.7507171630859375,0.751373291015625,0.156097412109375
1773522542648666600,1.21866650390625,-0.6432342529296875,0.792449951171875,0.124176025390625
1773522542658704600,1.22870458984375,-0.530853271484375,0.8152618408203125,0.1827392578125
1773522542668741400,1.238741455078125,-0.422607421875,0.8355865478515625,0.2310333251953125
1773522542678779600,1.248779541015625,-0.351837158203125,0.8429718017578125,0.284088134765625
1773522542688817400,1.2588173828125,-0.2689361572265625,0.8150482177734375,0.345123291015625
1773522542698855700,1.268855712890625,-0.1461334228515625,0.84515380859375,0.41815185546875
1773522542708893400,1.2788935546875,-0.0451812744140625,0.8549957275390625,0.5343780517578125
1773522542718931500,1.288931396484375,0.0367431640625,0.8653106689453125,0.61761474609375
1773522542728969500,1.298969482421875,0.0696563720703125,0.869354248046875,0.7050628662109375
1773522542739007500,1.309007568359375,0.0604400634765625,0.8218536376953125,0.7012939453125
1773522542749045500,1.31904541015625,0.0213165283203125,0.759246826171875,0.7114410400390625
1773522542759083500,1.32908349609375,-0.000732421875,0.72705078125,0.679290771484375
1773522542769121500,1.33912158203125,0.0243988037109375,0.6879425048828125,0.6118011474609375
1773522542779159600,1.34915966796875,0.028839111328125,0.6414642333984375,0.5984649658203125
1773522542789196500,1.359196533203125,0.005279541015625,0.6236114501953125,0.6607818603515625
1773522542799234600,1.369234619140625,0.008453369140625,0.5943756103515625,0.6703643798828125
1773522542809272600,1.3792724609375,0.02886962890625,0.54742431640625,0.7430572509765625
1773522542819310300,1.389310302734375,0.1026458740234375,0.642822265625,0.5915679931640625
1773522542829348600,1.3993486328125,0.144073486328125,0.5327606201171875,0.610382080078125
1773522542839386400,1.409386474609375,0.1051025390625,0.5416259765625,0.6412353515625
1773522542849424600,1.419424560546875,-0.0153961181640625,0.5382843017578125,0.609405517578125
1773522542859462400,1.42946240234375,-0.0754852294921875,0.5282135009765625,0.519622802734375
1773522542869500700,1.439500732421875,-0.0480194091796875,0.5419921875,0.4250946044921875
1773522542879538400,1.449538330078125,-0.018524169921875,0.477203369140625,0.413970947265625
1773522542889576400,1.459576416015625,-0.00946044921875,0.410675048828125,0.5605621337890625
1773522542899614500,1.469614501953125,0.0948944091796875,0.487762451171875,0.54974365234375
1773522542909651500,1.4796513671875,0.2310028076171875,0.522552490234375,0.5049285888671875
1773522542919689500,1.489689453125,0.23583984375,0.456787109375,0.4984588623046875
1773522542929727500,1.4997275390625,0.235015869140625,0.54290771484375,0.4283294677734375
1773522542939765500,1.509765625,0.207489013671875,0.6424713134765625,0.467071533203125
1773522542949803500,1.519803466796875,0.1346588134765625,0.73785400390625,0.5576324462890625
1773522542959841500,1.529841552734375,0.035369873046875,0.853118896484375,0.557830810546875
1773522542969879600,1.539879638671875,-0.066558837890625,0.90643310546875,0.5263671875
1773522542979917600,1.54991748046875,-0.25177001953125,0.880218505859375,0.5240631103515625
1773522542989955300,1.559955322265625,-0.30572509765625,0.7923583984375,0.586669921875
1773522542999993600,1.56999365234375,-0.36114501953125,0.648193359375,0.72381591796875
1773522543010031400,1.58003125,-0.365753173828125,0.5032806396484375,0.7393646240234375
1773522543020069600,1.590069580078125,-0.4313507080078125,0.4585723876953125,0.74932861328125
1773522543030106600,1.600106689453125,-0.488861083984375,0.5413360595703125,0.8199462890625
1773522543040144400,1.610144287109375,-0.44964599609375,0.2039947509765625,0.9243011474609375
1773522543050182700,1.6201826171875,-0.3301239013671875,0.2405242919921875,0.89141845703125
1773522543060220400,1.630220458984375,-0.1158447265625,0.574676513671875,0.8502197265625
1773522543070258700,1.6402587890625,-0.01458740234375,0.69158935546875,0.8589324951171875
1773522543080296400,1.65029638671875,0.06683349609375,0.7890777587890625,0.875732421875
1773522543090334500,1.66033447265625,0.2106781005859375,0.80908203125,0.91510009765625
1773522543100372500,1.67037255859375,0.309356689453125,0.7900238037109375,0.95648193359375
1773522543110410500,1.680410400390625,0.3697509765625,0.7601165771484375,0.930450439453125
1773522543120448500,1.690448486328125,0.349761962890625,0.7486572265625,0.8530731201171875
1773522543130486500,1.700486572265625,0.233673095703125,0.7539825439453125,0.7645416259765625
1773522543140524500,1.710524658203125,0.0986328125,0.718841552734375,0.6968994140625
1773522543150562600,1.7205625,-0.03704833984375,0.6453094482421875,0.6663818359375
1773522543160599600,1.730599609375,-0.180450439453125,0.57666015625,0.6421356201171875
1773522543170637600,1.740637451171875,-0.3059539794921875,0.5623016357421875,0.5831756591796875
1773522543180675600,1.750675537109375,-0.3895721435546875,0.5909576416015625,0.538848876953125
1773522543190713600,1.760713623046875,-0.4447784423828125,0.6951141357421875,0.4554595947265625
1773522543200751600,1.770751708984375,-0.4788818359375,0.9794158935546875,0.262054443359375
1773522543210789400,1.780789306640625,-0.6182098388671875,1.2081451416015625,0.2831573486328125
1773522543220827600,1.79082763671875,-0.6114654541015625,1.1750335693359375,0.5272064208984375
1773522543230865400,1.800865478515625,-0.4737091064453125,1.0982208251953125,0.7010498046875
1773522543240903700,1.810903564453125,-0.4424896240234375,1.093597412109375,0.742645263671875
1773522543250941400,1.82094140625,-0.390869140625,0.9752349853515625,0.6678314208984375
1773522543260979700,1.830979736328125,-0.3926849365234375,0.821563720703125,0.5715789794921875
1773522543271017500,1.841017578125,-0.3029022216796875,0.8109893798828125,0.4682464599609375
1773522543281055500,1.851055419921875,-0.151519775390625,0.8147735595703125,0.3921966552734375
1773522543291093500,1.861093505859375,-0.1768646240234375,0.726593017578125,0.3402557373046875
1773522543301130500,1.871130615234375,-0.1818084716796875,0.7063446044921875,0.305267333984375
1773522543311168500,1.88116845703125,-0.1977386474609375,0.5931243896484375,0.242828369140625
1773522543321206500,1.89120654296875,-0.401702880859375,0.7460479736328125,0.319915771484375
1773522543331244500,1.90124462890625,-0.3821868896484375,0.822235107421875,0.3644256591796875
1773522543341282600,1.911282470703125,-0.21710205078125,0.659698486328125,0.4109954833984375
1773522543351320600,1.921320556640625,-0.072540283203125,0.3991851806640625,0.5050201416015625
1773522543361358600,1.931358642578125,-0.1223907470703125,0.4132537841796875,0.587738037109375
1773522543371396600,1.941396728515625,-0.192230224609375,0.46820068359375,0.654022216796875
1773522543381434400,1.951434326171875,-0.1877899169921875,0.4973907470703125,0.6889801025390625
1773522543391472600,1.96147265625,-0.16058349609375,0.4861907958984375,0.7158966064453125
1773522543401510400,1.971510498046875,-0.2559814453125,0.5249481201171875,0.7331390380859375
1773522543411548700,1.981548583984375,-0.4717559814453125,0.6670379638671875,0.7409515380859375
1773522543421586400,1.99158642578125,-0.5398101806640625,0.7857208251953125,0.76910400390625
1773522543431624700,2.001624755859375,-0.47540283203125,0.80816650390625,0.812225341796875
1773522543441661700,2.01166162109375,-0.4889373779296875,0.7957916259765625,0.8314971923828125
1773522543451699500,2.021699462890625,-0.4880523681640625,0.7460479736328125,0.8132781982421875
1773522543461737700,2.03173779296875,-0.3903045654296875,0.6876068115234375,0.756561279296875
1773522543471775500,2.041775390625,-0.3105621337890625,0.60394287109375,0.66015625
1773522543481813500,2.0518134765625,-0.2335052490234375,0.4406585693359375,0.490386962890625
1773522543491851500,2.0618515625,-0.316436767578125,0.4772491455078125,0.5135345458984375
1773522543501889500,2.0718896484375,-0.28387451171875,0.5352935791015625,0.495147705078125
1773522543511927600,2.081927490234375,-0.2144775390625,0.5730133056640625,0.474212646484375
1773522543521965600,2.091965576171875,-0.1417999267578125,0.62994384765625,0.449920654296875
1773522543532003600,2.102003662109375,-0.1610565185546875,0.804107666015625,0.454010009765625
1773522543542041600,2.11204150390625,-0.138153076171875,0.9449310302734375,0.4676971435546875
1773522543552079400,2.122079345703125,-0.0666046142578125,0.8832244873046875,0.48699951171875
1773522543562117600,2.13211767578125,-0.042022705078125,0.86944580078125,0.490264892578125
1773522543572155400,2.1421552734375,-0.0948638916015625,1.003662109375,0.4761962890625
1773522543582193700,2.152193603515625,-0.1005401611328125,1.1294097900390625,0.4465179443359375
1773522543592230700,2.162230712890625,-0.0842437744140625,1.2097930908203125,0.377716064453125
1773522543602268400,2.172268310546875,-0.0734710693359375,1.172271728515625,0.2882843017578125
1773522543612306700,2.182306640625,-0.06597900390625,1.198760986328125,0.2321319580078125
1773522543622344400,2.192344482421875,-0.0552978515625,1.2545928955078125,0.19549560546875
1773522543632382700,2.2023828125,-0.0768890380859375,1.2993927001953125,0.147491455078125
1773522543642420500,2.21242041015625,-0.1407928466796875,1.309173583984375,0.1161956787109375
1773522543652458200,2.222458251953125,-0.27142333984375,1.3552703857421875,0.080657958984375
1773522543662496000,2.23249609375,-0.4539642333984375,1.4532623291015625,0.03912353515625
1773522543672534300,2.2425341796875,-0.30377197265625,1.383056640625,0.0321807861328125
1773522543682572000,2.252572021484375,-0.092681884765625,1.184356689453125,0.0412445068359375
1773522543692610300,2.2626103515625,-0.21661376953125,1.0189361572265625,0.0593414306640625
1773522543702648000,2.27264794921875,-0.31463623046875,0.9247589111328125,0.1007843017578125
1773522543712686300,2.282686279296875,-0.27423095703125,0.8854522705078125,0.19281005859375
1773522543722724000,2.29272412109375,-0.2442626953125,0.896453857421875,0.28369140625
1773522543732762000,2.30276220703125,-0.2279815673828125,0.8944549560546875,0.3240814208984375
1773522543742800100,2.312800048828125,-0.2217254638671875,0.83074951171875,0.338134765625
1773522543752837000,2.322837158203125,-0.2325286865234375,0.7815399169921875,0.2922515869140625
1773522543762875400,2.33287548828125,-0.2056884765625,0.747283935546875,0.2477569580078125
1773522543772913200,2.3429130859375,-0.172576904296875,0.7073974609375,0.2521820068359375
1773522543782951200,2.352951171875,-0.1916961669921875,0.6980743408203125,0.2086944580078125
1773522543792989200,2.3629892578125,-0.201873779296875,0.725067138671875,0.162933349609375
1773522543803027200,2.373027099609375,-0.082672119140625,0.7794952392578125,0.142547607421875
1773522543813065200,2.383065185546875,0.0908203125,0.63214111328125,0.1247100830078125
1773522543823103200,2.393103271484375,0.0456390380859375,0.4163818359375,0.10150146484375
1773522543833141000,2.40314111328125,-0.0442047119140625,0.2596893310546875,0.0446929931640625
1773522543843179300,2.41317919921875,-0.0286102294921875,0.2219085693359375,0.00274658203125
1773522543853217000,2.423217041015625,-0.024444580078125,0.453826904296875,-0.046417236328125
1773522543863255300,2.43325537109375,0.03704833984375,0.837066650390625,-0.1649627685546875
1773522543873293000,2.44329296875,0.1314544677734375,1.310089111328125,-0.3118133544921875
1773522543883331300,2.453331298828125,0.2770843505859375,1.853057861328125,-0.50433349609375
1773522543893369000,2.463369140625,0.328826904296875,2.1619720458984375,-0.686859130859375
1773522543903407000,2.473406982421875,0.30633544921875,2.229766845703125,-0.754608154296875
1773522543913445000,2.483445068359375,0.194244384765625,2.0317230224609375,-0.7329559326171875
1773522543923482000,2.493482177734375,-0.2093048095703125,1.674560546875,-0.7156982421875
1773522543933520400,2.503520263671875,-0.7085723876953125,1.1867828369140625,-0.7118988037109375
1773522543943558100,2.51355810546875,-0.5483856201171875,0.841094970703125,-0.5884246826171875
1773522543953596200,2.52359619140625,-0.239349365234375,0.656036376953125,-0.4305877685546875
1773522543963634200,2.53363427734375,0.0210723876953125,0.585906982421875,-0.33441162109375
1773522543973672200,2.543672119140625,0.177398681640625,0.5596771240234375,-0.3005828857421875
1773522543983710200,2.553710205078125,0.318389892578125,0.5609283447265625,-0.3224945068359375
1773522543993748200,2.563748291015625,0.491668701171875,0.566070556640625,-0.3942718505859375
1773522544003786000,2.573785888671875,0.448638916015625,0.659423828125,-0.488677978515625
1773522544013824300,2.58382421875,0.200347900390625,0.778289794921875,-0.4803924560546875
1773522544023862000,2.593862060546875,-0.042633056640625,0.8863677978515625,-0.438018798828125
1773522544033900300,2.603900390625,-0.2078094482421875,1.0028533935546875,-0.41510009765625
1773522544043938000,2.61393798828125,-0.247100830078125,1.0456695556640625,-0.4140472412109375
1773522544053976300,2.623976318359375,-0.206787109375,1.0603179931640625,-0.429595947265625
1773522544064014000,2.63401416015625,-0.1417694091796875,1.0126495361328125,-0.432525634765625
1773522544074052000,2.644052001953125,-0.09197998046875,0.9501800537109375,-0.4201202392578125
1773522544084090000,2.654090087890625,-0.077301025390625,0.9006805419921875,-0.4171600341796875
1773522544094128000,2.664128173828125,-0.09063720703125,0.8774261474609375,-0.4146270751953125
1773522544104165400,2.674165283203125,-0.1129608154296875,0.877044677734375,-0.4207305908203125
1773522544114203100,2.684203125,-0.1226806640625,0.8850250244140625,-0.44061279296875
1773522544124241200,2.6942412109375,-0.1104888916015625,0.901824951171875,-0.4561920166015625
1773522544134279200,2.704279052734375,-0.0762176513671875,0.914031982421875,-0.465911865234375
1773522544144317200,2.714317138671875,-0.0282745361328125,0.919219970703125,-0.4625701904296875
1773522544154355200,2.724355224609375,0.0136566162109375,0.9424896240234375,-0.4534912109375
1773522544164393200,2.734393310546875,0.0355377197265625,0.9449615478515625,-0.44085693359375
1773522544174431000,2.744430908203125,0.0464935302734375,0.9246978759765625,-0.423614501953125
1773522544184469200,2.75446923828125,0.04498291015625,0.89312744140625,-0.4020843505859375
1773522544194507000,2.764507080078125,0.0560150146484375,0.88604736328125,-0.3910980224609375
1773522544204545300,2.774545166015625,0.0668487548828125,0.89923095703125,-0.3905487060546875
1773522544214583000,2.7845830078125,0.0687408447265625,0.894561767578125,-0.3880767822265625
1773522544224621300,2.794621337890625,0.0634002685546875,0.8945465087890625,-0.387725830078125
1773522544234659000,2.8046591796875,0.0493316650390625,0.89508056640625,-0.3866424560546875
1773522544244697000,2.814697021484375,0.034332275390625,0.8939208984375,-0.3902130126953125
1773522544254735000,2.824735107421875,0.021026611328125,0.8956756591796875,-0.4000701904296875
1773522544264773000,2.834773193359375,0.01275634765625,0.8995208740234375,-0.4084320068359375
1773522544274811400,2.844811279296875,0.00714111328125,0.8986968994140625,-0.415924072265625
1773522544284849200,2.85484912109375,-0.0002288818359375,0.8960723876953125,-0.4234619140625
1773522544294887400,2.864887451171875,-0.0093536376953125,0.8951416015625,-0.4340362548828125
1773522544304925200,2.87492529296875,-0.014556884765625,0.89508056640625,-0.4449310302734375
1773522544314962200,2.884962158203125,-0.02044677734375,0.9001007080078125,-0.453643798828125
1773522544325000200,2.895000244140625,-0.02056884765625,0.9055633544921875,-0.4597015380859375
1773522544335038200,2.9050380859375,-0.0193939208984375,0.9068756103515625,-0.46234130859375
1773522544345076000,2.915075927734375,-0.0170440673828125,0.90435791015625,-0.4597625732421875
1773522544355114200,2.9251142578125,-0.0160064697265625,0.9008941650390625,-0.452880859375
1773522544365152000,2.935152099609375,-0.0150299072265625,0.90374755859375,-0.4443359375
1773522544375190300,2.945190185546875,-0.0162506103515625,0.910491943359375,-0.4371185302734375
1773522544385228000,2.95522802734375,-0.01678466796875,0.919281005859375,-0.4308929443359375
1773522544395266300,2.965266357421875,-0.011016845703125,0.9275360107421875,-0.42425537109375
1773522544405304300,2.97530419921875,-0.0068359375,0.9312591552734375,-0.42059326171875
1773522544415342000,2.985342041015625,0.000030517578125,0.93145751953125,-0.4191741943359375
1773522544425380400,2.99538037109375,0.0086822509765625,0.929840087890625,-0.41986083984375
1773522544435418000,3.005418212890625,0.0186920166015625,0.9244537353515625,-0.4238433837890625
1773522544445456400,3.015456298828125,0.02618408203125,0.922454833984375,-0.43231201171875
1773522544455494100,3.025494140625,0.03118896484375,0.9187469482421875,-0.441436767578125
1773522544465532400,3.035532470703125,0.0317535400390625,0.916015625,-0.449554443359375
1773522544475570200,3.045570068359375,0.029693603515625,0.9126434326171875,-0.4591522216796875
1773522544485608200,3.055608154296875,0.02471923828125,0.9095611572265625,-0.4682464599609375
1773522544495646200,3.065646240234375,0.019134521484375,0.9117584228515625,-0.477020263671875
1773522544505684200,3.075684326171875,0.0143280029296875,0.918243408203125,-0.4828033447265625
1773522544515722200,3.08572216796875,0.011383056640625,0.928619384765625,-0.4836578369140625
1773522544525760300,3.09576025390625,0.00946044921875,0.9382171630859375,-0.4796142578125
1773522544535797000,3.105796875,0.0036468505859375,0.9349212646484375,-0.47088623046875
1773522544545835300,3.115835205078125,-0.006683349609375,0.9238128662109375,-0.4623260498046875
1773522544555873300,3.125873291015625,-0.0186004638671875,0.90911865234375,-0.4518890380859375
1773522544565911300,3.135911376953125,-0.01470947265625,0.90478515625,-0.446868896484375
1773522544575949300,3.14594921875,-0.0017852783203125,0.9040985107421875,-0.44000244140625
1773522544585987000,3.155987060546875,0.017425537109375,0.901824951171875,-0.433746337890625
1773522544596025300,3.166025390625,0.0334625244140625,0.8994598388671875,-0.4256744384765625
1773522544606063000,3.17606298828125,0.0450439453125,0.889434814453125,-0.4102630615234375
1773522544616101400,3.186101318359375,0.0645904541015625,0.855987548828125,-0.403228759765625
1773522544626139100,3.19613916015625,0.1094207763671875,0.8511810302734375,-0.3998565673828125
1773522544636177400,3.206177490234375,0.14483642578125,0.853759765625,-0.40179443359375
1773522544646215200,3.216215087890625,0.1508941650390625,0.87109375,-0.407958984375
1773522544656253000,3.2262529296875,0.122528076171875,0.8807373046875,-0.4113616943359375
1773522544666291000,3.236291015625,0.0720062255859375,0.8928680419921875,-0.4066314697265625
1773522544676329000,3.246328857421875,0.030303955078125,0.9150390625,-0.410186767578125
1773522544686366700,3.25636669921875,0.02423095703125,0.9230499267578125,-0.416961669921875
1773522544696405000,3.266405029296875,0.0473785400390625,0.919189453125,-0.4205780029296875
1773522544706442800,3.27644287109375,0.0738067626953125,0.91961669921875,-0.424346923828125
1773522544716481000,3.28648095703125,0.0829620361328125,0.926910400390625,-0.422943115234375
1773522544726518800,3.296518798828125,0.0742950439453125,0.9288482666015625,-0.4147796630859375
1773522544736557000,3.30655712890625,0.057708740234375,0.925537109375,-0.4026336669921875
1773522544746594800,3.3165947265625,0.040191650390625,0.920379638671875,-0.388763427734375
1773522544756632800,3.3266328125,0.0262451171875,0.91815185546875,-0.3754119873046875
1773522544766670000,3.336670166015625,0.023681640625,0.919586181640625,-0.3704071044921875
1773522544776707800,3.346707763671875,0.0259246826171875,0.9232940673828125,-0.3694000244140625
1773522544786746000,3.35674609375,0.030487060546875,0.9312744140625,-0.372955322265625
1773522544796783900,3.366783935546875,0.03656005859375,0.9383697509765625,-0.375640869140625
1773522544806822000,3.37682177734375,0.042877197265625,0.9410552978515625,-0.3751220703125
1773522544816860000,3.38685986328125,0.0440521240234375,0.947784423828125,-0.3762054443359375
1773522544826898000,3.39689794921875,0.0384368896484375,0.9552154541015625,-0.377044677734375
1773522544836936000,3.40693603515625,0.0255279541015625,0.969757080078125,-0.37921142578125
1773522544846974000,3.416973876953125,0.0069122314453125,0.988372802734375,-0.385711669921875
1773522544857011700,3.42701171875,0.00311279296875,0.99554443359375,-0.3880462646484375
1773522544867050000,3.437050048828125,0.0041351318359375,1.00341796875,-0.3889007568359375
1773522544877087700,3.447087646484375,0.0206298828125,1.005523681640625,-0.3878936767578125
1773522544887126000,3.4571259765625,0.0384521484375,1.0051727294921875,-0.3798675537109375
1773522544897163800,3.467163818359375,0.05035400390625,0.9893798828125,-0.3660125732421875
1773522544907202000,3.4772021484375,0.0560455322265625,0.9519500732421875,-0.3577728271484375
1773522544917239800,3.48723974609375,0.0570526123046875,0.91619873046875,-0.355987548828125
1773522544927277800,3.49727783203125,0.054534912109375,0.8975830078125,-0.3548126220703125
1773522544937315800,3.50731591796875,0.04852294921875,0.897735595703125,-0.3577423095703125
1773522544947353900,3.517353759765625,0.0426177978515625,0.9068145751953125,-0.3664093017578125
1773522544957392000,3.527391845703125,0.0302276611328125,0.9094696044921875,-0.382904052734375
1773522544967430000,3.537429931640625,0.0203704833984375,0.9082183837890625,-0.412078857421875
1773522544977468000,3.547468017578125,0.014678955078125,0.9083709716796875,-0.442230224609375
1773522544987506000,3.557505859375,0.025726318359375,0.921600341796875,-0.4643707275390625
1773522544997544000,3.5675439453125,0.0389251708984375,0.936279296875,-0.47747802734375
1773522545007582000,3.57758203125,0.052978515625,0.9405670166015625,-0.48455810546875
1773522545017620000,3.587619873046875,0.05108642578125,0.933624267578125,-0.4857330322265625
1773522545027658000,3.597657958984375,0.03271484375,0.928375244140625,-0.488861083984375
1773522545037696000,3.607696044921875,0.0077056884765625,0.935821533203125,-0.492645263671875
1773522545047732700,3.617732666015625,-0.009185791015625,0.940765380859375,-0.48968505859375
1773522545057771000,3.62777099609375,-0.0146636962890625,0.9272918701171875,-0.4811553955078125
1773522545067808800,3.637808837890625,-0.00457763671875,0.897796630859375,-0.4725189208984375
1773522545077847000,3.647846923828125,0.0194244384765625,0.8676605224609375,-0.47161865234375
1773522545087884800,3.657884765625,0.0491180419921875,0.8469696044921875,-0.4778900146484375
1773522545097922800,3.6679228515625,0.080169677734375,0.8344573974609375,-0.49566650390625
1773522545107960800,3.6779609375,0.1227874755859375,0.8323516845703125,-0.52008056640625
1773522545117998800,3.687998779296875,0.1726531982421875,0.8416290283203125,-0.55023193359375
1773522545128036900,3.698036865234375,0.2074432373046875,0.8667449951171875,-0.5825042724609375
1773522545138075000,3.708074951171875,0.2146148681640625,0.89410400390625,-0.6213226318359375
1773522545148113000,3.71811279296875,0.189361572265625,0.90997314453125,-0.6561737060546875
1773522545158151000,3.72815087890625,0.143768310546875,0.90924072265625,-0.68487548828125
1773522545168189000,3.73818896484375,0.0756072998046875,0.8883056640625,-0.6962890625
1773522545178227000,3.74822705078125,0.0110931396484375,0.8825225830078125,-0.659423828125
1773522545188265000,3.758264892578125,-0.0233612060546875,0.8888702392578125,-0.5846405029296875
1773522545198303000,3.768302978515625,-0.052398681640625,0.88629150390625,-0.517578125
1773522545208341000,3.778341064453125,-0.0889434814453125,0.8800201416015625,-0.4568939208984375
1773522545218379000,3.78837890625,-0.1615753173828125,0.9026641845703125,-0.3628997802734375
1773522545228417000,3.7984169921875,-0.25311279296875,0.9567108154296875,-0.2202606201171875
1773522545238454800,3.808454833984375,-0.31512451171875,0.9991912841796875,-0.101593017578125
1773522545248493000,3.8184931640625,-0.3654327392578125,1.0142669677734375,-0.0973968505859375
1773522545258530800,3.82853076171875,-0.3893585205078125,1.03997802734375,-0.162506103515625
1773522545268569000,3.838569091796875,-0.34759521484375,1.06689453125,-0.2270660400390625
1773522545278606800,3.84860693359375,-0.269500732421875,1.0679473876953125,-0.26202392578125
1773522545288644900,3.858644775390625,-0.1896820068359375,1.043212890625,-0.283447265625
1773522545298683000,3.868682861328125,-0.1318206787109375,1.0223388671875,-0.29193115234375
1773522545308721000,3.878720947265625,-0.097381591796875,1.012603759765625,-0.293182373046875
1773522545318759000,3.888759033203125,-0.1069183349609375,1.013275146484375,-0.271240234375
1773522545328797000,3.898796875,-0.1411895751953125,1.0135040283203125,-0.2215576171875
1773522545338835000,3.9088349609375,-0.1593475341796875,0.992218017578125,-0.1614532470703125
1773522545348873000,3.918873046875,-0.1524200439453125,0.9597015380859375,-0.106658935546875
1773522545358910700,3.92891064453125,-0.1294097900390625,0.93780517578125,-0.0700836181640625
1773522545368949000,3.938948974609375,-0.1307373046875,0.9312896728515625,-0.059661865234375
1773522545378986800,3.94898681640625,-0.1637420654296875,0.9369354248046875,-0.0628814697265625
1773522545389025000,3.95902490234375,-0.2078399658203125,0.952484130859375,-0.0817413330078125
1773522545399062000,3.96906201171875,-0.2316436767578125,0.9709014892578125,-0.1137542724609375
1773522545409099800,3.979099853515625,-0.2242584228515625,0.9748992919921875,-0.1476898193359375
1773522545419138000,3.989137939453125,-0.1924896240234375,0.961944580078125,-0.1741790771484375
1773522545429175800,3.99917578125,-0.15771484375,0.9561767578125,-0.18951416015625
1773522545439214000,4.009214111328125,-0.148681640625,0.9547882080078125,-0.2063751220703125
1773522545449251800,4.019251953125,-0.1773223876953125,0.9457244873046875,-0.253265380859375
1773522545459290000,4.0292900390625,-0.2321624755859375,0.93865966796875,-0.311676025390625
1773522545469328000,4.039327880859375,-0.2847137451171875,0.924163818359375,-0.368927001953125
1773522545479366000,4.049365966796875,-0.319580078125,0.9084320068359375,-0.4183502197265625
1773522545489404000,4.05940380859375,-0.321685791015625,0.8937225341796875,-0.4585418701171875
1773522545499442000,4.06944189453125,-0.29608154296875,0.8789520263671875,-0.4868011474609375
1773522545509480000,4.07947998046875,-0.2503509521484375,0.8746185302734375,-0.4923553466796875
1773522545519518000,4.08951806640625,-0.2070770263671875,0.8732757568359375,-0.48150634765625
1773522545529555700,4.0995556640625,-0.1885833740234375,0.868072509765625,-0.4687347412109375
1773522545539594000,4.109593994140625,-0.1800384521484375,0.8610687255859375,-0.4619903564453125
1773522545549631700,4.1196318359375,-0.1688995361328125,0.860626220703125,-0.468292236328125
1773522545559670000,4.129669921875,-0.1730194091796875,0.8620758056640625,-0.478515625
1773522545569707800,4.139707763671875,-0.1945343017578125,0.8669586181640625,-0.4920654296875
1773522545579746000,4.14974609375,-0.2219085693359375,0.879058837890625,-0.5123291015625
1773522545589783800,4.15978369140625,-0.2467498779296875,0.8935089111328125,-0.5299835205078125
1773522545599821800,4.16982177734375,-0.268707275390625,0.896087646484375,-0.541656494140625
1773522545609859800,4.17985986328125,-0.2891998291015625,0.8852386474609375,-0.5453948974609375
1773522545619897900,4.18989794921875,-0.3095855712890625,0.871307373046875,-0.5492401123046875
1773522545629935900,4.199935791015625,-0.3246612548828125,0.8547515869140625,-0.545074462890625
1773522545639974000,4.209973876953125,-0.3345184326171875,0.836761474609375,-0.5477142333984375
1773522545650012200,4.22001220703125,-0.31939697265625,0.8277435302734375,-0.5393524169921875
1773522545660050200,4.23005029296875,-0.294097900390625,0.824371337890625,-0.5246734619140625
1773522545670088000,4.240087890625,-0.2687225341796875,0.8133392333984375,-0.5193939208984375
1773522545680126200,4.250126220703125,-0.250701904296875,0.7918853759765625,-0.5325775146484375
1773522545690164000,4.2601640625,-0.212493896484375,0.775360107421875,-0.528778076171875
1773522545700202200,4.2702021484375,-0.1785430908203125,0.7677154541015625,-0.53045654296875
1773522545710240000,4.280239990234375,-0.132904052734375,0.767333984375,-0.5344085693359375
1773522545720278300,4.2902783203125,-0.0986480712890625,0.78076171875,-0.5123291015625
1773522545730316300,4.30031640625,-0.062103271484375,0.7946929931640625,-0.507476806640625
1773522545740354000,4.31035400390625,-0.058380126953125,0.8049774169921875,-0.507904052734375
1773522545750392300,4.320392333984375,-0.0790252685546875,0.800811767578125,-0.4988555908203125
1773522545760430000,4.33043017578125,-0.108367919921875,0.7859039306640625,-0.479583740234375
1773522545770468400,4.34046826171875,-0.1426849365234375,0.77569580078125,-0.4584808349609375
1773522545780506000,4.350506103515625,-0.1627655029296875,0.761383056640625,-0.4365386962890625
1773522545790544400,4.36054443359375,-0.1829376220703125,0.7580718994140625,-0.427032470703125
1773522545800582100,4.37058203125,-0.1966400146484375,0.7431182861328125,-0.426177978515625
1773522545810620200,4.3806201171875,-0.2009124755859375,0.735565185546875,-0.4291229248046875
1773522545820658200,4.390658203125,-0.2169342041015625,0.7582244873046875,-0.4064483642578125
1773522545830696200,4.4006962890625,-0.2124176025390625,0.751953125,-0.4051055908203125
1773522545840734200,4.410734130859375,-0.186492919921875,0.7378387451171875,-0.389984130859375
1773522545850772200,4.420772216796875,-0.1793060302734375,0.7455596923828125,-0.36383056640625
1773522545860810000,4.43081005859375,-0.193084716796875,0.754119873046875,-0.3609619140625
1773522545870848300,4.44084814453125,-0.2197265625,0.7712860107421875,-0.3694305419921875
1773522545880886000,4.450885986328125,-0.2484893798828125,0.80023193359375,-0.37811279296875
1773522545890924300,4.46092431640625,-0.2855377197265625,0.8287811279296875,-0.3728485107421875
1773522545900962000,4.470962158203125,-0.3204803466796875,0.8355712890625,-0.3730621337890625
1773522545911000300,4.481000244140625,-0.348358154296875,0.8127593994140625,-0.37896728515625
1773522545921038000,4.4910380859375,-0.3768768310546875,0.778594970703125,-0.377655029296875
1773522545931076000,4.501076171875,-0.401031494140625,0.75335693359375,-0.393035888671875
1773522545941114000,4.511114013671875,-0.4232330322265625,0.75848388671875,-0.4132080078125
1773522545951152000,4.521152099609375,-0.4507904052734375,0.779998779296875,-0.42266845703125
1773522545961190100,4.531190185546875,-0.4700775146484375,0.8142547607421875,-0.425048828125
1773522545971228200,4.541228271484375,-0.4593963623046875,0.861663818359375,-0.4145965576171875
1773522545981266200,4.55126611328125,-0.459075927734375,0.9403228759765625,-0.41455078125
1773522545991303200,4.56130322265625,-0.4551849365234375,1.0591888427734375,-0.4448089599609375
1773522546001341200,4.571341064453125,-0.3803253173828125,1.1362457275390625,-0.4779052734375
1773522546011379200,4.581379150390625,-0.199737548828125,1.142364501953125,-0.5009918212890625
1773522546021417200,4.591417236328125,0.0275115966796875,1.0723419189453125,-0.5074310302734375
1773522546031455000,4.601455078125,0.2104034423828125,0.9813385009765625,-0.4635009765625
1773522546041493200,4.6114931640625,0.2452392578125,0.889556884765625,-0.4135894775390625
1773522546051531000,4.621531005859375,0.1640625,0.8037872314453125,-0.399932861328125
1773522546061569300,4.6315693359375,-0.010711669921875,0.745941162109375,-0.437530517578125
1773522546071607000,4.64160693359375,-0.159454345703125,0.7628021240234375,-0.514923095703125
1773522546081645300,4.651645263671875,-0.2415771484375,0.8494110107421875,-0.6304931640625
1773522546091683000,4.66168310546875,-0.255279541015625,0.955474853515625,-0.732879638671875
1773522546101721000,4.67172119140625,-0.1845703125,1.0608673095703125,-0.8128814697265625
1773522546111759000,4.681759033203125,-0.0168914794921875,1.1475677490234375,-0.84869384765625
1773522546121797000,4.691797119140625,0.183135986328125,1.1859283447265625,-0.8130950927734375
1773522546131835100,4.701835205078125,0.323211669921875,1.188995361328125,-0.7605438232421875
1773522546141873200,4.711873046875,0.3664703369140625,1.1260986328125,-0.6801605224609375
1773522546151911200,4.7219111328125,0.34405517578125,1.0191650390625,-0.5387725830078125
1773522546161949200,4.73194921875,0.234130859375,0.95684814453125,-0.3677825927734375
1773522546171987000,4.741987060546875,0.062347412109375,0.9259033203125,-0.221160888671875
1773522546182025200,4.752025146484375,-0.12213134765625,0.8773956298828125,-0.115631103515625
1773522546192063000,4.76206298828125,-0.224639892578125,0.8079376220703125,-0.0543365478515625
1773522546202101200,4.772101318359375,-0.2079925537109375,0.7597198486328125,-0.020751953125
1773522546212139000,4.782138916015625,-0.0963897705078125,0.7612457275390625,-0.0191192626953125
1773522546222177300,4.79217724609375,0.05206298828125,0.8281707763671875,-0.0412139892578125
1773522546232215000,4.802215087890625,0.1806182861328125,0.9389495849609375,-0.08258056640625
1773522546242253000,4.812253173828125,0.246917724609375,1.043701171875,-0.1325225830078125
1773522546252291300,4.822291259765625,0.236572265625,1.1147003173828125,-0.169158935546875
1773522546262329000,4.8323291015625,0.1657867431640625,1.1515045166015625,-0.188262939453125
1773522546272367400,4.842367431640625,0.0962982177734375,1.14251708984375,-0.206298828125
1773522546282405000,4.852405029296875,0.066009521484375,1.0573272705078125,-0.2471160888671875
1773522546292443400,4.862443359375,0.0781097412109375,0.971466064453125,-0.275360107421875
1773522546302481200,4.872481201171875,0.11279296875,0.954925537109375,-0.294097900390625
1773522546312519200,4.882519287109375,0.13812255859375,0.9795074462890625,-0.3223114013671875
1773522546322557200,4.89255712890625,0.15460205078125,0.98797607421875,-0.3544158935546875
1773522546332595200,4.90259521484375,0.1601409912109375,0.9673309326171875,-0.3836212158203125
1773522546342633200,4.91263330078125,0.1396026611328125,0.9299163818359375,-0.4089508056640625
1773522546352671200,4.922671142578125,0.0821533203125,0.8954315185546875,-0.4311065673828125
1773522546362709000,4.932708984375,0.00421142578125,0.879974365234375,-0.4437408447265625
1773522546372747300,4.942747314453125,-0.03704833984375,0.87103271484375,-0.4462432861328125
1773522546382785000,4.952784912109375,-0.03546142578125,0.8788299560546875,-0.44561767578125
1773522546392823300,4.9628232421875,-0.0212554931640625,0.8961181640625,-0.4503326416015625
1773522546402861000,4.972861083984375,-0.009307861328125,0.906494140625,-0.45391845703125
1773522546412899300,4.9828994140625,0.009246826171875,0.9435577392578125,-0.4320068359375
1773522546422937000,4.99293701171875,0.0312042236328125,0.986968994140625,-0.380889892578125
1773522546432975000,5.00297509765625,0.034210205078125,1.0195770263671875,-0.33282470703125
1773522546443013000,5.01301318359375,0.0135955810546875,1.0168914794921875,-0.3041534423828125
1773522546453051100,5.023051025390625,0.0082855224609375,0.9966583251953125,-0.287872314453125
1773522546463089200,5.033089111328125,0.01953125,0.9907684326171875,-0.2846832275390625
1773522546473127200,5.043127197265625,0.0313568115234375,0.989471435546875,-0.2952117919921875
1773522546483165200,5.053165283203125,0.038360595703125,0.98797607421875,-0.3130035400390625
1773522546493203200,5.063203125,0.0341796875,0.9825286865234375,-0.3356781005859375
1773522546503241000,5.073240966796875,0.031982421875,0.9721527099609375,-0.362579345703125
1773522546513279200,5.083279296875,0.0370941162109375,0.95758056640625,-0.39093017578125
1773522546523317000,5.09331689453125,0.048126220703125,0.949127197265625,-0.4211273193359375
1773522546533355300,5.103355224609375,0.05303955078125,0.9520721435546875,-0.453155517578125
1773522546543393000,5.11339306640625,0.0547332763671875,0.973236083984375,-0.4880218505859375
1773522546553431300,5.123431396484375,0.0549163818359375,1.0253753662109375,-0.5294036865234375
1773522546563469000,5.133468994140625,0.0496368408203125,1.0843658447265625,-0.5796356201171875
1773522546573507000,5.143507080078125,0.0315704345703125,1.11956787109375,-0.6372528076171875
1773522546583545000,5.153545166015625,-0.0037994384765625,1.116607666015625,-0.6973724365234375
1773522546593583000,5.1635830078125,-0.0609130859375,1.0933380126953125,-0.7644195556640625
1773522546603621000,5.17362109375,-0.13519287109375,1.0849151611328125,-0.8405609130859375
1773522546613659100,5.1836591796875,-0.20709228515625,1.092132568359375,-0.8996734619140625
1773522546623697200,5.193697265625,-0.2382354736328125,1.089599609375,-0.9050445556640625
1773522546633735200,5.203735107421875,-0.227630615234375,1.0467987060546875,-0.8268890380859375
1773522546643773200,5.213773193359375,-0.2091064453125,0.9948883056640625,-0.7051849365234375
1773522546653811700,5.223811767578125,-0.21197509765625,0.9702606201171875,-0.5933837890625
1773522546663849500,5.233849365234375,-0.25567626953125,0.9820556640625,-0.4930419921875
1773522546673887700,5.2438876953125,-0.34246826171875,1.02471923828125,-0.3953857421875
1773522546683925500,5.253925537109375,-0.465972900390625,1.07818603515625,-0.3011016845703125
1773522546693963800,5.2639638671875,-0.524932861328125,1.11590576171875,-0.2137298583984375
1773522546704001800,5.274001708984375,-0.534515380859375,1.11688232421875,-0.1542816162109375
1773522546714039800,5.284039794921875,-0.4954376220703125,1.127288818359375,-0.127899169921875
1773522546724077800,5.294077880859375,-0.2954254150390625,1.0996246337890625,-0.1551055908203125
1773522546734115600,5.304115478515625,0.0069122314453125,1.0271453857421875,-0.18341064453125
1773522546744153900,5.31415380859375,0.31689453125,0.9487152099609375,-0.2216339111328125
1773522546754191600,5.324191650390625,0.5265350341796875,0.8655548095703125,-0.2507171630859375
1773522546764230000,5.33422998046875,0.509765625,0.7992401123046875,-0.2567901611328125
1773522546774267600,5.344267578125,0.30462646484375,0.73309326171875,-0.23565673828125
1773522546784306000,5.354305908203125,0.076263427734375,0.6974029541015625,-0.1996002197265625
1773522546794343700,5.36434375,-0.0581207275390625,0.722900390625,-0.1811676025390625
1773522546804381700,5.374381591796875,-0.1120758056640625,0.776336669921875,-0.208099365234375
1773522546814419700,5.384419677734375,-0.1799468994140625,0.82098388671875,-0.2584381103515625
1773522546824457700,5.394457763671875,-0.2650299072265625,0.848388671875,-0.30438232421875
1773522546834495700,5.404495849609375,-0.3388214111328125,0.86322021484375,-0.327301025390625
1773522546844533800,5.41453369140625,-0.364898681640625,0.8404998779296875,-0.31890869140625
1773522546854571800,5.42457177734375,-0.33465576171875,0.7869415283203125,-0.3029937744140625
1773522546864609800,5.43460986328125,-0.2630462646484375,0.7338104248046875,-0.2868804931640625
1773522546874647600,5.4446474609375,-0.170135498046875,0.69287109375,-0.275543212890625
1773522546884685800,5.454685791015625,-0.0893707275390625,0.6642913818359375,-0.276123046875
1773522546894723600,5.4647236328125,-0.043121337890625,0.6304779052734375,-0.2818145751953125
1773522546904761900,5.474761962890625,-0.0333251953125,0.5489501953125,-0.2894439697265625
1773522546914799600,5.484799560546875,-0.0354156494140625,0.4296722412109375,-0.291748046875
1773522546924837600,5.494837646484375,-0.0473785400390625,0.3448944091796875,-0.2908477783203125
1773522546934875600,5.504875732421875,-0.0678558349609375,0.29071044921875,-0.2931976318359375
1773522546944913700,5.51491357421875,-0.093017578125,0.2810211181640625,-0.302459716796875
1773522546954951700,5.52495166015625,-0.1169281005859375,0.31402587890625,-0.3207244873046875
1773522546964989700,5.53498974609375,-0.142669677734375,0.38134765625,-0.3465728759765625
1773522546975027700,5.54502783203125,-0.171630859375,0.470703125,-0.384185791015625
1773522546985065700,5.555065673828125,-0.1941070556640625,0.57952880859375,-0.4281005859375
1773522546995103500,5.565103515625,-0.2066192626953125,0.7083587646484375,-0.4640045166015625
1773522547005141800,5.575141845703125,-0.241302490234375,0.8558807373046875,-0.4889984130859375
1773522547015179500,5.585179443359375,-0.3448944091796875,1.017425537109375,-0.5063934326171875
1773522547025217800,5.5952177734375,-0.5025787353515625,1.1874847412109375,-0.52557373046875
1773522547035256600,5.605256591796875,-0.619140625,1.33892822265625,-0.55889892578125
1773522547045294800,5.615294921875,-0.647064208984375,1.3968353271484375,-0.58880615234375
1773522547055332600,5.62533251953125,-0.5984649658203125,1.293975830078125,-0.572601318359375
1773522547065371000,5.635370849609375,-0.510894775390625,1.1281585693359375,-0.5344085693359375
1773522547075408600,5.64540869140625,-0.4172210693359375,1.0273590087890625,-0.5325469970703125
1773522547085446700,5.65544677734375,-0.30718994140625,0.9548797607421875,-0.557708740234375
1773522547095484700,5.665484619140625,-0.186431884765625,0.879608154296875,-0.5905303955078125
1773522547105522700,5.675522705078125,-0.090728759765625,0.807098388671875,-0.626373291015625
1773522547115560700,5.685560791015625,-0.026763916015625,0.7631683349609375,-0.665283203125
1773522547125598700,5.6955986328125,0.0381622314453125,0.7357025146484375,-0.709564208984375
1773522547135636700,5.70563671875,0.0368194580078125,0.7484283447265625,-0.789093017578125
1773522547145674800,5.7156748046875,-0.156402587890625,0.810211181640625,-0.927520751953125
1773522547155712500,5.72571240234375,-0.52783203125,0.8727874755859375,-1.123138427734375
1773522547165750800,5.735750732421875,-0.7426605224609375,0.896240234375,-1.25054931640625
1773522547175788500,5.74578857421875,-0.66705322265625,0.86102294921875,-1.2939910888671875
1773522547185826800,5.755826904296875,-0.5063323974609375,0.845489501953125,-1.24566650390625
1773522547195864600,5.765864501953125,-0.314361572265625,0.87200927734375,-1.0874481201171875
1773522547205902800,5.77590283203125,-0.0314788818359375,0.8587799072265625,-0.8519744873046875
1773522547215940600,5.785940673828125,0.2084808349609375,0.7825927734375,-0.6663970947265625
1773522547225978600,5.795978515625,0.219940185546875,0.670867919921875,-0.5523223876953125
1773522547236016600,5.8060166015625,0.0570220947265625,0.56060791015625,-0.443450927734375
1773522547246054700,5.8160546875,-0.0708770751953125,0.5218658447265625,-0.3297576904296875
1773522547256092700,5.8260927734375,-0.029815673828125,0.633087158203125,-0.2382965087890625
1773522547266130700,5.836130615234375,0.0343017578125,0.774688720703125,-0.2571563720703125
1773522547276168700,5.846168701171875,-0.0178985595703125,0.8603057861328125,-0.381103515625
1773522547286206700,5.856206787109375,-0.2166290283203125,0.8769073486328125,-0.519012451171875
1773522547296244700,5.86624462890625,-0.3988037109375,0.9191131591796875,-0.521453857421875
1773522547306282800,5.87628271484375,-0.327056884765625,1.0021514892578125,-0.334564208984375
1773522547316320800,5.88632080078125,-0.0977935791015625,1.04144287109375,-0.1425323486328125
1773522547326358800,5.89635888671875,-0.0097503662109375,1.0323028564453125,-0.0475006103515625
1773522547336396800,5.906396728515625,-0.102020263671875,1.002349853515625,-0.0467376708984375
1773522547346434600,5.9164345703125,-0.23907470703125,0.9601593017578125,-0.125518798828125
1773522547356472800,5.926472900390625,-0.35504150390625,0.915283203125,-0.2513427734375
1773522547366510600,5.936510498046875,-0.4844818115234375,0.905517578125,-0.3538055419921875
1773522547376548900,5.946548828125,-0.515960693359375,0.931671142578125,-0.425262451171875
1773522547386586600,5.956586669921875,-0.3851165771484375,0.9595794677734375,-0.4666290283203125
1773522547396625000,5.966625,-0.2529296875,0.94647216796875,-0.4992828369140625
1773522547406662700,5.97666259765625,-0.1856231689453125,0.8874664306640625,-0.5180206298828125
1773522547416700700,5.98670068359375,-0.2045135498046875,0.802459716796875,-0.5023193359375
1773522547426738700,5.99673876953125,-0.2804718017578125,0.7337799072265625,-0.4570159912109375
1773522547436776700,6.006776611328125,-0.3488922119140625,0.71038818359375,-0.42327880859375
1773522547446814700,6.016814697265625,-0.415802001953125,0.704681396484375,-0.3943328857421875
1773522547456852700,6.026852783203125,-0.4866485595703125,0.6918487548828125,-0.3582000732421875
1773522547466890800,6.036890869140625,-0.5044403076171875,0.70208740234375,-0.31378173828125
1773522547476928800,6.0469287109375,-0.4868621826171875,0.7429962158203125,-0.2864227294921875
1773522547486966500,6.056966552734375,-0.468353271484375,0.7745208740234375,-0.308380126953125
1773522547497004800,6.0670048828125,-0.4761962890625,0.812896728515625,-0.368499755859375
1773522547507042600,6.07704248046875,-0.5006256103515625,0.8586578369140625,-0.38446044921875
1773522547517080800,6.087080810546875,-0.5165252685546875,0.8682403564453125,-0.377349853515625
1773522547527118600,6.09711865234375,-0.50408935546875,0.8320465087890625,-0.3725433349609375
1773522547537156600,6.107156494140625,-0.5372314453125,0.7935333251953125,-0.3802490234375
1773522547547194600,6.117194580078125,-0.651885986328125,0.7462158203125,-0.38275146484375
1773522547557232600,6.127232666015625,-0.7061309814453125,0.688751220703125,-0.35357666015625
1773522547567270700,6.137270751953125,-0.6741485595703125,0.7031707763671875,-0.3361663818359375
1773522547577308700,6.14730859375,-0.61431884765625,0.675994873046875,-0.3451385498046875
1773522547587346700,6.1573466796875,-0.6063995361328125,0.627349853515625,-0.347015380859375
1773522547597384700,6.167384765625,-0.6481781005859375,0.599365234375,-0.3363494873046875
1773522547607422500,6.17742236328125,-0.701416015625,0.610687255859375,-0.3101654052734375
1773522547617460700,6.187460693359375,-0.742218017578125,0.651702880859375,-0.3007354736328125
1773522547627498800,6.197498779296875,-0.7177581787109375,0.68914794921875,-0.3310394287109375
1773522547637536800,6.207536865234375,-0.69329833984375,0.7301177978515625,-0.382293701171875
1773522547647574800,6.21757470703125,-0.721710205078125,0.6719970703125,-0.4161224365234375
1773522547657616100,6.2276162109375,-0.736907958984375,0.6361083984375,-0.4149017333984375
1773522547667654100,6.237654052734375,-0.7546234130859375,0.66473388671875,-0.4199066162109375
1773522547677692000,6.24769189453125,-0.7703704833984375,0.6548614501953125,-0.4094390869140625
1773522547687730200,6.257730224609375,-0.73370361328125,0.63409423828125,-0.4145050048828125
1773522547697768000,6.267767822265625,-0.659088134765625,0.633941650390625,-0.4401702880859375
1773522547707806200,6.27780615234375,-0.652374267578125,0.652923583984375,-0.491546630859375
1773522547717845000,6.287844970703125,-0.704010009765625,0.615966796875,-0.5560302734375
1773522547727883000,6.297883056640625,-0.6981964111328125,0.5209808349609375,-0.5847320556640625
1773522547737921000,6.307921142578125,-0.6736602783203125,0.546844482421875,-0.5593109130859375
1773522547747959000,6.317958984375,-0.6726226806640625,0.6136016845703125,-0.5327606201171875
1773522547757997000,6.3279970703125,-0.6876373291015625,0.633575439453125,-0.527130126953125
1773522547768034800,6.338034912109375,-0.683013916015625,0.63226318359375,-0.5318450927734375
1773522547778073000,6.348072998046875,-0.7032623291015625,0.625457763671875,-0.5135498046875
1773522547788110800,6.35811083984375,-0.729461669921875,0.61322021484375,-0.482330322265625
1773522547798149000,6.368149169921875,-0.714324951171875,0.5941009521484375,-0.4632720947265625
1773522547808187000,6.378186767578125,-0.701568603515625,0.5681610107421875,-0.4714202880859375
1773522547818225200,6.38822509765625,-0.724365234375,0.5620269775390625,-0.47998046875
1773522547828263200,6.39826318359375,-0.727813720703125,0.5564117431640625,-0.493743896484375
1773522547838301000,6.408301025390625,-0.7066497802734375,0.5490264892578125,-0.5068359375
1773522547848339200,6.418339111328125,-0.7145538330078125,0.539581298828125,-0.512451171875
1773522547858377000,6.428376953125,-0.7284393310546875,0.520538330078125,-0.4953460693359375
1773522547868415200,6.438415283203125,-0.7169036865234375,0.5139923095703125,-0.4791107177734375
1773522547878453000,6.448452880859375,-0.72076416015625,0.5189971923828125,-0.467864990234375
1773522547888491000,6.458490966796875,-0.7189483642578125,0.494903564453125,-0.4835968017578125
1773522547898529000,6.468529052734375,-0.700714111328125,0.479705810546875,-0.507476806640625
1773522547908567000,6.478567138671875,-0.68304443359375,0.480499267578125,-0.544830322265625
1773522547918605000,6.48860498046875,-0.6854095458984375,0.4575347900390625,-0.575897216796875
1773522547928643000,6.49864306640625,-0.644134521484375,0.4516754150390625,-0.596038818359375
1773522547938681000,6.50868115234375,-0.629150390625,0.4508819580078125,-0.6003265380859375
1773522547948719000,6.518718994140625,-0.6283721923828125,0.4503173828125,-0.607574462890625
1773522547958756900,6.5287568359375,-0.6399993896484375,0.44635009765625,-0.6290283203125
1773522547968795100,6.538795166015625,-0.6609039306640625,0.4469146728515625,-0.646697998046875
1773522547978833000,6.5488330078125,-0.6615447998046875,0.458892822265625,-0.6568603515625
1773522547988871200,6.55887109375,-0.65924072265625,0.47509765625,-0.6592254638671875
1773522547998909000,6.568908935546875,-0.6591033935546875,0.48846435546875,-0.6439056396484375
1773522548008947200,6.578947265625,-0.6565093994140625,0.497589111328125,-0.610321044921875
1773522548018985000,6.58898486328125,-0.6468048095703125,0.5079193115234375,-0.5670166015625
1773522548029023000,6.59902294921875,-0.645538330078125,0.520416259765625,-0.52459716796875
1773522548039061000,6.60906103515625,-0.6681365966796875,0.5222625732421875,-0.4926605224609375
1773522548049099000,6.61909912109375,-0.6703033447265625,0.49847412109375,-0.48480224609375
1773522548059137000,6.629136962890625,-0.668121337890625,0.476593017578125,-0.487945556640625
1773522548069175000,6.639175048828125,-0.66510009765625,0.4663848876953125,-0.4871826171875
1773522548079213000,6.649213134765625,-0.647857666015625,0.4522552490234375,-0.4896087646484375
1773522548089251000,6.6592509765625,-0.66168212890625,0.43853759765625,-0.4995269775390625
1773522548099288800,6.669288818359375,-0.7076263427734375,0.4492645263671875,-0.5129852294921875
1773522548109327000,6.6793271484375,-0.734222412109375,0.4846343994140625,-0.5173797607421875
1773522548119364900,6.68936474609375,-0.7579803466796875,0.5230560302734375,-0.524993896484375
1773522548129403100,6.699403076171875,-0.73443603515625,0.5476226806640625,-0.540802001953125
1773522548139441000,6.70944091796875,-0.700164794921875,0.5377349853515625,-0.53350830078125
1773522548149479200,6.719479248046875,-0.6990203857421875,0.497100830078125,-0.5101776123046875
1773522548159518000,6.72951806640625,-0.702728271484375,0.4527130126953125,-0.4920501708984375
1773522548169556200,6.73955615234375,-0.7207183837890625,0.4418487548828125,-0.46380615234375
1773522548179594000,6.749593994140625,-0.7525482177734375,0.46881103515625,-0.4511566162109375
1773522548189632000,6.759632080078125,-0.767242431640625,0.518096923828125,-0.4785919189453125
1773522548199670000,6.769669921875,-0.7426300048828125,0.555084228515625,-0.520050048828125
1773522548209708000,6.7797080078125,-0.7352752685546875,0.561248779296875,-0.540283203125
1773522548219746000,6.78974609375,-0.7435760498046875,0.560546875,-0.528594970703125
1773522548229784000,6.7997841796875,-0.732818603515625,0.5532073974609375,-0.5096282958984375
1773522548239822000,6.809822021484375,-0.7022857666015625,0.544281005859375,-0.4996490478515625
1773522548249860000,6.819860107421875,-0.6889801025390625,0.553985595703125,-0.4857177734375
1773522548259897900,6.82989794921875,-0.716888427734375,0.569000244140625,-0.4839324951171875
1773522548269936000,6.83993603515625,-0.7164306640625,0.572296142578125,-0.498809814453125
1773522548279974000,6.849973876953125,-0.7015380859375,0.5603485107421875,-0.521575927734375
1773522548290012200,6.86001220703125,-0.6941070556640625,0.5688018798828125,-0.506134033203125
1773522548300050000,6.8700498046875,-0.7080535888671875,0.5826873779296875,-0.4735107421875
1773522548310088000,6.880087890625,-0.6909332275390625,0.5829925537109375,-0.459075927734375
1773522548320126000,6.8901259765625,-0.6624298095703125,0.59381103515625,-0.4344329833984375
1773522548330164000,6.9001640625,-0.6440887451171875,0.603363037109375,-0.4179534912109375
1773522548340202000,6.910201904296875,-0.6182861328125,0.602508544921875,-0.41912841796875
1773522548350240000,6.920239990234375,-0.6103057861328125,0.6042022705078125,-0.4120941162109375
1773522548360278000,6.930278076171875,-0.5930328369140625,0.6166534423828125,-0.4018096923828125
1773522548370316000,6.94031591796875,-0.588348388671875,0.62469482421875,-0.3953857421875
1773522548380354000,6.95035400390625,-0.602142333984375,0.6283416748046875,-0.3797760009765625
1773522548390392000,6.96039208984375,-0.6036529541015625,0.6302337646484375,-0.3563079833984375
1773522548400430000,6.97043017578125,-0.61639404296875,0.6073760986328125,-0.3617706298828125
1773522548410468000,6.980468017578125,-0.627288818359375,0.589752197265625,-0.37969970703125
1773522548420506000,6.990506103515625,-0.6381988525390625,0.5962982177734375,-0.3997955322265625
1773522548430544100,7.000544189453125,-0.61907958984375,0.6177215576171875,-0.4345550537109375
1773522548440582100,7.01058203125,-0.5909576416015625,0.62353515625,-0.4645233154296875
1773522548450620000,7.020619873046875,-0.6062774658203125,0.62017822265625,-0.4795989990234375
1773522548460658200,7.030658203125,-0.646942138671875,0.622772216796875,-0.474945068359375
1773522548470696000,7.040696044921875,-0.6718902587890625,0.6095733642578125,-0.486175537109375
1773522548480734200,7.050734130859375,-0.6840972900390625,0.5823211669921875,-0.519073486328125
1773522548490772000,7.06077197265625,-0.7198333740234375,0.553680419921875,-0.5377044677734375
1773522548500810200,7.070810302734375,-0.7645111083984375,0.5397186279296875,-0.52337646484375
1773522548510848000,7.080847900390625,-0.7593231201171875,0.5389251708984375,-0.4955291748046875
1773522548520886000,7.090885986328125,-0.7627716064453125,0.51318359375,-0.495880126953125
1773522548530924000,7.100924072265625,-0.7842864990234375,0.47894287109375,-0.5106658935546875
1773522548540962800,7.110962890625,-0.8140869140625,0.4791412353515625,-0.494415283203125
1773522548551001000,7.1210009765625,-0.810821533203125,0.494049072265625,-0.4662933349609375
1773522548561038800,7.131038818359375,-0.7584075927734375,0.49041748046875,-0.4505615234375
1773522548571077000,7.1410771484375,-0.734710693359375,0.4739227294921875,-0.445526123046875
1773522548581115000,7.151114990234375,-0.7609405517578125,0.44390869140625,-0.4745025634765625
1773522548591153200,7.161153076171875,-0.772979736328125,0.441864013671875,-0.518035888671875
1773522548601191200,7.171191162109375,-0.7853546142578125,0.464263916015625,-0.55450439453125
1773522548611229000,7.18122900390625,-0.779449462890625,0.487884521484375,-0.574859619140625
1773522548621267200,7.19126708984375,-0.750274658203125,0.4879913330078125,-0.577789306640625
1773522548631305000,7.201304931640625,-0.7254638671875,0.4641265869140625,-0.5845489501953125
1773522548641343200,7.21134326171875,-0.73553466796875,0.434600830078125,-0.600799560546875
1773522548651381000,7.221381103515625,-0.7375640869140625,0.428314208984375,-0.6035919189453125
1773522548661419300,7.231419189453125,-0.7466888427734375,0.445465087890625,-0.5797882080078125
1773522548671457000,7.24145703125,-0.734222412109375,0.4644927978515625,-0.5504302978515625
1773522548681495300,7.251495361328125,-0.6871795654296875,0.46026611328125,-0.544952392578125
1773522548691533000,7.261532958984375,-0.7032318115234375,0.443084716796875,-0.5546875
1773522548701571000,7.271571044921875,-0.7180328369140625,0.4407501220703125,-0.558807373046875
1773522548711609000,7.281609130859375,-0.6952056884765625,0.454620361328125,-0.53509521484375
1773522548721647000,7.291647216796875,-0.6751708984375,0.4554901123046875,-0.49468994140625
1773522548731685000,7.30168505859375,-0.6608123779296875,0.4398040771484375,-0.472381591796875
1773522548741723100,7.31172314453125,-0.6460723876953125,0.4241485595703125,-0.4719085693359375
1773522548751761000,7.321760986328125,-0.6581573486328125,0.4138031005859375,-0.4934234619140625
1773522548761799200,7.331799072265625,-0.6974639892578125,0.422943115234375,-0.5129852294921875
1773522548771837000,7.3418369140625,-0.7183380126953125,0.462799072265625,-0.5132904052734375
1773522548781875200,7.351875244140625,-0.6939544677734375,0.4972686767578125,-0.5126800537109375
1773522548791913000,7.361912841796875,-0.6597442626953125,0.54400634765625,-0.483856201171875
1773522548801951200,7.371951171875,-0.679718017578125,0.5062103271484375,-0.4711456298828125
1773522548811989000,7.381989013671875,-0.71014404296875,0.4698333740234375,-0.4674072265625
1773522548822027000,7.392027099609375,-0.745513916015625,0.499755859375,-0.45123291015625
1773522548832065000,7.40206494140625,-0.7668914794921875,0.572418212890625,-0.431396484375
1773522548842103000,7.41210302734375,-0.76751708984375,0.521728515625,-0.459747314453125
1773522548852141000,7.42214111328125,-0.6992950439453125,0.5079498291015625,-0.43359375
1773522548862179000,7.432178955078125,-0.7158355712890625,0.5140838623046875,-0.4031524658203125
1773522548872217000,7.442217041015625,-0.77520751953125,0.4807281494140625,-0.395843505859375
1773522548882255000,7.452255126953125,-0.8130950927734375,0.46234130859375,-0.415557861328125
1773522548892294100,7.462294189453125,-0.792572021484375,0.468292236328125,-0.4425201416015625
1773522548902332200,7.472332275390625,-0.768768310546875,0.4841766357421875,-0.4688873291015625
1773522548912370000,7.482369873046875,-0.77508544921875,0.501220703125,-0.4778900146484375
1773522548922408200,7.492408203125,-0.7621612548828125,0.5008087158203125,-0.470489501953125
1773522548932446000,7.502446044921875,-0.75860595703125,0.4744110107421875,-0.4779815673828125
1773522548942484200,7.512484130859375,-0.7784271240234375,0.45361328125,-0.4838714599609375
1773522548952522000,7.52252197265625,-0.809844970703125,0.4601593017578125,-0.4727325439453125
1773522548962560300,7.532560302734375,-0.8114166259765625,0.46112060546875,-0.477783203125
1773522548972598000,7.542597900390625,-0.751861572265625,0.4652557373046875,-0.498626708984375
1773522548982636000,7.552635986328125,-0.6971588134765625,0.45623779296875,-0.5275421142578125
1773522548992674000,7.562674072265625,-0.75726318359375,0.4471282958984375,-0.488372802734375
1773522549002712000,7.572712158203125,-0.7860260009765625,0.405548095703125,-0.484344482421875
1773522549012750000,7.58275,-0.6788177490234375,0.384002685546875,-0.558349609375
1773522549022788000,7.5927880859375,-0.6132965087890625,0.3785247802734375,-0.603759765625
1773522549032826000,7.602826171875,-0.660125732421875,0.332275390625,-0.6587066650390625
1773522549042864000,7.612864013671875,-0.694183349609375,0.39306640625,-0.6515350341796875
1773522549052902000,7.62290185546875,-0.702911376953125,0.454803466796875,-0.5857391357421875
1773522549062940200,7.632940185546875,-0.685638427734375,0.4568634033203125,-0.54986572265625
1773522549072978000,7.64297802734375,-0.6730194091796875,0.4436492919921875,-0.47650146484375
1773522549083016200,7.65301611328125,-0.708099365234375,0.4033050537109375,-0.470550537109375
1773522549093054000,7.663053955078125,-0.7703094482421875,0.386688232421875,-0.4849090576171875
1773522549103092200,7.67309228515625,-0.710235595703125,0.350830078125,-0.548126220703125
1773522549113130000,7.6831298828125,-0.72021484375,0.4315948486328125,-0.551666259765625
1773522549123168000,7.69316796875,-0.727203369140625,0.5068206787109375,-0.5611572265625
1773522549133206000,7.7032060546875,-0.7508392333984375,0.503662109375,-0.5681610107421875
1773522549143244000,7.713244140625,-0.7799224853515625,0.41607666015625,-0.508544921875
1773522549153282000,7.723281982421875,-0.7245330810546875,0.4197540283203125,-0.468780517578125
1773522549163320000,7.733320068359375,-0.6893157958984375,0.4041595458984375,-0.499053955078125
1773522549173358000,7.743358154296875,-0.6763458251953125,0.4289398193359375,-0.568817138671875
1773522549183396000,7.75339599609375,-0.6281890869140625,0.56781005859375,-0.543365478515625
1773522549193434000,7.76343408203125,-0.7488555908203125,0.5985870361328125,-0.5376739501953125
1773522549203472100,7.77347216796875,-0.8639678955078125,0.470733642578125,-0.7087249755859375
1773522549213510100,7.78351025390625,-0.8550262451171875,0.4163818359375,-0.809326171875
1773522549223548200,7.793548095703125,-0.8674468994140625,0.442474365234375,-0.789581298828125
1773522549233586200,7.803586181640625,-0.789031982421875,0.52130126953125,-0.7296905517578125
1773522549243624000,7.8136240234375,-0.7333526611328125,0.56854248046875,-0.7010345458984375
1773522549253662200,7.823662109375,-0.7757568359375,0.5469818115234375,-0.6576690673828125
1773522549263701000,7.833700927734375,-0.79644775390625,0.5174560546875,-0.5827789306640625
1773522549273739000,7.843739013671875,-0.76654052734375,0.512542724609375,-0.5737762451171875
1773522549283777000,7.853777099609375,-0.8168792724609375,0.6020050048828125,-0.6249542236328125
1773522549293815000,7.86381494140625,-0.8725738525390625,0.592254638671875,-0.6899261474609375
1773522549303853000,7.87385302734375,-0.7723541259765625,0.606719970703125,-0.6928863525390625
1773522549313891000,7.88389111328125,-0.8535308837890625,0.6289215087890625,-0.596588134765625
1773522549323929000,7.89392919921875,-0.8079071044921875,0.580291748046875,-0.5479583740234375
1773522549333966800,7.903966796875,-0.798248291015625,0.554046630859375,-0.5093231201171875
1773522549344005000,7.914005126953125,-0.8087005615234375,0.5160369873046875,-0.5190277099609375
1773522549354043000,7.92404296875,-0.6902313232421875,0.4979248046875,-0.54608154296875
1773522549364081200,7.9340810546875,-0.6668548583984375,0.475189208984375,-0.551483154296875
1773522549374119200,7.944119140625,-0.705841064453125,0.4981536865234375,-0.5315704345703125
1773522549384157200,7.9541572265625,-0.721893310546875,0.546051025390625,-0.507781982421875
1773522549394195200,7.9641953125,-0.7120819091796875,0.5545196533203125,-0.5141143798828125
1773522549404233000,7.97423291015625,-0.715179443359375,0.583099365234375,-0.5105133056640625
1773522549414271200,7.984271240234375,-0.694610595703125,0.5787200927734375,-0.5438385009765625
1773522549424309000,7.99430908203125,-0.655670166015625,0.6005096435546875,-0.5643463134765625
1773522549434347300,8.00434716796875,-0.6385650634765625,0.59124755859375,-0.6204833984375
1773522549444385000,8.014385009765626,-0.6225433349609375,0.5697479248046875,-0.6634674072265625
1773522549454423300,8.02442333984375,-0.60223388671875,0.5393524169921875,-0.674041748046875
1773522549464461000,8.0344609375,-0.5556793212890625,0.6126861572265625,-0.590728759765625
1773522549474499000,8.0444990234375,-0.52911376953125,0.6499481201171875,-0.4962310791015625
1773522549484537000,8.054537109375,-0.5198211669921875,0.6309967041015625,-0.4280853271484375
1773522549494575000,8.0645751953125,-0.470306396484375,0.6309967041015625,-0.3806610107421875
1773522549504613000,8.074613037109375,-0.447265625,0.624481201171875,-0.38201904296875
1773522549514651100,8.084651123046875,-0.46734619140625,0.6319732666015625,-0.4012603759765625
1773522549524689000,8.09468896484375,-0.5099029541015625,0.6382904052734375,-0.436431884765625
1773522549534727200,8.10472705078125,-0.53375244140625,0.65106201171875,-0.463653564453125
1773522549544765000,8.114764892578124,-0.529327392578125,0.656646728515625,-0.5208587646484375
1773522549554803200,8.12480322265625,-0.5023956298828125,0.6937408447265625,-0.56982421875
1773522549564841000,8.134841064453125,-0.47076416015625,0.74560546875,-0.5954437255859375
1773522549574879200,8.144879150390626,-0.4428558349609375,0.7794952392578125,-0.582366943359375
1773522549584917000,8.1549169921875,-0.420257568359375,0.7878570556640625,-0.5371856689453125
1773522549594955000,8.164955078125,-0.4157257080078125,0.7856903076171875,-0.4777984619140625
1773522549604993000,8.174992919921875,-0.4218292236328125,0.7870025634765625,-0.40643310546875
1773522549615031000,8.185031005859376,-0.42864990234375,0.7755584716796875,-0.323516845703125
1773522549625069000,8.195069091796874,-0.4015045166015625,0.70257568359375,-0.2884521484375
1773522549635108000,8.205108154296875,-0.3679351806640625,0.606048583984375,-0.2812957763671875
1773522549645146000,8.21514599609375,-0.3879852294921875,0.5776519775390625,-0.224578857421875
1773522549655181000,8.22518115234375,-0.37530517578125,0.5439453125,-0.340362548828125
1773522549665219000,8.235218994140626,-0.1053009033203125,0.2543182373046875,-1.4185791015625
1773522549675257000,8.245257080078124,0.204071044921875,0.1584930419921875,-2.38446044921875
1773522549685294800,8.255294921875,-0.60418701171875,1.3334503173828125,0.60479736328125
1773522549695333000,8.2653330078125,-0.54327392578125,1.037872314453125,0.491607666015625
1773522549705371000,8.275370849609375,-0.475372314453125,0.8480072021484375,0.4434814453125
1773522549715409200,8.2854091796875,-0.4883575439453125,0.7118682861328125,0.512176513671875
1773522549725447000,8.295447021484375,-0.5392913818359375,0.589447021484375,0.599639892578125
1773522549735485000,8.30548486328125,-0.6490631103515625,0.527191162109375,0.7014312744140625
1773522549745523000,8.31552294921875,-0.770263671875,0.505523681640625,0.76446533203125
1773522549755561000,8.32556103515625,-0.8582763671875,0.4661407470703125,0.6605224609375
1773522549765599000,8.335598876953124,-0.878082275390625,0.54742431640625,0.5118560791015625
1773522549775637000,8.345636962890625,-0.7860870361328125,0.7486419677734375,0.368927001953125
1773522549785675000,8.355675048828125,-0.6169586181640625,0.939453125,0.2411956787109375
1773522549795713000,8.365713134765626,-0.5121307373046875,1.0910186767578125,0.089874267578125
1773522549805750800,8.375750732421874,-0.472808837890625,1.2044830322265625,-0.0639495849609375
1773522549815789000,8.3857890625,-0.4332275390625,1.2711334228515625,-0.1838531494140625
1773522549825826800,8.395826904296875,-0.4037628173828125,1.3302459716796875,-0.274566650390625
1773522549835865000,8.405864990234376,-0.3732147216796875,1.3174591064453125,-0.3550262451171875
1773522549845902800,8.41590283203125,-0.3550567626953125,1.204345703125,-0.4078826904296875
1773522549855941000,8.425941162109375,-0.337493896484375,1.0516815185546875,-0.36163330078125
1773522549865979000,8.435978759765625,-0.336395263671875,0.945556640625,-0.3093109130859375
1773522549876017000,8.446016845703125,-0.356475830078125,0.8960113525390625,-0.2593231201171875
1773522549886055000,8.456054931640624,-0.368804931640625,0.876922607421875,-0.2035980224609375
1773522549896093000,8.466093017578125,-0.34564208984375,0.9258575439453125,-0.1308746337890625
1773522549906131000,8.476130859375,-0.27288818359375,1.0513458251953125,-0.05657958984375
1773522549916169000,8.4861689453125,-0.1775054931640625,1.1533355712890625,0.0030975341796875
1773522549926207000,8.49620703125,-0.1082916259765625,1.1910400390625,0.0387115478515625
1773522549936245000,8.506244873046874,-0.0893402099609375,1.1607666015625,0.0547027587890625
1773522549946282800,8.51628271484375,-0.100830078125,1.1128692626953125,0.050079345703125
1773522549956321000,8.526321044921875,-0.106201171875,1.03607177734375,0.042938232421875
1773522549966358800,8.53635888671875,-0.0842437744140625,0.9602508544921875,0.0374908447265625
1773522549976397000,8.54639697265625,-0.0496673583984375,0.9177398681640625,0.0402679443359375
1773522549986434800,8.556434814453125,-0.0316314697265625,0.8721923828125,0.038177490234375
1773522549996472800,8.566472900390625,-0.0294036865234375,0.8151702880859375,0.02008056640625
1773522550006510800,8.5765107421875,-0.01287841796875,0.833648681640625,-0.0255126953125
1773522550016548900,8.586548828125,0.019012451171875,0.93310546875,-0.0721435546875
1773522550026587100,8.596587158203125,0.052642822265625,1.0692901611328125,-0.1118927001953125
1773522550036625000,8.606625,0.083099365234375,1.1470794677734375,-0.161865234375
1773522550046663200,8.6166630859375,0.1499176025390625,1.1791839599609375,-0.2187652587890625
1773522550056702000,8.626701904296874,0.1809234619140625,1.1195526123046875,-0.268768310546875
1773522550066740000,8.636739990234375,0.0935211181640625,0.8725433349609375,-0.2747344970703125
1773522550076778000,8.646778076171875,-0.0475921630859375,0.596405029296875,-0.2623748779296875
1773522550086815700,8.656815673828126,-0.1485443115234375,0.4168243408203125,-0.2576904296875
1773522550096854000,8.66685400390625,-0.145172119140625,0.3560791015625,-0.261871337890625
1773522550106891800,8.676891845703125,-0.04034423828125,0.45294189453125,-0.28082275390625
1773522550116930000,8.686929931640625,0.059234619140625,0.64080810546875,-0.3063201904296875
1773522550126967800,8.6969677734375,0.075836181640625,0.8393096923828125,-0.374664306640625
1773522550137006000,8.707006103515624,-0.068817138671875,1.0873870849609375,-0.462982177734375
1773522550147043800,8.7170439453125,-0.3331756591796875,1.330596923828125,-0.5206756591796875
1773522550157081900,8.727081787109375,-0.3095550537109375,1.4168243408203125,-0.5259857177734375
1773522550167120000,8.737119873046876,-0.089752197265625,1.3383941650390625,-0.514434814453125
1773522550177158000,8.747157958984374,0.08355712890625,1.1428680419921875,-0.477630615234375
1773522550187196000,8.75719580078125,0.1271820068359375,0.9609832763671875,-0.38690185546875
1773522550197234000,8.76723388671875,0.098968505859375,0.8783111572265625,-0.2802581787109375
1773522550207272000,8.77727197265625,0.03912353515625,0.8187255859375,-0.2032928466796875
1773522550217310000,8.78731005859375,-0.0423736572265625,0.770751953125,-0.1507415771484375
1773522550227348000,8.797347900390625,-0.113861083984375,0.757171630859375,-0.1047515869140625
1773522550237386000,8.807385986328125,-0.167083740234375,0.790252685546875,-0.0474090576171875
1773522550247424000,8.817424072265625,-0.199432373046875,0.869842529296875,0.03033447265625
1773522550257462000,8.8274619140625,-0.189727783203125,0.9961395263671875,0.0849456787109375
1773522550267500000,8.8375,-0.1512451171875,1.0500335693359375,0.08294677734375
1773522550277538000,8.8475380859375,-0.0720672607421875,1.04974365234375,0.0711212158203125
1773522550287576000,8.857576171875,-0.0063323974609375,1.0447540283203125,0.06591796875
1773522550297613800,8.86761376953125,0.025115966796875,1.024566650390625,0.0733642578125
1773522550307652000,8.877652099609374,0.0284576416015625,0.986053466796875,0.0893096923828125
1773522550317689900,8.88768994140625,-0.006591796875,0.9736328125,0.1192626953125
1773522550327728000,8.89772802734375,-0.101226806640625,1.0066680908203125,0.163421630859375
1773522550337766000,8.907765869140626,-0.25653076171875,1.128326416015625,0.233612060546875
1773522550347804200,8.91780419921875,-0.3283843994140625,1.2930908203125,0.2749176025390625
1773522550357842000,8.927842041015625,-0.3018646240234375,1.3911895751953125,0.2819061279296875
1773522550367880000,8.9378798828125,-0.33917236328125,1.33392333984375,0.2847442626953125
1773522550377918000,8.94791796875,-0.44525146484375,1.192626953125,0.26031494140625
1773522550387956000,8.9579560546875,-0.5491790771484375,1.193939208984375,0.230926513671875
1773522550397994000,8.967993896484375,-0.576873779296875,1.353302001953125,0.209381103515625
1773522550408032000,8.978031982421875,-0.4633331298828125,1.4460296630859375,0.15869140625
1773522550418069800,8.98806982421875,-0.2833099365234375,1.439849853515625,0.0659637451171875
1773522550428108000,8.99810791015625,-0.1477508544921875,1.402587890625,-0.0497589111328125
1773522550438145800,9.008145751953125,-0.070831298828125,1.285186767578125,-0.1514739990234375
1773522550448184000,9.01818408203125,-0.0176239013671875,1.104339599609375,-0.2203521728515625
1773522550458221800,9.028221923828125,0.017669677734375,0.973388671875,-0.259368896484375
1773522550468260000,9.038260009765626,0.0009918212890625,0.9033660888671875,-0.2954254150390625
1773522550478297900,9.0482978515625,-0.0768890380859375,0.8909912109375,-0.360748291015625
1773522550488336000,9.0583359375,-0.1566009521484375,0.940948486328125,-0.4377899169921875
1773522550498374000,9.068373779296875,-0.13128662109375,1.02752685546875,-0.51214599609375
1773522550508412000,9.078411865234376,0.0179443359375,1.1201019287109375,-0.57318115234375
1773522550518450000,9.088449951171874,0.1871490478515625,1.17608642578125,-0.6039581298828125
1773522550528488000,9.098488037109375,0.2770538330078125,1.20404052734375,-0.6527252197265625
1773522550538526000,9.10852587890625,0.2626190185546875,1.187469482421875,-0.705230712890625
1773522550548564000,9.11856396484375,0.160125732421875,1.1035308837890625,-0.7463531494140625
1773522550558602000,9.12860205078125,0.031463623046875,0.9746856689453125,-0.763336181640625
1773522550568640000,9.138639892578125,0.010467529296875,0.871063232421875,-0.762451171875
1773522550578678000,9.148677978515625,0.0884857177734375,0.8126068115234375,-0.7474822998046875
1773522550588716000,9.158716064453126,0.1800537109375,0.773468017578125,-0.7378082275390625
1773522550598754000,9.168754150390624,0.2283477783203125,0.7607879638671875,-0.74853515625
1773522550608792000,9.1787919921875,0.1689605712890625,0.777130126953125,-0.7917327880859375
1773522550618830000,9.188830078125,-0.01312255859375,0.8115081787109375,-0.880279541015625
1773522550628867800,9.198867919921875,-0.164337158203125,0.8013153076171875,-0.98712158203125
1773522550638906000,9.208906005859374,-0.07391357421875,0.719940185546875,-1.0271759033203125
1773522550648943900,9.21894384765625,0.1512298583984375,0.5618438720703125,-1.0302734375
1773522550658984700,9.228984619140626,0.2458953857421875,0.358673095703125,-1.008148193359375
1773522550669022700,9.239022705078124,0.2046966552734375,0.2427215576171875,-0.8766937255859375
1773522550679060700,9.249060791015625,-0.096466064453125,0.429229736328125,-0.6069793701171875
1773522550689098500,9.259098388671875,-0.4368438720703125,0.7420806884765625,-0.425506591796875
1773522550699136800,9.26913671875,-0.411773681640625,1.16796875,-0.4337615966796875
1773522550709174500,9.279174560546876,-0.2363739013671875,1.3846588134765625,-0.4306182861328125
1773522550719213800,9.2892138671875,0.160430908203125,1.2478179931640625,-0.3582916259765625
1773522550729251600,9.29925146484375,0.380889892578125,1.0910797119140625,-0.290191650390625
1773522550739289900,9.309289794921876,0.3397979736328125,1.0196380615234375,-0.1956939697265625
1773522550749326600,9.31932666015625,0.2230224609375,0.990570068359375,-0.0972137451171875
1773522550759366000,9.329365966796875,0.101318359375,0.9795379638671875,-0.0197906494140625
1773522550769403600,9.339403564453125,-0.0451812744140625,1.01080322265625,0.0340423583984375
1773522550779441700,9.349441650390625,-0.334381103515625,1.0936279296875,0.103851318359375
1773522550789479700,9.359479736328124,-0.6823272705078125,1.201202392578125,0.212127685546875
1773522550799517700,9.369517578125,-0.7003173828125,1.2674713134765625,0.291229248046875
1773522550809555700,9.3795556640625,-0.4308624267578125,1.3000030517578125,0.3471527099609375
1773522550819593700,9.38959375,-0.1113128662109375,1.3056640625,0.47723388671875
1773522550829631700,9.3996318359375,0.124053955078125,1.2225341796875,0.6259918212890625
1773522550839669800,9.409669677734374,0.069183349609375,1.0337066650390625,0.68426513671875
1773522550849707500,9.41970751953125,-0.266326904296875,0.8341217041015625,0.6371307373046875
1773522550859745800,9.429745849609375,-0.7727203369140625,0.69464111328125,0.48004150390625
1773522550869783600,9.439783447265626,-1.0527191162109375,0.621856689453125,0.21881103515625
1773522550879821800,9.44982177734375,-0.909637451171875,0.6933441162109375,0.02734375
1773522550889859600,9.459859619140625,-0.597259521484375,0.8728790283203125,-0.070281982421875
1773522550899897900,9.46989794921875,-0.38323974609375,1.0648345947265625,-0.13287353515625
1773522550909935600,9.479935546875,-0.2875823974609375,1.2157745361328125,-0.2165374755859375
1773522550919973600,9.4899736328125,-0.2244415283203125,1.3605194091796875,-0.2618255615234375
1773522550930011600,9.50001171875,-0.1355133056640625,1.442535400390625,-0.2285919189453125
1773522550940049700,9.510049560546875,-0.0504913330078125,1.4410247802734375,-0.1179351806640625
1773522550950087700,9.520087646484376,-0.0511016845703125,1.4065093994140625,0.0073699951171875
1773522550960125700,9.530125732421874,-0.11669921875,1.3018035888671875,0.0883941650390625
1773522550970163500,9.54016357421875,-0.18719482421875,1.1734619140625,0.1640167236328125
1773522550980201700,9.55020166015625,-0.2355804443359375,1.069183349609375,0.2371673583984375
1773522550990239700,9.56023974609375,-0.2515869140625,0.96990966796875,0.2676239013671875
1773522551000277800,9.57027783203125,-0.25048828125,0.877349853515625,0.2679901123046875
1773522551010315800,9.580315673828125,-0.2198486328125,0.800567626953125,0.2587127685546875
1773522551020353800,9.590353759765625,-0.194305419921875,0.758209228515625,0.197265625
1773522551030391800,9.600391845703125,-0.1810455322265625,0.748870849609375,0.086822509765625
1773522551040429600,9.6104296875,-0.169708251953125,0.7762298583984375,-0.04730224609375
1773522551050467800,9.6204677734375,-0.137847900390625,0.8341522216796875,-0.15606689453125
1773522551060505600,9.630505615234375,-0.0632781982421875,0.903900146484375,-0.2171478271484375
1773522551070544000,9.6405439453125,0.025665283203125,0.9583282470703125,-0.245941162109375
1773522551080581600,9.65058154296875,0.0956268310546875,0.9939727783203125,-0.2713623046875
1773522551090620000,9.660619873046874,0.112579345703125,1.0222930908203125,-0.30096435546875
1773522551100657700,9.67065771484375,0.077392578125,1.0657196044921875,-0.3329315185546875
1773522551110695700,9.68069580078125,0.0232391357421875,1.103759765625,-0.373809814453125
1773522551120733700,9.690733642578126,-0.0263671875,1.105010986328125,-0.4073638916015625
1773522551130771700,9.700771728515624,-0.0522003173828125,1.0655364990234375,-0.4213409423828125
1773522551140809700,9.710809814453125,-0.0574493408203125,1.006622314453125,-0.419189453125
1773522551150847700,9.72084765625,-0.0520782470703125,0.9547119140625,-0.4162445068359375
1773522551160885800,9.7308857421875,-0.0640411376953125,0.9184417724609375,-0.417205810546875
1773522551170923800,9.740923828125,-0.0793914794921875,0.8905487060546875,-0.4163055419921875
1773522551180961500,9.75096142578125,-0.046539306640625,0.885406494140625,-0.412109375
1773522551190999800,9.760999755859375,0.029571533203125,0.8994598388671875,-0.404144287109375
1773522551201037600,9.77103759765625,0.09393310546875,0.919830322265625,-0.39703369140625
1773522551211075800,9.781075927734374,0.1260833740234375,0.9221038818359375,-0.394989013671875
1773522551221113600,9.791113525390625,0.1324310302734375,0.9115753173828125,-0.393890380859375
1773522551231151900,9.80115185546875,0.0950164794921875,0.87652587890625,-0.4010009765625
1773522551241189600,9.811189697265625,0.0400848388671875,0.83599853515625,-0.403076171875
1773522551251227600,9.8212275390625,0.035614013671875,0.8236236572265625,-0.4091033935546875
1773522551261265700,9.831265625,0.048187255859375,0.818389892578125,-0.4212493896484375
1773522551271303700,9.8413037109375,0.040313720703125,0.876800537109375,-0.4307708740234375
1773522551281341700,9.851341796875,0.047210693359375,1.0084991455078125,-0.39599609375
1773522551291379700,9.861379638671876,0.0202789306640625,1.0643157958984375,-0.345794677734375
1773522551301417500,9.87141748046875,-0.0367431640625,1.0508880615234375,-0.2938995361328125
1773522551311455700,9.881455810546875,-0.1074066162109375,1.0263214111328125,-0.25042724609375
1773522551321493500,9.891493408203125,-0.2096099853515625,1.0208892822265625,-0.2090301513671875
1773522551331531800,9.90153173828125,-0.3046722412109375,1.038665771484375,-0.170135498046875
1773522551341569500,9.911569580078124,-0.3216094970703125,1.080169677734375,-0.1387939453125
1773522551351607800,9.92160791015625,-0.2828369140625,1.118865966796875,-0.110595703125
1773522551361645800,9.931645751953125,-0.242095947265625,1.1385955810546875,-0.0970611572265625
1773522551371683600,9.94168359375,-0.2126007080078125,1.1490478515625,-0.0953369140625
1773522551381721900,9.951721923828124,-0.188568115234375,1.1449127197265625,-0.083709716796875
1773522551391759600,9.961759521484375,-0.1862640380859375,1.1104736328125,-0.0552215576171875
1773522551401798000,9.9717978515625,-0.2271728515625,1.048370361328125,-0.0170135498046875
1773522551411835600,9.981835693359375,-0.2775421142578125,0.9846649169921875,0.019317626953125
1773522551421874000,9.9918740234375,-0.3011474609375,0.944793701171875,0.0404815673828125
1773522551431911700,10.00191162109375,-0.2843017578125,0.95062255859375,0.0123443603515625
1773522551441949700,10.01194970703125,-0.2518463134765625,0.95819091796875,-0.060516357421875
1773522551451987700,10.02198779296875,-0.2516326904296875,0.9988861083984375,-0.1313323974609375
1773522551462025700,10.032025634765626,-0.29736328125,1.0653076171875,-0.1921539306640625
1773522551472062500,10.0420625,-0.3486175537109375,1.1218414306640625,-0.27569580078125
1773522551482100700,10.052100830078125,-0.40350341796875,1.1570587158203125,-0.3586883544921875
1773522551492138800,10.062138671875,-0.469940185546875,1.136627197265625,-0.4135894775390625
1773522551502177800,10.072177734375,-0.51910400390625,1.0722808837890625,-0.44537353515625
1773522551512214800,10.08221484375,-0.536865234375,1.0064849853515625,-0.4673919677734375
1773522551522252800,10.092252685546875,-0.5223846435546875,0.9504547119140625,-0.489166259765625
1773522551532290800,10.102290771484375,-0.4640045166015625,0.9049072265625,-0.5159912109375
1773522551542328600,10.11232861328125,-0.4095306396484375,0.854217529296875,-0.5206756591796875
1773522551552366800,10.122366943359374,-0.3717193603515625,0.800201416015625,-0.4939422607421875
1773522551562404600,10.132404541015624,-0.343017578125,0.75323486328125,-0.4239349365234375
1773522551572443000,10.14244287109375,-0.3333892822265625,0.6996612548828125,-0.3174896240234375
1773522551582480600,10.152480712890625,-0.365631103515625,0.6538543701171875,-0.188446044921875
1773522551592519000,10.162518798828126,-0.40472412109375,0.6184234619140625,-0.05914306640625
1773522551602556700,10.172556640625,-0.418792724609375,0.595611572265625,0.0511474609375
1773522551612594700,10.1825947265625,-0.421173095703125,0.60107421875,0.1306610107421875
1773522551622632700,10.1926328125,-0.4276885986328125,0.6324462890625,0.160919189453125
1773522551632670700,10.202670654296876,-0.4024505615234375,0.6317291259765625,0.1776275634765625
1773522551642708700,10.212708740234374,-0.311126708984375,0.6265716552734375,0.1551513671875
1773522551652743200,10.2227431640625,-0.2085418701171875,0.6437530517578125,0.1186370849609375
1773522551662781000,10.232781005859374,-0.142333984375,0.678985595703125,0.0994720458984375
1773522551672819200,10.242819091796875,-0.1431884765625,0.7463226318359375,0.082275390625
1773522551682857000,10.25285693359375,-0.20269775390625,0.809326171875,0.107391357421875
1773522551692895200,10.262895263671876,-0.2894744873046875,0.8576812744140625,0.139434814453125
1773522551702933000,10.27293310546875,-0.33636474609375,0.84161376953125,0.150665283203125
1773522551712971000,10.282970947265625,-0.3291473388671875,0.7635345458984375,0.1070709228515625
1773522551723009000,10.293009033203125,-0.310089111328125,0.7270660400390625,0.0677642822265625
1773522551733047000,10.303047119140626,-0.2989959716796875,0.7477569580078125,0.0411529541015625
1773522551743085000,10.3130849609375,-0.3100433349609375,0.7906341552734375,0.0446014404296875
1773522551753123000,10.323123046875,-0.3340606689453125,0.847198486328125,0.0915374755859375
1773522551763161000,10.3331611328125,-0.3587799072265625,0.906158447265625,0.0759124755859375
1773522551773199000,10.34319921875,-0.3661346435546875,0.9839630126953125,0.0769805908203125
1773522551783236900,10.35323681640625,-0.38909912109375,1.0749359130859375,0.075042724609375
1773522551793275100,10.363275146484375,-0.4448699951171875,1.1708831787109375,0.019927978515625
1773522551803313000,10.37331298828125,-0.542633056640625,1.23822021484375,-0.0867156982421875
1773522551813351200,10.38335107421875,-0.6969451904296875,1.2561187744140625,-0.1396026611328125
1773522551823389000,10.393388916015626,-0.9011383056640625,1.2255401611328125,-0.158660888671875
1773522551833427200,10.40342724609375,-1.0106201171875,1.1583099365234375,-0.1953125
1773522551843465200,10.41346533203125,-0.7957916259765625,1.08575439453125,-0.2142333984375
1773522551853503000,10.4235029296875,-0.4085540771484375,1.042755126953125,-0.2118988037109375
1773522551863541200,10.433541259765626,-0.1027679443359375,1.023834228515625,-0.210418701171875
1773522551873579000,10.4435791015625,0.0172576904296875,1.0354156494140625,-0.215423583984375
1773522551883617300,10.4536171875,-0.0525054931640625,1.08135986328125,-0.211700439453125
1773522551893655000,10.463655029296875,-0.270782470703125,1.2008056640625,-0.2100677490234375
1773522551903693000,10.473693115234376,-0.428955078125,1.3216552734375,-0.210968017578125
1773522551913731000,10.48373095703125,-0.3634490966796875,1.2564544677734375,-0.1637725830078125
1773522551923769000,10.49376904296875,-0.2580718994140625,1.0275421142578125,-0.1028289794921875
1773522551933807000,10.50380712890625,-0.1898956298828125,0.831298828125,-0.1033172607421875
1773522551943845000,10.51384521484375,-0.1280517578125,0.7259368896484375,-0.158233642578125
1773522551953883100,10.523883056640624,-0.0731964111328125,0.7180023193359375,-0.2053680419921875
1773522551963921200,10.533921142578125,-0.029449462890625,0.779571533203125,-0.2333831787109375
1773522551973959000,10.543958984375,-0.002105712890625,0.844207763671875,-0.2570343017578125
1773522551983997200,10.5539970703125,0.0188140869140625,0.8954925537109375,-0.2867889404296875
1773522551994035000,10.564034912109374,0.0518951416015625,0.9367218017578125,-0.31072998046875
1773522552004073200,10.5740732421875,0.09796142578125,0.96844482421875,-0.3138427734375
1773522552014111000,10.584111083984375,0.1258392333984375,0.9886932373046875,-0.3081207275390625
1773522552024149200,10.594149169921875,0.118927001953125,1.0064544677734375,-0.3004150390625
1773522552034187000,10.60418701171875,0.0807342529296875,1.01861572265625,-0.272918701171875
1773522552044225000,10.61422509765625,0.031951904296875,1.0224151611328125,-0.2318267822265625
1773522552054263000,10.624262939453125,-0.0008392333984375,1.01416015625,-0.1952972412109375
1773522552064301000,10.634301025390625,-0.022796630859375,0.9929656982421875,-0.179901123046875
1773522552074339000,10.644339111328126,-0.0529632568359375,0.97601318359375,-0.173248291015625
1773522552084377000,10.654377197265624,-0.0918121337890625,0.9708099365234375,-0.1746063232421875
1773522552094415000,10.6644150390625,-0.1339874267578125,0.9712371826171875,-0.1884002685546875
1773522552104453000,10.674453125,-0.165985107421875,0.9817962646484375,-0.2062530517578125
1773522552114491000,10.684490966796876,-0.1973419189453125,0.9767608642578125,-0.2025299072265625
1773522552124529200,10.694529052734374,-0.2290191650390625,0.958251953125,-0.161956787109375
1773522552134567000,10.70456689453125,-0.253753662109375,0.9705963134765625,-0.1019439697265625
1773522552144605200,10.714605224609375,-0.2434844970703125,1.00555419921875,-0.065582275390625
1773522552154642200,10.72464208984375,-0.2029876708984375,1.03314208984375,-0.0633087158203125
1773522552164680000,10.734679931640626,-0.1527862548828125,1.03997802734375,-0.0821533203125
1773522552174718200,10.74471826171875,-0.1031646728515625,1.0118560791015625,-0.1082000732421875
1773522552184756000,10.754755859375,-0.0622406005859375,0.9754638671875,-0.14007568359375
1773522552194794200,10.764794189453125,-0.0244903564453125,0.9488677978515625,-0.1824951171875
1773522552204832000,10.77483203125,0.011474609375,0.945526123046875,-0.22894287109375
1773522552214870000,10.7848701171875,0.038543701171875,0.9537200927734375,-0.27105712890625
1773522552224908000,10.794907958984375,0.0563812255859375,0.9517974853515625,-0.294952392578125
1773522552234946000,10.804946044921875,0.0652618408203125,0.9497833251953125,-0.3077850341796875
1773522552244984000,10.814984130859376,0.0711517333984375,0.962860107421875,-0.31268310546875
1773522552255022000,10.82502197265625,0.05621337890625,0.965576171875,-0.313323974609375
1773522552265060000,10.83506005859375,0.02294921875,0.9563751220703125,-0.3139495849609375
1773522552275098000,10.84509814453125,-0.0062408447265625,0.9329833984375,-0.3155059814453125
1773522552285136000,10.855135986328126,-0.0078582763671875,0.9190216064453125,-0.30224609375
1773522552295174100,10.865174072265624,0.0102691650390625,0.9304351806640625,-0.2828826904296875
1773522552305212000,10.8752119140625,0.014739990234375,0.937713623046875,-0.2845001220703125
1773522552315250200,10.885250244140625,-0.00103759765625,0.9445037841796875,-0.293853759765625
1773522552325288000,10.895287841796875,-0.0234527587890625,0.9568939208984375,-0.30072021484375
1773522552335326200,10.905326171875,-0.0403594970703125,0.968170166015625,-0.3018341064453125
1773522552345364000,10.915364013671875,-0.0353851318359375,0.9829559326171875,-0.3015899658203125
1773522552355402000,10.925402099609375,-0.0148162841796875,1.00811767578125,-0.2975921630859375
1773522552365440300,10.935440185546875,0.006744384765625,1.0357818603515625,-0.2824859619140625
1773522552375478000,10.94547802734375,0.0018310546875,1.0379638671875,-0.2473297119140625
1773522552385516300,10.955516357421875,-0.0415802001953125,1.0340423583984375,-0.1977691650390625
1773522552395554000,10.965553955078125,-0.099029541015625,1.042572021484375,-0.148956298828125
1773522552405592000,10.975592041015625,-0.13568115234375,1.050445556640625,-0.1127166748046875
1773522552415630000,10.985630126953126,-0.1324615478515625,1.055572509765625,-0.0928497314453125
1773522552425668000,10.995668212890624,-0.10015869140625,1.052337646484375,-0.0792236328125
1773522552435706000,11.0057060546875,-0.0738983154296875,1.0316009521484375,-0.0654296875
1773522552445744000,11.015744140625,-0.0793609619140625,0.99041748046875,-0.05059814453125
1773522552455782100,11.0257822265625,-0.10009765625,0.9669036865234375,-0.0482635498046875
1773522552465820200,11.035820068359374,-0.1063232421875,0.9612884521484375,-0.0772857666015625
1773522552475858000,11.04585791015625,-0.0795135498046875,0.980377197265625,-0.1305694580078125
1773522552485896200,11.055896240234375,-0.0272369384765625,1.01220703125,-0.18499755859375
1773522552495934000,11.065933837890626,0.02630615234375,1.0155181884765625,-0.233978271484375
1773522552505972200,11.07597216796875,0.0633392333984375,0.9924468994140625,-0.27691650390625
1773522552516010000,11.086010009765625,0.084136962890625,0.97552490234375,-0.3072052001953125
1773522552526048300,11.09604833984375,0.09075927734375,0.980438232421875,-0.325958251953125
1773522552536086000,11.1060859375,0.0978851318359375,0.99432373046875,-0.330413818359375
1773522552546123000,11.116123046875,0.1139068603515625,0.9909515380859375,-0.322723388671875
1773522552556161300,11.126161376953124,0.1257171630859375,0.96832275390625,-0.3101043701171875
1773522552566199000,11.136198974609375,0.1387176513671875,0.9443359375,-0.290069580078125
1773522552576237000,11.146237060546875,0.140716552734375,0.9348907470703125,-0.2622528076171875
1773522552586275000,11.156275146484376,0.130706787109375,0.9638824462890625,-0.224853515625
1773522552596313000,11.16631298828125,0.1086578369140625,0.9890289306640625,-0.1848602294921875
1773522552606351000,11.17635107421875,0.0759429931640625,0.9906005859375,-0.15435791015625
1773522552616389000,11.18638916015625,0.0448760986328125,0.9825439453125,-0.1343841552734375
1773522552626427100,11.19642724609375,0.01458740234375,0.9822998046875,-0.1214447021484375
1773522552636465200,11.206465087890624,-0.0052490234375,0.997589111328125,-0.117401123046875
1773522552646503000,11.2165029296875,-0.0106964111328125,1.0272369384765625,-0.12078857421875
1773522552656541400,11.22654150390625,-0.0005035400390625,1.0646514892578125,-0.126678466796875
1773522552666579500,11.236579345703126,0.0188140869140625,1.084625244140625,-0.134033203125
1773522552676617500,11.246617431640624,0.0332183837890625,1.0768890380859375,-0.1500701904296875
1773522552686655500,11.256655517578125,0.044219970703125,1.0370330810546875,-0.1697845458984375
1773522552696693500,11.266693603515625,0.0545196533203125,0.9986724853515625,-0.1756591796875
1773522552706731500,11.2767314453125,0.0647125244140625,0.9615020751953125,-0.1776123046875
1773522552716769500,11.28676953125,0.0724334716796875,0.9315032958984375,-0.1763458251953125
1773522552726807300,11.296807373046875,0.0733489990234375,0.9333953857421875,-0.1685943603515625
1773522552736845600,11.306845458984375,0.05511474609375,0.9678955078125,-0.1516876220703125
1773522552746883300,11.31688330078125,0.0084228515625,0.995819091796875,-0.13067626953125
1773522552756921600,11.326921630859376,-0.047454833984375,0.98651123046875,-0.1132354736328125
1773522552766959400,11.33695947265625,-0.0787200927734375,0.974609375,-0.108978271484375
1773522552776997600,11.34699755859375,-0.079345703125,1.0068817138671875,-0.1269378662109375
1773522552787035400,11.357035400390625,-0.0622711181640625,1.0552825927734375,-0.1521453857421875
1773522552797073400,11.367073486328126,-0.052154541015625,1.0752410888671875,-0.17657470703125
1773522552807111400,11.377111328125,-0.062255859375,1.0535888671875,-0.20123291015625
1773522552817149400,11.3871494140625,-0.07415771484375,1.0115509033203125,-0.2240142822265625
1773522552827187500,11.3971875,-0.0665435791015625,0.9853515625,-0.243194580078125
1773522552837225500,11.4072255859375,-0.04571533203125,0.983001708984375,-0.259307861328125
1773522552847263200,11.41726318359375,-0.04296875,0.9887237548828125,-0.2665557861328125
1773522552857300500,11.427300537109375,-0.0634307861328125,0.9878387451171875,-0.2582855224609375
1773522552867338500,11.43733837890625,-0.1234588623046875,0.9628753662109375,-0.225067138671875
1773522552877376500,11.44737646484375,-0.2086181640625,0.9568023681640625,-0.1864166259765625
1773522552887414500,11.45741455078125,-0.2770843505859375,0.9896087646484375,-0.1697998046875
1773522552897452300,11.467452392578124,-0.3052520751953125,1.03466796875,-0.1808929443359375
1773522552907490600,11.477490478515625,-0.2890625,1.0761871337890625,-0.2109222412109375
1773522552917528300,11.4875283203125,-0.2417755126953125,1.1022796630859375,-0.2375030517578125
1773522552927566600,11.497566650390626,-0.1738739013671875,1.101806640625,-0.2611541748046875
1773522552937604400,11.507604248046874,-0.091583251953125,1.0697021484375,-0.327239990234375
1773522552947642600,11.517642578125,-0.0866546630859375,1.0521240234375,-0.3944549560546875
1773522552957680400,11.527680419921875,-0.1618804931640625,1.03875732421875,-0.4853515625
1773522552967718400,11.537718505859376,-0.3055419921875,1.0676116943359375,-0.583526611328125
1773522552977756400,11.54775634765625,-0.507720947265625,1.090911865234375,-0.718414306640625
1773522552987794400,11.55779443359375,-0.6002960205078125,1.129486083984375,-0.795623779296875
1773522552997832400,11.56783251953125,-0.481353759765625,1.1095733642578125,-0.7879638671875
1773522553007870500,11.577870361328126,-0.2666778564453125,1.0307159423828125,-0.7115325927734375
1773522553017908200,11.587908203125,-0.14080810546875,0.9331817626953125,-0.635528564453125
1773522553027946500,11.597946533203125,-0.166839599609375,0.840362548828125,-0.59771728515625
1773522553037984300,11.607984375,-0.2126007080078125,0.7792510986328125,-0.5550994873046875
1773522553048022500,11.6180224609375,-0.1492767333984375,0.7393951416015625,-0.484100341796875
1773522553058060300,11.628060302734376,-0.0401763916015625,0.7550506591796875,-0.337493896484375
1773522553068098600,11.6380986328125,0.019683837890625,0.7726898193359375,-0.158538818359375
1773522553078136300,11.64813623046875,-0.0335693359375,0.7750396728515625,-0.01141357421875
1773522553088174300,11.65817431640625,-0.1674346923828125,0.7821502685546875,0.112579345703125
1773522553098212600,11.668212646484376,-0.284942626953125,0.7761077880859375,0.195831298828125
1773522553108250400,11.67825048828125,-0.34600830078125,0.755645751953125,0.23638916015625
1773522553118287600,11.68828759765625,-0.3253021240234375,0.7187347412109375,0.243621826171875
1773522553128325400,11.698325439453125,-0.2285308837890625,0.6766357421875,0.226348876953125
1773522553138363400,11.70836328125,-0.085845947265625,0.6373443603515625,0.16778564453125
1773522553148401400,11.7184013671875,0.0025787353515625,0.596405029296875,0.09588623046875
1773522553158439400,11.728439453125,0.0042266845703125,0.55426025390625,-0.0100860595703125
1773522553168477400,11.7384775390625,-0.0641021728515625,0.5342559814453125,-0.1299591064453125
1773522553178515500,11.748515380859375,-0.1661529541015625,0.5505828857421875,-0.2365570068359375
1773522553188553200,11.75855322265625,-0.261016845703125,0.5902557373046875,-0.3326263427734375
1773522553198591500,11.768591552734375,-0.3046417236328125,0.642791748046875,-0.423065185546875
1773522553208629200,11.778629150390625,-0.3278350830078125,0.706787109375,-0.5142669677734375
1773522553218667500,11.78866748046875,-0.3956451416015625,0.7728271484375,-0.6096343994140625
1773522553228705300,11.798705322265626,-0.48907470703125,0.82403564453125,-0.6862335205078125
1773522553238743600,11.80874365234375,-0.5433502197265625,0.84027099609375,-0.7243499755859375
1773522553248781600,11.818781494140625,-0.5507659912109375,0.8366241455078125,-0.720367431640625
1773522553258819300,11.8288193359375,-0.5521240234375,0.86322021484375,-0.6970062255859375
1773522553268857600,11.838857666015626,-0.5105133056640625,0.90020751953125,-0.690948486328125
1773522553278895400,11.848895263671874,-0.4271697998046875,0.9107208251953125,-0.7117462158203125
1773522553288933600,11.85893359375,-0.3721771240234375,0.900146484375,-0.7314605712890625
1773522553298971400,11.868971435546875,-0.3621978759765625,0.8900909423828125,-0.75958251953125
1773522553309009700,11.879009765625,-0.349517822265625,0.8258209228515625,-0.7579345703125
1773522553319047400,11.88904736328125,-0.308349609375,0.7435455322265625,-0.7235260009765625
1773522553329085400,11.89908544921875,-0.212646484375,0.66510009765625,-0.6683349609375
1773522553339123500,11.90912353515625,-0.165557861328125,0.615081787109375,-0.5990753173828125
1773522553349160400,11.919160400390625,-0.30035400390625,0.5395050048828125,-0.594024658203125
1773522553359198200,11.9291982421875,-0.54180908203125,0.4757843017578125,-0.562042236328125
1773522553369236500,11.939236572265624,-0.740020751953125,0.46173095703125,-0.4282073974609375
1773522553379274500,11.9492744140625,-0.741119384765625,0.5193634033203125,-0.21026611328125
1773522553389312500,11.9593125,-0.4679718017578125,0.6366119384765625,-0.0426025390625
1773522553399350500,11.9693505859375,-0.23785400390625,0.7431640625,-0.0173187255859375
1773522553409388500,11.979388427734374,-0.3484039306640625,0.90692138671875,-0.0981903076171875
1773522553419426600,11.989426513671875,-0.5149078369140625,1.0863494873046875,-0.0908050537109375
1773522553429464300,11.99946435546875,-0.29473876953125,1.1454925537109375,0.140777587890625
1773522553439502600,12.009502685546876,0.0471343994140625,1.02392578125,0.259368896484375
1773522553449540400,12.019540283203124,0.077239990234375,0.870880126953125,0.106109619140625
1773522553459578600,12.02957861328125,-0.2342071533203125,0.7581329345703125,-0.164703369140625
1773522553469616400,12.039616455078125,-0.539642333984375,0.6270904541015625,-0.2737579345703125
1773522553479654700,12.049654541015625,-0.3651123046875,0.49505615234375,-0.0843048095703125
1773522553489692400,12.0596923828125,-0.09283447265625,0.4127197265625,0.0438690185546875
1773522553499730400,12.06973046875,-0.2575531005859375,0.4027862548828125,0.066131591796875
1773522553509768400,12.0797685546875,-0.5178375244140625,0.48046875,0.1112213134765625
1773522553519806500,12.089806396484375,-0.5733642578125,0.61480712890625,0.1482696533203125
1773522553529844500,12.099844482421876,-0.5700225830078125,0.780426025390625,0.2058563232421875
1773522553539882500,12.109882568359374,-0.506378173828125,0.948211669921875,0.2912139892578125
1773522553549920500,12.11992041015625,-0.438262939453125,1.068817138671875,0.2579803466796875
1773522553559957500,12.12995751953125,-0.597503662109375,1.1685638427734375,0.1571197509765625
1773522553569995500,12.13999560546875,-0.8583526611328125,1.2493896484375,0.0569000244140625
1773522553580033500,12.150033447265624,-0.8784027099609375,1.267486572265625,-0.024505615234375
1773522553590071600,12.160071533203125,-0.9192657470703125,1.2379608154296875,-0.081390380859375
1773522553600109300,12.170109375,-0.7943878173828125,1.1373443603515625,-0.078094482421875
1773522553610147600,12.180147705078125,-0.6705169677734375,1.01251220703125,-0.1503753662109375
1773522553620185300,12.190185302734376,-0.8750152587890625,0.8932037353515625,-0.2681427001953125
1773522553630223600,12.2002236328125,-0.8703155517578125,0.7883758544921875,-0.310821533203125
1773522553640261400,12.210261474609375,-0.7263641357421875,0.69708251953125,-0.2949066162109375
1773522553650299600,12.220299560546875,-0.837982177734375,0.6127471923828125,-0.213897705078125
1773522553660337200,12.230337158203126,-0.8526153564453125,0.5865936279296875,-0.10968017578125
1773522553670375200,12.240375244140624,-0.722625732421875,0.5959625244140625,-0.102020263671875
1773522553680413200,12.2504130859375,-0.87322998046875,0.612640380859375,-0.0957183837890625
1773522553690451200,12.260451171875,-0.9248809814453125,0.6575775146484375,-0.0857086181640625
1773522553700489000,12.270489013671876,-0.764251708984375,0.682769775390625,-0.0418243408203125
1773522553710527200,12.28052734375,-0.77008056640625,0.67095947265625,0.001678466796875
1773522553720565000,12.29056494140625,-0.8862762451171875,0.685943603515625,0.0756683349609375
1773522553730603300,12.300603271484375,-0.9219512939453125,0.71826171875,0.1086578369140625
1773522553740641000,12.31064111328125,-0.877166748046875,0.7077789306640625,0.1113128662109375
1773522553750678000,12.320677978515626,-0.90264892578125,0.65667724609375,0.127777099609375
1773522553760716300,12.33071630859375,-0.9160614013671875,0.574951171875,0.1573944091796875
1773522553770754000,12.340754150390625,-1.0076446533203125,0.460693359375,0.1405029296875
1773522553780792300,12.350792236328125,-0.9785919189453125,0.3556365966796875,0.0760650634765625
1773522553790830000,12.360830078125,-0.941253662109375,0.255706787109375,0.0910186767578125
1773522553800868400,12.370868408203124,-0.9874420166015625,0.217071533203125,0.023773193359375
1773522553810906000,12.380906005859375,-0.936767578125,0.2135009765625,-0.0845794677734375
1773522553820944100,12.390944091796875,-0.9864654541015625,0.20233154296875,-0.0822296142578125
1773522553830982100,12.400982177734376,-0.9929046630859375,0.256866455078125,-0.042572021484375
1773522553841020200,12.411020263671874,-0.9365997314453125,0.335357666015625,0.012176513671875
1773522553851058200,12.42105810546875,-0.9466705322265625,0.3975830078125,0.028289794921875
1773522553861096200,12.43109619140625,-1.01666259765625,0.3984832763671875,-0.05029296875
1773522553871134000,12.441134033203125,-1.1286468505859375,0.3485870361328125,-0.0567474365234375
1773522553881172200,12.451172119140624,-1.1101226806640625,0.27386474609375,-0.0285186767578125
1773522553891210000,12.4612099609375,-1.006256103515625,0.25128173828125,-0.038818359375
1773522553901248300,12.471248291015625,-1.00897216796875,0.2490234375,-0.066070556640625
1773522553911286000,12.4812861328125,-1.050933837890625,0.2352447509765625,-0.1366424560546875
1773522553921324300,12.49132421875,-0.9567718505859375,0.31622314453125,-0.2426910400390625
1773522553931361300,12.501361328125,-1.0093994140625,0.330108642578125,-0.28631591796875
1773522553941399000,12.51139892578125,-1.1204376220703125,0.3213653564453125,-0.2519073486328125
1773522553951437300,12.521437255859375,-1.0199432373046875,0.3271026611328125,-0.20452880859375
1773522553961475000,12.53147509765625,-0.906707763671875,0.3004913330078125,-0.1587066650390625
1773522553971513300,12.541513427734374,-0.913177490234375,0.2962799072265625,-0.09527587890625
1773522553981551000,12.551551025390625,-1.0096893310546875,0.302215576171875,-0.0225677490234375
1773522553991589000,12.561589111328125,-1.073150634765625,0.2994537353515625,-0.00164794921875
1773522554001627100,12.571627197265625,-1.1092681884765625,0.2590179443359375,-0.0313568115234375
1773522554011665200,12.5816650390625,-1.1324615478515625,0.2310028076171875,-0.0708465576171875
1773522554021703200,12.591703125,-1.0591583251953125,0.240631103515625,-0.0994415283203125
1773522554031741200,12.6017412109375,-0.9883880615234375,0.2234344482421875,-0.17242431640625
1773522554041779000,12.611779052734375,-1.108184814453125,0.205718994140625,-0.1502532958984375
1773522554051817200,12.621817138671876,-1.118988037109375,0.16802978515625,-0.0908660888671875
1773522554061855000,12.63185498046875,-1.104888916015625,0.147979736328125,-0.0384063720703125
1773522554071893200,12.641893310546875,-1.0970306396484375,0.1676025390625,-0.0966949462890625
1773522554081931000,12.651930908203125,-1.1295166015625,0.1765594482421875,-0.197479248046875
1773522554091969300,12.66196923828125,-1.1275787353515625,0.15716552734375,-0.1667022705078125
1773522554102006300,12.67200634765625,-1.1099395751953125,0.12188720703125,-0.08319091796875
1773522554112044000,12.6820439453125,-1.0875396728515625,0.1085357666015625,-0.05084228515625
1773522554122082300,12.692082275390625,-1.144989013671875,0.1439056396484375,0.05828857421875
1773522554132120000,12.7021201171875,-1.1458740234375,0.175567626953125,0.0941314697265625
1773522554142158300,12.712158447265624,-1.1316680908203125,0.1812591552734375,0.07171630859375
1773522554152196000,12.722196044921875,-1.090728759765625,0.165557861328125,0.00982666015625
1773522554162234000,12.732234130859375,-1.1120758056640625,0.1613006591796875,-0.0254058837890625
1773522554172272000,12.742272216796875,-1.119354248046875,0.13031005859375,-0.054229736328125
1773522554182310100,12.75231005859375,-1.180267333984375,0.07635498046875,-0.0442657470703125
1773522554192348200,12.76234814453125,-1.2458038330078125,0.0588836669921875,0.04095458984375
1773522554202386200,12.77238623046875,-1.1966705322265625,0.1060791015625,0.133056640625
1773522554212424000,12.782423828125,-1.218719482421875,0.1740570068359375,0.09625244140625
1773522554222462200,12.792462158203126,-1.191009521484375,0.22314453125,-0.035797119140625
1773522554232500000,12.8025,-1.1671905517578125,0.19635009765625,-0.1203460693359375
1773522554242538200,12.812538330078125,-1.1113128662109375,0.1385955810546875,-0.2019195556640625
1773522554252576000,12.822575927734375,-1.10296630859375,0.077392578125,-0.2675628662109375
1773522554262613000,12.832613037109375,-1.117340087890625,0.0544281005859375,-0.257904052734375
1773522554272651300,12.8426513671875,-1.1150360107421875,0.030364990234375,-0.1064605712890625
1773522554282689000,12.85268896484375,-1.1474609375,0.0556793212890625,0.1860809326171875
1773522554292727300,12.862727294921875,-1.147918701171875,0.1226959228515625,0.318817138671875
1773522554302765000,12.87276513671875,-1.1907196044921875,0.14947509765625,0.0902099609375
1773522554312803300,12.88280322265625,-1.2139434814453125,0.1256256103515625,-0.1011505126953125
1773522554322841000,12.892841064453124,-1.035430908203125,0.1347503662109375,-0.16473388671875
1773522554332879000,12.902879150390625,-1.0796051025390625,0.2117767333984375,-0.2434234619140625
1773522554342917000,12.912917236328125,-1.1618194580078125,0.310302734375,-0.36181640625
1773522554352955100,12.922955078125,-1.10931396484375,0.285430908203125,-0.4088897705078125
1773522554362993200,12.9329931640625,-1.087860107421875,0.182586669921875,-0.4134979248046875
1773522554373031200,12.94303125,-0.999786376953125,0.1548919677734375,-0.4290618896484375
1773522554383069200,12.953069091796875,-0.892242431640625,0.1664581298828125,-0.407989501953125
1773522554393107200,12.963107177734376,-1.05792236328125,0.1878662109375,-0.282867431640625
1773522554403145000,12.97314501953125,-1.031524658203125,0.2470703125,-0.1768341064453125
1773522554413183200,12.983183349609375,-0.93438720703125,0.27008056640625,-0.1528167724609375
1773522554423220200,12.99322021484375,-0.995758056640625,0.2793731689453125,-0.140228271484375
1773522554433258000,13.003258056640625,-0.9644012451171875,0.2931060791015625,-0.1435089111328125
1773522554443296300,13.013296142578126,-0.876800537109375,0.3226318359375,-0.16925048828125
1773522554453334000,13.023333984375,-0.999237060546875,0.3465576171875,-0.1672210693359375
