time,seconds_elapsed,z,y,x
1773522541509364000,0.079364013671875,-9.532203528788685,-2.2918035080857573,0.23477128076385706
1773522541519401700,0.089401611328125,-9.549701776078344,-2.224932450339943,0.15250698518361896
1773522541529440000,0.09943994140625,-9.57150970326066,-2.133025881667435,0.08239521021721884
1773522541539477800,0.109477783203125,-9.5956399359107,-2.0232938795775173,0.019140501496283102
1773522541549515800,0.119515869140625,-9.617637832707166,-1.916068015089631,0.010393835811666212
1773522541559553800,0.1295537109375,-9.63504781719148,-1.8261909064181148,0.03560398635263554
1773522541569591800,0.139591796875,-9.646047350111603,-1.7659570947296916,0.07450169418815057
1773522541579629800,0.1496298828125,-9.650375150182843,-1.7398944327123462,0.11579227937641554
1773522541589666800,0.159666748046875,-9.649220719450712,-1.7425274115644394,0.16286029262207447
1773522541599704800,0.169704833984375,-9.643758946913481,-1.76685068256855,0.2157200866774656
1773522541609742800,0.179742919921875,-9.635197454795241,-1.8045619890645146,0.27732407247424123
1773522541619780900,0.18978076171875,-9.623666006955505,-1.8486239797614514,0.37151455083284524
1773522541629819000,0.19981884765625,-9.608497663918136,-1.8914409388333557,0.5192389048498124
1773522541639857000,0.20985693359375,-9.590992402365803,-1.918632312619686,0.7085909716214984
1773522541649894100,0.21989404296875,-9.577325696063042,-1.9135228606514632,0.8852384551208465
1773522541659932400,0.229932373046875,-9.573227028572559,-1.873328797429055,1.0071467057600616
1773522541669970200,0.23997021484375,-9.578110124439,-1.8098748546503483,1.0744986058253794
1773522541680008400,0.250008544921875,-9.586776245975495,-1.7403325318686662,1.1114598246064036
1773522541690045400,0.26004541015625,-9.594183307361602,-1.6835666885517537,1.1347378243412822
1773522541700083200,0.270083251953125,-9.598245149973033,-1.6492448783636091,1.150679709034413
1773522541710121500,0.28012158203125,-9.597871055963635,-1.6374122556202113,1.170529560951516
1773522541720159200,0.2901591796875,-9.59267757897377,-1.6418585675045847,1.2063273619763553
1773522541730197500,0.300197509765625,-9.582906126543879,-1.6530565456062554,1.2671616237759589
1773522541740235300,0.3102353515625,-9.567887421110273,-1.6638728309139608,1.3628802980825305
1773522541750273300,0.320273193359375,-9.546509702038765,-1.673771709115803,1.4943293342009185
1773522541760311300,0.330311279296875,-9.521730065569281,-1.6825789926886559,1.6358388688236474
1773522541770349300,0.340349365234375,-9.504321250128745,-1.685245289288461,1.7315327009499073
1773522541780387300,0.35038720703125,-9.500597261169553,-1.6869021165847777,1.7502556677289307
1773522541790424300,0.36042431640625,-9.507003036558627,-1.7036736570350826,1.6984617676056921
1773522541800462300,0.37046240234375,-9.517807339167595,-1.750814762916416,1.5863076529353857
1773522541810500400,0.380500244140625,-9.529798221212625,-1.8345668128363788,1.4098562765300273
1773522541820538400,0.390538330078125,-9.539534602329134,-1.9520225410461425,1.1650224149025976
1773522541830576400,0.400576416015625,-9.543602874681353,-2.0830993828512727,0.8664438844103366
1773522541840614400,0.410614501953125,-9.540029692369698,-2.2023355647370217,0.554921774258092
1773522541850652200,0.420652099609375,-9.528066867375374,-2.299553099299222,0.31365331349465997
1773522541860690400,0.4306904296875,-9.512609186002612,-2.3764931311167774,0.18145630855318157
1773522541870728200,0.440728271484375,-9.502979772391916,-2.4181597511097785,0.1275436718434561
1773522541880766500,0.450766357421875,-9.502686342403292,-2.4190420869022606,0.13257602172116748
1773522541890803500,0.460803466796875,-9.510707151773572,-2.379811315754056,0.23093252458488567
1773522541900841200,0.47084130859375,-9.522391159826517,-2.3025801920354363,0.43883828424960375
1773522541910879500,0.48087939453125,-9.532010636565088,-2.189453140679747,0.7193381372157484
1773522541920917200,0.490917236328125,-9.533167989906667,-2.0469949270300565,1.0482876944437622
1773522541930955500,0.50095556640625,-9.514501867881417,-1.8912702584415673,1.4379619886822999
1773522541940993300,0.5109931640625,-9.464117250034212,-1.7429453447155654,1.8875940541468559
1773522541951031300,0.52103125,-9.382998471227287,-1.60082776119709,2.3594639626435936
1773522541961069300,0.5310693359375,-9.269320069599152,-1.4531974056065082,2.852771065314114
1773522541971107300,0.541107421875,-9.115360510987044,-1.2928852630972862,3.3777260827884077
1773522541981145300,0.551145263671875,-8.925871373832225,-1.129389814376831,3.9017531717628238
1773522541991183400,0.561183349609375,-8.711484526786208,-0.9813698018815368,4.395149560151994
1773522542001220400,0.571220458984375,-8.490931558325887,-0.8789992684703319,4.827196284565329
1773522542011258400,0.58125830078125,-8.286620699614286,-0.8348100711971521,5.177392116504907
1773522542021296400,0.59129638671875,-8.107600934025644,-0.8322319643374532,5.4538586953669785
1773522542031334400,0.60133447265625,-7.928878105556964,-0.8421654754612594,5.709117651027441
1773522542041372400,0.611372314453125,-7.718025862377882,-0.8371114069420844,5.991802958273888
1773522542051410400,0.621410400390625,-7.460443432205915,-0.8115489495318382,6.312966756996512
1773522542061448400,0.631448486328125,-7.213257892885804,-0.791012430524826,6.596483254370093
1773522542071486200,0.641486328125,-7.1054439993768925,-0.8023971633702516,6.711126117116213
1773522542081524500,0.6515244140625,-7.138543135902285,-0.8185770946029574,6.673942926147579
1773522542091562200,0.661562255859375,-7.215697102731466,-0.8284182512681931,6.589220569890737
1773522542101599200,0.67159912109375,-7.276423666372895,-0.8368401157200336,6.521023231977224
1773522542111637200,0.68163720703125,-7.341269940292835,-0.8383785773336887,6.447733539360761
1773522542121675300,0.69167529296875,-7.4060741286367175,-0.8310508647941053,6.3741515857994555
1773522542131713300,0.70171337890625,-7.4593071216523645,-0.815427690661326,6.313810806605219
1773522542141751300,0.711751220703125,-7.463315772771835,-0.7890190647505223,6.312427827814221
1773522542151789300,0.721789306640625,-7.402441325092315,-0.7405451758954673,6.38950989845097
1773522542161827300,0.731827392578125,-7.297364163070917,-0.6519392562035471,6.518729568082094
1773522542171865300,0.741865234375,-7.174203062826394,-0.5166582772394642,6.6659022430330515
1773522542181903400,0.7519033203125,-7.067566396403312,-0.3350733738705516,6.790258690541982
1773522542191941400,0.76194140625,-7.007663424104452,-0.11626411640555598,6.859266175794601
1773522542201979400,0.7719794921875,-7.0136465901672835,0.12910542300115338,6.852917683550715
1773522542212016400,0.782016357421875,-7.076808272001147,0.39213593511171635,6.777565213185548
1773522542222054100,0.79205419921875,-7.1728960718810555,0.6773977417826652,6.652900138118863
1773522542232092400,0.802092529296875,-7.270863694158196,0.9949088632166385,6.5050049941122525
1773522542242130200,0.812130126953125,-7.33777391487062,1.3371483293242752,6.367063088843226
1773522542252168400,0.82216845703125,-7.367578686025738,1.6860716571100056,6.248706758531927
1773522542262206200,0.832206298828125,-7.3763359929770225,2.0380027884095906,6.132422558319568
1773522542272244200,0.842244140625,-7.372883806696533,2.4004260876290497,6.004075579869747
1773522542282282200,0.8522822265625,-7.356248313716054,2.784459453371167,5.856858481255173
1773522542292320300,0.8623203125,-7.322225048083067,3.2000323051065203,5.684646642115712
1773522542302358300,0.872358154296875,-7.268411624830961,3.652123454160988,5.477459935706854
1773522542312396300,0.882396240234375,-7.19500561235845,4.136458291955292,5.224173741424083
1773522542322433300,0.892433349609375,-7.103513908097147,4.639357252705097,4.918010527956485
1773522542332471300,0.90247119140625,-6.998893842193484,5.143488677859306,4.553065162913501
1773522542342509300,0.91250927734375,-6.887125073578954,5.629293588206171,4.1290369097828865
1773522542352547300,0.92254736328125,-6.773181883534789,6.077583883672952,3.654772215104103
1773522542362585300,0.93258544921875,-6.649011898508667,6.483274223819374,3.15090002540797
1773522542372623400,0.942623291015625,-6.490345769640803,6.856689018782973,2.651719792920351
1773522542382661400,0.952661376953125,-6.271117912304401,7.210870705488324,2.2015480676211414
1773522542392699100,0.96269921875,-5.984601648592949,7.550292629957199,1.8297528366833924
1773522542402737400,0.9727373046875,-5.642281664595007,7.871441231110691,1.5412538747221232
1773522542412775200,0.982775146484375,-5.261821627295017,8.16700823176205,1.3355088915541766
1773522542422813400,0.9928134765625,-4.854229837441444,8.435468614301085,1.2040434157576412
1773522542432850400,1.002850341796875,-4.42400915941149,8.67916105080843,1.12724907602109
1773522542442888200,1.01288818359375,-3.9728570447728035,8.899158138951659,1.091685668274015
1773522542452926500,1.022926513671875,-3.5012925489634275,9.094798784473538,1.0936055304206906
1773522542462964200,1.032964111328125,-3.0175410640150306,9.262461289745568,1.127669128064066
1773522542473002500,1.04300244140625,-2.534720137915015,9.399716966316104,1.1793691393587737
1773522542483040300,1.053040283203125,-2.0672499256819483,9.504806987819075,1.2471905566319823
1773522542493078300,1.063078369140625,-1.623401704315841,9.577597498741746,1.3433384161360562
1773522542503116300,1.0731162109375,-1.2071740419335664,9.620125557869672,1.4718395622342824
1773522542513154300,1.083154296875,-0.8203376745346933,9.635408467197419,1.6298358290165662
1773522542523192300,1.0931923828125,-0.46188320588096976,9.62551894134581,1.818367519316077
1773522542533230300,1.103230224609375,-0.13154582929005845,9.593063947942852,2.031311620207876
1773522542543268400,1.113268310546875,0.16838157679419963,9.541842294749618,2.2572677628859874
1773522542553305300,1.123305419921875,0.4383465552099049,9.47475321033895,2.4914403836369514
1773522542563343400,1.13334326171875,0.6798989109486341,9.391425523310899,2.740302039475739
1773522542573381400,1.14338134765625,0.8936653610739856,9.291538331148027,3.0065076288253065
1773522542583419400,1.15341943359375,1.0836307374384253,9.178504657164215,3.278896290723979
1773522542593457200,1.16345703125,1.2452328466929494,9.067906685894727,3.5203465012624857
1773522542603495400,1.173495361328125,1.374010325514525,8.97351166140735,3.7092537468761204
1773522542613533200,1.183533203125,1.4770295320928095,8.897378269797564,3.8503801274001597
1773522542623571500,1.193571533203125,1.5643609018042683,8.838597579526901,3.9499791502714157
1773522542633609200,1.203609130859375,1.6330946846820413,8.795912284010647,4.0168800186336036
1773522542643647500,1.2136474609375,1.680224830777943,8.765009780746698,4.064709106779098
1773522542653685500,1.223685546875,1.7063463833756745,8.737932973250746,4.1118507971823215
1773522542663722500,1.233722412109375,1.7103535731904207,8.707856399416922,4.173524286285042
1773522542673760800,1.2437607421875,1.6857048696242272,8.672844122746586,4.255647858220339
1773522542683798500,1.253798583984375,1.6274673463195561,8.633028829708694,4.3580464486822486
1773522542693836500,1.26383642578125,1.5441348369859158,8.587821322238446,4.476087721695006
1773522542703874600,1.27387451171875,1.4546182321898637,8.538167941275239,4.599366603100299
1773522542713912600,1.28391259765625,1.3810653585925698,8.48428554444015,4.720163604561984
1773522542723950600,1.29395068359375,1.3347865686289966,8.425551615920662,4.837233694455027
1773522542733988600,1.303988525390625,1.3119367311783134,8.36335848685801,4.950093180915713
1773522542744026400,1.3140263671875,1.2988532315909862,8.29808258934915,5.062132583165169
1773522542754064600,1.324064697265625,1.2815920079275964,8.227995492166281,5.179576474806666
1773522542764102400,1.334102294921875,1.252697483485192,8.155823989924787,5.299404046714305
1773522542774140700,1.344140625,1.2125143069829791,8.08196614203155,5.420516982257366
1773522542784177700,1.354177734375,1.1596782773956655,7.996237239080667,5.557495595452189
1773522542794215400,1.36421533203125,1.0949746998820453,7.9027201664716005,5.7024950180172915
1773522542804253700,1.374253662109375,1.0254907562240958,7.795340572726726,5.861009171193838
1773522542814291500,1.38429150390625,0.9672856738843023,7.68960640810132,6.008716683673859
1773522542824329700,1.394329833984375,0.9352082816220819,7.589612832954526,6.13950637910068
1773522542834367500,1.404367431640625,0.9292086028158664,7.490301394852995,6.261178117570281
1773522542844405800,1.41440576171875,0.9250908652987331,7.391751004251837,6.377823552310466
1773522542854443500,1.424443603515625,0.8951210397750139,7.293639005067944,6.4939949397981165
1773522542864481500,1.4344814453125,0.8302136102523654,7.201784312713146,6.6041971897482865
1773522542874519600,1.44451953125,0.7319312229376286,7.114676522624492,6.709400023975968
1773522542884557600,1.4545576171875,0.6057453680444509,7.024070953547954,6.816590232628584
1773522542894595600,1.464595703125,0.4541293768838048,6.934265010416508,6.919547333756089
1773522542904632600,1.474632568359375,0.2960862935514189,6.8530983008146285,7.008407520470023
1773522542914670600,1.484670654296875,0.14269600446093827,6.77595894703269,7.0877651348233215
1773522542924708600,1.49470849609375,-0.007248455024603754,6.7078475338369605,7.15367816119194
1773522542934746600,1.50474658203125,-0.15857434066487475,6.646140726986527,7.209303602302074
1773522542944784600,1.51478466796875,-0.3222460775339976,6.580416501188278,7.2639306800246235
1773522542954822700,1.52482275390625,-0.5075707154205069,6.505875931727886,7.320269822362065
1773522542964860400,1.5348603515625,-0.7087118945874273,6.428555960682034,7.371688459432125
1773522542974898700,1.544898681640625,-0.9154090639136732,6.357184084385633,7.410711140787601
1773522542984936400,1.5549365234375,-1.1149917250595986,6.292502061116695,7.438521523255109
1773522542994974700,1.564974609375,-1.2946835446909069,6.227450620013475,7.464115398716926
1773522543005012500,1.575012451171875,-1.44340257230103,6.159250359490513,7.4933713038176295
1773522543015050800,1.58505078125,-1.5547344108030199,6.09884879001975,7.520455125576257
1773522543025088500,1.595088623046875,-1.6392475082233546,6.05119915009439,7.540971259382367
1773522543035125500,1.60512548828125,-1.7010687352336942,6.014116496890783,7.556928706970811
1773522543045163500,1.61516357421875,-1.751957503210753,5.994222878897189,7.561104531350732
1773522543055201500,1.625201416015625,-1.773724221599847,5.989734919828176,7.559587697046995
1773522543065239600,1.635239501953125,-1.7613313346251844,5.984556640407443,7.566584424066543
1773522543075277600,1.645277587890625,-1.7432346830509602,5.970009059616923,7.582250195232033
1773522543085315600,1.655315673828125,-1.739861407225579,5.945550910186768,7.602215124896168
1773522543095353600,1.665353515625,-1.751295824431628,5.909591123533248,7.627586882039904
1773522543105391600,1.6753916015625,-1.764426816422492,5.858685112160444,7.663744821614027
1773522543115429600,1.6854296875,-1.7739828725360334,5.794889224076271,7.7099045152425765
1773522543125467600,1.695467529296875,-1.7880603515967726,5.7300417811125515,7.754988688594103
1773522543135505400,1.70550537109375,-1.821804800288379,5.680677153962851,7.783399959564209
1773522543145543700,1.715543701171875,-1.9060539860755203,5.661232448780536,7.777388736450671
1773522543155580400,1.725580322265625,-2.0646751067578792,5.680372033536434,7.722751721855998
1773522543165618400,1.735618408203125,-2.3102299761362373,5.744315221136808,7.605002125266194
1773522543175656400,1.745656494140625,-2.645438228432834,5.855572533097863,7.408394096016884
1773522543185694500,1.755694580078125,-3.0057737615928053,6.004948271051049,7.146768527933955
1773522543195732500,1.765732421875,-3.208499981461465,6.163293497401476,6.920239407673478
1773522543205770500,1.7757705078125,-3.164551241880655,6.302907719796895,6.813909030720591
1773522543215808500,1.78580859375,-2.9957787295401093,6.410280299279093,6.789993317604065
1773522543225846500,1.795846435546875,-2.8357389742314814,6.475130664852261,6.797180014237761
1773522543235884500,1.805884521484375,-2.7599501582756636,6.504121781536936,6.800695913404226
1773522543245922600,1.815922607421875,-2.7583427230790254,6.518354889550805,6.78770783701539
1773522543255960600,1.825960693359375,-2.7745345639452337,6.549823794525861,6.750714615660906
1773522543265998600,1.83599853515625,-2.779179759402573,6.6117638256102795,6.688132195019722
1773522543276036600,1.84603662109375,-2.762614993570745,6.697406219321489,6.609318186023831
1773522543286074600,1.85607470703125,-2.7217069368600844,6.797001735061406,6.524066837456822
1773522543296111600,1.866111572265625,-2.6623756269693373,6.908945275720954,6.430287899041176
1773522543306149400,1.8761494140625,-2.589182088203728,7.024597607770562,6.334157429063319
1773522543316187600,1.886187744140625,-2.535962539191544,7.143831889960169,6.221330675828456
1773522543326225400,1.896225341796875,-2.5156618017017838,7.280754973575473,6.0689727071940895
1773522543336263400,1.906263427734375,-2.5177353931054474,7.4188886020243165,5.898432016137242
1773522543346301400,1.916301513671875,-2.529162503787875,7.5270368420541285,5.75477348678708
1773522543356339500,1.92633935546875,-2.5516891006335616,7.59661657423675,5.652493262007832
1773522543366377500,1.93637744140625,-2.59221867942065,7.637841734072565,5.578007053083181
1773522543376415500,1.94641552734375,-2.6515415137439966,7.66000680412948,5.519419839558005
1773522543386453500,1.95645361328125,-2.723098391218483,7.667302806356549,5.474267277145385
1773522543396491500,1.966491455078125,-2.806606695510447,7.661989502379297,5.439418666604161
1773522543406529500,1.976529541015625,-2.912284746034443,7.658077881893515,5.38913984721899
1773522543416567600,1.986567626953125,-3.0351641067281365,7.673050410097837,5.299290064945817
1773522543426605600,1.99660546875,-3.15863909522742,7.709049944239855,5.1733869725167745
1773522543436643600,2.0066435546875,-3.2670719974175095,7.761029137802123,5.026235924875736
1773522543446680600,2.0166806640625,-3.346827671177685,7.826107466912269,4.870438629442453
1773522543456718300,2.02671826171875,-3.379726901216805,7.90176973387897,4.723332882247865
1773522543466756600,2.036756591796875,-3.355850935588777,7.986848063966631,4.595530678199231
1773522543476794400,2.04679443359375,-3.2822476469784974,8.079387815976142,4.485612798148393
1773522543486832600,2.05683251953125,-3.1832264239951966,8.181686745455861,4.37006334195137
1773522543496870400,2.066870361328125,-3.0737875596329567,8.294424651363492,4.233761897365748
1773522543506908400,2.076908447265625,-2.954107871763408,8.416717736601829,4.074614414721727
1773522543516946400,2.086946533203125,-2.815834542582929,8.545591369274257,3.900553732845187
1773522543526984400,2.096984375,-2.651598504628241,8.685542276278138,3.7014535945191978
1773522543537022500,2.1070224609375,-2.4610963910385966,8.838519253593683,3.4632281912460923
1773522543547060500,2.117060546875,-2.2545887529350814,8.99164353042543,3.199619632652402
1773522543557098800,2.1270986328125,-2.0518354989290235,9.127216952997445,2.9418130383357406
1773522543567136500,2.137136474609375,-1.8695823043771087,9.241499750259518,2.6962422407358884
1773522543577174500,2.147174560546875,-1.7164302627556025,9.333149859952925,2.473167937104404
1773522543587211500,2.15721142578125,-1.5908924965076148,9.402292369762062,2.28830192970559
1773522543597249500,2.16724951171875,-1.4804004698306321,9.453689379522205,2.146287806561589
1773522543607287600,2.17728759765625,-1.374101072537899,9.492895016229152,2.0413633508838713
1773522543617325600,2.18732568359375,-1.269280223365128,9.522191837862133,1.9715924800433218
1773522543627363300,2.19736328125,-1.168514567867294,9.540562776333093,1.9448918123833834
1773522543637401600,2.207401611328125,-1.0733830457989126,9.548896889436245,1.9587759608291089
1773522543647439400,2.217439453125,-0.9814210206121206,9.548800443324446,2.006884888829291
1773522543657477000,2.22747705078125,-0.8880380227115005,9.542958731558919,2.076946851570904
1773522543667515400,2.237515380859375,-0.8036601690433919,9.533469603201747,2.153478740978986
1773522543677553200,2.24755322265625,-0.7535264572173357,9.520306754767894,2.2285331051804125
1773522543687591400,2.25759130859375,-0.7407792769122868,9.505337149173021,2.295692624478787
1773522543697629200,2.267629150390625,-0.7515805107813328,9.490207969102263,2.354035800115019
1773522543707667200,2.277667236328125,-0.7695965714000165,9.476417344158888,2.40325619648844
1773522543717705200,2.287705322265625,-0.7816695057053118,9.466819494730233,2.436948184340447
1773522543727743200,2.2977431640625,-0.7799146979272366,9.462634318000077,2.453710080179572
1773522543737781200,2.30778125,-0.7617447619210929,9.467360762000084,2.44114826637879
1773522543747818200,2.317818359375,-0.7302965344078839,9.483514608943462,2.387466798943281
1773522543757856300,2.327856201171875,-0.695586455554515,9.508616901496053,2.2962463128387927
1773522543767894300,2.337894287109375,-0.6641564943503588,9.541584520596265,2.1650493517853318
1773522543777932300,2.347932373046875,-0.6365654537219554,9.582844167223572,1.9834997754581272
1773522543787970300,2.35797021484375,-0.6099913350511342,9.630857379764318,1.744959168756008
1773522543798008300,2.36800830078125,-0.5810052598677575,9.68359352917373,1.435561065020412
1773522543808046000,2.378046142578125,-0.5564285255592316,9.733408238178491,1.0590327411461622
1773522543818084400,2.38808447265625,-0.5417292978709564,9.770687875258922,0.6407621016941965
1773522543828122000,2.3981220703125,-0.5276693544669077,9.790172912451624,0.2108835881654173
1773522543838160400,2.408160400390625,-0.5101281813509762,9.791239664900303,-0.2044945081828162
1773522543848198100,2.4181982421875,-0.48819673738684505,9.775713594466447,-0.6062151775132865
1773522543858236400,2.428236328125,-0.4650425101621076,9.7440570579648,-1.003728275618702
1773522543868274200,2.438274169921875,-0.45354335715677585,9.694614104881882,-1.4068154475294052
1773522543878312200,2.448312255859375,-0.471613632180728,9.622385319495201,-1.8323985288865863
1773522543888350200,2.45835009765625,-0.535890179921314,9.52139747261405,-2.2860896604835985
1773522543898388200,2.46838818359375,-0.649594008251652,9.388317620423436,-2.7582421853139993
1773522543908426200,2.47842626953125,-0.7961983817953616,9.224424696817994,-3.2320977146700023
1773522543918463200,2.488463134765625,-0.9239711405538023,9.042049191060661,-3.682120240756869
1773522543928501200,2.498501220703125,-0.9064533117808401,8.877445488837362,-4.066904278735816
1773522543938539300,2.508539306640625,-0.705628687749803,8.762817239138483,-4.34574430873096
1773522543948577300,2.518577392578125,-0.3777805889576673,8.703822613856197,-4.502349997937679
1773522543958615300,2.528615234375,-0.0019318989308136224,8.687469444948434,-4.549532312612235
1773522543968653300,2.5386533203125,0.3613125614985823,8.69721225580573,-4.51644808139503
1773522543978691000,2.548691162109375,0.6586606734130531,8.718701618558168,-4.440808318521082
1773522543988729300,2.558729248046875,0.818954768808931,8.738732599195837,-4.3742686846867205
1773522543998767000,2.56876708984375,0.8108812063381076,8.753883991098403,-4.345381905159354
1773522544008805400,2.578805419921875,0.6903775617998092,8.77000335125029,-4.333679484666884
1773522544018843100,2.588843017578125,0.5358933217264712,8.791483946174383,-4.31195923576802
1773522544028881400,2.59888134765625,0.4050092260144651,8.817221029499173,-4.273516692388058
1773522544038919200,2.608919189453125,0.3197718329075724,8.844002653440832,-4.225131139403581
1773522544048957200,2.618957275390625,0.2705284757836722,8.869586592030524,-4.174643353442847
1773522544058995200,2.6289951171875,0.23657237536907194,8.893129964703322,-4.126337003174424
1773522544069033200,2.639033203125,0.19884146912349387,8.914529311084747,-4.081912755036353
1773522544079071200,2.6490712890625,0.14967085757539605,8.932803803443909,-4.043883176371455
1773522544089109200,2.659109130859375,0.09099693388114682,8.946701395893097,-4.014803504620493
1773522544099147300,2.669147216796875,0.030288426486216484,8.955095130228996,-3.9969653578519817
1773522544109184300,2.679184326171875,-0.02474609267619671,8.958176729631424,-3.990092549473047
1773522544119222300,2.68922216796875,-0.06958556826836429,8.95710296292007,-3.991974125435948
1773522544129260300,2.69926025390625,-0.10365297443717718,8.952986759772896,-4.0004578761428595
1773522544139298300,2.70929833984375,-0.1293164536696393,8.94687967506945,-4.013352429029346
1773522544149336000,2.719336181640625,-0.1487200505234301,8.938725594708323,-4.030810928830504
1773522544159374300,2.729374267578125,-0.1604392577539198,8.928601675578951,-4.0527410210877655
1773522544169412000,2.739412109375,-0.16162430282002313,8.917429708701372,-4.077218167479336
1773522544179450400,2.749450439453125,-0.14924543523755854,8.9072321398139,-4.09991836732626
1773522544189488000,2.759488037109375,-0.12283332959488033,8.899588347062467,-4.117359915992617
1773522544199526400,2.7695263671875,-0.08565065008290111,8.8943270655334,-4.129651242288947
1773522544209564200,2.779564208984375,-0.041670547249447555,8.890775510531663,-4.137967527474463
1773522544219602200,2.789602294921875,0.0044831884228289706,8.88843099323213,-4.143206012649834
1773522544229640200,2.79964013671875,0.049846044857939704,8.887227462661265,-4.145488862890005
1773522544239678200,2.80967822265625,0.09374210440344177,8.887521477171779,-4.14409828531444
1773522544249716200,2.81971630859375,0.1359223182080779,8.889683623641728,-4.138289891296625
1773522544259754200,2.829754150390625,0.17640814005183056,8.89361628691554,-4.128298658636212
1773522544269792300,2.839792236328125,0.21427343153310938,8.898531531485915,-4.115895104137063
1773522544279830300,2.849830322265625,0.24919448625603688,8.903710979950427,-4.102708290305733
1773522544289868000,2.859867919921875,0.281026050531026,8.908813856047392,-4.089555086483061
1773522544299905300,2.8699052734375,0.30975601379517465,8.913582385623455,-4.0770711602240794
1773522544309943300,2.879943359375,0.33499095628410575,8.91791836900115,-4.065571861088276
1773522544319981000,2.88998095703125,0.3565194089379161,8.921320286399126,-4.056266272604465
1773522544330019300,2.900019287109375,0.37332444979902357,8.923483601912855,-4.0499923069015145
1773522544340057000,2.91005712890625,0.3846812717242166,8.9244276047647,-4.046849624961614
1773522544350095400,2.920095458984375,0.38978703389801084,8.924438710680603,-4.046334368915856
1773522544360133000,2.930133056640625,0.38919436523448675,8.923874647057056,-4.047635222381353
1773522544370171400,2.94017138671875,0.3839162421684712,8.922980913087725,-4.05011271841079
1773522544380209200,2.950209228515625,0.3758161935495212,8.921911822551488,-4.053224128429592
1773522544390247200,2.9602470703125,0.36632048932109024,8.920831041577458,-4.056471439787745
1773522544400285200,2.97028515625,0.35672892350275065,8.919831509146094,-4.059522936312854
1773522544410323200,2.9803232421875,0.34714660043679174,8.919355708327888,-4.061398667056858
1773522544420361200,2.990361328125,0.338160087839514,8.919890545856951,-4.060983656515181
1773522544430399200,3.000399169921875,0.3300457914995029,8.921700225627422,-4.057678185229003
1773522544440437200,3.010437255859375,0.32266032089069485,8.924901067495346,-4.0512230177402495
1773522544450475300,3.020475341796875,0.3158606873458251,8.929292580452561,-4.042070573991537
1773522544460513000,3.030512939453125,0.3102314492871985,8.934501839533448,-4.030982193744182
1773522544470551300,3.04055126953125,0.3061486004203558,8.940179885169863,-4.018685022228956
1773522544480589000,3.050589111328125,0.30360278839506205,8.946285800829529,-4.005269660338759
1773522544490627300,3.06062744140625,0.3027118674373254,8.95268222386837,-3.9910190166682002
1773522544500665000,3.0706650390625,0.3031960524913855,8.959044160115718,-3.9766789411485193
1773522544510703000,3.080703125,0.30450912611763925,8.965023819047213,-3.963078578080237
1773522544520740400,3.090740234375,0.3056990300219506,8.970117342793941,-3.9514492228239773
1773522544530778000,3.100778076171875,0.3055892677708529,8.974199059149623,-3.94217461400032
1773522544540816400,3.11081640625,0.3040393166488036,8.977719634491205,-3.9342715857908126
1773522544550854100,3.120854248046875,0.3014095891997218,8.98149739946425,-3.9258401497930286
1773522544560892200,3.13089208984375,0.29707126773446796,8.98604731785357,-3.9157489638894796
1773522544570930200,3.14093017578125,0.288297484572418,8.991330811214446,-3.904255802233517
1773522544580968200,3.15096826171875,0.2710843926333822,8.996889029863476,-3.89266824029237
1773522544591006200,3.161006103515625,0.24200293078413232,9.00173237824142,-3.8833816487699746
1773522544601044200,3.171044189453125,0.20021558875460177,9.004213089141249,-3.880008665205538
1773522544611082200,3.181082275390625,0.144065036924975,9.004692397090793,-3.881389013648033
1773522544621120300,3.191120361328125,0.06971629567567725,9.0040628670156,-3.8848923455938693
1773522544631158000,3.201157958984375,-0.02846547624222003,9.002058541455865,-3.890052212575078
1773522544641196300,3.2111962890625,-0.1520151100134477,8.99756999786496,-3.8975644879013296
1773522544651233800,3.22123388671875,-0.2957257896759547,8.989511194571852,-3.907892697431147
1773522544661271800,3.231271728515625,-0.44751982255093753,8.97776756528616,-3.9204336145743723
1773522544671309800,3.241309814453125,-0.5927232432555407,8.962990851914881,-3.934953430575132
1773522544681347800,3.251347900390625,-0.7218112493310124,8.946533053588867,-3.95081034039855
1773522544691386000,3.26138623046875,-0.834583057508245,8.930119094404578,-3.965706296235323
1773522544701423900,3.271423828125,-0.9349230349399149,8.915019140428305,-3.9772792451292274
1773522544711462100,3.281462158203125,-1.026907929545641,8.901070110052823,-3.985822909329831
1773522544721500000,3.2915,-1.1107482422709465,8.887613247108458,-3.993363826228678
1773522544731538000,3.301537841796875,-1.1833995639186352,8.87450066755712,-4.001646793666482
1773522544741576000,3.311575927734375,-1.2406228686794638,8.861865057867766,-4.012303212237358
1773522544751614000,3.321614013671875,-1.2787760737240315,8.85021787469387,-4.026009666028618
1773522544761652000,3.33165185546875,-1.2961514252863824,8.839526384809613,-4.043905388203263
1773522544771689000,3.34168896484375,-1.2936962872192264,8.829736227679252,-4.066016974507272
1773522544781726700,3.351726806640625,-1.2735226832404731,8.820843311649561,-4.091605589272081
1773522544791765000,3.361764892578125,-1.2383804965801537,8.81265825162828,-4.119932104568183
1773522544801802800,3.371802734375,-1.192254412960261,8.804963020950556,-4.149885636544227
1773522544811841000,3.381841064453125,-1.1381738632045686,8.798022408032416,-4.179682224392891
1773522544821878800,3.391878662109375,-1.0772457125764339,8.792050347885489,-4.208298078024387
1773522544831916800,3.401916748046875,-1.0082874732930212,8.78714387114346,-4.235543812346458
1773522544841955000,3.411955078125,-0.9276089125342667,8.78315100211501,-4.262177844510973
1773522544851992800,3.421992919921875,-0.8322081450704485,8.779914504411815,-4.288462624846399
1773522544862031000,3.432031005859375,-0.7222513943139464,8.777309874871372,-4.313652887943387
1773522544872068900,3.44206884765625,-0.6010990035433322,8.77554520328641,-4.335766520074009
1773522544882107100,3.452107177734375,-0.47449181796554474,8.774094419956207,-4.354367760169506
1773522544892145000,3.462144775390625,-0.34829029057919975,8.772297015145421,-4.369883309209347
1773522544902183000,3.472182861328125,-0.2276507447015494,8.77061768375635,-4.381187085773051
1773522544912221000,3.482220947265625,-0.11750419786083512,8.77058378148675,-4.385593796299398
1773522544922259000,3.492259033203125,-0.02100667553571984,8.773259138175845,-4.381765177921951
1773522544932297000,3.502296875,0.05945681770024821,8.778678240615129,-4.370542942161858
1773522544942335000,3.5123349609375,0.12201836908333934,8.786530123159288,-4.353435155494511
1773522544952373000,3.522373046875,0.16583737220410258,8.796585068705678,-4.331626059268415
1773522544962411000,3.532410888671875,0.1916432647150941,8.809083315750955,-4.3050802899092435
1773522544972448800,3.54244873046875,0.2009149143966846,8.823853599381446,-4.274298782676458
1773522544982487000,3.552487060546875,0.1933842996961437,8.83958834412992,-4.242010962533951
1773522544992524800,3.56252490234375,0.16806211731517687,8.854159890317916,-4.212599574610591
1773522545002563000,3.57256298828125,0.12254714219779707,8.86517578985095,-4.190946545729041
1773522545012600800,3.582600830078125,0.05573494306632783,8.871227344974875,-4.179548661141097
1773522545022638800,3.592638916015625,-0.030169985455030107,8.872182453742623,-4.1777836972951885
1773522545032676900,3.6026767578125,-0.13038873167680576,8.86869928780198,-4.183248392441868
1773522545042715000,3.61271484375,-0.23935517448801547,8.86183875438273,-4.192963146248459
1773522545052752100,3.622752197265625,-0.3522386263461783,8.852778665092586,-4.204120792339742
1773522545062790000,3.632789794921875,-0.46516536935679614,8.84290725941956,-4.213906857816875
1773522545072828000,3.642827880859375,-0.5751251157879829,8.833774104893207,-4.219484657949209
1773522545082866000,3.652865966796875,-0.6799950647994876,8.826205130943656,-4.219723727402091
1773522545092904000,3.662904052734375,-0.7781874357432127,8.820480323556065,-4.214728987854719
1773522545102942000,3.67294189453125,-0.8685903949197381,8.816841090270877,-4.204667904828488
1773522545112980000,3.68297998046875,-0.9507175470516085,8.814954838132858,-4.190834609787166
1773522545123018000,3.69301806640625,-1.0235239861957728,8.81422301672697,-4.1751960188895465
1773522545133056000,3.703055908203125,-1.0845608578953891,8.814304849791526,-4.1595851927816865
1773522545143093800,3.71309375,-1.1284702153138815,8.815442913910745,-4.145468989145756
1773522545153132000,3.723132080078125,-1.1482288818161934,8.818723250755667,-4.133049068033695
1773522545163169800,3.733169677734375,-1.1362482289042324,8.825592552003265,-4.12168128632307
1773522545173208000,3.7432080078125,-1.08895149406977,8.835939758494495,-4.112268145811558
1773522545183245800,3.753245849609375,-1.0075683652382343,8.844363887968658,-4.114902585968375
1773522545193283800,3.763283935546875,-0.8983699585683643,8.846148433297872,-4.136300763306021
1773522545203321900,3.77332177734375,-0.7697522734183818,8.840607750305534,-4.173908901688456
1773522545213359900,3.78335986328125,-0.6365392233021557,8.829270948255061,-4.220091683931648
1773522545223398000,3.79339794921875,-0.5364276112662628,8.816396853634714,-4.260722969527542
1773522545233436000,3.803435791015625,-0.5178347371403128,8.809072794356942,-4.278139091491699
1773522545243474000,3.813473876953125,-0.5785217724889516,8.81060365718603,-4.26719830302149
1773522545253512000,3.823511962890625,-0.6737312551643699,8.81558495272994,-4.242869332928955
1773522545263549700,3.8335498046875,-0.7649342786774039,8.818041698232292,-4.222253830401599
1773522545273588000,3.843587890625,-0.8343453032296151,8.81433699849546,-4.216835312484204
1773522545283625700,3.853625732421875,-0.8802068176291883,8.804062272718548,-4.228958880998194
1773522545293664000,3.8636640625,-0.9052753540426492,8.789107864692806,-4.254698886932433
1773522545303701800,3.87370166015625,-0.9117303754009306,8.77257817017436,-4.287307025070488
1773522545313740000,3.883739990234375,-0.8999694296542554,8.756832319509982,-4.321841162835061
1773522545323777800,3.89377783203125,-0.8689715031918138,8.743141647809743,-4.355772366270423
1773522545333815800,3.90381591796875,-0.8226673595912755,8.733026496508717,-4.3849578364834185
1773522545343853800,3.913853759765625,-0.7718049681644886,8.72798733329773,-4.404195913177729
1773522545353891800,3.923891845703125,-0.7301706430058926,8.729363297826051,-4.4085652143031355
1773522545363930000,3.93393017578125,-0.7046085509218275,8.73783302000761,-4.3959290200918915
1773522545373968000,3.9439677734375,-0.6905760069813579,8.752700918793678,-4.368489516763389
1773522545384006100,3.954006103515625,-0.6763305509425699,8.771644688716531,-4.332572692468762
1773522545394044000,3.9640439453125,-0.6507279076524078,8.792637792384625,-4.2937709603875875
1773522545404082000,3.97408203125,-0.6107316685570403,8.81355315464139,-4.25660618185848
1773522545414119000,3.984118896484375,-0.5616741711277514,8.8336951944381,-4.22145858837068
1773522545424157000,3.994156982421875,-0.5153729136040434,8.85227013104856,-4.188327887663245
1773522545434194700,4.004194580078125,-0.48477406946178525,8.868356173452735,-4.157842440767586
1773522545444233000,4.01423291015625,-0.47741490233801304,8.881820050659774,-4.129861085647344
1773522545454270700,4.024270751953125,-0.49086310705188657,8.892242660474777,-4.105785505793988
1773522545464309000,4.03430908203125,-0.5159647054847329,8.899804035639763,-4.086277379986644
1773522545474346800,4.0443466796875,-0.5448782634211704,8.904829754847288,-4.0715500587150455
1773522545484385000,4.054385009765625,-0.5736079161580652,8.90732449427247,-4.062138087247312
1773522545494423000,4.064423095703125,-0.6030002705873921,8.907842965188621,-4.056739150813222
1773522545504460800,4.074460693359375,-0.6379068583935499,8.906606701391935,-4.054112601701915
1773522545514499000,4.0844990234375,-0.6819489753462373,8.90387289251387,-4.052949987663329
1773522545524536800,4.094536865234375,-0.7342035517837852,8.900389726573229,-4.051468516933918
1773522545534575000,4.1045751953125,-0.7893964466955512,8.896233775937556,-4.050215886524319
1773522545544612900,4.11461279296875,-0.8437710840269923,8.89115369619429,-4.050409655530751
1773522545554651100,4.124651123046875,-0.8959892739769071,8.884954257032275,-4.0527950893625615
1773522545564689000,4.13468896484375,-0.9447316775750368,8.877675205940008,-4.057675847141445
1773522545574727000,4.144726806640625,-0.990820863250643,8.869042986673117,-4.065554325431585
1773522545584765000,4.154764892578125,-1.0371590552512555,8.859033633834123,-4.075809469725192
1773522545594803000,4.164802978515625,-1.0881178927898407,8.84700943404138,-4.088621312764287
1773522545604841000,4.174841064453125,-1.1455963413555175,8.832280651465057,-4.104731905087829
1773522545614879000,4.18487890625,-1.2103936615671962,8.813855352458358,-4.125684676745534
1773522545624916700,4.194916748046875,-1.2808517109543085,8.791182917401194,-4.1527004017040134
1773522545634955000,4.204955078125,-1.3527933499626814,8.764256332030891,-4.186662292538583
1773522545644992800,4.21499267578125,-1.4233771446213126,8.733344476416706,-4.227654812662303
1773522545655031300,4.22503125,-1.4932089518688618,8.698963483387232,-4.274196491345763
1773522545665069000,4.235069091796875,-1.563356839328259,8.661056654319166,-4.325781424893439
1773522545675107300,4.245107421875,-1.6338240218698978,8.620750947415829,-4.379914581619203
1773522545685145000,4.25514501953125,-1.7032473944470286,8.579632755085825,-4.433873550821841
1773522545695183400,4.265183349609375,-1.7691180429786442,8.538952954173087,-4.48630048815161
1773522545705221000,4.27522119140625,-1.8294630599565802,8.500635790738462,-4.534604500332475
1773522545715259100,4.285259033203125,-1.8804932822309433,8.467009999990463,-4.576448961110413
1773522545725297200,4.295297119140625,-1.920307260094583,8.438208268398046,-4.612964335820078
1773522545735335200,4.305335205078125,-1.9506093132473528,8.413738428530097,-4.644838314464688
1773522545745373200,4.315373291015625,-1.9713010958813129,8.393152736619115,-4.673259814567864
1773522545755411200,4.3254111328125,-1.9829872958913444,8.37648801754415,-4.698147587586939
1773522545765449000,4.335448974609375,-1.9854697603568434,8.363293604928254,-4.720552896140515
1773522545775487200,4.3454873046875,-1.9795454848743974,8.352211654421687,-4.742608952865004
1773522545785525000,4.35552490234375,-1.9642399253234266,8.34273012484908,-4.765605505309999
1773522545795563300,4.365563232421875,-1.9392573136277496,8.337064354172348,-4.785710135705769
1773522545805601000,4.37560107421875,-1.905898941644281,8.338260870480537,-4.797013620008528
1773522545815639300,4.385639404296875,-1.8661008920021354,8.345780744591355,-4.799580255626141
1773522545825677000,4.395677001953125,-1.8227173850886522,8.357648292517661,-4.795602584166825
1773522545835715000,4.405715087890625,-1.7803217201687394,8.373922550970315,-4.783122457300126
1773522545845753000,4.415753173828125,-1.7398180064752697,8.394589491423964,-4.76175146023035
1773522545855791000,4.425791015625,-1.6984531459078192,8.417148529234527,-4.73679705171585
1773522545865829000,4.4358291015625,-1.6546872155480086,8.439255731624364,-4.712891859993339
1773522545875867100,4.4458671875,-1.6078152819968758,8.459491879445315,-4.6927939515993
1773522545885905200,4.4559052734375,-1.5579080724030732,8.475814068692921,-4.680158926431835
1773522545895943200,4.465943115234375,-1.505879340610653,8.487014677143096,-4.676888234198093
1773522545905981200,4.475981201171875,-1.4508134330794213,8.493349725383519,-4.682791320762038
1773522545916019200,4.486019287109375,-1.3906295980125665,8.49795458883047,-4.692685815049708
1773522545926057200,4.49605712890625,-1.323599404182285,8.50399971421361,-4.70111169808954
1773522545936095200,4.50609521484375,-1.2507473723307252,8.512065531769395,-4.706457735292613
1773522545946133200,4.51613330078125,-1.1785220940753818,8.520698920080065,-4.709475329548121
1773522545956171300,4.526171142578125,-1.118627743474394,8.528962890556453,-4.709121986065805
1773522545966209300,4.536209228515625,-1.0851361735653131,8.538373692980409,-4.699897353863716
1773522545976247000,4.5462470703125,-1.0840280661929398,8.553564832371473,-4.6724493749678135
1773522545986285300,4.556285400390625,-1.1011491507332771,8.577339675712585,-4.624621163605153
1773522545996323000,4.566322998046875,-1.1161444022260605,8.607072550675273,-4.565406465831399
1773522546006360000,4.576360107421875,-1.119516289811954,8.636891934877633,-4.507902371367812
1773522546016398000,4.586398193359375,-1.1165030064053834,8.662224529054761,-4.4597842371478675
1773522546026436000,4.59643603515625,-1.119865395510569,8.682211086028813,-4.419898509222269
1773522546036474000,4.60647412109375,-1.1340305528547614,8.696750483512877,-4.387582632029056
1773522546046512000,4.61651220703125,-1.1500128426235168,8.708774098783731,-4.359484080269932
1773522546056550100,4.626550048828125,-1.1453480656828732,8.724269774079323,-4.329626994405687
1773522546066588200,4.636588134765625,-1.0970241066925226,8.746907137823104,-4.296344025745988
1773522546076626200,4.646626220703125,-0.9985525534812361,8.773893344426154,-4.265219988685846
1773522546086664200,4.656664306640625,-0.8603525087326764,8.799118971097469,-4.24330889339
1773522546096702200,4.6667021484375,-0.6996285705521702,8.817681048226357,-4.234313686029613
1773522546106740200,4.676740234375,-0.5388764657231048,8.826581563040614,-4.239278907221555
1773522546116778200,4.6867783203125,-0.3977792382283136,8.82658623921573,-4.254826897226274
1773522546126816300,4.696816162109375,-0.29245774605702607,8.81994723959267,-4.277079061044752
1773522546136854300,4.706854248046875,-0.23219500053506342,8.810114412364364,-4.30097373137325
1773522546146892000,4.71689208984375,-0.21760016480302438,8.800674383845925,-4.321011434012651
1773522546156930300,4.726930419921875,-0.23637025865940375,8.789094420689343,-4.343539492163062
1773522546166968000,4.736968017578125,-0.2636510277622379,8.76916631590426,-4.382077604871988
1773522546177006300,4.74700634765625,-0.26926764380130913,8.740060048407315,-4.439509510882199
1773522546187044000,4.757044189453125,-0.23220143027585,8.7066505307585,-4.506741218633949
1773522546197082000,4.76708203125,-0.15286495917527934,8.676183496302366,-4.56846351531446
1773522546207120100,4.7771201171875,-0.05145119676594622,8.655389130076765,-4.60998707357496
1773522546217158100,4.787158203125,0.04281321447854861,8.647214006927609,-4.625390102151036
1773522546227196200,4.797196044921875,0.1058479911302682,8.64863030346632,-4.621729241555929
1773522546237234200,4.807234130859375,0.12724896321319973,8.653321676152943,-4.612396765065193
1773522546247272200,4.817272216796875,0.11599039576440118,8.655352305197715,-4.608881158159673
1773522546257310200,4.827310302734375,0.09589103519879282,8.652241479700804,-4.615184642218053
1773522546267348000,4.837347900390625,0.09202082443563267,8.646728269237279,-4.625580656287074
1773522546277386200,4.84738623046875,0.11747271587718278,8.647293501904606,-4.6239477943882346
1773522546287424000,4.857424072265625,0.16978128752429036,8.660328924566507,-4.597852983666956
1773522546297462300,4.867462158203125,0.23944020415665582,8.683970496916771,-4.549912544101477
1773522546307500000,4.8775,0.3173327326597646,8.712008258399367,-4.49116897097081
1773522546317538300,4.887538330078125,0.39469767535850403,8.740363999789952,-4.429520031787455
1773522546327576000,4.897576171875,0.4636882094763219,8.767810225120186,-4.368167445202172
1773522546337614000,4.907614013671875,0.5208792194027453,8.794315370208025,-4.308030956408381
1773522546347652000,4.917652099609375,0.5708725363774225,8.819683035698533,-4.249434098272025
1773522546357690000,4.927690185546875,0.6209100578200072,8.843007797184587,-4.193572802579403
1773522546367728000,4.93772802734375,0.6746256467208266,8.863668307897449,-4.141334081298113
1773522546377766100,4.94776611328125,0.7295526572380214,8.881015748539566,-4.094594834215939
1773522546387804200,4.95780419921875,0.7840028440237045,8.894528141063452,-4.055005166627466
1773522546397842200,4.96784228515625,0.836432338636741,8.904665504196286,-4.0221526983395215
1773522546407880200,4.977880126953125,0.8854659072011709,8.911458233076333,-3.9965301813051104
1773522546417918200,4.987918212890625,0.9274076908737421,8.913735530358553,-3.981910412061214
1773522546427956200,4.997956298828125,0.9590399697169661,8.91182005212605,-3.9787098624542354
1773522546437994200,5.007994140625,0.9811198457084596,8.907392883333562,-3.9832314315319057
1773522546448032300,5.0180322265625,0.9973886973336339,8.902860500600934,-3.9893201037958264
1773522546458070300,5.0280703125,1.008765612198785,8.899308361077308,-3.994382647882402
1773522546468108300,5.0381083984375,1.0142872982297093,8.897170180004835,-3.9977454023137686
1773522546478146000,5.04814599609375,1.0145199379418044,8.896894870194792,-3.99830186715275
1773522546488184300,5.058184326171875,1.0126090628191828,8.898443268680571,-3.995336879867315
1773522546498222000,5.06822216796875,1.013035763798654,8.901586242881416,-3.988222371686995
1773522546508260400,5.07826025390625,1.0190694179397075,8.90633431419134,-3.9760616860330105
1773522546518298000,5.088298095703125,1.0313415280789135,8.912781590634584,-3.9584088327035305
1773522546528336100,5.098336181640625,1.0482703049175441,8.921129732263088,-3.9350960539162156
1773522546538374100,5.1083740234375,1.066802498364821,8.931281708443164,-3.906986103980243
1773522546548412200,5.118412109375,1.082645379662886,8.942891482216119,-3.8759482838988304
1773522546558450200,5.1284501953125,1.0916251702584325,8.956087648397684,-3.8428175831913944
1773522546568488200,5.13848828125,1.089751046949625,8.971437777742743,-3.8073774364978075
1773522546578526200,5.148526123046875,1.0725643498271704,8.99029796103537,-3.7675633125036954
1773522546588564200,5.158564208984375,1.036167998387292,9.013046968460083,-3.7231329268857833
1773522546598602000,5.16860205078125,0.9751899442028253,9.038270841565728,-3.678190207831561
1773522546608640300,5.17864013671875,0.8824578114263713,9.06292422130704,-3.640748950448632
1773522546618678000,5.188677978515625,0.7487089008677751,9.082744189542531,-3.621270927518606
1773522546628716300,5.19871630859375,0.5671813902419061,9.094518798488378,-3.6246956412702795
1773522546638754000,5.208754150390625,0.33725828016158194,9.096667500954865,-3.6479137275114653
1773522546648792800,5.218792724609375,0.06227149152848869,9.088484779021144,-3.683198683643341
1773522546658830600,5.22883056640625,-0.2521024826572277,9.069009094178677,-3.7228918116062877
1773522546668868900,5.238868896484375,-0.6008461978260428,9.036500324761867,-3.761787359450757
1773522546678906600,5.24890673828125,-0.9792818166263401,8.988198358407615,-3.7978508987396955
1773522546688945000,5.25894482421875,-1.3769798428446054,8.920581450730563,-3.833736158852279
1773522546698982700,5.268982666015625,-1.7724498177498578,8.832031060618162,-3.8760838929772374
1773522546709020700,5.279020751953125,-2.1381119527600703,8.724893458935618,-3.9338390395924447
1773522546719058700,5.28905859375,-2.452715808445215,8.603194247937202,-4.017413979379833
1773522546729096700,5.2990966796875,-2.712742709159851,8.476224403059483,-4.118866228902339
1773522546739134700,5.309134765625,-2.937608572383225,8.354459141087531,-4.2123438462838525
1773522546749172700,5.3191728515625,-3.151298669336736,8.24554400833845,-4.272082860192656
1773522546759210500,5.32921044921875,-3.3572859368279575,8.156303882396221,-4.286458883808553
1773522546769248800,5.339248779296875,-3.539402207127213,8.092453633776307,-4.2608918963536615
1773522546779286500,5.34928662109375,-3.678770930328965,8.056325504818558,-4.2110149357676505
1773522546789324800,5.35932470703125,-3.7687379092410205,8.044717484611272,-4.153253359411656
1773522546799362600,5.369362548828125,-3.8181183184817433,8.050076965817809,-4.097390894675255
1773522546809400800,5.37940087890625,-3.84280706179738,8.062507408323883,-4.049591617146135
1773522546819438600,5.3894384765625,-3.857593712040782,8.074089125046134,-4.012287430146336
1773522546829476600,5.3994765625,-3.8705484706819053,8.079814516955613,-3.9882136038586493
1773522546839514600,5.4095146484375,-3.882536430117488,8.07704212963283,-3.9821690629974005
1773522546849552600,5.419552734375,-3.8905698067083954,8.06505007854402,-3.9986028959259388
1773522546859590700,5.429590576171875,-3.8886990444004534,8.04727418335676,-4.036060812182725
1773522546869628700,5.439628662109375,-3.871998669490218,8.02901898021996,-4.088137913161516
1773522546879666700,5.449666748046875,-3.837864052437246,8.01478762577176,-4.147817013576627
1773522546889704700,5.45970458984375,-3.7881203628420828,8.007023421511054,-4.2081008018866175
1773522546899742700,5.46974267578125,-3.7257664902597663,8.007208130428195,-4.263057257694006
1773522546909780700,5.47978076171875,-3.6542788786292073,8.014991039389372,-4.310052817624807
1773522546919818800,5.48981884765625,-3.574002688126266,8.029545634442567,-4.3500896444588895
1773522546929856800,5.499856689453125,-3.482201479524374,8.050469180005788,-4.385727067290246
1773522546939894800,5.509894775390625,-3.3760452900946136,8.076267638128995,-4.421155231285095
1773522546949932800,5.519932861328125,-3.25443609546721,8.104424057555198,-4.460643484325707
1773522546959970800,5.529970703125,-3.116911538827419,8.13316207626164,-4.506321531917155
1773522546970008600,5.540008544921875,-2.962569410638511,8.162479356160759,-4.5571395727455615
1773522546980046800,5.550046875,-2.7931875342279673,8.192741223433613,-4.609497828753292
1773522546990084600,5.560084716796875,-2.616018364942074,8.2227178440243,-4.659800321274996
1773522547000123000,5.570122802734375,-2.440131782812625,8.249262736600636,-4.708059617531299
1773522547010160600,5.58016064453125,-2.27009027344957,8.269309499329328,-4.757689033097028
1773522547020198700,5.59019873046875,-2.106209917064756,8.280798861593007,-4.812757132585347
1773522547030237700,5.60023779296875,-1.9554386330999434,8.282012329035997,-4.873900168073177
1773522547040274700,5.610274658203125,-1.8319097224563359,8.272866315028072,-4.937020348852872
1773522547050313700,5.620313720703125,-1.7462468704789875,8.25927150491774,-4.990535081419348
1773522547060351500,5.6303515625,-1.6961385853551327,8.250323643830418,-5.022514858525991
1773522547070389800,5.6403896484375,-1.6709581129997968,8.249597667643428,-5.03214018048346
1773522547080427500,5.650427490234375,-1.6659487604051828,8.257712585037947,-5.020477215218544
1773522547090465800,5.6604658203125,-1.6793134150214493,8.272504495978355,-4.9915901434302326
1773522547100503800,5.67050390625,-1.7053648249924183,8.290251749593018,-4.953163674402236
1773522547110541600,5.68054150390625,-1.7342852145284413,8.308551960915327,-4.9122927348315715
1773522547120579800,5.690579833984375,-1.7602376941695808,8.326325518015027,-4.8728076966613525
1773522547130617600,5.70061767578125,-1.7835305992126465,8.342081890073418,-4.837257659852504
1773522547140655900,5.71065576171875,-1.8004041387327014,8.351654020538925,-4.814435294930637
1773522547150693600,5.720693603515625,-1.7970595044799147,8.350096269702911,-4.818385201600194
1773522547160732000,5.73073193359375,-1.762798192307353,8.333532672914862,-4.8595448949843645
1773522547170769700,5.740769775390625,-1.7111523223526774,8.301606087300181,-4.932108026891947
1773522547180807700,5.7508076171875,-1.683285387392342,8.25578541636765,-5.017863817849755
1773522547190845700,5.760845703125,-1.716343753515929,8.201462874549627,-5.095149886626005
1773522547200883700,5.7708837890625,-1.8165480488039552,8.148747183406353,-5.14474949157536
1773522547210921700,5.780921630859375,-1.957331461109221,8.107257819676398,-5.158645330458879
1773522547220959700,5.790959716796875,-2.0946882599666714,8.083544351133703,-5.141884749794006
1773522547230997800,5.800997802734375,-2.1901922686092554,8.080707666403054,-5.106426482921838
1773522547241035800,5.811035888671875,-2.234416756391525,8.095571473535895,-5.063543619006872
1773522547251073500,5.821073486328125,-2.2599007417380808,8.11689892372489,-5.017884860637784
1773522547261111800,5.83111181640625,-2.318627363733947,8.129967079612612,-4.969707397446036
1773522547271149600,5.841149658203125,-2.4376103015109893,8.124261561447382,-4.921873048603534
1773522547281187800,5.851187744140625,-2.5965777514129877,8.099320012414456,-4.881514734730124
1773522547291225600,5.8612255859375,-2.7594901395484803,8.062053819337487,-4.853747899143397
1773522547301264000,5.871263916015625,-2.909401884074509,8.023485896012186,-4.830058395998179
1773522547311301600,5.881301513671875,-3.04816591938138,7.995814629754424,-4.790201017384231
1773522547321339600,5.891339599609375,-3.180195093475282,7.9844626301348205,-4.7228287321180105
1773522547331377700,5.901377685546875,-3.308509338699281,7.982825968843698,-4.636663191315532
1773522547341415700,5.911415771484375,-3.4338235253244638,7.977565271836519,-4.553865373380482
1773522547351453700,5.92145361328125,-3.556545941890776,7.95842860969007,-4.492745718768239
1773522547361491700,5.93149169921875,-3.678307988992333,7.920967770823836,-4.460794875495136
1773522547371529700,5.94152978515625,-3.797542271181941,7.866562811419367,-4.457157103514671
1773522547381567700,5.951567626953125,-3.9179882672488686,7.800106179693341,-4.469686622481047
1773522547391605500,5.96160546875,-4.042425086517632,7.727193503695726,-4.485494724726677
1773522547401643800,5.971643798828125,-4.165363483922183,7.653728454512358,-4.498952172192931
1773522547411681500,5.981681640625,-4.283587712286413,7.584271471926569,-4.505562822504341
1773522547421719800,5.9917197265625,-4.39933473688215,7.5209893785834305,-4.500105141620337
1773522547431757600,6.001757568359375,-4.514776933312416,7.462377030616998,-4.4833127045124765
1773522547441795600,6.011795654296875,-4.631811951892078,7.404061619770526,-4.460555806042254
1773522547451833600,6.02183349609375,-4.745737898540496,7.344135266596078,-4.43982398365885
1773522547461871600,6.03187158203125,-4.851294953033328,7.283522684723138,-4.425562526333332
1773522547471910000,6.041909912109375,-4.951486681100726,7.220920974859595,-4.417178144347668
1773522547481947600,6.05194775390625,-5.053317408546805,7.155271567863226,-4.408679488332569
1773522547491986000,6.06198583984375,-5.156697119000554,7.088363685238361,-4.397040196204185
1773522547502023700,6.072023681640625,-5.259509258699417,7.020443995222449,-4.384213447856903
1773522547512061700,6.082061767578125,-5.361776623997092,6.949899217399954,-4.3727138564601535
1773522547522099700,6.092099609375,-5.4599903299897905,6.877962692958116,-4.364917795756459
1773522547532137700,6.1021376953125,-5.552983670985698,6.806357007905841,-4.359845899319648
1773522547542175700,6.11217578125,-5.645299551111459,6.7324132352948185,-4.356096483658254
1773522547552213800,6.1222138671875,-5.735573696276545,6.658010613000393,-4.3525250549122685
1773522547562251800,6.132251708984375,-5.818062594392895,6.586248860603571,-4.35222461066097
1773522547572289800,6.142289794921875,-5.892468723818659,6.5169269025743,-4.356474084798991
1773522547582327600,6.15232763671875,-5.964838963502645,6.447094072413444,-4.3618864652365446
1773522547592365800,6.16236572265625,-6.036679626354575,6.374335710194707,-4.369981508886814
1773522547602403600,6.172403564453125,-6.107416711878776,6.297437179431319,-4.38316393880397
1773522547612441900,6.18244189453125,-6.175532801249623,6.215977624362707,-4.403952459810674
1773522547622479600,6.192479736328125,-6.238320973595976,6.132752813187241,-4.432051888352632
1773522547632518000,6.202517822265625,-6.295302505490183,6.049722063279152,-4.465469589307904
1773522547642555600,6.2125556640625,-6.347105173441768,5.968734217375516,-4.500984262542426
1773522547652597000,6.222596923828125,-6.39698827150762,5.891780157032609,-4.531651495745778
1773522547662635000,6.232635009765625,-6.4456812830060715,5.816826915118098,-4.55939758080542
1773522547672673000,6.242673095703125,-6.490794682452083,5.742195744764804,-4.589896179443597
1773522547682711000,6.2527109375,-6.531608923399448,5.669027632701397,-4.622834572449326
1773522547692749000,6.2627490234375,-6.568523234298825,5.599489986094832,-4.655169446603954
1773522547702788000,6.2727880859375,-6.603882716971635,5.529428023353219,-4.688768349345028
1773522547712826000,6.282826171875,-6.635254006791114,5.456343497920036,-4.72991547550857
1773522547722864000,6.292864013671875,-6.659595251843333,5.3866690731912845,-4.775350654254853
1773522547732902100,6.302902099609375,-6.679647275269031,5.32712967350781,-4.813978783334791
1773522547742940000,6.31293994140625,-6.697046153837442,5.279387094601988,-4.842317865851522
1773522547752978200,6.322978271484375,-6.7129387194961305,5.239411058044433,-4.863683309963346
1773522547763016000,6.333015869140625,-6.727761025574803,5.2038510843634604,-4.881346392425894
1773522547773054200,6.34305419921875,-6.741096307966113,5.173549469602108,-4.895139939978718
1773522547783092000,6.353092041015625,-6.751561003357172,5.147684375983476,-4.90796844189167
1773522547793130000,6.3631298828125,-6.75844608669579,5.128333778825402,-4.9187388422310345
1773522547803168000,6.37316796875,-6.763633133944869,5.115240488496423,-4.92523872564435
1773522547813206000,6.3832060546875,-6.768484081107378,5.104635507851839,-4.929574709022045
1773522547823244000,6.393244140625,-6.772064862203598,5.093476400455832,-4.936194419422746
1773522547833282000,6.403281982421875,-6.773779264906048,5.082109203267097,-4.945550276789069
1773522547843320000,6.413320068359375,-6.774412886634469,5.06942157112956,-4.95768962739408
1773522547853358000,6.423358154296875,-6.773313400959968,5.056877731376886,-4.971981772118807
1773522547863395800,6.433395751953125,-6.770548027899861,5.046535201060772,-4.986235338398814
1773522547873434000,6.44343408203125,-6.765953685846925,5.038130360808968,-5.000950676971674
1773522547883472000,6.453471923828125,-6.7588979221165175,5.031796481612324,-5.016842073586583
1773522547893510100,6.46351025390625,-6.750598880326748,5.02930583384037,-5.030494751363992
1773522547903548000,6.4735478515625,-6.743132197707891,5.029338567066192,-5.040467279323935
1773522547913586200,6.483586181640625,-6.7355930343747135,5.030085001519322,-5.0497933260738845
1773522547923624000,6.4936240234375,-6.72966890502274,5.02958465078175,-5.058183553278446
1773522547933662000,6.503661865234375,-6.725747932186723,5.02816893876493,-5.064800925591587
1773522547943700000,6.513699951171875,-6.723316321125626,5.0265270167768,-5.069657717972993
1773522547953738000,6.523738037109375,-6.723516812133789,5.024786310589313,-5.071116684609652
1773522547963776000,6.53377587890625,-6.724435680544376,5.022915840542316,-5.071752059903741
1773522547973814000,6.54381396484375,-6.725600048148632,5.020621007603407,-5.07248037417829
1773522547983852000,6.55385205078125,-6.726534114128351,5.019111772084236,-5.072734641200304
1773522547993890000,6.56389013671875,-6.726620038846135,5.0194765137434,-5.072261178469658
1773522548003928000,6.573927978515625,-6.726296798241138,5.021163443917036,-5.071019653975963
1773522548013966000,6.583966064453125,-6.725227707704901,5.0249230887115,-5.0687113770335905
1773522548024004000,6.594004150390625,-6.723510382393002,5.032303262090683,-5.063666368603706
1773522548034042000,6.6040419921875,-6.720430536556243,5.042938053351641,-5.057169407799839
1773522548044080000,6.614080078125,-6.715138859888911,5.055884628686308,-5.051270412889123
1773522548054118000,6.624117919921875,-6.708900257760286,5.069929520651698,-5.045479554527998
1773522548064156200,6.63415625,-6.702005822071433,5.084645443746448,-5.039829565942287
1773522548074194000,6.64419384765625,-6.693402828899026,5.101759075632691,-5.033965057823061
1773522548084232200,6.654232177734375,-6.684463151118159,5.121258725872636,-5.026036602911353
1773522548094270000,6.66427001953125,-6.678880382549762,5.1408706043154,-5.013420866966247
1773522548104308200,6.67430810546875,-6.677973789098859,5.158804320412874,-4.996178640264272
1773522548114346000,6.684345947265625,-6.679623309871554,5.1738364698499435,-4.9783974843800065
1773522548124384000,6.694384033203125,-6.682452395817637,5.185441567447781,-4.9625002425462
1773522548134422000,6.704422119140625,-6.6879299504458904,5.194379491662978,-4.9457455071002245
1773522548144460000,6.7144599609375,-6.693463034653663,5.20211680791676,-4.930102532288432
1773522548154499000,6.7244990234375,-6.695991676348448,5.209423916059732,-4.918941671326756
1773522548164536800,6.734536865234375,-6.695449824556708,5.217554031023383,-4.911054717469215
1773522548174575000,6.7445751953125,-6.693485831007361,5.226891183689236,-4.903798462730646
1773522548184612900,6.75461279296875,-6.691479167360067,5.2367906464129685,-4.895969376540184
1773522548194651100,6.764651123046875,-6.689273766270279,5.247317301124334,-4.887705990585684
1773522548204689200,6.774689208984375,-6.688316903936863,5.257367570495605,-4.878204879529774
1773522548214727000,6.784726806640625,-6.686432989886403,5.266775450310111,-4.870634736536443
1773522548224765200,6.79476513671875,-6.682374069884419,5.275058710008859,-4.8672401256620885
1773522548234803000,6.804802978515625,-6.679167967319488,5.280375521117448,-4.865873805744946
1773522548244841200,6.81484130859375,-6.6777464100837705,5.2830023624897,-4.864973642034828
1773522548254879000,6.82487890625,-6.67666446006596,5.282167665231228,-4.867364921085536
1773522548264917200,6.834917236328125,-6.675774233227968,5.277783751058578,-4.873337565754354
1773522548274955000,6.844955078125,-6.67373717444241,5.27071278975904,-4.88376952791959
1773522548284993000,6.854992919921875,-6.671192166134714,5.262414917013049,-4.896178343115746
1773522548295031000,6.865031005859375,-6.670642131036519,5.253692096853256,-4.906285603371262
1773522548305069000,6.875069091796875,-6.6700166926145545,5.246832732477784,-4.914469494348764
1773522548315107000,6.885107177734375,-6.668876290407776,5.242465769439935,-4.920674778729677
1773522548325145000,6.89514501953125,-6.668574092590808,5.239027611684799,-4.924742466560006
1773522548335183000,6.90518310546875,-6.669891020408272,5.235294270375371,-4.926929162949324
1773522548345221000,6.91522119140625,-6.6724553179383275,5.230945427516103,-4.928077163940668
1773522548355259000,6.9252587890625,-6.678013536587357,5.226105001747608,-4.925683546802401
1773522548365297200,6.935297119140625,-6.686719990134239,5.221313675817847,-4.918947516545653
1773522548375335000,6.9453349609375,-6.697116880986094,5.216083373948932,-4.910345107895136
1773522548385373200,6.955373291015625,-6.709650199344754,5.208973834204674,-4.900772100646794
1773522548395411000,6.965410888671875,-6.723246178498864,5.199862891510128,-4.89180670390278
1773522548405449200,6.97544921875,-6.7376891298711294,5.19044098317027,-4.88193208335936
1773522548415487000,6.985487060546875,-6.7547402179151765,5.1824944080799815,-4.86678829024136
1773522548425525000,6.99552490234375,-6.772687962538003,5.1760968159973615,-4.8486190118223425
1773522548435563000,7.00556298828125,-6.791234842097759,5.170218863874673,-4.828907472397387
1773522548445601000,7.01560107421875,-6.811259392994642,5.163723072114586,-4.807607494737208
1773522548455639000,7.02563916015625,-6.831698954433202,5.155713368660211,-4.787158873209357
1773522548465677000,7.035677001953125,-6.852857477796078,5.146266325879097,-4.767040214288234
1773522548475714800,7.04571484375,-6.874087897351384,5.1373552896708246,-4.746038050530851
1773522548485753000,7.055753173828125,-6.894873495748639,5.129826063209772,-4.723980824762583
1773522548495790800,7.065790771484375,-6.913400501564145,5.1241906876713035,-4.702973400308191
1773522548505829000,7.0758291015625,-6.929023602631688,5.120744346609712,-4.683694407081604
1773522548515867000,7.085866943359375,-6.94280312165916,5.118373525825143,-4.665846323440968
1773522548525905200,7.0959052734375,-6.955351637586951,5.115968802770972,-4.64976729529947
1773522548535944000,7.10594384765625,-6.966353508594632,5.112479791611433,-4.637117072562873
1773522548545982200,7.115982177734375,-6.9745461674004785,5.108228563907742,-4.629480586335062
1773522548556020000,7.12602001953125,-6.980744437518715,5.103540698352456,-4.625307392303645
1773522548566058000,7.13605810546875,-6.987688557568192,5.098667539358138,-4.620193410290778
1773522548576096000,7.146095947265625,-6.993089539828896,5.093879136037827,-4.617302657285332
1773522548586134000,7.156134033203125,-6.9959104424685234,5.088969152164459,-4.618443059492111
1773522548596172000,7.166172119140625,-6.997945163166523,5.082718275076151,-4.622241867253184
1773522548606210000,7.1762099609375,-6.998262558552622,5.076274505764245,-4.628839365822077
1773522548616248000,7.186248046875,-6.995738593032955,5.0717982371330255,-4.637552249109745
1773522548626286000,7.1962861328125,-6.9907058595627545,5.070386032247543,-4.6466766358077525
1773522548636323800,7.20632373046875,-6.984329894790053,5.070767140519619,-4.655839308689535
1773522548646362000,7.216362060546875,-6.977754608052969,5.070770647650956,-4.665683534094691
1773522548656400000,7.22639990234375,-6.97204499823451,5.070283740916848,-4.674741285297275
1773522548666438100,7.236438232421875,-6.965937329009175,5.0680707410424946,-4.686231524343788
1773522548676476000,7.246475830078125,-6.960944343027472,5.064529122912884,-4.697466035063565
1773522548686514200,7.25651416015625,-6.956813526833057,5.0591275561302895,-4.7093908661350605
1773522548696552000,7.266552001953125,-6.956411375772952,5.04790064419508,-4.722014785386622
1773522548706590200,7.276590087890625,-6.9615534148365255,5.029178408068418,-4.734398173880577
1773522548716628000,7.2866279296875,-6.967854560807347,5.006560918068885,-4.749077272096276
1773522548726666000,7.296666015625,-6.973567093235254,4.981732181760669,-4.766769288392365
1773522548736704000,7.3067041015625,-6.97993370565772,4.955405900371074,-4.784858195051551
1773522548746742000,7.316741943359375,-6.988162604820728,4.928496266135573,-4.8006133980661625
1773522548756780000,7.326780029296875,-6.999648459953069,4.900729722809792,-4.812291560900211
1773522548766818000,7.336818115234375,-7.013275418767333,4.87245026152581,-4.8211587579667565
1773522548776856000,7.34685595703125,-7.027625431159138,4.844240066085756,-4.82868623086214
1773522548786894000,7.35689404296875,-7.046201536813378,4.8134743409439915,-4.832380116944015
1773522548796932000,7.36693212890625,-7.065790034380555,4.782559854981303,-4.8344712440043685
1773522548806970000,7.37697021484375,-7.082279981410503,4.754842996016144,-4.8376814382225275
1773522548817008000,7.387008056640625,-7.097805467322468,4.726353399112821,-4.842842474247515
1773522548827046100,7.397046142578125,-7.1134309064775705,4.693619004246592,-4.851744742627441
1773522548837084200,7.407084228515625,-7.1259589641392225,4.660923187825084,-4.864862875136732
1773522548847122200,7.4171220703125,-7.1389949713230125,4.635212700246274,-4.870312664975225
1773522548857160200,7.42716015625,-7.15345428930819,4.6162060942202805,-4.867147186681628
1773522548867198000,7.437197998046875,-7.166255318692326,4.602578258623183,-4.861218381154537
1773522548877236200,7.447236328125,-7.175217208305001,4.593981110669672,-4.856127487756312
1773522548887274000,7.45727392578125,-7.179919686907529,4.589869875958562,-4.853064300793409
1773522548897313000,7.46731298828125,-7.18264238986969,4.589732513314485,-4.849163493962585
1773522548907351000,7.47735107421875,-7.18415104086697,4.593335506242513,-4.8435137976378195
1773522548917389000,7.48738916015625,-7.185130115032195,4.6001177137285465,-4.835618075951934
1773522548927427000,7.497427001953125,-7.1844409637242554,4.609999348534643,-4.827225510659813
1773522548937465000,7.507465087890625,-7.18301531483531,4.62129961796701,-4.8185342546820635
1773522548947503000,7.517503173828125,-7.179929039257765,4.6325212692052125,-4.812353520220518
1773522548957540900,7.527540771484375,-7.175609422492981,4.6409620575532315,-4.810663375176489
1773522548967579100,7.5375791015625,-7.17355833518207,4.643546228827536,-4.811229192365706
1773522548977617200,7.5476171875,-7.175436404013634,4.641974741727114,-4.80994470551312
1773522548987655200,7.5576552734375,-7.176309679716825,4.635081182821095,-4.81528694332391
1773522548997693200,7.567693115234375,-7.175194411951303,4.623206328371167,-4.828346331383288
1773522549007731000,7.57773095703125,-7.17391313996911,4.606487248760462,-4.846197337633371
1773522549017769200,7.587769287109375,-7.174746083661914,4.5881201096817845,-4.86236082918793
1773522549027807000,7.597806884765625,-7.17130266520977,4.570692297279835,-4.8838081063643095
1773522549037845200,7.60784521484375,-7.166337151756882,4.55030797315985,-4.9100604457348584
1773522549047883000,7.617883056640625,-7.164634439492225,4.524403132052719,-4.936412446087599
1773522549057921300,7.62792138671875,-7.164476034060121,4.496284122027457,-4.9622670183122155
1773522549067959000,7.637958984375,-7.1646098895728585,4.46934759978503,-4.986349320167303
1773522549077997000,7.6479970703125,-7.166372223070264,4.444176333649456,-5.006275086864829
1773522549088035000,7.65803515625,-7.169703413319588,4.4184667228534815,-5.024229845750331
1773522549098073000,7.668072998046875,-7.175760813662409,4.394206434082984,-5.0368438281297685
1773522549108111000,7.678111083984375,-7.180736848509311,4.369554223385453,-5.051178642952442
1773522549118149000,7.688149169921875,-7.1851043960690495,4.342278093925118,-5.068460617142915
1773522549128187100,7.698187255859375,-7.191297990012169,4.3101434185177085,-5.087070040544867
1773522549138225200,7.70822509765625,-7.194734394201636,4.2786961408525706,-5.108712548032402
1773522549148263000,7.718262939453125,-7.199577158057689,4.249385875216126,-5.126324192568659
1773522549158301200,7.72830126953125,-7.207455344086885,4.227674686406552,-5.133199923557043
1773522549168339000,7.7383388671875,-7.210360417878627,4.218619273291528,-5.136569107729196
1773522549178377200,7.748377197265625,-7.213275428542494,4.216534575971961,-5.134187181028723
1773522549188415000,7.7584150390625,-7.2250523755759,4.217565088063478,-5.116751477581262
1773522549198453200,7.768453369140625,-7.233971010568737,4.22187009178102,-5.100574834284186
1773522549208491000,7.778490966796875,-7.240980012547969,4.225537966638803,-5.087575067457556
1773522549218529000,7.788529052734375,-7.242708443775773,4.2309000781938435,-5.080653743761777
1773522549228567000,7.798567138671875,-7.2391434447705745,4.237792468056083,-5.079990895938873
1773522549238605000,7.80860498046875,-7.235808747389912,4.2449212970227,-5.078789703455567
1773522549248643000,7.81864306640625,-7.227557636395097,4.2583354898691175,-5.079308174371719
1773522549258681000,7.82868115234375,-7.21319067286849,4.2826527695238585,-5.0792871315836905
1773522549268720000,7.83872021484375,-7.193741291511058,4.322166741527616,-5.073395735457539
1773522549278758100,7.848758056640625,-7.178609773352742,4.366832397206127,-5.056552152684331
1773522549288796200,7.858796142578125,-7.15207364860475,4.415416979894042,-5.051962486806511
1773522549298834200,7.868834228515625,-7.120329433819651,4.4613595236405725,-5.0564381709158415
1773522549308872000,7.878871826171875,-7.087163077276944,4.502746303778887,-5.066338218161463
1773522549318910200,7.88891015625,-7.043038104346394,4.543423474343121,-5.091493702206015
1773522549328948000,7.898947998046875,-6.995919210296869,4.581362452115118,-5.122364056766033
1773522549338986200,7.908986328125,-6.9404042438238855,4.622176108540594,-5.161071096301079
1773522549349024000,7.91902392578125,-6.8815721156269305,4.671554471954703,-5.195280239894986
1773522549359062300,7.929062255859375,-6.821298556450009,4.732660974824428,-5.21940579636991
1773522549369100000,7.93910009765625,-6.756520671591162,4.805074469128251,-5.237468691805005
1773522549379138000,7.949137939453125,-6.687909492179751,4.884398765733838,-5.252133176973461
1773522549389176000,7.959176025390625,-6.619946547544002,4.966705877542496,-5.261038952484727
1773522549399214000,7.969214111328125,-6.553326834210753,5.0511342192888256,-5.264061515176296
1773522549409252000,7.979252197265625,-6.485877684316039,5.136608855217695,-5.2648862755626435
1773522549419290000,7.9892900390625,-6.416549881067872,5.222604300150275,-5.265232897043228
1773522549429328000,7.999327880859375,-6.344411696574092,5.3094344423413276,-5.26580806658268
1773522549439366100,8.0093662109375,-6.269886909204721,5.395950696277618,-5.267125578922033
1773522549449404000,8.01940380859375,-6.191593124690652,5.481930943641066,-5.270957119908928
1773522549459442200,8.029442138671875,-6.1109524847894905,5.565556736832857,-5.27742602366209
1773522549469480000,8.03947998046875,-6.03045855988264,5.646922768399119,-5.28358103916049
1773522549479518200,8.049518310546874,-5.946714693269133,5.731121393042803,-5.287836943039298
1773522549489556000,8.059555908203125,-5.858985556411743,5.821489061710238,-5.287053683707118
1773522549499594000,8.069593994140625,-5.770389573591947,5.917653433957696,-5.277723545303941
1773522549509632000,8.079632080078126,-5.683119286417961,6.01719984985888,-5.259833083826303
1773522549519670000,8.089669921875,-5.597164758017659,6.118349024781584,-5.23525803001821
1773522549529708000,8.0997080078125,-5.511419488453865,6.219867033016682,-5.206524687486887
1773522549539746000,8.10974609375,-5.425580110865831,6.318854061469436,-5.177407898595929
1773522549549784000,8.1197841796875,-5.3405824447989465,6.413088342437148,-5.1498412617564195
1773522549559822000,8.129822021484374,-5.255712204504013,6.5026096234083175,-5.124834830793738
1773522549569860000,8.139860107421875,-5.167748674368858,6.589516922488809,-5.103237331491709
1773522549579898000,8.149898193359375,-5.075199570009112,6.676937431788444,-5.082443549787998
1773522549589936000,8.15993603515625,-4.977096923175454,6.766776108145714,-5.060596459639072
1773522549599974100,8.16997412109375,-4.87145160587728,6.859567789089679,-5.0384191146224735
1773522549610012200,8.18001220703125,-4.757055411368608,6.954329308801889,-5.01777847765386
1773522549620050200,8.19005029296875,-4.634535823898017,7.054611053240299,-4.992387431287765
1773522549630089000,8.2000888671875,-4.50929616381377,7.175403086265921,-4.934594583010673
1773522549640127200,8.210127197265624,-4.384923057430982,7.324393039771914,-4.8266032871082425
1773522549650165000,8.2201650390625,-4.270971976341307,7.5007181594491,-4.654935053326189
1773522549660200000,8.230199951171874,-4.205892185926437,7.723308771216869,-4.3395118440821765
1773522549670238000,8.240238037109375,-4.225434214003384,8.094438085591793,-3.5771713812902566
1773522549680276000,8.25027587890625,-4.162815553005039,8.437664663040637,-2.7653517250582573
1773522549690314000,8.26031396484375,-3.997306134113669,8.694627500009537,-2.1436872686743733
1773522549700352000,8.27035205078125,-3.787071730571985,8.88304053236544,-1.7088174496643245
1773522549710389800,8.2803896484375,-3.59071446121335,9.012425037169455,-1.4329532206095754
1773522549720428000,8.290427978515625,-3.4498777112856507,9.08933116671741,-1.285606796526909
1773522549730465800,8.3004658203125,-3.3766406256392596,9.122755297413468,-1.2425931458391248
1773522549740504000,8.310504150390624,-3.3530855625286695,9.12524769875109,-1.28726873838976
1773522549750541800,8.320541748046875,-3.3477836567282675,9.112786276584863,-1.3855905809320508
1773522549760580000,8.330580078125,-3.3328730878442525,9.10007351000607,-1.5003367579221725
1773522549770617900,8.340617919921876,-3.2929315380781885,9.096430769589542,-1.6068427837029098
1773522549780655900,8.35065576171875,-3.2287738309442995,9.10387757846415,-1.6925708098709582
1773522549790694000,8.36069384765625,-3.1452889075279233,9.12055048084557,-1.7587230518229304
1773522549800732000,8.37073193359375,-3.0444445607706903,9.143226423034072,-1.8174547883853316
1773522549810770000,8.38077001953125,-2.929687423995137,9.168311764451861,-1.8786565683230756
1773522549820808000,8.390807861328126,-2.8077055966630575,9.192263133403658,-1.9466607217520475
1773522549830846000,8.400845947265625,-2.6886782352223992,9.211366477802395,-2.022898596649617
1773522549840884000,8.410884033203125,-2.5811034111663695,9.224279150867462,-2.10260765478909
1773522549850922000,8.420921875,-2.4910040380463,9.232093624010682,-2.175717168533057
1773522549860960000,8.4309599609375,-2.4188088626682758,9.237143308615684,-2.234932743089646
1773522549870998000,8.440998046875,-2.3568865133710206,9.243344501343369,-2.2750905659548937
1773522549881036000,8.4510361328125,-2.2934875156499444,9.255099821066857,-2.2920323484055696
1773522549891074000,8.461073974609375,-2.222938646174222,9.273476604756713,-2.2872620652638376
1773522549901111800,8.47111181640625,-2.150717313441634,9.294395474144816,-2.271350064252317
1773522549911150000,8.481150146484374,-2.082591433329135,9.31257176682651,-2.2603502390712498
1773522549921187800,8.491187744140625,-2.018720141921192,9.325734030738472,-2.264025420452654
1773522549931226000,8.50122607421875,-1.9519391005463897,9.33573695383668,-2.2813012571632862
1773522549941264000,8.511263916015626,-1.873007894911617,9.346471113818883,-2.303411820553988
1773522549951302100,8.52130224609375,-1.778522854053229,9.360674995738268,-2.3205634463630616
1773522549961340000,8.53133984375,-1.676179939301312,9.377875721386074,-2.327284279050678
1773522549971378000,8.5413779296875,-1.5798365572251378,9.396007005882263,-2.3215362369179724
1773522549981416000,8.551416015625,-1.4972297318175434,9.414487249946594,-2.301327269364893
1773522549991454000,8.561453857421874,-1.429184077334404,9.433844861367344,-2.2650370817132295
1773522550001492000,8.571491943359375,-1.3732279429651797,9.454693588128686,-2.2121032177746294
1773522550011530000,8.581530029296875,-1.325275082309544,9.476945751947165,-2.1451216853916644
1773522550021568000,8.591568115234375,-1.281743983618915,9.499525832545757,-2.070392753752321
1773522550031606000,8.60160595703125,-1.2390911290675402,9.521775658276676,-1.9926897747382522
1773522550041643800,8.611643798828124,-1.1962196633294224,9.543609304422139,-1.9128357551701365
1773522550051682000,8.62168212890625,-1.155624910351634,9.564519990503788,-1.8316316361673175
1773522550061720800,8.631720947265626,-1.109020760891214,9.585777882587909,-1.747383765554428
1773522550071759000,8.641759033203124,-1.039537694016099,9.609880058187246,-1.6552799207441509
1773522550081796900,8.651796875,-0.9370092666294425,9.637598670718074,-1.5521210134342311
1773522550091835100,8.661835205078125,-0.8111033977214247,9.666318569245934,-1.440416103836149
1773522550101873000,8.671872802734375,-0.6909367300525308,9.691171855473518,-1.331976771905273
1773522550111911200,8.6819111328125,-0.6039741205882281,9.70895827205479,-1.2416725238628685
1773522550121949000,8.691948974609375,-0.5660901974717155,9.719183313471078,-1.1778865726508199
1773522550131987000,8.701987060546875,-0.5744613546496257,9.722541391727328,-1.145672767592594
1773522550142025000,8.71202490234375,-0.5971059518517926,9.721249013829231,-1.145065230153501
1773522550152063000,8.72206298828125,-0.6029717751452699,9.718075059968232,-1.1686916049346328
1773522550162101000,8.73210107421875,-0.5936023276450112,9.71475965180993,-1.2006196518540382
1773522550172139000,8.742138916015625,-0.5884252172680572,9.712362527540325,-1.2223602128885687
1773522550182177000,8.752177001953125,-0.6031152387365698,9.711171856451035,-1.2246460588034243
1773522550192215000,8.762215087890626,-0.635961934870854,9.709857851243019,-1.2184409936182201
1773522550202252800,8.772252685546874,-0.6769719175860285,9.70729881440997,-1.2167309017647057
1773522550212291000,8.782291015625,-0.7165817511796951,9.703784668809176,-1.222065759986639
1773522550222328800,8.792328857421875,-0.7499770941726863,9.700203887712956,-1.2304318756632506
1773522550232367000,8.8023671875,-0.7788570786330848,9.697025842198729,-1.2375230029679833
1773522550242404900,8.81240478515625,-0.8067323430303484,9.693899234610795,-1.2441450514562427
1773522550252443000,8.82244287109375,-0.8394039748586714,9.689977677252887,-1.25305097309798
1773522550262481000,8.83248095703125,-0.8852387473817914,9.68510393373668,-1.2591658027164638
1773522550272519000,8.842518798828126,-0.952118572955951,9.6794352404505,-1.2539525981128214
1773522550282557000,8.852556884765624,-1.0450316152572632,9.672451957434415,-1.233678017977625
1773522550292595000,8.862594970703125,-1.1655118789199739,9.662840079480409,-1.2006218438111245
1773522550302633000,8.872633056640625,-1.3119944527149199,9.649228318235277,-1.1582062320817261
1773522550312671000,8.8826708984375,-1.4739520243436097,9.631379942333698,-1.1110349502578376
1773522550322708700,8.892708740234376,-1.630873063109815,9.611225627577305,-1.065365305168554
1773522550332747000,8.9027470703125,-1.746392270299047,9.594138299176096,-1.0358663850922136
1773522550342784800,8.91278466796875,-1.7918262800015508,9.5857387196213,-1.0360299050908535
1773522550352823000,8.922822998046875,-1.7794952062167226,9.585934534454346,-1.0552825948324054
1773522550362860800,8.93286083984375,-1.7580623959571122,9.589491934674978,-1.0588969859372823
1773522550372899000,8.942899169921875,-1.7811909042187033,9.589307225757837,-1.021247054239735
1773522550382936800,8.952936767578125,-1.8712880853816867,9.579735679814219,-0.9472615613788365
1773522550392974800,8.962974853515625,-2.0044348653286694,9.561276478537916,-0.8571003750689328
1773522550403012900,8.973012939453126,-2.1349124260663985,9.540266423735021,-0.7719114242136478
1773522550413051000,8.98305078125,-2.2398162773475048,9.521175938817859,-0.7076913193680345
1773522550423089200,8.993089111328125,-2.3262818240098655,9.503061020934581,-0.6713026397779583
1773522550433127000,9.003126953125,-2.40728954365775,9.483732051086426,-0.6589187398273497
1773522550443165200,9.013165283203126,-2.4914947441726922,9.46206908533275,-0.6573418458994478
1773522550453203000,9.023202880859374,-2.5781942457213995,9.439155242735147,-0.6524295239385217
1773522550463241000,9.033240966796875,-2.6589713714838026,9.417879814994334,-0.6354637030251323
1773522550473279000,9.043279052734375,-2.7228271730616687,9.401510279473662,-0.6067842826381326
1773522550483317000,9.05331689453125,-2.7655285429298875,9.391158396807313,-0.5730384822396561
1773522550493355000,9.06335498046875,-2.795403748972714,9.38390857180953,-0.5462277418013661
1773522550503393000,9.07339306640625,-2.8296736828431484,9.374102048066257,-0.5381046045677736
1773522550513430800,9.0834306640625,-2.882326830144226,9.357172540575265,-0.5530749408150092
1773522550523469000,9.093468994140625,-2.956625699803233,9.331600292423367,-0.5915791877869516
1773522550533506800,9.1035068359375,-3.047995823511481,9.297865780603885,-0.6555812659677117
1773522550543545000,9.113545166015625,-3.150567724713683,9.256550604397058,-0.7487321356128901
1773522550553582800,9.123582763671875,-3.262640152449906,9.206543587690591,-0.8747167688455432
1773522550563621000,9.13362109375,-3.384734207984805,9.145779614648223,-1.0337688282910733
1773522550573659000,9.143658935546876,-3.5158164566174146,9.07260331927836,-1.223640973414108
1773522550583697000,9.15369677734375,-3.6489468699514864,8.987897914156317,-1.4398827276118098
1773522550593735000,9.16373486328125,-3.7733462798193096,8.894141187572478,-1.681221586730331
1773522550603773000,9.17377294921875,-3.8788720623910424,8.793259139153362,-1.950209500274807
1773522550613811000,9.18381103515625,-3.953518138052523,8.685654504480958,-2.258202997909486
1773522550623849000,9.193848876953124,-3.981897552579641,8.573531515601276,-2.6094904244780537
1773522550633887000,9.203886962890625,-3.9577281569629905,8.464887016487122,-2.975311403311789
1773522550643925000,9.213925048828125,-3.890014218652248,8.377470014318824,-3.2948718584910033
1773522550653965800,9.2239658203125,-3.788664552721381,8.337830662369727,-3.5067043448790907
1773522550664003600,9.234003662109375,-3.6641628515228626,8.362804944628477,-3.578796936665475
1773522550674041900,9.244041748046875,-3.5172140484556556,8.440320145985483,-3.54408948816061
1773522550684079600,9.25407958984375,-3.3283374902412293,8.541946290770172,-3.4824840958580374
1773522550694118000,9.264117919921874,-3.0983193588212132,8.642070214298368,-3.4475258874624966
1773522550704156700,9.27415673828125,-2.84547652439177,8.723164443185924,-3.461221527598798
1773522550714194700,9.284194580078125,-2.6066645534023642,8.781725937747956,-3.500995027321577
1773522550724232700,9.294232666015626,-2.416258593663573,8.820982427859306,-3.5386908439874647
1773522550734270700,9.304270751953124,-2.292819553260505,8.845335947871208,-3.559968025293946
1773522550744308700,9.314308837890625,-2.2393176801756023,8.860651590424775,-3.5559354087769983
1773522550754346500,9.324346435546875,-2.2445903598815202,8.873824960252643,-3.519575516889989
1773522550764384800,9.334384765625,-2.2848721013873816,8.88934752355516,-3.4538723338797688
1773522550774422500,9.344422607421874,-2.3073601197883487,8.911248389717937,-3.381735026168823
1773522550784460800,9.354460693359375,-2.2317007754310962,8.944590102827549,-3.344276817651093
1773522550794498600,9.36449853515625,-2.012194831805676,8.990276918247341,-3.3610108025699854
1773522550804536800,9.374536865234376,-1.6800427522093058,9.041969696083664,-3.4045004002064463
1773522550814574600,9.38457470703125,-1.3217884092375636,9.091765115866064,-3.4297307030528783
1773522550824612600,9.394612548828125,-1.0641804062329232,9.136178258088231,-3.4011958057031033
1773522550834651000,9.40465087890625,-0.9922084451515227,9.175652190342545,-3.3156162480950355
1773522550844688600,9.414688720703126,-1.076468663789332,9.208944803613424,-3.1948303525492547
1773522550854727000,9.424726806640624,-1.191934168029949,9.23659385803938,-3.0716482095167037
1773522550864764700,9.4347646484375,-1.2272555837146937,9.268540901920199,-2.959457123836875
1773522550874802700,9.444802734375,-1.1623656898487358,9.309949017107487,-2.8537893024459478
1773522550884840700,9.4548408203125,-1.0502775530867279,9.354652082186936,-2.7491449788838622
1773522550894878700,9.464878662109374,-0.9524670210674404,9.394472635921835,-2.647087456944585
1773522550904916700,9.474916748046875,-0.9093049018196762,9.425874905401468,-2.548805946412682
1773522550914954800,9.484954833984375,-0.926790070432052,9.449466793391109,-2.4533693039178845
1773522550924992800,9.49499267578125,-0.9803809369746596,9.466538924223183,-2.365136893713474
1773522550935030800,9.50503076171875,-1.0430663795989006,9.475879584020376,-2.3000239316813644
1773522550945068500,9.515068603515624,-1.0991246591683477,9.474113158869743,-2.281114794680476
1773522550955106800,9.52510693359375,-1.1383824644539504,9.462534949278831,-2.3097389777489004
1773522550965144600,9.53514453125,-1.1554726423993706,9.446371165463328,-2.366714518293738
1773522550975182800,9.545182861328126,-1.151779706165567,9.42874256979227,-2.4377492715902624
1773522550985220600,9.555220703125,-1.132178714442998,9.41158451424241,-2.5120915419995784
1773522550995259000,9.5652587890625,-1.1011701204560695,9.398533309489489,-2.5739813042014834
1773522551005296600,9.575296630859375,-1.0642217611566185,9.392493444803357,-2.6113021500751374
1773522551015334700,9.585334716796876,-1.027163073350489,9.394058794423938,-2.62049200322479
1773522551025372700,9.59537255859375,-0.9934967313963919,9.402578785488009,-2.6028613617271184
1773522551035410700,9.60541064453125,-0.9628115241449325,9.41856136751771,-2.5561872888356447
1773522551045448700,9.61544873046875,-0.9344435808598994,9.442317506158352,-2.477873338316381
1773522551055486700,9.62548681640625,-0.9133349610533564,9.470640514323115,-2.375539483653754
1773522551065524700,9.635524658203124,-0.9110642396423965,9.497546641427277,-2.2664824582159517
1773522551075562800,9.645562744140625,-0.9372573961716145,9.51863794477284,-2.1650544663518665
1773522551085600500,9.6556005859375,-0.9914906522709875,9.532351997348666,-2.0788485935389995
1773522551095638800,9.665638671875,-1.064990626637265,9.539818095445632,-2.0070053003385664
1773522551105676500,9.675676513671876,-1.1466904202025383,9.543102523943782,-1.9454294263914227
1773522551115714800,9.68571484375,-1.227078911973536,9.544666119998693,-1.8878597193457185
1773522551125752600,9.695752685546875,-1.3018788630224765,9.546243744578957,-1.8288665553681551
1773522551135790600,9.70579052734375,-1.3717306901447475,9.548300092586874,-1.7659851517803966
1773522551145828600,9.71582861328125,-1.4369316227212547,9.550482112801074,-1.70115115282014
1773522551155866600,9.72586669921875,-1.4941840805113316,9.552627308136223,-1.6386325911954045
1773522551165904600,9.735904541015625,-1.5397548683360218,9.554813420003653,-1.5827468917138874
1773522551175942700,9.745942626953125,-1.5747813196621834,9.556313887694477,-1.53861125125885
1773522551185980700,9.755980712890626,-1.6074790357798336,9.555194528275727,-1.5115058021903036
1773522551196018700,9.766018798828124,-1.647415617109835,9.549462122103572,-1.5047260789223014
1773522551206056700,9.776056640625,-1.6978433434464038,9.538470772489905,-1.518314313161373
1773522551216094700,9.7860947265625,-1.757013617556542,9.522849424988031,-1.5487433536946773
1773522551226132700,9.7961328125,-1.8172697872072456,9.50492739932835,-1.5887927477493882
1773522551236170800,9.806170654296874,-1.866688482631743,9.488373154890537,-1.629919707907736
1773522551246208800,9.816208740234375,-1.8977574285037815,9.475957909953594,-1.6658697038196026
1773522551256246800,9.826246826171875,-1.9106886601388453,9.469224802306293,-1.689209662874788
1773522551266284800,9.836284912109376,-1.907480365616828,9.46880102393627,-1.6951999893307685
1773522551276322600,9.846322509765624,-1.8897418798305092,9.473078555124998,-1.6911679573357103
1773522551286360800,9.85636083984375,-1.8594548781163989,9.47904477005303,-1.6913165720261631
1773522551296398600,9.866398681640625,-1.8203442262165248,9.484717554992438,-1.7020228210881352
1773522551306436900,9.876436767578125,-1.778613601076603,9.489197330754994,-1.7210576302953065
1773522551316474600,9.886474609375,-1.7426983842171728,9.492070255842805,-1.7418308076024054
1773522551326513000,9.896512939453125,-1.722075721296668,9.492548979270458,-1.759650688061863
1773522551336550700,9.906550537109375,-1.7281782759554682,9.489142970219254,-1.7719969594158231
1773522551346588700,9.916588623046875,-1.7654814400419592,9.480725270485877,-1.7802600531093775
1773522551356626700,9.926626708984376,-1.8280891412548719,9.467439087933302,-1.7877580076493322
1773522551366664700,9.936664794921874,-1.9048744209021329,9.450166466093062,-1.798944587574154
1773522551376702700,9.94670263671875,-1.9865330056741832,9.43006651187241,-1.81601248062253
1773522551386740700,9.95674072265625,-2.0675752121135593,9.408528049281239,-1.8371461618050933
1773522551396778500,9.966778564453126,-2.143351606979221,9.387509811171888,-1.8577118338413536
1773522551406816800,9.976816650390624,-2.209321039710194,9.369490170356631,-1.8713460991792379
1773522551416854500,9.9868544921875,-2.2666975622713563,9.356209833022952,-1.8691765000551939
1773522551426892800,9.996892822265625,-2.3223615818262098,9.347155588951706,-1.8459936312578618
1773522551436930600,10.0069306640625,-2.385606411898881,9.339714040774107,-1.8024999419681726
1773522551446968800,10.01696875,-2.461371700848639,9.33096316356361,-1.7450418786033988
1773522551457006600,10.027006591796875,-2.5477245809167623,9.318896878194808,-1.6845339261487124
1773522551467044600,10.037044677734375,-2.6405601010024546,9.302718481332063,-1.630114061436057
1773522551477082600,10.04708251953125,-2.7380215273231268,9.282252031886577,-1.5853784092612564
1773522551487120600,10.05712060546875,-2.8424560075268146,9.256800779765843,-1.5499914540596305
1773522551497158000,10.067157958984374,-2.9581092163592575,9.225822288656234,-1.5179510328069328
1773522551507195600,10.077195556640625,-3.0888334453344344,9.18894012646079,-1.4808357925079763
1773522551517233700,10.087233642578125,-3.234849351465702,9.14647285760939,-1.4311474863618612
1773522551527271700,10.097271728515626,-3.3912624407097693,9.099749100357293,-1.3653829285532235
1773522551537309700,10.107309814453124,-3.5490406808272,9.051261840564012,-1.2842667800948022
1773522551547347700,10.11734765625,-3.697466278448701,9.004590105760096,-1.1901648202698678
1773522551557385700,10.1273857421875,-3.827534381602704,8.963412876719236,-1.085177017032355
1773522551567423500,10.137423583984376,-3.9345498182103036,8.930030831599234,-0.9717322049643844
1773522551577461800,10.147461669921874,-4.0148993662104004,8.906155450493097,-0.8552036015368998
1773522551587499500,10.15749951171875,-4.066688005636633,8.892548365423083,-0.7449944103892893
1773522551597537800,10.167537841796875,-4.089443150541186,8.889414159050583,-0.6520399400990456
1773522551607575600,10.177575439453125,-4.08334629497081,8.896781472948193,-0.5864719277758151
1773522551617613800,10.18761376953125,-4.052017675249278,8.913075020623207,-0.5555453495165333
1773522551627651600,10.197651611328125,-4.0048564033627505,8.934151126399636,-0.5589747394433244
1773522551637689600,10.207689697265625,-3.9526372635647653,8.955649841502309,-0.5859902452060952
1773522551647727600,10.2177275390625,-3.9038115655973553,8.974438713124394,-0.6245772750906646
1773522551657762000,10.227761962890625,-3.8628827583596106,8.989006752181053,-0.6680362583931535
1773522551667800000,10.237800048828126,-3.8288486790716645,8.999952509087324,-0.7149607258491217
1773522551677838000,10.247838134765624,-3.796486624649167,9.009311289063096,-0.767721425177902
1773522551687876000,10.2578759765625,-3.7568411352202293,9.020303807720541,-0.8310468462061137
1773522551697914000,10.2679140625,-3.700104810258746,9.036640610015391,-0.9048400313653051
1773522551707952000,10.2779521484375,-3.620099837912619,9.061006989508867,-0.9815425280999391
1773522551717990100,10.287990234375,-3.5157571276456117,9.09403189175427,-1.0528170815017073
1773522551728028200,10.298028076171875,-3.3885002825200554,9.134740334239602,-1.1157865286991
1773522551738066000,10.30806591796875,-3.240794231344759,9.181176506721973,-1.172011835398525
1773522551748104200,10.318104248046875,-3.075147157548368,9.23131211824417,-1.2234124984204768
1773522551758142000,10.328141845703126,-2.894257798695564,9.282988529467582,-1.2727141433365643
1773522551768180200,10.33818017578125,-2.7019103495001793,9.334133610293268,-1.3206183425448834
1773522551778218000,10.348218017578125,-2.5044296290695667,9.382802071872353,-1.3642830044873058
1773522551788256300,10.35825634765625,-2.3097324018776417,9.427804412159324,-1.397143656081706
1773522551798294000,10.3682939453125,-2.128098654398322,9.468166817685962,-1.412581609840691
1773522551808332000,10.37833203125,-1.9751321984767913,9.502088961032033,-1.406962600915134
1773522551818370000,10.3883701171875,-1.8688411306209862,9.527007713711262,-1.3834542995557189
1773522551828408000,10.398407958984375,-1.8088937346585094,9.543228780671953,-1.3509519598796962
1773522551838446000,10.408446044921876,-1.773581452128291,9.554227729070186,-1.3196778468243777
1773522551848484000,10.418484130859374,-1.744613277927786,9.562377133256197,-1.2990981462627649
1773522551858522000,10.428522216796875,-1.7245988100335001,9.566462356743216,-1.2957349534399807
1773522551868560100,10.43856005859375,-1.7254726702585816,9.56427507583201,-1.3106342702776193
1773522551878598000,10.448597900390626,-1.7450845487013458,9.556149637043475,-1.3435295547939836
1773522551888636200,10.45863623046875,-1.7553259567305444,9.545762098541855,-1.402724817214906
1773522551898674000,10.468673828125,-1.7203389606319366,9.537824291279911,-1.4969048837773502
1773522551908712200,10.478712158203125,-1.6370258866511285,9.532370117527245,-1.6200219987496733
1773522551918750000,10.48875,-1.5394089775077997,9.525583818387984,-1.7503959529824553
1773522551928788200,10.498788330078124,-1.4699053793013095,9.514814002570509,-1.8649607820563017
1773522551938826000,10.508825927734375,-1.455831261241436,9.499700604590773,-1.9510580799281596
1773522551948864000,10.518864013671875,-1.4930261426478624,9.481912434443831,-2.0086321708880366
1773522551958902000,10.528902099609375,-1.5565075579553842,9.463464339083433,-2.047074714267999
1773522551968940000,10.53893994140625,-1.6231290248543022,9.446046755814551,-2.075580970045179
1773522551978978000,10.54897802734375,-1.677295645458251,9.431528401118516,-2.098416486709565
1773522551989016000,10.55901611328125,-1.7121067004680632,9.421310958486794,-2.1161302764460443
1773522551999054000,10.56905419921875,-1.7275316486150025,9.4153143484205,-2.130226314076781
1773522552009092000,10.579092041015626,-1.7265708407588303,9.412670555913447,-2.1426580717571078
1773522552019130000,10.589130126953124,-1.7106790057525039,9.41315161742866,-2.1532655366197226
1773522552029168000,10.599168212890625,-1.6769456629768014,9.4169919262439,-2.162986281775683
1773522552039206100,10.6092060546875,-1.619942211511731,9.424469130256771,-2.1738369077444077
1773522552049244200,10.619244140625,-1.5380496718533336,9.435375724196433,-2.1859701208695768
1773522552059282200,10.6292822265625,-1.4360821662850678,9.448971703350544,-2.1965851845167577
1773522552069320000,10.63931982421875,-1.322142775633186,9.464194406923651,-2.202577556799352
1773522552079358200,10.649358154296875,-1.2031357993934302,9.480054239356518,-2.202590270150453
1773522552089396000,10.65939599609375,-1.0850212419487535,9.495580309790371,-2.1970621543787416
1773522552099434200,10.669434326171874,-0.9778056065939367,9.50990986391604,-2.1853895445026454
1773522552109472000,10.679471923828125,-0.8950799771122634,9.521966212412714,-2.1682643683090803
1773522552119510300,10.68951025390625,-0.8460480159830301,9.530879002186655,-2.148707873315364
1773522552129548000,10.699548095703125,-0.8262824813485146,9.536340774723888,-2.1321023370817302
1773522552139586000,10.7095859375,-0.8259552952207625,9.538911501994729,-2.1206978766225277
1773522552149624000,10.7196240234375,-0.835898304825276,9.53939607064128,-2.1146137344032523
1773522552159661000,10.7296611328125,-0.8496725631557405,9.538745497778057,-2.112057912440598
1773522552169699000,10.739698974609375,-0.8628613497484475,9.537952886095642,-2.110293533116579
1773522552179737000,10.749737060546876,-0.8732918506089598,9.53788215894699,-2.106314108091593
1773522552189775000,10.759775146484374,-0.8800693088546395,9.539167522582412,-2.0976491555988788
1773522552199813000,10.769813232421875,-0.8825545497991144,9.54219125431776,-2.082806245123595
1773522552209851100,10.77985107421875,-0.8806164213433861,9.546986087378858,-2.0615419232986865
1773522552219889200,10.78988916015625,-0.8739547714971005,9.55306628407538,-2.036053554037958
1773522552229927200,10.79992724609375,-0.8616660755492747,9.559624035155773,-2.0103449661552903
1773522552239965000,10.80996484375,-0.8442396513868122,9.56567091410458,-1.9888637867093084
1773522552250003200,10.820003173828125,-0.8216970532543957,9.570383329579233,-1.9755928017258644
1773522552260041000,10.830041015625,-0.7918282038871198,9.574422375836967,-1.9682126283466814
1773522552270079200,10.840079345703124,-0.7531833428680896,9.579241174295545,-1.959905549380928
1773522552280117000,10.850116943359374,-0.7071491022501141,9.585262334281206,-1.947577252075076
1773522552290155300,10.8601552734375,-0.6584018763463944,9.590990064278245,-1.9364321732044218
1773522552300193000,10.870193115234375,-0.6105931734018027,9.595656887045502,-1.9289698744997381
1773522552310231000,10.88023095703125,-0.5629874456834048,9.599550387352705,-1.924078303065896
1773522552320269000,10.89026904296875,-0.5104183964692056,9.603110710182785,-1.9209702540479598
1773522552330307000,10.90030712890625,-0.44821620731726286,9.606397476768493,-1.9200518240287898
1773522552340345000,10.910344970703125,-0.3751880151811987,9.60905120614767,-1.9224372578606008
1773522552350383000,10.920383056640626,-0.2962286246315576,9.610536476269363,-1.9287924721062182
1773522552360421000,10.930421142578124,-0.21832562953336163,9.610366964921354,-1.939992203773558
1773522552370459100,10.940459228515625,-0.14738074647737667,9.608051089194417,-1.958068689342588
1773522552380497000,10.950496826171875,-0.08344936804580502,9.603490064889192,-1.9840461572945116
1773522552390535200,10.96053515625,-0.02242313418792328,9.597214053359627,-2.015780289077014
1773522552400573000,10.970572998046874,0.03840728027033619,9.59000982106924,-2.049540958251059
1773522552410611200,10.980611083984375,0.09389819001429714,9.583119477033614,-2.079760886078328
1773522552420649000,10.99064892578125,0.13424905123361386,9.57740109938681,-2.103744695995003
1773522552430687200,11.000687255859376,0.15063439624477176,9.573470774200558,-2.120464652388543
1773522552440725000,11.01072509765625,0.14422964376900343,9.571293430161475,-2.1307165818117557
1773522552450763000,11.020762939453125,0.12409370491951703,9.570344751134515,-2.1362303767971693
1773522552460801000,11.030801025390625,0.10043390279281884,9.570897124320268,-2.1350022963069377
1773522552470839000,11.040839111328125,0.07767193542183376,9.573740238791704,-2.1231623670399187
1773522552480877000,11.050876953125,0.055274869540217327,9.57869055467546,-2.101433934834599
1773522552490915000,11.0609150390625,0.029008485661295706,9.58448784277737,-2.075359290118515
1773522552500952800,11.070952880859375,-0.0049954291005386035,9.590182839548588,-2.049087369264662
1773522552510991000,11.0809912109375,-0.04628916066053789,9.595110359078646,-2.025373170069605
1773522552521029000,11.091029052734376,-0.09079606841364875,9.598637364161014,-2.0070628757447
1773522552531067100,11.101067138671874,-0.13271741208638996,9.600023265561461,-1.998076874604076
1773522552541105200,11.111105224609375,-0.16860245300326496,9.59907517105639,-1.9999235253840684
1773522552551143200,11.12114306640625,-0.198770120920334,9.595784312817454,-2.0129082407720387
1773522552561180200,11.13118017578125,-0.2283509288601577,9.590201544249057,-2.036245423348248
1773522552571218000,11.141218017578124,-0.26203484300356356,9.58267991657257,-2.0673593774057926
1773522552581256200,11.151256103515625,-0.3000709244744852,9.57322527500689,-2.105645122788846
1773522552591294000,11.1612939453125,-0.33895945805627853,9.561696749776601,-2.1516217149354517
1773522552601332200,11.171332275390625,-0.37414274391196667,9.548560789349674,-2.2034923335567114
1773522552611370000,11.181369873046876,-0.40201574328690765,9.535031445690988,-2.2565295117393136
1773522552621408000,11.191407958984374,-0.4193500321865082,9.522549565258622,-2.3055596462376413
1773522552631446000,11.201446044921875,-0.423273854566738,9.512209957551956,-2.3471466251231727
1773522552641484000,11.211484130859375,-0.412334673531726,9.504356905964016,-2.3806693938881156
1773522552651522000,11.22152197265625,-0.3873692686991766,9.498655479452013,-2.4074641695722936
1773522552661560600,11.231560546875,-0.3507983278773725,9.49431540442109,-2.4300765450052917
1773522552671598300,11.241598388671875,-0.30568058104980733,9.490763264897465,-2.4499739623911676
1773522552681636400,11.25163623046875,-0.25484122343873605,9.488113042649626,-2.4660028677806256
1773522552691674400,11.26167431640625,-0.201339953142032,9.486219776248932,-2.478201255096495
1773522552701712400,11.27171240234375,-0.14813689860692247,9.484383792993425,-2.488964056651294
1773522552711750400,11.28175048828125,-0.10075656800908037,9.48195218193233,-2.500563309030235
1773522552721788400,11.291788330078125,-0.06606354988836682,9.478540912184119,-2.5146099545612928
1773522552731826400,11.301826416015626,-0.04770273551919963,9.473943062999844,-2.532289988158643
1773522552741864400,11.311864501953124,-0.04185604618445504,9.468599948406219,-2.552301679573953
1773522552751902500,11.32190234375,-0.03902548980049323,9.463701654970645,-2.570453714597225
1773522552761940500,11.3319404296875,-0.031864149087050465,9.459984680274129,-2.5841937783971427
1773522552771978500,11.341978515625,-0.01906517237939406,9.457529688337445,-2.593285139608383
1773522552782016500,11.3520166015625,-0.004101570691977394,9.456516711902617,-2.5970529677093026
1773522552792054500,11.362054443359375,0.009367905709610203,9.45679319075644,-2.5960315157070752
1773522552802092500,11.372092529296875,0.022670202000881545,9.457963403579592,-2.59167799667269
1773522552812130600,11.382130615234376,0.03983397490547504,9.459920382866263,-2.584323834517598
1773522552822168300,11.392168212890626,0.06029183918570634,9.462322183310985,-2.5751135231018063
1773522552832206600,11.40220654296875,0.07705616901051253,9.464656179216503,-2.5660756456434726
1773522552842244400,11.412244384765625,0.08021728165624663,9.46662017276585,-2.5587252828806637
1773522552852282600,11.42228271484375,0.058990684326109474,9.468193121170996,-2.553477153094113
1773522552862320400,11.4323203125,0.002517588294518646,9.469752041050791,-2.548370769865811
1773522552872357400,11.442357421875,-0.09544763881284743,9.471993097975849,-2.538237206125259
1773522552882395400,11.4523955078125,-0.23403038100237025,9.475130226957797,-2.5174483928576112
1773522552892433400,11.462433349609375,-0.4040952164420858,9.477989708042145,-2.4849197496965525
1773522552902471400,11.472471435546876,-0.5919874763268977,9.478294828468561,-2.445786447573453
1773522552912509400,11.482509521484374,-0.7851997987233101,9.47454745863378,-2.4055798171304166
1773522552922547500,11.49254736328125,-0.9725474668700247,9.465306752079725,-2.3732898050308227
1773522552932585500,11.50258544921875,-1.1524356127910316,9.450281032383442,-2.352543807991594
1773522552942623500,11.51262353515625,-1.329901134674996,9.430081709441541,-2.3399371321357787
1773522552952661500,11.52266162109375,-1.5107522073440254,9.404750868830083,-2.33209679389894
1773522552962699500,11.532699462890625,-1.699335773961246,9.373447968071698,-2.328328819667548
1773522552972737500,11.542737548828125,-1.8966482982181012,9.335468658289313,-2.3285446543753148
1773522552982775600,11.552775634765625,-2.107838395049423,9.288368468940257,-2.335299097071588
1773522552992813300,11.562813232421876,-2.344437220034003,9.227119342729448,-2.3525006995022295
1773522553002851600,11.5728515625,-2.6093273428708312,9.14858239710927,-2.3801782493703065
1773522553012889300,11.582889404296875,-2.8891730427771805,9.055402009108661,-2.4130403622694314
1773522553022927600,11.592927734375,-3.156967947144806,8.956680938115715,-2.4457706654824314
1773522553032965400,11.60296533203125,-3.3854151759862896,8.863881073865294,-2.4780980869829654
1773522553043003600,11.613003662109374,-3.5639977192014456,8.785344712767005,-2.5071935408249497
1773522553053041400,11.62304150390625,-3.7008629351496696,8.723317587921024,-2.525419517867267
1773522553063079400,11.633079345703125,-3.8097622858077287,8.67617648203969,-2.525876321724057
1773522553073117400,11.643117431640626,-3.9034953392550347,8.64027397853136,-2.5057465568870305
1773522553083155500,11.653155517578124,-3.9850244524285197,8.61231746559143,-2.4734499689161775
1773522553093193500,11.663193359375,-4.047885690011084,8.591722421330212,-2.4428083085454997
1773522553103231500,11.6732314453125,-4.084494880484044,8.578679399883747,-2.4276639309056103
1773522553113269500,11.68326953125,-4.090905916570127,8.572093007230759,-2.4401012415438887
1773522553123306500,11.693306396484376,-4.068388672074676,8.571019825041294,-2.4811773482978343
1773522553133344500,11.703344482421874,-4.02164153394699,8.575264038482308,-2.541974639087915
1773522553143382500,11.713382568359375,-3.9543262395650145,8.586177646684646,-2.6098376304805275
1773522553153420500,11.723420654296875,-3.866816006155312,8.605733411026,-2.675720261710882
1773522553163458300,11.733458251953126,-3.758619250808656,8.635235399842262,-2.734207521992922
1773522553173496600,11.74349658203125,-3.629846155901253,8.673886909797787,-2.7853730610847474
1773522553183534300,11.753534423828125,-3.4833792911320924,8.718816769370436,-2.83173207667768
1773522553193572600,11.763572509765625,-3.326012262164056,8.765811744779349,-2.8755095513448117
1773522553203610400,11.7736103515625,-3.1682471737891436,8.81057033943832,-2.91658039740175
1773522553213648600,11.783648681640624,-3.0208368906900285,8.849735644134878,-2.954169831083715
1773522553223686400,11.793686279296875,-2.8945345698103306,8.88052533467412,-2.9880288460657
1773522553233724400,11.803724365234375,-2.801873237247765,8.900883063048123,-3.0156518892675637
1773522553243762400,11.813762451171876,-2.752942617601156,8.910687833225726,-3.031724195407331
1773522553253800400,11.823800537109374,-2.747357218684256,8.910590802592038,-3.037070524871349
1773522553263838500,11.83383837890625,-2.7714915429875253,8.902816076937317,-3.0379426315307616
1773522553273876500,11.84387646484375,-2.805368385887146,8.891760429915784,-3.0392279951661823
1773522553283914500,11.85391455078125,-2.8370538562223313,8.881113948217035,-3.0409432746514677
1773522553293952500,11.863952392578126,-2.864361549864709,8.869864239928125,-3.0481685497298834
1773522553303990300,11.873990234375,-2.8888527247816325,8.854934966343642,-3.0683979755491015
1773522553314028500,11.884028564453125,-2.9168811339139937,8.833141067686677,-3.104485187974572
1773522553324066300,11.89406640625,-2.960055381990969,8.800620023310184,-3.155560418434441
1773522553334104600,11.9041044921875,-3.0331817007392643,8.7542639303267,-3.214509743270278
1773522553344142300,11.914142333984374,-3.141894881175458,8.692668767157196,-3.2766429588392376
1773522553354179300,11.924179443359375,-3.283449423983693,8.61580589222908,-3.3402468314826486
1773522553364217600,11.934217529296875,-3.4495687914669513,8.52885943018198,-3.3954993476271627
1773522553374255400,11.94425537109375,-3.6358521183177825,8.441430737575889,-3.4195325496435163
1773522553384293600,11.954293701171874,-3.8495284790068864,8.360553950831294,-3.384178035406768
1773522553394331400,11.964331298828125,-4.08704836435914,8.290962528210878,-3.2751138495758174
1773522553404369400,11.974369384765625,-4.322511901703477,8.235172836449742,-3.1093726677551863
1773522553414407400,11.984407470703125,-4.527930429396033,8.191654012718796,-2.926609623984992
1773522553424445400,11.994445556640626,-4.700403257559239,8.15673292146325,-2.746689402425289
1773522553434483500,12.0044833984375,-4.8512154580563305,8.127422071304917,-2.5653651592865585
1773522553444521500,12.014521484375,-4.981929750159383,8.099808672714232,-2.396633855739236
1773522553454559500,12.0245595703125,-5.109283041396737,8.056345963084697,-2.2717630289673805
1773522553464597500,12.034597412109376,-5.2767877257585525,7.969660197800398,-2.1932658308357
1773522553474635300,12.04463525390625,-5.5073412792295215,7.8333350800782435,-2.1162300835587082
1773522553484673500,12.054673583984375,-5.756815806269645,7.680354595631361,-2.0103768225982783
1773522553494711300,12.064711181640625,-5.978776887962222,7.541146031427383,-1.8856679083898662
1773522553504749600,12.07474951171875,-6.159725575786829,7.425528186169267,-1.7577525993555783
1773522553514787300,12.084787353515624,-6.305216581261158,7.332903093963861,-1.6257824619725345
1773522553524825300,12.094825439453125,-6.427193440157175,7.258040452942252,-1.4773025038152932
1773522553534863400,12.10486328125,-6.53761079416275,7.193437924650311,-1.2978766416437924
1773522553544901400,12.1149013671875,-6.637769204482436,7.135673717945814,-1.0920455876275896
1773522553554938600,12.124938720703126,-6.728197078904509,7.0790738788455725,-0.887957797082141
1773522553564976400,12.134976318359374,-6.816571527928113,7.012974974516034,-0.7231361412592232
1773522553575014400,12.145014404296875,-6.910239991706609,6.93135058427453,-0.612662307826057
1773522553585052400,12.155052490234375,-7.015288512155413,6.8300441729634995,-0.5537284728202968
1773522553595090400,12.16509033203125,-7.134440376758575,6.707413234072924,-0.5298623344665393
1773522553605128400,12.17512841796875,-7.258911390557885,6.573366582676768,-0.5190748733945191
1773522553615166500,12.18516650390625,-7.38583388916254,6.4296630451411,-0.5284736931197345
1773522553625204500,12.19520458984375,-7.515889425095915,6.274218216407299,-0.5621219148952513
1773522553635242500,12.205242431640626,-7.64387633806169,6.113984399831295,-0.6006074571667239
1773522553645280300,12.2152802734375,-7.767744709792733,5.9531929493725295,-0.6261172710742801
1773522553655318300,12.225318359375,-7.88796800301969,5.793013493332267,-0.6255757846087217
1773522553665356000,12.23535595703125,-7.997133895659446,5.645598826318979,-0.5860458113182335
1773522553675394000,12.24539404296875,-8.088067966037988,5.520755472075939,-0.5242085099559277
1773522553685432300,12.255432373046874,-8.1632988558501,5.414663580054045,-0.4608090373108163
1773522553695470000,12.265469970703125,-8.229522263342142,5.320008443325758,-0.37796080436278134
1773522553705508400,12.27550830078125,-8.287235616642237,5.2361833281695835,-0.27294487100932746
1773522553715546000,12.285546142578125,-8.335835689160227,5.162908833122253,-0.16911929821791127
1773522553725584400,12.29558447265625,-8.380189794671535,5.092710092258453,-0.08431308133620768
1773522553735622100,12.3056220703125,-8.425625850200653,5.017845113149285,-0.021201241409883366
1773522553745660200,12.31566015625,-8.476707218140364,4.93107634575665,0.017500271425029496
1773522553755697200,12.325697265625,-8.53710352691412,4.825658699734508,0.035621976383763826
1773522553765735200,12.335735107421876,-8.607704418838024,4.698592701005936,0.03216599299428053
1773522553775773000,12.34577294921875,-8.683949454128742,4.556247300080955,-0.0034416680259964777
1773522553785811200,12.355811279296875,-8.759230612823366,4.4093215856283905,-0.06440664039365947
1773522553795849000,12.365848876953125,-8.833966412594913,4.2557779143407934,-0.1406188328607008
1773522553805887200,12.37588720703125,-8.906729450988768,4.0979666487365956,-0.21730348341139033
1773522553815925200,12.38592529296875,-8.973884001851081,3.9444823064208028,-0.2843343348287977
1773522553825963300,12.39596337890625,-9.031135582858324,3.8073637002333998,-0.3360908438174054
1773522553836001300,12.406001220703125,-9.075966658231616,3.6972561428293584,-0.35708339949622747
1773522553846039000,12.4160390625,-9.11008753902018,3.6144302678436038,-0.3355297758685425
1773522553856077300,12.426077392578126,-9.13681597146988,3.550309385588765,-0.29031980244657024
1773522553866115000,12.436114990234374,-9.161346017092466,3.4892180802881714,-0.2558995003200136
1773522553876153300,12.4461533203125,-9.188990395343303,3.4164076956212517,-0.24697122071599587
1773522553886191000,12.456191162109375,-9.2192271281749,3.3331209251254794,-0.25795962945390494
1773522553896229400,12.4662294921875,-9.250138983789086,3.2442350194483995,-0.28329598649069665
1773522553906267100,12.47626708984375,-9.283318199813365,3.1448075537517663,-0.31713815993573513
1773522553916305200,12.48630517578125,-9.31924700680673,3.033800709420442,-0.34361806098446246
1773522553926342100,12.496342041015625,-9.354387293770909,2.9210739094287157,-0.36490474077165125
1773522553936380200,12.506380126953125,-9.386266533112526,2.8127085195168853,-0.39630774090364573
1773522553946418000,12.51641796875,-9.414203172308206,2.713078224724531,-0.42705326350759715
1773522553956456200,12.526456298828125,-9.436987835568189,2.630857622155547,-0.43845027131270614
1773522553966494200,12.536494140625,-9.455050731003285,2.5672525804683564,-0.42615762984212485
1773522553976532200,12.5465322265625,-9.472523259329796,2.50611159080714,-0.40136681439150124
1773522553986570200,12.5565703125,-9.49170434513986,2.434642391616106,-0.3878810541462153
1773522553996608300,12.566608154296874,-9.51376887743175,2.3435920013815164,-0.40763387542963025
1773522554006646300,12.576646240234375,-9.537382977253198,2.234341206937283,-0.46521614969596264
1773522554016684000,12.58668408203125,-9.559417698928714,2.119520941797644,-0.5436420726897194
1773522554026722300,12.596722412109376,-9.57911842469871,2.009846076722443,-0.6094181017404422
1773522554036760000,12.606760009765624,-9.597615619897843,1.9043221938468515,-0.6555268323667347
1773522554046798300,12.61679833984375,-9.615060675695538,1.8005184127621352,-0.6921928675934672
1773522554056836000,12.626836181640625,-9.63008873347938,1.7023055835522711,-0.730705918926373
1773522554066874400,12.636874267578126,-9.64377882065773,1.6039999614924192,-0.7714261249147355
1773522554076912000,12.646912109375,-9.65716846358478,1.502233093062788,-0.8079469064518808
1773522554086950100,12.6569501953125,-9.669406598389148,1.403438372311741,-0.8386412468578666
1773522554096987100,12.666987060546875,-9.679388478699327,1.3127005551576614,-0.8698489436134695
1773522554107025200,12.677025146484375,-9.68777402972877,1.2335558529026807,-0.8920539803545922
1773522554117063200,12.687063232421876,-9.694669634461402,1.1658715790778398,-0.9080215840108692
1773522554127101200,12.69710107421875,-9.699678987056016,1.1026495453588663,-0.9331520066794008
1773522554137139200,12.70713916015625,-9.703446230635047,1.0405945095926523,-0.9647149466134607
1773522554147177200,12.71717724609375,-9.705651631724834,0.9837482945159077,-1.0014729709725827
1773522554157215200,12.72721533203125,-9.706861592036486,0.9356707845672965,-1.0352474494762718
1773522554167253200,12.737253173828124,-9.707035195037722,0.9013977088917047,-1.0636441073991358
1773522554177291300,12.747291259765625,-9.705832248988747,0.8844954547338187,-1.088516536718607
1773522554187329000,12.7573291015625,-9.703715110704302,0.881272766360268,-1.109800951483473
1773522554197367300,12.7673671875,-9.700333067050575,0.8928480533417313,-1.129929401146248
1773522554207405000,12.777405029296874,-9.695843938937783,0.9171851336754858,-1.1488108464226126
1773522554217443300,12.787443359375,-9.69010451850295,0.950530938438326,-1.1699375133424996
1773522554227481000,12.797481201171875,-9.681817167150975,0.9961202117677778,-1.2002267800789326
1773522554237519400,12.807519287109375,-9.671885555723309,1.055097374458611,-1.2295450098261236
1773522554247557000,12.81755712890625,-9.66112450773418,1.1266681343279779,-1.2504727931730448
1773522554257595100,12.82759521484375,-9.64952467083335,1.2091845780383794,-1.2629070350714027
1773522554267632000,12.837632080078125,-9.63616834565401,1.3050170149177311,-1.2694795453295111
1773522554277670100,12.847670166015625,-9.620119128128886,1.4164274716138838,-1.271779638965428
1773522554287708200,12.857708251953126,-9.600736382266879,1.542996772866696,-1.270984981456399
1773522554297746200,12.86774609375,-9.578814473316072,1.6755594693154097,-1.2685431412622332
1773522554307784200,12.8777841796875,-9.555752746680378,1.8029034082025288,-1.2678779553517698
1773522554317822200,12.887822265625,-9.532223987054824,1.9283442899473011,-1.2603887686401605
