time,seconds_elapsed,z,y,x
1773522541509364000,0.079364013671875,-0.08687775582075119,-0.9844470024108887,-0.5549938678741455
1773522541519401700,0.089401611328125,-0.34097984433174133,-0.8442041277885437,-0.8290789723396301
1773522541529440000,0.09943994140625,-0.5223984122276306,-0.8285481929779053,-1.0657305717468262
1773522541539477800,0.109477783203125,-0.6191730499267578,-0.581942617893219,-1.1714709997177124
1773522541549515800,0.119515869140625,-0.4595995843410492,0.0699743926525116,-1.0426608324050903
1773522541559553800,0.1295537109375,-0.10874568670988083,0.3321753442287445,-0.7959412336349487
1773522541569591800,0.139591796875,0.26874569058418274,0.4778108298778534,-0.44403189420700073
1773522541579629800,0.1496298828125,0.5578658580780029,0.5387094020843506,-0.113197460770607
1773522541589666800,0.159666748046875,0.6836181879043579,0.6568304896354675,0.14281462132930756
1773522541599704800,0.169704833984375,0.6389909386634827,0.6773374676704407,0.3237871527671814
1773522541609742800,0.179742919921875,0.5424947738647461,0.8583818078041077,0.41940024495124817
1773522541619780900,0.18978076171875,0.5253411531448364,1.3211669921875,0.4470626413822174
1773522541629819000,0.19981884765625,0.6764105558395386,1.9622663259506226,0.36531051993370056
1773522541639857000,0.20985693359375,0.9564511775970459,2.21187686920166,0.06593742966651917
1773522541649894100,0.21989404296875,1.174257755279541,1.8307348489761353,-0.3561301827430725
1773522541659932400,0.229932373046875,1.1848291158676147,1.1779682636260986,-0.6955183744430542
1773522541669970200,0.23997021484375,1.0154342651367188,0.6886810660362244,-0.8416218161582947
1773522541680008400,0.250008544921875,0.7763054966926575,0.437757283449173,-0.779345691204071
1773522541690045400,0.26004541015625,0.5791729688644409,0.295492559671402,-0.5486927628517151
1773522541700083200,0.270083251953125,0.4259689152240753,0.2339736819267273,-0.2828189730644226
1773522541710121500,0.28012158203125,0.2875939905643463,0.32192111015319824,-0.05891744792461395
1773522541720159200,0.2901591796875,0.19176793098449707,0.5197547674179077,0.07643358409404755
1773522541730197500,0.300197509765625,0.1572594791650772,0.825109601020813,0.10039963573217392
1773522541740235300,0.3102353515625,0.14537033438682556,1.2287116050720215,0.08000168949365616
1773522541750273300,0.320273193359375,0.0938328430056572,1.5275657176971436,0.09042023867368698
1773522541760311300,0.330311279296875,0.024004165083169937,1.3654526472091675,0.059069328010082245
1773522541770349300,0.340349365234375,-0.021379562094807625,0.6071665287017822,0.003919257782399654
1773522541780387300,0.35038720703125,-0.05876708775758743,-0.20648157596588135,0.07245375961065292
1773522541790424300,0.36042431640625,-0.12392052263021469,-0.890180230140686,0.3348662257194519
1773522541800462300,0.37046240234375,-0.22378690540790558,-1.5268564224243164,0.7194477319717407
1773522541810500400,0.380500244140625,-0.3897545635700226,-2.2942991256713867,1.1280276775360107
1773522541820538400,0.390538330078125,-0.5611798763275146,-2.982344150543213,1.4235140085220337
1773522541830576400,0.400576416015625,-0.6775674819946289,-3.4835875034332275,1.4131073951721191
1773522541840614400,0.410614501953125,-0.5943187475204468,-3.1689743995666504,1.1416689157485962
1773522541850652200,0.420652099609375,-0.4286395013332367,-2.053297758102417,0.9503615498542786
1773522541860690400,0.4306904296875,-0.08773452043533325,-0.9016737937927246,0.6452323198318481
1773522541870728200,0.440728271484375,0.39146482944488525,-0.18059761822223663,0.21886982023715973
1773522541880766500,0.450766357421875,0.8542346358299255,0.6736515760421753,-0.2161901891231537
1773522541890803500,0.460803466796875,1.158877968788147,1.9256408214569092,-0.6410610675811768
1773522541900841200,0.47084130859375,1.3421859741210938,2.9803764820098877,-1.0625168085098267
1773522541910879500,0.48087939453125,1.3797147274017334,3.5042808055877686,-1.4587373733520508
1773522541920917200,0.490917236328125,0.9725227952003479,3.9130399227142334,-1.7105746269226074
1773522541930955500,0.50095556640625,0.20268812775611877,4.505161762237549,-1.649919867515564
1773522541940993300,0.5109931640625,-0.18515761196613312,4.866497993469238,-1.4681295156478882
1773522541951031300,0.52103125,-0.19476336240768433,5.04818058013916,-1.4637997150421143
1773522541961069300,0.5310693359375,-0.12268280237913132,5.478732109069824,-1.6197381019592285
1773522541971107300,0.541107421875,-0.2352791130542755,5.775860786437988,-1.7107264995574951
1773522541981145300,0.551145263671875,-0.5598034858703613,5.657855033874512,-1.5462627410888672
1773522541991183400,0.561183349609375,-1.0187952518463135,5.250304698944092,-0.9898849129676819
1773522542001220400,0.571220458984375,-1.3549607992172241,4.482544422149658,-0.07248388230800629
1773522542011258400,0.58125830078125,-1.4451851844787598,3.540323257446289,0.6779232621192932
1773522542021296400,0.59129638671875,-1.4381511211395264,2.983996868133545,1.0854439735412598
1773522542031334400,0.60133447265625,-1.4786181449890137,3.1342451572418213,1.1445200443267822
1773522542041372400,0.611372314453125,-1.606963038444519,3.759446382522583,1.0248768329620361
1773522542051410400,0.621410400390625,-1.7590968608856201,4.247575759887695,1.0681787729263306
1773522542061448400,0.631448486328125,-1.6978188753128052,2.67329740524292,1.5159169435501099
1773522542071486200,0.641486328125,-1.7235153913497925,0.1851513534784317,1.903167724609375
1773522542081524500,0.6515244140625,-1.609499216079712,-1.3512836694717407,1.669984221458435
1773522542091562200,0.661562255859375,-0.9906842112541199,-1.1617176532745361,1.0308109521865845
1773522542101599200,0.67159912109375,-0.26755890250205994,-0.9491217732429504,0.3366396725177765
1773522542111637200,0.68163720703125,0.06144324317574501,-1.0179897546768188,-0.10628768056631088
1773522542121675300,0.69167529296875,0.11533737182617188,-0.9659462571144104,-0.24680732190608978
1773522542131713300,0.70171337890625,0.007620758377015591,-0.5381733775138855,-0.2716812491416931
1773522542141751300,0.711751220703125,-0.14397947490215302,0.5173102617263794,-0.3360648453235626
1773522542151789300,0.721789306640625,-0.38270044326782227,1.430690050125122,-0.5671387910842896
1773522542161827300,0.731827392578125,-0.6515564322471619,1.9406744241714478,-0.92807537317276
1773522542171865300,0.741865234375,-0.9848475456237793,1.9039369821548462,-1.3108155727386475
1773522542181903400,0.7519033203125,-1.2846037149429321,1.3955022096633911,-1.6001876592636108
1773522542191941400,0.76194140625,-1.5551838874816895,0.4354385435581207,-1.8206928968429565
1773522542201979400,0.7719794921875,-1.6280529499053955,-0.5974856019020081,-2.0178096294403076
1773522542212016400,0.782016357421875,-1.584971308708191,-1.3731549978256226,-2.3143646717071533
1773522542222054100,0.79205419921875,-1.4692580699920654,-1.8391458988189697,-2.801370143890381
1773522542232092400,0.802092529296875,-1.3676414489746094,-1.8473063707351685,-3.3523166179656982
1773522542242130200,0.812130126953125,-1.2016769647598267,-1.492568016052246,-3.682276964187622
1773522542252168400,0.82216845703125,-1.097272515296936,-1.2832435369491577,-3.795301914215088
1773522542262206200,0.832206298828125,-1.076240062713623,-1.3321599960327148,-3.9016880989074707
1773522542272244200,0.842244140625,-1.1506754159927368,-1.4736424684524536,-4.080142498016357
1773522542282282200,0.8522822265625,-1.3258641958236694,-1.6442220211029053,-4.338288307189941
1773522542292320300,0.8623203125,-1.6119349002838135,-1.8457664251327515,-4.646124362945557
1773522542302358300,0.872358154296875,-2.021989583969116,-2.118812322616577,-4.918234348297119
1773522542312396300,0.882396240234375,-2.4495863914489746,-2.4476633071899414,-5.0979533195495605
1773522542322433300,0.892433349609375,-2.8502285480499268,-2.8351991176605225,-5.13703727722168
1773522542332471300,0.90247119140625,-3.15087890625,-3.307779312133789,-5.049127578735352
1773522542342509300,0.91250927734375,-3.2874398231506348,-3.8510475158691406,-4.822185516357422
1773522542352547300,0.92254736328125,-3.2806801795959473,-4.31833553314209,-4.501163959503174
1773522542362585300,0.93258544921875,-3.151510715484619,-4.559403419494629,-4.2991228103637695
1773522542372623400,0.942623291015625,-2.9861059188842773,-4.252114295959473,-4.336752414703369
1773522542382661400,0.952661376953125,-2.7829580307006836,-3.3810293674468994,-4.534054279327393
1773522542392699100,0.96269921875,-2.5793588161468506,-2.2253775596618652,-4.723546504974365
1773522542402737400,0.9727373046875,-2.3299477100372314,-1.1099469661712646,-4.833998203277588
1773522542412775200,0.982775146484375,-1.9655431509017944,-0.08955705910921097,-4.829451084136963
1773522542422813400,0.9928134765625,-1.5637261867523193,0.6493467688560486,-4.860336780548096
1773522542432850400,1.002850341796875,-1.169621467590332,1.0713560581207275,-4.918545722961426
1773522542442888200,1.01288818359375,-0.8285835981369019,1.4159834384918213,-4.996699810028076
1773522542452926500,1.022926513671875,-0.45960238575935364,1.7800729274749756,-5.042479515075684
1773522542462964200,1.032964111328125,-0.13703566789627075,1.9249216318130493,-4.992971420288086
1773522542473002500,1.04300244140625,0.14846186339855194,1.7499854564666748,-4.830923080444336
1773522542483040300,1.053040283203125,0.4891500771045685,1.6163140535354614,-4.573971271514893
1773522542493078300,1.063078369140625,0.9013305306434631,1.6087720394134521,-4.251007080078125
1773522542503116300,1.0731162109375,1.2853631973266602,1.5475269556045532,-3.9228761196136475
1773522542513154300,1.083154296875,1.652111291885376,1.636185646057129,-3.570591449737549
1773522542523192300,1.0931923828125,2.010831594467163,1.9040555953979492,-3.212766170501709
1773522542533230300,1.103230224609375,2.270368814468384,1.9797005653381348,-2.856105089187622
1773522542543268400,1.113268310546875,2.4338302612304688,1.855725884437561,-2.52935528755188
1773522542553305300,1.123305419921875,2.600480318069458,1.773714303970337,-2.223590850830078
1773522542563343400,1.13334326171875,2.8738760948181152,1.8330897092819214,-1.876423954963684
1773522542573381400,1.14338134765625,3.1083850860595703,1.8730816841125488,-1.5486921072006226
1773522542583419400,1.15341943359375,3.1200754642486572,2.1240227222442627,-1.1641751527786255
1773522542593457200,1.16345703125,2.7294816970825195,2.6425037384033203,-0.5698816180229187
1773522542603495400,1.173495361328125,2.283569812774658,3.0497887134552,-0.0018256609328091145
1773522542613533200,1.183533203125,1.8859037160873413,3.325651168823242,0.38426026701927185
1773522542623571500,1.193571533203125,1.5134501457214355,3.3995816707611084,0.6227502822875977
1773522542633609200,1.203609130859375,1.189522385597229,3.1063153743743896,0.7616703510284424
1773522542643647500,1.2136474609375,1.0030691623687744,2.62630558013916,0.803905189037323
1773522542653685500,1.223685546875,1.0081733465194702,2.075669765472412,0.8018316626548767
1773522542663722500,1.233722412109375,1.116497278213501,1.4922701120376587,0.8092612624168396
1773522542673760800,1.2437607421875,1.2050976753234863,0.7910810708999634,0.8747878074645996
1773522542683798500,1.253798583984375,1.3158947229385376,0.09807009249925613,0.8950968384742737
1773522542693836500,1.26383642578125,1.3464044332504272,-0.43012502789497375,0.831337571144104
1773522542703874600,1.27387451171875,1.3251943588256836,-0.6390717625617981,0.6478362679481506
1773522542713912600,1.28391259765625,1.3157436847686768,-0.4909941554069519,0.44017598032951355
1773522542723950600,1.29395068359375,1.3319568634033203,-0.19192491471767426,0.2724105417728424
1773522542733988600,1.303988525390625,1.3167847394943237,0.016565967351198196,0.19042539596557617
1773522542744026400,1.3140263671875,1.386707067489624,0.07148023694753647,0.196588397026062
1773522542754064600,1.324064697265625,1.4483506679534912,0.003426353447139263,0.27786964178085327
1773522542764102400,1.334102294921875,1.4451830387115479,-0.1010676696896553,0.36307135224342346
1773522542774140700,1.344140625,1.5929261445999146,-0.0832146406173706,0.5023631453514099
1773522542784177700,1.354177734375,1.7562360763549805,-0.033275991678237915,0.7185591459274292
1773522542794215400,1.36421533203125,1.9263875484466553,0.07842017710208893,0.9362256526947021
1773522542804253700,1.374253662109375,2.0490684509277344,0.19848741590976715,1.0015592575073242
1773522542814291500,1.38429150390625,1.830014944076538,0.4553338289260864,0.9707899689674377
1773522542824329700,1.394329833984375,1.7622966766357422,0.868088960647583,0.924334704875946
1773522542834367500,1.404367431640625,1.701648235321045,1.098195195198059,0.8979198932647705
1773522542844405800,1.41440576171875,1.6839373111724854,0.9005336165428162,0.9484339952468872
1773522542854443500,1.424443603515625,1.5975755453109741,0.42517903447151184,1.0350652933120728
1773522542864481500,1.4344814453125,1.5092633962631226,-0.016882482916116714,1.1393176317214966
1773522542874519600,1.44451953125,1.4537842273712158,-0.24084021151065826,1.3289031982421875
1773522542884557600,1.4545576171875,1.4801896810531616,-0.4930720031261444,1.5028332471847534
1773522542894595600,1.464595703125,1.3042641878128052,-0.92276531457901,1.3757877349853516
1773522542904632600,1.474632568359375,1.1890207529067993,-1.0492289066314697,1.1861355304718018
1773522542914670600,1.484670654296875,1.0442286729812622,-1.230462670326233,0.9367899298667908
1773522542924708600,1.49470849609375,0.8810294270515442,-1.4543613195419312,0.6651802659034729
1773522542934746600,1.50474658203125,0.8426463603973389,-1.6762628555297852,0.4980839788913727
1773522542944784600,1.51478466796875,0.9438395500183105,-1.9653915166854858,0.46220842003822327
1773522542954822700,1.52482275390625,1.0208749771118164,-2.208994150161743,0.5014407634735107
1773522542964860400,1.5348603515625,0.9609315395355225,-2.218735694885254,0.6083076596260071
1773522542974898700,1.544898681640625,0.8042481541633606,-2.1921629905700684,0.6889939904212952
1773522542984936400,1.5549365234375,0.7556267380714417,-2.01052188873291,0.6312697529792786
1773522542994974700,1.564974609375,0.8037484288215637,-1.7899445295333862,0.5241472721099854
1773522543005012500,1.575012451171875,0.8063316941261292,-1.305382251739502,0.46930402517318726
1773522543015050800,1.58505078125,0.575913667678833,-0.8201098442077637,0.5741316676139832
1773522543025088500,1.595088623046875,0.35871464014053345,-0.219456285238266,0.9036444425582886
1773522543035125500,1.60512548828125,0.1075093150138855,0.31532803177833557,1.3270483016967773
1773522543045163500,1.61516357421875,-0.18133020401000977,0.5369234681129456,1.3342617750167847
1773522543055201500,1.625201416015625,-0.32314619421958923,1.153079867362976,1.4595813751220703
1773522543065239600,1.635239501953125,-0.30406367778778076,1.724503993988037,1.8235653638839722
1773522543075277600,1.645277587890625,-0.22973378002643585,1.8169158697128296,2.0781261920928955
1773522543085315600,1.655315673828125,-0.04592551290988922,1.3932992219924927,1.8727880716323853
1773522543095353600,1.665353515625,0.27699822187423706,0.7674150466918945,1.2367397546768188
1773522543105391600,1.6753916015625,0.6389482617378235,0.26613330841064453,0.5228446125984192
1773522543115429600,1.6854296875,0.8741317391395569,-0.1316569447517395,-0.012524235062301159
1773522543125467600,1.695467529296875,0.8618773221969604,-0.5443478226661682,-0.4021848738193512
1773522543135505400,1.70550537109375,0.6262743473052979,-1.1742528676986694,-0.6821345090866089
1773522543145543700,1.715543701171875,0.21657313406467438,-2.1176440715789795,-0.827996015548706
1773522543155580400,1.725580322265625,-0.3293873965740204,-3.084528684616089,-0.7126494646072388
1773522543165618400,1.735618408203125,-1.0358854532241821,-4.113977432250977,-0.38564532995224
1773522543175656400,1.745656494140625,-1.7540425062179565,-5.0852789878845215,-0.11899526417255402
1773522543185694500,1.755694580078125,-2.2572410106658936,-4.489043235778809,0.022629283368587494
1773522543195732500,1.765732421875,-2.1753907203674316,-1.0265980958938599,-0.038183730095624924
1773522543205770500,1.7757705078125,-1.6916414499282837,1.7224080562591553,-0.3174758553504944
1773522543215808500,1.78580859375,-1.136687994003296,2.4051859378814697,-0.31667664647102356
1773522543225846500,1.795846435546875,-0.6331591606140137,1.8087958097457886,-0.0316673219203949
1773522543235884500,1.805884521484375,-0.32455870509147644,0.6271230578422546,0.23082926869392395
1773522543245922600,1.815922607421875,-0.3313543200492859,-0.06928905099630356,0.17282305657863617
1773522543255960600,1.825960693359375,-0.6365256309509277,-0.3056944012641907,-0.12492794543504715
1773522543265998600,1.83599853515625,-0.9982544183731079,-0.24891149997711182,-0.3106915354728699
1773522543276036600,1.84603662109375,-1.242352843284607,0.03530078008770943,-0.4183322489261627
1773522543286074600,1.85607470703125,-1.3397436141967773,0.07705309242010117,-0.655975878238678
1773522543296111600,1.866111572265625,-1.4952999353408813,0.2242172360420227,-0.8188990354537964
1773522543306149400,1.8761494140625,-1.5092130899429321,0.3801017999649048,-0.6371946930885315
1773522543316187600,1.886187744140625,-1.8591117858886719,0.011087531223893166,-0.4901634156703949
1773522543326225400,1.896225341796875,-2.1763460636138916,-0.37428048253059387,-0.40366652607917786
1773522543336263400,1.906263427734375,-2.0856826305389404,-0.35922563076019287,-0.18142999708652496
1773522543346301400,1.916301513671875,-1.62046217918396,0.04440164566040039,0.2323865443468094
1773522543356339500,1.92633935546875,-1.1784642934799194,0.18050409853458405,0.5373834371566772
1773522543366377500,1.93637744140625,-0.8712267279624939,0.0845954567193985,0.716058611869812
1773522543376415500,1.94641552734375,-0.6663897037506104,-0.04964011535048485,0.8365621566772461
1773522543386453500,1.95645361328125,-0.5072265863418579,0.048561371862888336,1.0210766792297363
1773522543396491500,1.966491455078125,-0.46133607625961304,-0.024678491055965424,1.2004534006118774
1773522543406529500,1.976529541015625,-0.6583201289176941,-0.5907646417617798,1.1074832677841187
1773522543416567600,1.986567626953125,-1.0175645351409912,-1.0803862810134888,0.8916670083999634
1773522543426605600,1.99660546875,-1.3647799491882324,-1.0377310514450073,0.8295583724975586
1773522543436643600,2.0066435546875,-1.654126524925232,-0.7787871360778809,0.7428780794143677
1773522543446680600,2.0166806640625,-1.7783446311950684,-0.45315730571746826,0.4797547161579132
1773522543456718300,2.02671826171875,-1.7415403127670288,0.007614271715283394,0.057771243155002594
1773522543466756600,2.036756591796875,-1.646151065826416,0.43290984630584717,-0.3885480761528015
1773522543476794400,2.04679443359375,-1.6199005842208862,0.71550452709198,-0.735366702079773
1773522543486832600,2.05683251953125,-1.744895339012146,0.5843307971954346,-0.9682407975196838
1773522543496870400,2.066870361328125,-1.9406445026397705,0.40496826171875,-1.1495051383972168
1773522543506908400,2.076908447265625,-2.1272804737091064,0.42403966188430786,-1.296265721321106
1773522543516946400,2.086946533203125,-2.352994203567505,0.6772516369819641,-1.4432533979415894
1773522543526984400,2.096984375,-2.7690961360931396,0.9020877480506897,-1.6557929515838623
1773522543537022500,2.1070224609375,-3.230901002883911,1.1491780281066895,-1.8246099948883057
1773522543547060500,2.117060546875,-3.307249069213867,1.538104772567749,-1.7601919174194336
1773522543557098800,2.1270986328125,-3.165189027786255,1.8435899019241333,-1.535265564918518
1773522543567136500,2.137136474609375,-2.921257972717285,1.7946643829345703,-1.2966214418411255
1773522543577174500,2.147174560546875,-2.4936280250549316,1.630075454711914,-1.0336390733718872
1773522543587211500,2.15721142578125,-1.9905221462249756,1.4850670099258423,-0.8625206351280212
1773522543597249500,2.16724951171875,-1.4955888986587524,1.403713583946228,-0.8150508999824524
1773522543607287600,2.17728759765625,-1.1394355297088623,1.394934892654419,-0.803706169128418
1773522543617325600,2.18732568359375,-0.7153648138046265,1.515432596206665,-0.774704098701477
1773522543627363300,2.19736328125,-0.2538573741912842,1.6023775339126587,-0.6928163766860962
1773522543637401600,2.207401611328125,0.1601818948984146,1.6014819145202637,-0.6486310958862305
1773522543647439400,2.217439453125,0.5109226703643799,1.374273419380188,-0.670465886592865
1773522543657477000,2.22747705078125,0.7112536430358887,0.7967395186424255,-0.8107897043228149
1773522543667515400,2.237515380859375,0.7337198257446289,0.853034496307373,-0.5473814606666565
1773522543677553200,2.24755322265625,0.6298704147338867,1.5429763793945312,0.052184753119945526
1773522543687591400,2.25759130859375,0.49776938557624817,1.9649300575256348,0.49432647228240967
1773522543697629200,2.267629150390625,0.41137298941612244,2.0663607120513916,0.6949232220649719
1773522543707667200,2.277667236328125,0.2735166549682617,2.1244406700134277,0.7183648943901062
1773522543717705200,2.287705322265625,0.09614694118499756,2.096940279006958,0.6020593643188477
1773522543727743200,2.2977431640625,-0.09757912158966064,1.963913917541504,0.4090745449066162
1773522543737781200,2.30778125,-0.47671711444854736,1.6470831632614136,0.14360906183719635
1773522543747818200,2.317818359375,-0.8591827154159546,1.0903204679489136,-0.0900278314948082
1773522543757856300,2.327856201171875,-1.1736854314804077,0.4456631541252136,-0.24472686648368835
1773522543767894300,2.337894287109375,-1.6109769344329834,-0.194459930062294,-0.3497425317764282
1773522543777932300,2.347932373046875,-2.0965628623962402,-0.9701980352401733,-0.47627970576286316
1773522543787970300,2.35797021484375,-2.7011067867279053,-1.773575782775879,-0.612824559211731
1773522543798008300,2.36800830078125,-3.431565046310425,-2.2167744636535645,-0.6411198377609253
1773522543808046000,2.378046142578125,-4.0099287033081055,-2.1620492935180664,-0.42492350935935974
1773522543818084400,2.38808447265625,-4.264893054962158,-2.286414384841919,-0.2809753715991974
1773522543828122000,2.3981220703125,-4.190091609954834,-2.62510347366333,-0.21790531277656555
1773522543838160400,2.408160400390625,-3.9805946350097656,-2.91849684715271,-0.14017190039157867
1773522543848198100,2.4181982421875,-3.9002583026885986,-3.220961809158325,-0.04761344939470291
1773522543858236400,2.428236328125,-3.907724380493164,-3.4401023387908936,0.14823834598064423
1773522543868274200,2.438274169921875,-4.043786525726318,-3.4974770545959473,0.5026113986968994
1773522543878312200,2.448312255859375,-4.411553382873535,-3.215975046157837,1.0136299133300781
1773522543888350200,2.45835009765625,-4.708329200744629,-2.861570358276367,1.6314276456832886
1773522543898388200,2.46838818359375,-4.88072395324707,-2.6120498180389404,2.1998345851898193
1773522543908426200,2.47842626953125,-4.83290958404541,-2.537071466445923,2.556311845779419
1773522543918463200,2.488463134765625,-4.350124835968018,-3.4539289474487305,2.2340803146362305
1773522543928501200,2.498501220703125,-3.2332310676574707,-5.435922145843506,1.2093003988265991
1773522543938539300,2.508539306640625,-1.907507061958313,-6.9780802726745605,0.2796383202075958
1773522543948577300,2.518577392578125,-0.7871572375297546,-7.592218399047852,-0.26058313250541687
1773522543958615300,2.528615234375,-0.010725648142397404,-7.267131805419922,-0.53510981798172
1773522543968653300,2.5386533203125,0.4557375907897949,-6.115664005279541,-0.7248559594154358
1773522543978691000,2.548691162109375,0.646499514579773,-3.7340123653411865,-0.8868653774261475
1773522543988729300,2.558729248046875,0.5427650809288025,0.060989052057266235,-0.8467689156532288
1773522543998767000,2.56876708984375,0.43808048963546753,2.9934089183807373,-0.5846419334411621
1773522544008805400,2.578805419921875,0.5024159550666809,4.488791465759277,-0.4981280565261841
1773522544018843100,2.588843017578125,0.6424569487571716,4.8170552253723145,-0.6541176438331604
1773522544028881400,2.59888134765625,0.7088754773139954,4.380084037780762,-0.9024600386619568
1773522544038919200,2.608919189453125,0.7040548920631409,3.631143808364868,-1.0168553590774536
1773522544048957200,2.618957275390625,0.6446967720985413,2.87507700920105,-0.9363461136817932
1773522544058995200,2.6289951171875,0.5877853035926819,2.2659518718719482,-0.6781678199768066
1773522544069033200,2.639033203125,0.5057533979415894,1.7858695983886719,-0.33650293946266174
1773522544079071200,2.6490712890625,0.40326988697052,1.3962403535842896,-0.02049623616039753
1773522544089109200,2.659109130859375,0.2735982835292816,1.0064244270324707,0.2310621738433838
1773522544099147300,2.669147216796875,0.13584120571613312,0.5539008975028992,0.4113083481788635
1773522544109184300,2.679184326171875,0.02414146438241005,0.0696549266576767,0.5295989513397217
1773522544119222300,2.68922216796875,-0.061280492693185806,-0.3902119994163513,0.6088902950286865
1773522544129260300,2.69926025390625,-0.11158722639083862,-0.7502074837684631,0.659625232219696
1773522544139298300,2.70929833984375,-0.15506546199321747,-0.9721803665161133,0.6874321103096008
1773522544149336000,2.719336181640625,-0.2021714746952057,-1.0708410739898682,0.6612915992736816
1773522544159374300,2.729374267578125,-0.2464103102684021,-1.095599889755249,0.5747340321540833
1773522544169412000,2.739412109375,-0.2557631731033325,-1.0776290893554688,0.4360749423503876
1773522544179450400,2.749450439453125,-0.21180850267410278,-1.0479159355163574,0.2576114535331726
1773522544189488000,2.759488037109375,-0.14890435338020325,-0.9652288556098938,0.08442864567041397
1773522544199526400,2.7695263671875,-0.10651961714029312,-0.8346316814422607,-0.07681936025619507
1773522544209564200,2.779564208984375,-0.07184042781591415,-0.678166389465332,-0.2008601576089859
1773522544219602200,2.789602294921875,-0.04214698076248169,-0.49974843859672546,-0.28362295031547546
1773522544229640200,2.79964013671875,-0.008839565329253674,-0.3427397906780243,-0.34165987372398376
1773522544239678200,2.80967822265625,0.03766109049320221,-0.21377623081207275,-0.3829026520252228
1773522544249716200,2.81971630859375,0.09018880128860474,-0.11180104315280914,-0.41300874948501587
1773522544259754200,2.829754150390625,0.12984247505664825,-0.024494102224707603,-0.4299888014793396
1773522544269792300,2.839792236328125,0.1472407877445221,0.05648546665906906,-0.4338621497154236
1773522544279830300,2.849830322265625,0.15145736932754517,0.11447339504957199,-0.42662927508354187
1773522544289868000,2.859867919921875,0.1489763706922531,0.14875280857086182,-0.4067162871360779
1773522544299905300,2.8699052734375,0.14052721858024597,0.16811665892601013,-0.37745025753974915
1773522544309943300,2.879943359375,0.12496525049209595,0.1680532693862915,-0.3410355746746063
1773522544319981000,2.88998095703125,0.09538871794939041,0.1625668853521347,-0.2894706428050995
1773522544330019300,2.900019287109375,0.058150745928287506,0.1561439484357834,-0.23001301288604736
1773522544340057000,2.91005712890625,0.025529149919748306,0.15553514659404755,-0.162476047873497
1773522544350095400,2.920095458984375,0.0015943124890327454,0.1469716876745224,-0.09092293679714203
1773522544360133000,2.930133056640625,-0.015791602432727814,0.13207848370075226,-0.025530613958835602
1773522544370171400,2.94017138671875,-0.029136762022972107,0.10394641011953354,0.030287709087133408
1773522544380209200,2.950209228515625,-0.03298556059598923,0.06608078628778458,0.07055603712797165
1773522544390247200,2.9602470703125,-0.03490676358342171,0.03360506147146225,0.09509352594614029
1773522544400285200,2.97028515625,-0.03124837949872017,0.007950830273330212,0.1004728451371193
1773522544410323200,2.9803232421875,-0.0079329963773489,-0.0029583952855318785,0.10516878217458725
1773522544420361200,2.990361328125,0.018567588180303574,0.00017854198813438416,0.09403464198112488
1773522544430399200,3.000399169921875,0.05579526722431183,0.034686293452978134,0.0719810500741005
1773522544440437200,3.010437255859375,0.09302891790866852,0.09348941594362259,0.035689350217580795
1773522544450475300,3.020475341796875,0.1191050261259079,0.1586163192987442,-0.0032936218194663525
1773522544460513000,3.030512939453125,0.1402132362127304,0.22674638032913208,-0.04879452660679817
1773522544470551300,3.04055126953125,0.15344326198101044,0.29204678535461426,-0.09569735080003738
1773522544480589000,3.050589111328125,0.168193981051445,0.34654679894447327,-0.13616488873958588
1773522544490627300,3.06062744140625,0.17421162128448486,0.38933265209198,-0.17111444473266602
1773522544500665000,3.0706650390625,0.1726294457912445,0.42432525753974915,-0.20055168867111206
1773522544510703000,3.080703125,0.1576162576675415,0.4592622220516205,-0.2191937416791916
1773522544520740400,3.090740234375,0.1308480203151703,0.4967043995857239,-0.22796007990837097
1773522544530778000,3.100778076171875,0.10889742523431778,0.5272856950759888,-0.22409871220588684
1773522544540816400,3.11081640625,0.10556581616401672,0.5387631058692932,-0.21276775002479553
1773522544550854100,3.120854248046875,0.12173862755298615,0.5276029109954834,-0.1972631961107254
1773522544560892200,3.13089208984375,0.13703128695487976,0.5235511660575867,-0.16088122129440308
1773522544570930200,3.14093017578125,0.14716453850269318,0.5463473796844482,-0.10260374844074249
1773522544580968200,3.15096826171875,0.14027653634548187,0.6102121472358704,-0.014237666502594948
1773522544591006200,3.161006103515625,0.09435710310935974,0.7058404684066772,0.08447743207216263
1773522544601044200,3.171044189453125,0.01942133903503418,0.8183140158653259,0.18815428018569946
1773522544611082200,3.181082275390625,-0.01308949664235115,0.9438062906265259,0.29928016662597656
1773522544621120300,3.191120361328125,-0.039355456829071045,1.1441681385040283,0.4521285593509674
1773522544631158000,3.201157958984375,-0.07181195914745331,1.3997713327407837,0.627034068107605
1773522544641196300,3.2111962890625,-0.12685364484786987,1.6404507160186768,0.7874413132667542
1773522544651233800,3.22123388671875,-0.18747922778129578,1.7738220691680908,0.8967866897583008
1773522544661271800,3.231271728515625,-0.23531466722488403,1.7422409057617188,0.9122167825698853
1773522544671309800,3.241309814453125,-0.2751665711402893,1.5758804082870483,0.8429738879203796
1773522544681347800,3.251347900390625,-0.2866860628128052,1.3631601333618164,0.7399010062217712
1773522544691386000,3.26138623046875,-0.2615547478199005,1.1908149719238281,0.6498413681983948
1773522544701423900,3.271423828125,-0.2200733721256256,1.0831094980239868,0.5856291055679321
1773522544711462100,3.281462158203125,-0.2035188376903534,1.0091149806976318,0.5355105400085449
1773522544721500000,3.2915,-0.20083490014076233,0.9215512871742249,0.47033366560935974
1773522544731538000,3.301537841796875,-0.20976828038692474,0.8044298887252808,0.3774632215499878
1773522544741576000,3.311575927734375,-0.2257147580385208,0.6504595279693604,0.24632088840007782
1773522544751614000,3.321614013671875,-0.24345894157886505,0.47091740369796753,0.09940075874328613
1773522544761652000,3.33165185546875,-0.269563227891922,0.29475247859954834,-0.05659763514995575
1773522544771689000,3.34168896484375,-0.2920158803462982,0.1508844941854477,-0.20292124152183533
1773522544781726700,3.351726806640625,-0.31083086133003235,0.042437367141246796,-0.33925801515579224
1773522544791765000,3.361764892578125,-0.33145982027053833,-0.021454861387610435,-0.4564817547798157
1773522544801802800,3.371802734375,-0.3381238579750061,-0.028600120916962624,-0.5574368238449097
1773522544811841000,3.381841064453125,-0.332542359828949,-0.000580166932195425,-0.6506368517875671
1773522544821878800,3.391878662109375,-0.32032671570777893,0.049538128077983856,-0.7538793683052063
1773522544831916800,3.401916748046875,-0.31335732340812683,0.0812804102897644,-0.8791351318359375
1773522544841955000,3.411955078125,-0.3093918561935425,0.08346180617809296,-1.0357348918914795
1773522544851992800,3.421992919921875,-0.3054787218570709,0.08999349176883698,-1.212247610092163
1773522544862031000,3.432031005859375,-0.28005218505859375,0.11586050689220428,-1.3816415071487427
1773522544872068900,3.44206884765625,-0.2451205998659134,0.20644086599349976,-1.5213690996170044
1773522544882107100,3.452107177734375,-0.21224574744701385,0.359142541885376,-1.62443208694458
1773522544892145000,3.462144775390625,-0.17997950315475464,0.5702633261680603,-1.694837212562561
1773522544902183000,3.472182861328125,-0.11611423641443253,0.8058116436004639,-1.7230808734893799
1773522544912221000,3.482220947265625,-0.01802261918783188,1.0601576566696167,-1.7091538906097412
1773522544922259000,3.492259033203125,0.08518552780151367,1.3125009536743164,-1.6650018692016602
1773522544932297000,3.502296875,0.17550693452358246,1.5546337366104126,-1.5869669914245605
1773522544942335000,3.5123349609375,0.2465755194425583,1.7763386964797974,-1.4798853397369385
1773522544952373000,3.522373046875,0.30870115756988525,1.9501839876174927,-1.3545734882354736
1773522544962411000,3.532410888671875,0.37285885214805603,2.086054801940918,-1.2150834798812866
1773522544972448800,3.54244873046875,0.41210445761680603,2.1766180992126465,-1.0672153234481812
1773522544982487000,3.552487060546875,0.40851372480392456,2.2644240856170654,-0.9061582684516907
1773522544992524800,3.56252490234375,0.3398880660533905,2.369198799133301,-0.7328783273696899
1773522545002563000,3.57256298828125,0.22267168760299683,2.4897654056549072,-0.5439049601554871
1773522545012600800,3.582600830078125,0.0849083811044693,2.5730836391448975,-0.34837672114372253
1773522545022638800,3.592638916015625,-0.03699808195233345,2.5737550258636475,-0.15629224479198456
1773522545032676900,3.6026767578125,-0.12702742218971252,2.4743528366088867,0.019018640741705894
1773522545042715000,3.61271484375,-0.18548646569252014,2.2918314933776855,0.17330887913703918
1773522545052752100,3.622752197265625,-0.20611540973186493,2.0402657985687256,0.30942487716674805
1773522545062790000,3.632789794921875,-0.18701894581317902,1.7862164974212646,0.4114052951335907
1773522545072828000,3.642827880859375,-0.13599304854869843,1.5783370733261108,0.46063244342803955
1773522545082866000,3.652865966796875,-0.0822501927614212,1.4192304611206055,0.4692842364311218
1773522545092904000,3.662904052734375,-0.030283987522125244,1.3230665922164917,0.4333055317401886
1773522545102942000,3.67294189453125,0.00737763661891222,1.3371872901916504,0.3375385105609894
1773522545112980000,3.68297998046875,0.009907962754368782,1.4930455684661865,0.1695856750011444
1773522545123018000,3.69301806640625,-0.021713610738515854,1.7411919832229614,-0.06051729619503021
1773522545133056000,3.703055908203125,-0.07696150988340378,2.0107171535491943,-0.34093815088272095
1773522545143093800,3.71309375,-0.13619020581245422,2.2246906757354736,-0.6706447005271912
1773522545153132000,3.723132080078125,-0.1766945868730545,2.337864875793457,-1.039966106414795
1773522545163169800,3.733169677734375,-0.1640634685754776,2.300626039505005,-1.4053704738616943
1773522545173208000,3.7432080078125,-0.20043012499809265,2.135000467300415,-1.7276891469955444
1773522545183245800,3.753245849609375,-0.3512372374534607,1.9331128597259521,-1.9881303310394287
1773522545193283800,3.763283935546875,-0.5204111933708191,1.743691086769104,-2.1710052490234375
1773522545203321900,3.77332177734375,-0.6325209736824036,1.598429560661316,-2.2771096229553223
1773522545213359900,3.78335986328125,-0.6516680121421814,1.693433165550232,-2.2364418506622314
1773522545223398000,3.79339794921875,-0.5035325884819031,2.3697850704193115,-1.8929524421691895
1773522545233436000,3.803435791015625,-0.21878942847251892,3.3558781147003174,-1.3121787309646606
1773522545243474000,3.813473876953125,-0.008853236213326454,3.789538621902466,-0.8542337417602539
1773522545253512000,3.823511962890625,0.012220091186463833,3.5922231674194336,-0.615279495716095
1773522545263549700,3.8335498046875,-0.10398401319980621,3.0218749046325684,-0.522550642490387
1773522545273588000,3.843587890625,-0.2592121958732605,2.3181040287017822,-0.46426647901535034
1773522545283625700,3.853625732421875,-0.3915950357913971,1.6515103578567505,-0.39784589409828186
1773522545293664000,3.8636640625,-0.455861359834671,1.0927430391311646,-0.3542383313179016
1773522545303701800,3.87370166015625,-0.46060365438461304,0.7009432911872864,-0.36856240034103394
1773522545313740000,3.883739990234375,-0.43910902738571167,0.4454908072948456,-0.46436768770217896
1773522545323777800,3.89377783203125,-0.40478968620300293,0.33707642555236816,-0.6219205260276794
1773522545333815800,3.90381591796875,-0.3289428949356079,0.43866679072380066,-0.8039286732673645
1773522545343853800,3.913853759765625,-0.21429991722106934,0.8021856546401978,-0.9578953385353088
1773522545353891800,3.923891845703125,-0.05715052783489227,1.2908529043197632,-1.0377676486968994
1773522545363930000,3.93393017578125,0.10027345269918442,1.7014849185943604,-1.061308741569519
1773522545373968000,3.9439677734375,0.2301310896873474,1.8624744415283203,-1.06212317943573
1773522545384006100,3.954006103515625,0.30168411135673523,1.7241908311843872,-1.0629199743270874
1773522545394044000,3.9640439453125,0.3316633999347687,1.4092777967453003,-1.0592128038406372
1773522545404082000,3.97408203125,0.33292680978775024,1.0753768682479858,-1.0421603918075562
1773522545414119000,3.984118896484375,0.33142125606536865,0.8541370034217834,-0.9751808643341064
1773522545424157000,3.994156982421875,0.30966508388519287,0.8248555660247803,-0.8446284532546997
1773522545434194700,4.004194580078125,0.27920809388160706,0.9149165749549866,-0.6485030651092529
1773522545444233000,4.01423291015625,0.24099785089492798,0.9842106699943542,-0.4068712592124939
1773522545454270700,4.024270751953125,0.1940390020608902,0.8936222791671753,-0.17494148015975952
1773522545464309000,4.03430908203125,0.1567571461200714,0.6289248466491699,0.02298198640346527
1773522545474346800,4.0443466796875,0.11778039485216141,0.2746923267841339,0.2006952464580536
1773522545484385000,4.054385009765625,0.08320511132478714,-0.0679640918970108,0.3498309254646301
1773522545494423000,4.064423095703125,0.06272915750741959,-0.30151957273483276,0.4833945631980896
1773522545504460800,4.074460693359375,0.04254958778619766,-0.3617805242538452,0.6026506423950195
1773522545514499000,4.0844990234375,0.03601856157183647,-0.31026485562324524,0.6866805553436279
1773522545524536800,4.094536865234375,0.03966256603598595,-0.2460307478904724,0.7272194623947144
1773522545534575000,4.1045751953125,0.026547595858573914,-0.20230542123317719,0.7077662348747253
1773522545544612900,4.11461279296875,-0.00004113838076591492,-0.15150348842144012,0.6675685048103333
1773522545554651100,4.124651123046875,-0.028683874756097794,-0.10871068388223648,0.6172865033149719
1773522545564689000,4.13468896484375,-0.06507144868373871,-0.08122792094945908,0.5652930736541748
1773522545574727000,4.144726806640625,-0.09852086752653122,-0.03802845999598503,0.5267277359962463
1773522545584765000,4.154764892578125,-0.13433904945850372,0.02696518786251545,0.5255207419395447
1773522545594803000,4.164802978515625,-0.16858842968940735,0.07809504121541977,0.5726534724235535
1773522545604841000,4.174841064453125,-0.21752668917179108,0.0607735812664032,0.6636350750923157
1773522545614879000,4.18487890625,-0.2625359296798706,-0.030880486592650414,0.7823019027709961
1773522545624916700,4.194916748046875,-0.3188849687576294,-0.181449756026268,0.9012123346328735
1773522545634955000,4.204955078125,-0.3674410581588745,-0.3778918981552124,0.9941542744636536
1773522545644992800,4.21499267578125,-0.40705370903015137,-0.5637184977531433,1.0636281967163086
1773522545655031300,4.22503125,-0.4503287076950073,-0.6831851005554199,1.1366041898727417
1773522545665069000,4.235069091796875,-0.48169276118278503,-0.7107488512992859,1.1699626445770264
1773522545675107300,4.245107421875,-0.490817129611969,-0.7407353520393372,1.18329918384552
1773522545685145000,4.25514501953125,-0.4745934009552002,-0.7274413704872131,1.1677607297897339
1773522545695183400,4.265183349609375,-0.44400903582572937,-0.7348787188529968,1.1254140138626099
1773522545705221000,4.27522119140625,-0.37329599261283875,-0.7079249024391174,1.0479788780212402
1773522545715259100,4.285259033203125,-0.3082035183906555,-0.6834093928337097,0.8972566723823547
1773522545725297200,4.295297119140625,-0.27905601263046265,-0.5294936299324036,0.7025660276412964
1773522545735335200,4.305335205078125,-0.2739224135875702,-0.3291535973548889,0.4824574589729309
1773522545745373200,4.315373291015625,-0.2870752513408661,-0.14665251970291138,0.27570292353630066
1773522545755411200,4.3254111328125,-0.26353779435157776,-0.05374261364340782,0.10973909497261047
1773522545765449000,4.335448974609375,-0.24801504611968994,-0.051229387521743774,0.009752845391631126
1773522545775487200,4.3454873046875,-0.23796559870243073,-0.13701970875263214,-0.0480501651763916
1773522545785525000,4.35552490234375,-0.20792488753795624,-0.274156779050827,-0.08553043007850647
1773522545795563300,4.365563232421875,-0.11128569394350052,-0.38692137598991394,-0.13694897294044495
1773522545805601000,4.37560107421875,0.022936826571822166,-0.4228684604167938,-0.19499975442886353
1773522545815639300,4.385639404296875,0.11084723472595215,-0.46537312865257263,-0.24179422855377197
1773522545825677000,4.395677001953125,0.18916627764701843,-0.4461453855037689,-0.2663951814174652
1773522545835715000,4.405715087890625,0.2875813841819763,-0.37270307540893555,-0.2762811779975891
1773522545845753000,4.415753173828125,0.3535494804382324,-0.33173274993896484,-0.2940146327018738
1773522545855791000,4.425791015625,0.3634687066078186,-0.32714107632637024,-0.3180091679096222
1773522545865829000,4.4358291015625,0.33030062913894653,-0.3345619738101959,-0.350641131401062
1773522545875867100,4.4458671875,0.26111316680908203,-0.3307541012763977,-0.39324066042900085
1773522545885905200,4.4559052734375,0.16580289602279663,-0.36122918128967285,-0.40479904413223267
1773522545895943200,4.465943115234375,0.062307342886924744,-0.5066646337509155,-0.3551701009273529
1773522545905981200,4.475981201171875,0.016883401200175285,-0.7330458164215088,-0.2731710970401764
1773522545916019200,4.486019287109375,0.041300997138023376,-0.9968690276145935,-0.20213456451892853
1773522545926057200,4.49605712890625,0.10770558565855026,-1.2135393619537354,-0.16224254667758942
1773522545936095200,4.50609521484375,0.1447710394859314,-1.3046988248825073,-0.1510620415210724
1773522545946133200,4.51613330078125,0.14638492465019226,-1.2189240455627441,-0.13023346662521362
1773522545956171300,4.526171142578125,0.15975695848464966,-0.9401334524154663,-0.055073972791433334
1773522545966209300,4.536209228515625,0.26639309525489807,-0.5588449835777283,0.1100233718752861
1773522545976247000,4.5462470703125,0.49120843410491943,-0.34427937865257263,0.32745224237442017
1773522545986285300,4.556285400390625,0.708816409111023,-0.45448869466781616,0.4692471921443939
1773522545996323000,4.566322998046875,0.7906094789505005,-0.7057603001594543,0.4758901000022888
1773522546006360000,4.576360107421875,0.7220000624656677,-0.8334109783172607,0.40329551696777344
1773522546016398000,4.586398193359375,0.5864344239234924,-0.7079949975013733,0.3304094970226288
1773522546026436000,4.59643603515625,0.4582069516181946,-0.3454165756702423,0.2820454239845276
1773522546036474000,4.60647412109375,0.33903810381889343,-0.05202798917889595,0.2288658767938614
1773522546046512000,4.61651220703125,0.323460191488266,-0.032677993178367615,0.14328253269195557
1773522546056550100,4.626550048828125,0.42408251762390137,-0.43634524941444397,-0.0584016852080822
1773522546066588200,4.636588134765625,0.5205227732658386,-1.100197196006775,-0.31071996688842773
1773522546076626200,4.646626220703125,0.5149984359741211,-1.7830760478973389,-0.5164967775344849
1773522546086664200,4.656664306640625,0.40426450967788696,-2.3162941932678223,-0.6227798461914062
1773522546096702200,4.6667021484375,0.2248588651418686,-2.5772836208343506,-0.6261199116706848
1773522546106740200,4.676740234375,0.025424852967262268,-2.4749855995178223,-0.5554888844490051
1773522546116778200,4.6867783203125,-0.12993380427360535,-2.037031412124634,-0.4386988878250122
1773522546126816300,4.696816162109375,-0.2285464107990265,-1.4026603698730469,-0.264698326587677
1773522546136854300,4.706854248046875,-0.2337903082370758,-0.7414329051971436,-0.05300993472337723
1773522546146892000,4.71689208984375,-0.20410485565662384,-0.1727263480424881,0.14992719888687134
1773522546156930300,4.726930419921875,-0.327825129032135,0.11551510542631149,0.26336199045181274
1773522546166968000,4.736968017578125,-0.5534018278121948,0.016227401793003082,0.24055494368076324
1773522546177006300,4.74700634765625,-0.7239985466003418,-0.4725266396999359,0.08466638624668121
1773522546187044000,4.757044189453125,-0.7447283267974854,-1.1665935516357422,-0.08728700131177902
1773522546197082000,4.76708203125,-0.5855091214179993,-1.8306220769882202,-0.13405248522758484
1773522546207120100,4.7771201171875,-0.3120672106742859,-2.2734546661376953,0.020453475415706635
1773522546217158100,4.787158203125,-0.052922435104846954,-2.4185595512390137,0.344950407743454
1773522546227196200,4.797196044921875,0.07818764448165894,-2.2811756134033203,0.7297148704528809
1773522546237234200,4.807234130859375,0.0620214119553566,-1.9652780294418335,1.0269912481307983
1773522546247272200,4.817272216796875,-0.038469504565000534,-1.6669584512710571,1.1290782690048218
1773522546257310200,4.827310302734375,-0.1390811949968338,-1.5280224084854126,0.9976645708084106
1773522546267348000,4.837347900390625,-0.11031800508499146,-1.5387818813323975,0.7087331414222717
1773522546277386200,4.84738623046875,0.12697553634643555,-1.6161715984344482,0.39808952808380127
1773522546287424000,4.857424072265625,0.41502970457077026,-1.6277257204055786,0.14046253263950348
1773522546297462300,4.867462158203125,0.5944008827209473,-1.5108013153076172,-0.0759899839758873
1773522546307500000,4.8775,0.6517413854598999,-1.2954682111740112,-0.2403930425643921
1773522546317538300,4.887538330078125,0.6570274233818054,-1.017534852027893,-0.33530494570732117
1773522546327576000,4.897576171875,0.6517082452774048,-0.7026522755622864,-0.3652135729789734
1773522546337614000,4.907614013671875,0.6512172222137451,-0.41986826062202454,-0.3866933584213257
1773522546347652000,4.917652099609375,0.6332778930664062,-0.2450157254934311,-0.4321843981742859
1773522546357690000,4.927690185546875,0.5923932194709778,-0.23300102353096008,-0.4749366343021393
1773522546367728000,4.93772802734375,0.5373334288597107,-0.3147137463092804,-0.47008487582206726
1773522546377766100,4.94776611328125,0.45057642459869385,-0.42574191093444824,-0.41913580894470215
1773522546387804200,4.95780419921875,0.3528834283351898,-0.530896008014679,-0.356830358505249
1773522546397842200,4.96784228515625,0.27687525749206543,-0.6267725229263306,-0.2918646037578583
1773522546407880200,4.977880126953125,0.1594034880399704,-0.6838824152946472,-0.20954068005084991
1773522546417918200,4.987918212890625,0.024965599179267883,-0.6884143352508545,-0.10849259048700333
1773522546427956200,4.997956298828125,-0.0945482850074768,-0.6937404274940491,0.013803492300212383
1773522546437994200,5.007994140625,-0.15277011692523956,-0.7508110404014587,0.12645523250102997
1773522546448032300,5.0180322265625,-0.15696433186531067,-0.8298906683921814,0.21563437581062317
1773522546458070300,5.0280703125,-0.146770641207695,-0.8731094002723694,0.296597957611084
1773522546468108300,5.0381083984375,-0.12762944400310516,-0.8924146294593811,0.37193480134010315
1773522546478146000,5.04814599609375,-0.09095188230276108,-0.91123366355896,0.42671212553977966
1773522546488184300,5.058184326171875,-0.05364019051194191,-0.9359486103057861,0.43503931164741516
1773522546498222000,5.06822216796875,-0.003109321929514408,-0.9611968994140625,0.40166985988616943
1773522546508260400,5.07826025390625,0.05534759536385536,-0.9533360600471497,0.3194192051887512
1773522546518298000,5.088298095703125,0.127577543258667,-0.8917003273963928,0.22881799936294556
1773522546528336100,5.098336181640625,0.19823840260505676,-0.7871062755584717,0.14130039513111115
1773522546538374100,5.1083740234375,0.25672173500061035,-0.6377911567687988,0.0768466591835022
1773522546548412200,5.118412109375,0.304530531167984,-0.4410304129123688,0.046505264937877655
1773522546558450200,5.1284501953125,0.35348308086395264,-0.21203365921974182,0.043275848031044006
1773522546568488200,5.13848828125,0.416665256023407,0.02643030509352684,0.0843425840139389
1773522546578526200,5.148526123046875,0.5001430511474609,0.260623037815094,0.17730969190597534
1773522546588564200,5.158564208984375,0.5620887279510498,0.47932714223861694,0.3257446885108948
1773522546598602000,5.16860205078125,0.5467253923416138,0.6794434189796448,0.5552177429199219
1773522546608640300,5.17864013671875,0.420121967792511,0.8916099667549133,0.8663345575332642
1773522546618678000,5.188677978515625,0.18834401667118073,1.167302131652832,1.2571929693222046
1773522546628716300,5.19871630859375,-0.06729201227426529,1.5116994380950928,1.6557683944702148
1773522546638754000,5.208754150390625,-0.2664840817451477,1.8859940767288208,2.017451763153076
1773522546648792800,5.218792724609375,-0.4069586396217346,2.248330593109131,2.33127498626709
1773522546658830600,5.22883056640625,-0.5071741938591003,2.518369674682617,2.6149485111236572
1773522546668868900,5.238868896484375,-0.5892568230628967,2.647902250289917,2.9174270629882812
1773522546678906600,5.24890673828125,-0.6607059836387634,2.521181583404541,3.2648305892944336
1773522546688945000,5.25894482421875,-0.747031569480896,2.0895755290985107,3.589513063430786
1773522546698982700,5.268982666015625,-0.7996007800102234,1.2786067724227905,3.784655809402466
1773522546709020700,5.279020751953125,-0.848724901676178,0.2241065949201584,3.815706491470337
1773522546719058700,5.28905859375,-0.9178893566131592,-0.7077589631080627,3.635820150375366
1773522546729096700,5.2990966796875,-0.8782351613044739,-1.0400221347808838,3.291499614715576
1773522546739134700,5.309134765625,-0.7541356086730957,-0.5775695443153381,2.871044635772705
1773522546749172700,5.3191728515625,-0.5837050080299377,0.33904656767845154,2.3792977333068848
1773522546759210500,5.32921044921875,-0.3686540722846985,1.1393940448760986,1.8225626945495605
1773522546769248800,5.339248779296875,-0.09075905382633209,1.360842227935791,1.2949888706207275
1773522546779286500,5.34928662109375,0.2125014364719391,1.059726357460022,0.8609743714332581
1773522546789324800,5.35932470703125,0.445435106754303,0.5913130044937134,0.5244683027267456
1773522546799362600,5.369362548828125,0.53535395860672,0.2456178367137909,0.29535749554634094
1773522546809400800,5.37940087890625,0.502321720123291,0.05626096576452255,0.18884943425655365
1773522546819438600,5.3894384765625,0.3978104889392853,-0.025720400735735893,0.17144504189491272
1773522546829476600,5.3994765625,0.2625780999660492,-0.1246483102440834,0.22130393981933594
1773522546839514600,5.4095146484375,0.10694420337677002,-0.34556975960731506,0.30732908844947815
1773522546849552600,5.419552734375,-0.018052324652671814,-0.6811684966087341,0.3863370716571808
1773522546859590700,5.429590576171875,-0.07671908289194107,-1.0240586996078491,0.40904372930526733
1773522546869628700,5.439628662109375,-0.07245242595672607,-1.3202283382415771,0.3579818904399872
1773522546879666700,5.449666748046875,-0.034340910613536835,-1.5160963535308838,0.25919780135154724
1773522546889704700,5.45970458984375,0.03831438720226288,-1.620168685913086,0.14371144771575928
1773522546899742700,5.46974267578125,0.12863144278526306,-1.6442774534225464,0.037989962846040726
1773522546909780700,5.47978076171875,0.2009996473789215,-1.6142961978912354,-0.07169658690690994
1773522546919818800,5.48981884765625,0.23762425780296326,-1.576128363609314,-0.2061508744955063
1773522546929856800,5.499856689453125,0.2451828420162201,-1.5623129606246948,-0.3729025721549988
1773522546939894800,5.509894775390625,0.2130834013223648,-1.6009914875030518,-0.5309969782829285
1773522546949932800,5.519932861328125,0.15472182631492615,-1.687261700630188,-0.6653051972389221
1773522546959970800,5.529970703125,0.10072275996208191,-1.8201907873153687,-0.7752305269241333
1773522546970008600,5.540008544921875,0.08330541849136353,-1.9931974411010742,-0.8731626868247986
1773522546980046800,5.550046875,0.10613448917865753,-2.1592018604278564,-0.9149878025054932
1773522546990084600,5.560084716796875,0.135536327958107,-2.2918198108673096,-0.8580880165100098
1773522547000123000,5.570122802734375,0.12895642220973969,-2.3943932056427,-0.7250515222549438
1773522547010160600,5.58016064453125,0.06850399076938629,-2.522979974746704,-0.5620218515396118
1773522547020198700,5.59019873046875,-0.02977616712450981,-2.644505500793457,-0.3825736343860626
1773522547030237700,5.60023779296875,-0.1443573385477066,-2.6192338466644287,-0.14248432219028473
1773522547040274700,5.610274658203125,-0.20996323227882385,-2.3933777809143066,0.15649470686912537
1773522547050313700,5.620313720703125,-0.08910898119211197,-2.07637882232666,0.45636850595474243
1773522547060351500,5.6303515625,0.12499155849218369,-1.8059396743774414,0.6636057496070862
1773522547070389800,5.6403896484375,0.32461652159690857,-1.534432291984558,0.7555031776428223
1773522547080427500,5.650427490234375,0.5091120004653931,-1.2349802255630493,0.8032341003417969
1773522547090465800,5.6604658203125,0.6175063848495483,-0.9574418067932129,0.8260968327522278
1773522547100503800,5.67050390625,0.6461469531059265,-0.7718604803085327,0.8061351180076599
1773522547110541600,5.68054150390625,0.6237689852714539,-0.6643071174621582,0.7189823985099792
1773522547120579800,5.690579833984375,0.5652617812156677,-0.5195985436439514,0.5878006219863892
1773522547130617600,5.70061767578125,0.4561411142349243,-0.3698047697544098,0.47103726863861084
1773522547140655900,5.71065576171875,0.24770009517669678,-0.4871094822883606,0.3933018147945404
1773522547150693600,5.720693603515625,-0.022127918899059296,-1.0897141695022583,0.40174803137779236
1773522547160732000,5.73073193359375,-0.3146721124649048,-1.8640697002410889,0.5059396624565125
1773522547170769700,5.740769775390625,-0.5444126725196838,-2.2036495208740234,0.725269615650177
1773522547180807700,5.7508076171875,-0.6525598764419556,-1.8691902160644531,1.1104068756103516
1773522547190845700,5.760845703125,-0.5955463647842407,-1.0050495862960815,1.4594340324401855
1773522547200883700,5.7708837890625,-0.4000982344150543,0.0616459995508194,1.5279345512390137
1773522547210921700,5.780921630859375,-0.1711883842945099,0.8677009344100952,1.2619491815567017
1773522547220959700,5.790959716796875,0.08852792531251907,1.026559829711914,0.8499560356140137
1773522547230997800,5.800997802734375,0.3566800057888031,0.5292866826057434,0.49903470277786255
1773522547241035800,5.811035888671875,0.5753592848777771,-0.09659894555807114,0.370635062456131
1773522547251073500,5.821073486328125,0.6191514730453491,-0.14960676431655884,0.4985104501247406
1773522547261111800,5.83111181640625,0.4794487953186035,0.43281450867652893,0.815945565700531
1773522547271149600,5.841149658203125,0.2377922534942627,1.0595529079437256,1.149688720703125
1773522547281187800,5.851187744140625,0.05092231184244156,1.1645123958587646,1.3465365171432495
1773522547291225600,5.8612255859375,-0.03096456080675125,0.8888211846351624,1.4054254293441772
1773522547301264000,5.871263916015625,0.046317242085933685,0.8395509719848633,1.2748091220855713
1773522547311301600,5.881301513671875,0.22828170657157898,1.1444298028945923,0.9919999837875366
1773522547321339600,5.891339599609375,0.3998167812824249,1.5161279439926147,0.7195149660110474
1773522547331377700,5.901377685546875,0.40589651465415955,1.7028610706329346,0.5974995493888855
1773522547341415700,5.911415771484375,0.2536904811859131,1.567330241203308,0.6485925316810608
1773522547351453700,5.92145361328125,0.0596376433968544,1.188380241394043,0.8607996106147766
1773522547361491700,5.93149169921875,-0.0817912369966507,0.6197379231452942,1.166687250137329
1773522547371529700,5.94152978515625,-0.135114386677742,0.08299507945775986,1.4518686532974243
1773522547381567700,5.951567626953125,-0.1331041157245636,-0.13976547122001648,1.646609902381897
1773522547391605500,5.96160546875,-0.11124010384082794,-0.16373924911022186,1.7071410417556763
1773522547401643800,5.971643798828125,-0.07684031128883362,-0.11874987185001373,1.6388673782348633
1773522547411681500,5.981681640625,-0.0035264138132333755,-0.022136781364679337,1.5427840948104858
1773522547421719800,5.9917197265625,0.08310845494270325,0.12557026743888855,1.4486002922058105
1773522547431757600,6.001757568359375,0.10914645344018936,0.2871090769767761,1.3781322240829468
1773522547441795600,6.011795654296875,0.0510132871568203,0.41718724370002747,1.324851393699646
1773522547451833600,6.02183349609375,-0.05089443549513817,0.4561852216720581,1.2181304693222046
1773522547461871600,6.03187158203125,-0.18005695939064026,0.4893351197242737,1.087921142578125
1773522547471910000,6.041909912109375,-0.3186638355255127,0.6111281514167786,1.0068068504333496
1773522547481947600,6.05194775390625,-0.4165590703487396,0.7928877472877502,0.94671630859375
1773522547491986000,6.06198583984375,-0.4715765118598938,0.8902118802070618,0.8943828344345093
1773522547502023700,6.072023681640625,-0.5200425982475281,0.9364768862724304,0.873128354549408
1773522547512061700,6.082061767578125,-0.5797134041786194,0.9328355193138123,0.862454891204834
1773522547522099700,6.092099609375,-0.5981513261795044,0.8572720289230347,0.8272815942764282
1773522547532137700,6.1021376953125,-0.5701537728309631,0.7764552235603333,0.8489099740982056
1773522547542175700,6.11217578125,-0.4868529140949249,0.6438519954681396,0.9485853910446167
1773522547552213800,6.1222138671875,-0.37034016847610474,0.47773200273513794,0.9953582286834717
1773522547562251800,6.132251708984375,-0.3493204116821289,0.34908369183540344,0.9387726187705994
1773522547572289800,6.142289794921875,-0.3845425844192505,0.3342650532722473,0.8832281231880188
1773522547582327600,6.15232763671875,-0.4005201458930969,0.3307282626628876,0.8899821043014526
1773522547592365800,6.16236572265625,-0.4017595946788788,0.2529352009296417,0.9414639472961426
1773522547602403600,6.172403564453125,-0.3948281407356262,0.1373734474182129,1.0090848207473755
1773522547612441900,6.18244189453125,-0.405387282371521,0.004405284766107798,1.0538182258605957
1773522547622479600,6.192479736328125,-0.40800613164901733,-0.09312719106674194,1.0366947650909424
1773522547632518000,6.202517822265625,-0.42067214846611023,-0.16063272953033447,1.0131628513336182
1773522547642555600,6.2125556640625,-0.33090999722480774,-0.2226344645023346,0.9998155236244202
1773522547652597000,6.222596923828125,-0.2490449696779251,-0.2066301852464676,1.0015242099761963
1773522547662635000,6.232635009765625,-0.2452787160873413,-0.21710920333862305,0.9782894849777222
1773522547672673000,6.242673095703125,-0.257741779088974,-0.2709290385246277,0.9632575511932373
1773522547682711000,6.2527109375,-0.2557036280632019,-0.27986258268356323,0.9027510285377502
1773522547692749000,6.2627490234375,-0.28745409846305847,-0.2416749745607376,0.8408445119857788
1773522547702788000,6.2727880859375,-0.3751649856567383,-0.23395082354545593,0.8211247324943542
1773522547712826000,6.282826171875,-0.40523815155029297,-0.346809983253479,0.8089327812194824
1773522547722864000,6.292864013671875,-0.28782182931900024,-0.41839924454689026,0.7673078775405884
1773522547732902100,6.302902099609375,-0.16764751076698303,-0.3693406283855438,0.6878665685653687
1773522547742940000,6.31293994140625,-0.10797322541475296,-0.2681131660938263,0.551186203956604
1773522547752978200,6.322978271484375,-0.08286494016647339,-0.23286117613315582,0.5050895810127258
1773522547763016000,6.333015869140625,-0.03788381442427635,-0.187292218208313,0.4481676518917084
1773522547773054200,6.34305419921875,0.020167235285043716,-0.21431025862693787,0.4348670244216919
1773522547783092000,6.353092041015625,0.0969451516866684,-0.25522997975349426,0.4092652201652527
1773522547793130000,6.3631298828125,0.15648943185806274,-0.25132685899734497,0.3462846279144287
1773522547803168000,6.37316796875,0.18947644531726837,-0.20845425128936768,0.30217427015304565
1773522547813206000,6.3832060546875,0.19200938940048218,-0.21774283051490784,0.29728177189826965
1773522547823244000,6.393244140625,0.18473421037197113,-0.26155126094818115,0.3021920621395111
1773522547833282000,6.403281982421875,0.17567387223243713,-0.2901112735271454,0.30254679918289185
1773522547843320000,6.413320068359375,0.18573573231697083,-0.3365195393562317,0.3285262882709503
1773522547853358000,6.423358154296875,0.21316523849964142,-0.3764248788356781,0.3259829878807068
1773522547863395800,6.433395751953125,0.21631836891174316,-0.3667488396167755,0.294058620929718
1773522547873434000,6.44343408203125,0.19964458048343658,-0.38537871837615967,0.2644517421722412
1773522547883472000,6.453471923828125,0.24507606029510498,-0.40437188744544983,0.2437366247177124
1773522547893510100,6.46351025390625,0.2967861294746399,-0.3943312168121338,0.23480358719825745
1773522547903548000,6.4735478515625,0.3235718011856079,-0.37660372257232666,0.22971472144126892
1773522547913586200,6.483586181640625,0.31316444277763367,-0.3690235912799835,0.23152859508991241
1773522547923624000,6.4936240234375,0.2721578776836395,-0.3124109208583832,0.21954897046089172
1773522547933662000,6.503661865234375,0.2323710173368454,-0.2656596601009369,0.19844794273376465
1773522547943700000,6.513699951171875,0.20284178853034973,-0.19544602930545807,0.17808318138122559
1773522547953738000,6.523738037109375,0.1869184821844101,-0.15000158548355103,0.16775330901145935
1773522547963776000,6.53377587890625,0.18442519009113312,-0.14980380237102509,0.170267254114151
1773522547973814000,6.54381396484375,0.172313392162323,-0.13712768256664276,0.1625550091266632
1773522547983852000,6.55385205078125,0.1605062335729599,-0.12185894697904587,0.13054212927818298
1773522547993890000,6.56389013671875,0.1522645503282547,-0.10099920630455017,0.0979844480752945
1773522548003928000,6.573927978515625,0.15017303824424744,-0.09037739038467407,0.07652537524700165
1773522548013966000,6.583966064453125,0.16873127222061157,-0.07629139721393585,0.04609476402401924
1773522548024004000,6.594004150390625,0.20404522120952606,-0.05632210522890091,0.015322782099246979
1773522548034042000,6.6040419921875,0.22664587199687958,-0.07950066030025482,-0.008455518633127213
1773522548044080000,6.614080078125,0.2439807653427124,-0.09766827523708344,-0.021285178139805794
1773522548054118000,6.624117919921875,0.2643004357814789,-0.11572770029306412,-0.010231727734208107
1773522548064156200,6.63415625,0.30057838559150696,-0.1448969691991806,-0.005519649479538202
1773522548074194000,6.64419384765625,0.3324258029460907,-0.16066235303878784,-0.024363378062844276
1773522548084232200,6.654232177734375,0.35394486784935,-0.12486797571182251,-0.03155054152011871
1773522548094270000,6.66427001953125,0.3744772970676422,-0.06313057243824005,-0.0026464553084224463
1773522548104308200,6.67430810546875,0.3801725208759308,-0.012828233651816845,0.037037551403045654
1773522548114346000,6.684345947265625,0.3642532229423523,-0.038126666098833084,0.07085330784320831
1773522548124384000,6.694384033203125,0.3431819677352905,-0.028213808313012123,0.1087404191493988
1773522548134422000,6.704422119140625,0.34810349345207214,-0.01531984657049179,0.13561198115348816
1773522548144460000,6.7144599609375,0.34038448333740234,-0.06063404306769371,0.14010415971279144
1773522548154499000,6.7244990234375,0.3280383348464966,-0.12240847200155258,0.13099747896194458
1773522548164536800,6.734536865234375,0.33536791801452637,-0.15602511167526245,0.11591672152280807
1773522548174575000,6.7445751953125,0.3549823760986328,-0.16505110263824463,0.11625121533870697
1773522548184612900,6.75461279296875,0.37226927280426025,-0.17670106887817383,0.12195834517478943
1773522548194651100,6.764651123046875,0.3784683048725128,-0.16252852976322174,0.1178557500243187
1773522548204689200,6.774689208984375,0.36939266324043274,-0.15027020871639252,0.1280890703201294
1773522548214727000,6.784726806640625,0.34631770849227905,-0.19079314172267914,0.11397271603345871
1773522548224765200,6.79476513671875,0.30883488059043884,-0.2194993644952774,0.12422062456607819
1773522548234803000,6.804802978515625,0.2887229323387146,-0.2071513533592224,0.15035982429981232
1773522548244841200,6.81484130859375,0.2585570216178894,-0.20951886475086212,0.17190229892730713
1773522548254879000,6.82487890625,0.22479692101478577,-0.24239052832126617,0.20451031625270844
1773522548264917200,6.834917236328125,0.20339912176132202,-0.27952462434768677,0.23568056523799896
1773522548274955000,6.844955078125,0.16826537251472473,-0.32035937905311584,0.24122978746891022
1773522548284993000,6.854992919921875,0.1575450599193573,-0.29533207416534424,0.2443944215774536
1773522548295031000,6.865031005859375,0.16792473196983337,-0.2661843001842499,0.2461872696876526
1773522548305069000,6.875069091796875,0.17856793105602264,-0.2527601718902588,0.21204671263694763
1773522548315107000,6.885107177734375,0.16417434811592102,-0.20555990934371948,0.17360025644302368
1773522548325145000,6.89514501953125,0.1304912269115448,-0.14912346005439758,0.14814673364162445
1773522548335183000,6.90518310546875,0.10113492608070374,-0.10441432893276215,0.13507354259490967
1773522548345221000,6.91522119140625,0.089415542781353,-0.07181009650230408,0.13497988879680634
1773522548355259000,6.9252587890625,0.09143421798944473,0.00555419921875,0.13821563124656677
1773522548365297200,6.935297119140625,0.08468163013458252,0.0560968853533268,0.1327822208404541
1773522548375335000,6.9453349609375,0.05874723196029663,0.08682896196842194,0.13359129428863525
1773522548385373200,6.955373291015625,0.041676584631204605,0.1130799874663353,0.15474773943424225
1773522548395411000,6.965410888671875,0.03905177116394043,0.0928088054060936,0.17041857540607452
1773522548405449200,6.97544921875,0.07236570119857788,0.12665680050849915,0.18372368812561035
1773522548415487000,6.985487060546875,0.12459535151720047,0.15882647037506104,0.1944546401500702
1773522548425525000,6.99552490234375,0.13482046127319336,0.1716201901435852,0.18118910491466522
1773522548435563000,7.00556298828125,0.11128396540880203,0.22124473750591278,0.16518697142601013
1773522548445601000,7.01560107421875,0.0908224880695343,0.23965558409690857,0.1679033488035202
1773522548455639000,7.02563916015625,0.09625586867332458,0.22042275965213776,0.1983717828989029
1773522548465677000,7.035677001953125,0.11476469039916992,0.2085796296596527,0.217553049325943
1773522548475714800,7.04571484375,0.11734902858734131,0.22759807109832764,0.1986885368824005
1773522548485753000,7.055753173828125,0.12147586047649384,0.22608299553394318,0.17956490814685822
1773522548495790800,7.065790771484375,0.14182907342910767,0.18421463668346405,0.16173584759235382
1773522548505829000,7.0758291015625,0.14716903865337372,0.1588873714208603,0.1370902955532074
1773522548515867000,7.085866943359375,0.13512542843818665,0.14400643110275269,0.12321896106004715
1773522548525905200,7.0959052734375,0.14313404262065887,0.1046670451760292,0.1368313580751419
1773522548535944000,7.10594384765625,0.16240175068378448,0.02659168653190136,0.1642957329750061
1773522548545982200,7.115982177734375,0.16278380155563354,-0.04885247349739075,0.17628556489944458
1773522548556020000,7.12602001953125,0.16489754617214203,-0.05723903328180313,0.17406342923641205
1773522548566058000,7.13605810546875,0.17697057127952576,-0.058918267488479614,0.18925565481185913
1773522548576096000,7.146095947265625,0.1840876042842865,-0.1293618083000183,0.1863269805908203
1773522548586134000,7.156134033203125,0.16630733013153076,-0.1545109748840332,0.1884596198797226
1773522548596172000,7.166172119140625,0.15998631715774536,-0.18956802785396576,0.20117861032485962
1773522548606210000,7.1762099609375,0.15492960810661316,-0.22567692399024963,0.1864173263311386
1773522548616248000,7.186248046875,0.1488858312368393,-0.2443305104970932,0.1405411809682846
1773522548626286000,7.1962861328125,0.14530974626541138,-0.2288874387741089,0.09622178971767426
1773522548636323800,7.20632373046875,0.1371157318353653,-0.24619291722774506,0.08789834380149841
1773522548646362000,7.216362060546875,0.13340391218662262,-0.22137269377708435,0.09401435405015945
1773522548656400000,7.22639990234375,0.11666461080312729,-0.2323712855577469,0.09448467195034027
1773522548666438100,7.236438232421875,0.08293531835079193,-0.22957180440425873,0.10081454366445541
1773522548676476000,7.246475830078125,0.04652484133839607,-0.1902472972869873,0.08593013882637024
1773522548686514200,7.25651416015625,-0.003932349383831024,-0.181922048330307,0.10628852248191833
1773522548696552000,7.266552001953125,-0.057116471230983734,-0.13230974972248077,0.1811734139919281
1773522548706590200,7.276590087890625,-0.0992216169834137,-0.1133602038025856,0.23453284800052643
1773522548716628000,7.2866279296875,-0.13137474656105042,-0.14093084633350372,0.2508777379989624
1773522548726666000,7.296666015625,-0.1589408665895462,-0.15456920862197876,0.2604740262031555
1773522548736704000,7.3067041015625,-0.17260022461414337,-0.12112896889448166,0.2618197202682495
1773522548746742000,7.316741943359375,-0.1781872659921646,-0.07463736832141876,0.267873078584671
1773522548756780000,7.326780029296875,-0.15827615559101105,-0.02503519132733345,0.2925904095172882
1773522548766818000,7.336818115234375,-0.14872226119041443,-0.015964865684509277,0.295784056186676
1773522548776856000,7.34685595703125,-0.16540111601352692,0.03070969693362713,0.29186761379241943
1773522548786894000,7.35689404296875,-0.22528284788131714,0.1248059868812561,0.3005724251270294
1773522548796932000,7.36693212890625,-0.20152077078819275,0.10269615799188614,0.2720898985862732
1773522548806970000,7.37697021484375,-0.17779818177223206,0.06338346749544144,0.25878292322158813
1773522548817008000,7.387008056640625,-0.18205124139785767,0.03360133618116379,0.2976938486099243
1773522548827046100,7.397046142578125,-0.23492857813835144,-0.020054491236805916,0.3256273567676544
1773522548837084200,7.407084228515625,-0.1313726156949997,-0.07379734516143799,0.328421026468277
1773522548847122200,7.4171220703125,-0.010388314723968506,0.008618734776973724,0.2988795340061188
1773522548857160200,7.42716015625,0.04614153876900673,0.04522494971752167,0.257057249546051
1773522548867198000,7.437197998046875,0.08960309624671936,0.02821916528046131,0.21636582911014557
1773522548877236200,7.447236328125,0.12559571862220764,-0.03227134421467781,0.17223139107227325
1773522548887274000,7.45727392578125,0.1625303030014038,-0.06346681714057922,0.1382039189338684
1773522548897313000,7.46731298828125,0.20077835023403168,-0.06368040293455124,0.10944577306509018
1773522548907351000,7.47735107421875,0.23985245823860168,-0.05935683101415634,0.08893745392560959
1773522548917389000,7.48738916015625,0.2721171975135803,-0.06023407727479935,0.06471040844917297
1773522548927427000,7.497427001953125,0.29509255290031433,-0.06857605278491974,0.047472864389419556
1773522548937465000,7.507465087890625,0.30669596791267395,-0.08197388052940369,0.046688031405210495
1773522548947503000,7.517503173828125,0.30158868432044983,-0.15100573003292084,0.05585608258843422
1773522548957540900,7.527540771484375,0.3112562298774719,-0.2154872566461563,0.12985467910766602
1773522548967579100,7.5375791015625,0.2641952633857727,-0.13616490364074707,0.1704186648130417
1773522548977617200,7.5476171875,0.1612078845500946,-0.13465355336666107,0.1674012988805771
1773522548987655200,7.5576552734375,0.12252229452133179,-0.1958206444978714,0.21436724066734314
1773522548997693200,7.567693115234375,0.1719883680343628,-0.37320396304130554,0.31891921162605286
1773522549007731000,7.57773095703125,0.14106285572052002,-0.3048963248729706,0.35343438386917114
1773522549017769200,7.587769287109375,0.0998230129480362,-0.31136566400527954,0.3081398606300354
1773522549027807000,7.597806884765625,0.047155559062957764,-0.375588983297348,0.28139540553092957
1773522549037845200,7.60784521484375,-0.028963975608348846,-0.3557702898979187,0.3057859539985657
1773522549047883000,7.617883056640625,-0.07559669017791748,-0.30444082617759705,0.3318394720554352
1773522549057921300,7.62792138671875,-0.10492421686649323,-0.30110254883766174,0.3168296217918396
1773522549067959000,7.637958984375,-0.10850076377391815,-0.23319761455059052,0.2919667661190033
1773522549077997000,7.6479970703125,-0.04770452901721001,-0.22177797555923462,0.31290534138679504
1773522549088035000,7.65803515625,0.026427675038576126,-0.23316504061222076,0.37299248576164246
1773522549098073000,7.668072998046875,0.03182270750403404,-0.18659062683582306,0.35150983929634094
1773522549108111000,7.678111083984375,-0.06827381253242493,-0.19214476644992828,0.3043646812438965
1773522549118149000,7.688149169921875,-0.15836216509342194,-0.14029435813426971,0.30162322521209717
1773522549128187100,7.698187255859375,-0.21191807091236115,-0.15049351751804352,0.30736029148101807
1773522549138225200,7.70822509765625,-0.1791239082813263,-0.1980929970741272,0.2955726087093353
1773522549148263000,7.718262939453125,-0.12563098967075348,-0.08566232770681381,0.2896372377872467
1773522549158301200,7.72830126953125,-0.039432723075151443,-0.023637300357222557,0.17881831526756287
1773522549168339000,7.7383388671875,-0.07874338328838348,-0.0044495537877082825,-0.0052123768255114555
1773522549178377200,7.748377197265625,-0.11757546663284302,0.23150944709777832,-0.06841158121824265
1773522549188415000,7.7584150390625,-0.07289731502532959,0.30745959281921387,-0.10339509695768356
1773522549198453200,7.768453369140625,-0.11080234497785568,0.2550906538963318,-0.130682110786438
1773522549208491000,7.778490966796875,-0.16029959917068481,0.2500796318054199,-0.1678510457277298
1773522549218529000,7.788529052734375,-0.23788787424564362,0.17388048768043518,-0.2564474940299988
1773522549228567000,7.798567138671875,-0.33015137910842896,0.18999114632606506,-0.3247371315956116
1773522549238605000,7.80860498046875,-0.4139578640460968,0.26108768582344055,-0.41838452219963074
1773522549248643000,7.81864306640625,-0.4299280643463135,0.23645122349262238,-0.5479190945625305
1773522549258681000,7.82868115234375,-0.3821890354156494,0.22301876544952393,-0.7387500405311584
1773522549268720000,7.83872021484375,-0.2436746060848236,0.35746410489082336,-0.7566628456115723
1773522549278758100,7.848758056640625,-0.277681827545166,0.3609626889228821,-0.8526601791381836
1773522549288796200,7.858796142578125,-0.4212246537208557,0.1934049129486084,-0.9932184219360352
1773522549298834200,7.868834228515625,-0.4455859363079071,0.2327834814786911,-0.9082814455032349
1773522549308872000,7.878871826171875,-0.5498179793357849,0.08300944417715073,-0.9644579291343689
1773522549318910200,7.88891015625,-0.5751752853393555,-0.02149992436170578,-0.9772224426269531
1773522549328948000,7.898947998046875,-0.5491611957550049,-0.15768110752105713,-0.9307733774185181
1773522549338986200,7.908986328125,-0.46502685546875,-0.247856006026268,-0.9878513216972351
1773522549349024000,7.91902392578125,-0.3868098855018616,-0.16044095158576965,-1.082648754119873
1773522549359062300,7.929062255859375,-0.3375624418258667,-0.054797347635030746,-1.2446317672729492
1773522549369100000,7.93910009765625,-0.3342302441596985,-0.0048900144174695015,-1.3911612033843994
1773522549379138000,7.949137939453125,-0.31081146001815796,0.048975881189107895,-1.459275245666504
1773522549389176000,7.959176025390625,-0.2469470202922821,0.09759816527366638,-1.445283055305481
1773522549399214000,7.969214111328125,-0.14588618278503418,0.08759187161922455,-1.4116898775100708
1773522549409252000,7.979252197265625,-0.0677189752459526,0.0405610091984272,-1.3655993938446045
1773522549419290000,7.9892900390625,-0.008548594079911709,0.0018812587950378656,-1.3498533964157104
1773522549429328000,7.999327880859375,0.002921505831182003,-0.015584281645715237,-1.361006259918213
1773522549439366100,8.0093662109375,-0.020511381328105927,-0.011474224738776684,-1.3893643617630005
1773522549449404000,8.01940380859375,-0.059827543795108795,-0.03963983431458473,-1.4280387163162231
1773522549459442200,8.029442138671875,-0.1603965014219284,0.03330894187092781,-1.4705758094787598
1773522549469480000,8.03947998046875,-0.1878000944852829,0.08835475146770477,-1.5150461196899414
1773522549479518200,8.049518310546874,-0.12769575417041779,0.07774684578180313,-1.5701900720596313
1773522549489556000,8.059555908203125,-0.0360487662255764,0.12234153598546982,-1.62612783908844
1773522549499594000,8.069593994140625,0.03215106204152107,0.20396049320697784,-1.6671090126037598
1773522549509632000,8.079632080078126,0.07715245336294174,0.3033351004123688,-1.6935014724731445
1773522549519670000,8.089669921875,0.1001720204949379,0.37256506085395813,-1.7109440565109253
1773522549529708000,8.0997080078125,0.12418881058692932,0.3974706828594208,-1.7078348398208618
1773522549539746000,8.10974609375,0.09660565853118896,0.4121239185333252,-1.687134861946106
1773522549549784000,8.1197841796875,0.048403333872556686,0.4361608326435089,-1.6606258153915405
1773522549559822000,8.129822021484374,0.00017295405268669128,0.4390043020248413,-1.6656177043914795
1773522549569860000,8.139860107421875,-0.02577742002904415,0.43273627758026123,-1.6938285827636719
1773522549579898000,8.149898193359375,-0.016296032816171646,0.4346175491809845,-1.7544535398483276
1773522549589936000,8.15993603515625,0.020734354853630066,0.4184530973434448,-1.8069050312042236
1773522549599974100,8.16997412109375,0.07765942066907883,0.335096150636673,-1.8402153253555298
1773522549610012200,8.18001220703125,0.1479332447052002,0.19484835863113403,-1.8443878889083862
1773522549620050200,8.19005029296875,0.47751328349113464,0.03652423247694969,-1.790307641029358
1773522549630089000,8.2000888671875,1.2060797214508057,-0.1069473847746849,-1.6642612218856812
1773522549640127200,8.210127197265624,2.031078815460205,-0.3063790202140808,-1.4619885683059692
1773522549650165000,8.2201650390625,2.859041452407837,-0.1497894525527954,-1.2696309089660645
1773522549660200000,8.230199951171874,5.287389755249023,2.1191468238830566,-1.3439600467681885
1773522549670238000,8.240238037109375,8.301051139831543,5.19948673248291,-2.2354283332824707
1773522549680276000,8.25027587890625,6.5169830322265625,4.009279727935791,-2.764431953430176
1773522549690314000,8.26031396484375,4.710963249206543,2.832953691482544,-2.98705792427063
1773522549700352000,8.27035205078125,3.068406820297241,1.991700291633606,-2.771308422088623
1773522549710389800,8.2803896484375,1.6547541618347168,1.560950756072998,-2.1722490787506104
1773522549720428000,8.290427978515625,0.4671095013618469,1.426891803741455,-1.3610553741455078
1773522549730465800,8.3004658203125,-0.5120400190353394,1.2390626668930054,-0.6410846710205078
1773522549740504000,8.310504150390624,-1.1593623161315918,0.793000340461731,-0.2086334228515625
1773522549750541800,8.320541748046875,-1.2600940465927124,0.08105359971523285,-0.07354532182216644
1773522549760580000,8.330580078125,-1.0008214712142944,-0.668951690196991,-0.17896761000156403
1773522549770617900,8.340617919921876,-0.6574518084526062,-1.1293160915374756,-0.3849104046821594
1773522549780655900,8.35065576171875,-0.3569177985191345,-1.2886801958084106,-0.5723439455032349
1773522549790694000,8.36069384765625,-0.16337580978870392,-1.4207308292388916,-0.7385013103485107
1773522549800732000,8.37073193359375,-0.09120120853185654,-1.657605767250061,-0.8576295971870422
1773522549810770000,8.38077001953125,-0.08004804700613022,-1.9182449579238892,-0.9097307920455933
1773522549820808000,8.390807861328126,-0.12861931324005127,-2.149034261703491,-0.8747925162315369
1773522549830846000,8.400845947265625,-0.17789962887763977,-2.3457677364349365,-0.7220277786254883
1773522549840884000,8.410884033203125,-0.14890100061893463,-2.475490093231201,-0.5120626091957092
1773522549850922000,8.420921875,-0.057023994624614716,-2.4826576709747314,-0.2842387557029724
1773522549860960000,8.4309599609375,0.07755352556705475,-2.3890702724456787,-0.12445840239524841
1773522549870998000,8.440998046875,0.2771735191345215,-2.3250844478607178,-0.07783866673707962
1773522549881036000,8.4510361328125,0.5319749116897583,-2.3605971336364746,-0.1376282274723053
1773522549891074000,8.461073974609375,0.7377195358276367,-2.4898359775543213,-0.17051038146018982
1773522549901111800,8.47111181640625,0.8007879853248596,-2.7081377506256104,-0.09758984297513962
1773522549911150000,8.481150146484374,0.7130354642868042,-2.9678921699523926,0.018125569447875023
1773522549921187800,8.491187744140625,0.5660481452941895,-3.204869270324707,0.10314831882715225
1773522549931226000,8.50122607421875,0.4885694086551666,-3.4353275299072266,0.07518889009952545
1773522549941264000,8.511263916015626,0.5078035593032837,-3.6592156887054443,-0.02542027458548546
1773522549951302100,8.52130224609375,0.5873045921325684,-3.786356210708618,-0.1351582109928131
1773522549961340000,8.53133984375,0.663534939289093,-3.761512517929077,-0.1474449634552002
1773522549971378000,8.5413779296875,0.7478542327880859,-3.6381030082702637,-0.05544201284646988
1773522549981416000,8.551416015625,0.853651762008667,-3.5195326805114746,0.06472061574459076
1773522549991454000,8.561453857421874,0.9929145574569702,-3.4232852458953857,0.17341521382331848
1773522550001492000,8.571491943359375,1.1187385320663452,-3.3002588748931885,0.23270969092845917
1773522550011530000,8.581530029296875,1.198346495628357,-3.1475515365600586,0.23784899711608887
1773522550021568000,8.591568115234375,1.2103668451309204,-3.019486665725708,0.2139497846364975
1773522550031606000,8.60160595703125,1.2023985385894775,-2.9178659915924072,0.15710267424583435
1773522550041643800,8.611643798828124,1.1752310991287231,-2.663350820541382,0.09565822035074234
1773522550051682000,8.62168212890625,1.1300064325332642,-2.3097896575927734,0.0209522545337677
1773522550061720800,8.631720947265626,1.1508285999298096,-2.1172971725463867,-0.1860475242137909
1773522550071759000,8.641759033203124,1.2453514337539673,-2.1855127811431885,-0.5099208354949951
1773522550081796900,8.651796875,1.3600529432296753,-2.4185025691986084,-0.8364629745483398
1773522550091835100,8.661835205078125,1.3786386251449585,-2.541283369064331,-0.9505266547203064
1773522550101873000,8.671872802734375,1.2115780115127563,-2.3477611541748047,-0.7874037623405457
1773522550111911200,8.6819111328125,0.9176292419433594,-1.8669991493225098,-0.4198095202445984
1773522550121949000,8.691948974609375,0.5723085999488831,-1.2885760068893433,0.03107457421720028
1773522550131987000,8.701987060546875,0.2138344943523407,-0.9084271788597107,0.3475031852722168
1773522550142025000,8.71202490234375,-0.07869111001491547,-1.0205790996551514,0.28846436738967896
1773522550152063000,8.72206298828125,-0.2510574162006378,-1.133074402809143,0.08813197165727615
1773522550162101000,8.73210107421875,-0.2541613280773163,-0.9163222908973694,-0.00557880662381649
1773522550172139000,8.742138916015625,-0.09952069818973541,-0.3635901212692261,0.07927293330430984
1773522550182177000,8.752177001953125,0.03612128272652626,0.2713588774204254,0.22730474174022675
1773522550192215000,8.762215087890626,0.002434159629046917,0.8132572770118713,0.29606595635414124
1773522550202252800,8.772252685546874,-0.10407097637653351,1.1993125677108765,0.2776019871234894
1773522550212291000,8.782291015625,-0.18620911240577698,1.424075722694397,0.19850200414657593
1773522550222328800,8.792328857421875,-0.20423391461372375,1.5691770315170288,0.11325341463088989
1773522550232367000,8.8023671875,-0.20051050186157227,1.7145570516586304,0.06636218726634979
1773522550242404900,8.81240478515625,-0.23559552431106567,1.8903976678848267,0.05310230702161789
1773522550252443000,8.82244287109375,-0.2740062475204468,2.0558345317840576,0.11999209970235825
1773522550262481000,8.83248095703125,-0.21004243195056915,2.118168592453003,0.2895694375038147
1773522550272519000,8.842518798828126,-0.07100910693407059,2.072904586791992,0.5484415888786316
1773522550282557000,8.852556884765624,0.07233607023954391,1.9097838401794434,0.8507737517356873
1773522550292595000,8.862594970703125,0.189804345369339,1.6967320442199707,1.175229787826538
1773522550302633000,8.872633056640625,0.2738414704799652,1.4556187391281128,1.4410147666931152
1773522550312671000,8.8826708984375,0.3198857307434082,1.1343268156051636,1.5739940404891968
1773522550322708700,8.892708740234376,0.3153921663761139,0.6776384115219116,1.4185664653778076
1773522550332747000,8.9027470703125,0.15054574608802795,0.04788428917527199,0.8503168225288391
1773522550342784800,8.91278466796875,-0.052835613489151,-0.529630184173584,0.15600994229316711
1773522550352823000,8.922822998046875,-0.06321343779563904,-0.7050462961196899,-0.2158091813325882
1773522550362860800,8.93286083984375,0.2376933991909027,-0.43467849493026733,-0.029004953801631927
1773522550372899000,8.942899169921875,0.599115788936615,0.08190685510635376,0.5806456208229065
1773522550382936800,8.952936767578125,0.8035871386528015,0.4784161150455475,1.2009062767028809
1773522550392974800,8.962974853515625,0.8492873907089233,0.48322561383247375,1.4090967178344727
1773522550403012900,8.973012939453126,0.7686436772346497,0.14909905195236206,1.2260382175445557
1773522550413051000,8.98305078125,0.5939621925354004,-0.2781866788864136,0.9919285774230957
1773522550423089200,8.993089111328125,0.3915412127971649,-0.6296373605728149,0.8992093205451965
1773522550433127000,9.003126953125,0.26991596817970276,-0.9035463929176331,0.9220415353775024
1773522550443165200,9.013165283203126,0.29376885294914246,-1.0713415145874023,0.9836950302124023
1773522550453203000,9.023202880859374,0.4246092438697815,-1.164373755455017,0.9883446097373962
1773522550463241000,9.033240966796875,0.6122867465019226,-1.2917892932891846,0.8714517951011658
1773522550473279000,9.043279052734375,0.7969852685928345,-1.542855143547058,0.6612484455108643
1773522550483317000,9.05331689453125,0.9027798771858215,-1.8806171417236328,0.47135064005851746
1773522550493355000,9.06335498046875,0.8209386467933655,-2.0858187675476074,0.42399150133132935
1773522550503393000,9.07339306640625,0.5385546684265137,-1.9054442644119263,0.5534555315971375
1773522550513430800,9.0834306640625,0.1462477296590805,-1.3901360034942627,0.7605422139167786
1773522550523469000,9.093468994140625,-0.3161899447441101,-0.7067491412162781,0.9434696435928345
1773522550533506800,9.1035068359375,-0.7989786863327026,-0.1090702936053276,1.0544999837875366
1773522550543545000,9.113545166015625,-1.2480882406234741,0.21495331823825836,1.137329339981079
1773522550553582800,9.123582763671875,-1.6207562685012817,0.22573818266391754,1.2442011833190918
1773522550563621000,9.13362109375,-1.9727611541748047,0.1740664690732956,1.3674581050872803
1773522550573659000,9.143658935546876,-2.3301658630371094,0.24217255413532257,1.4391906261444092
1773522550583697000,9.15369677734375,-2.7243173122406006,0.4634767174720764,1.374150037765503
1773522550593735000,9.16373486328125,-3.1631014347076416,0.7506901025772095,1.1674423217773438
1773522550603773000,9.17377294921875,-3.6357178688049316,0.9123356938362122,0.8488093018531799
1773522550613811000,9.18381103515625,-4.119422435760498,0.6951080560684204,0.44277921319007874
1773522550623849000,9.193848876953124,-4.3657331466674805,0.20945262908935547,-0.046303920447826385
1773522550633887000,9.203886962890625,-4.163928985595703,-0.057865992188453674,-0.5431408882141113
1773522550643925000,9.213925048828125,-3.3577423095703125,0.1809106320142746,-1.100083827972412
1773522550653965800,9.2239658203125,-2.0119681358337402,0.6419299840927124,-1.6408114433288574
1773522550664003600,9.234003662109375,-0.558061957359314,1.1626367568969727,-2.083484411239624
1773522550674041900,9.244041748046875,0.175493061542511,1.3250371217727661,-2.5061075687408447
1773522550684079600,9.25407958984375,0.21200285851955414,1.128550410270691,-2.9260270595550537
1773522550694118000,9.264117919921874,-0.2715838551521301,1.089365005493164,-3.274836301803589
1773522550704156700,9.27415673828125,-0.8591994047164917,1.46204674243927,-3.4797120094299316
1773522550714194700,9.284194580078125,-1.2020138502120972,2.4316046237945557,-3.454602003097534
1773522550724232700,9.294232666015626,-1.301814317703247,3.455207109451294,-3.1805942058563232
1773522550734270700,9.304270751953124,-1.2013354301452637,4.196354866027832,-2.676281690597534
1773522550744308700,9.314308837890625,-0.9322810769081116,4.555425643920898,-2.0579206943511963
1773522550754346500,9.324346435546875,-0.547821581363678,4.520240306854248,-1.4687509536743164
1773522550764384800,9.334384765625,-0.20278619229793549,4.096335411071777,-1.0837311744689941
1773522550774422500,9.344422607421874,-0.06614402681589127,2.9611082077026367,-1.2517756223678589
1773522550784460800,9.354460693359375,-0.15361343324184418,1.0275146961212158,-2.0111498832702637
1773522550794498600,9.36449853515625,-0.25083762407302856,-0.7502323985099792,-2.9126508235931396
1773522550804536800,9.374536865234376,-0.18646128475666046,-1.5495107173919678,-3.4483141899108887
1773522550814574600,9.38457470703125,0.057392723858356476,-0.6126035451889038,-3.407655954360962
1773522550824612600,9.394612548828125,0.4184481203556061,1.9808684587478638,-2.6099932193756104
1773522550834651000,9.40465087890625,0.679095447063446,4.665482521057129,-1.4283756017684937
1773522550844688600,9.414688720703126,0.6922016739845276,5.8819403648376465,-0.6647935509681702
1773522550854727000,9.424726806640624,0.6162060499191284,5.063089847564697,-0.7196884155273438
1773522550864764700,9.4347646484375,0.776288628578186,2.863053560256958,-1.1383498907089233
1773522550874802700,9.444802734375,1.0452556610107422,0.6180907487869263,-1.2683680057525635
1773522550884840700,9.4548408203125,1.2125985622406006,-0.9157869219779968,-0.9592117071151733
1773522550894878700,9.464878662109374,1.2150009870529175,-1.542534351348877,-0.36133480072021484
1773522550904916700,9.474916748046875,1.1529709100723267,-1.315967082977295,0.24594314396381378
1773522550914954800,9.484954833984375,1.0364587306976318,-0.5552184581756592,0.5829566717147827
1773522550924992800,9.49499267578125,0.8186757564544678,0.3453715443611145,0.5632625818252563
1773522550935030800,9.50503076171875,0.3581444323062897,1.0902069807052612,0.384257435798645
1773522550945068500,9.515068603515624,-0.24816946685314178,1.4353883266448975,0.17235849797725677
1773522550955106800,9.52510693359375,-0.6523782014846802,1.3508548736572266,-0.03128243610262871
1773522550965144600,9.53514453125,-0.8115391135215759,0.9584940075874329,-0.1763341724872589
1773522550975182800,9.545182861328126,-0.8415489792823792,0.3848097622394562,-0.2323472648859024
1773522550985220600,9.555220703125,-0.7196257710456848,-0.28320077061653137,-0.20067694783210754
1773522550995259000,9.5652587890625,-0.4249057173728943,-0.9695135951042175,-0.10759076476097107
1773522551005296600,9.575296630859375,-0.06935613602399826,-1.550045371055603,0.030050182715058327
1773522551015334700,9.585334716796876,0.26744136214256287,-2.0053977966308594,0.18202055990695953
1773522551025372700,9.59537255859375,0.5759866237640381,-2.3062775135040283,0.29976239800453186
1773522551035410700,9.60541064453125,0.9107707738876343,-2.4469785690307617,0.3498722016811371
1773522551045448700,9.61544873046875,1.2163126468658447,-2.3571269512176514,0.3377399146556854
1773522551055486700,9.62548681640625,1.3387348651885986,-1.989567756652832,0.35035377740859985
1773522551065524700,9.635524658203124,1.259893774986267,-1.4163821935653687,0.4522838592529297
1773522551075562800,9.645562744140625,1.0582482814788818,-0.7457743883132935,0.6013012528419495
1773522551085600500,9.6556005859375,0.8333818912506104,-0.12181442230939865,0.7123196721076965
1773522551095638800,9.665638671875,0.6524043679237366,0.2961484491825104,0.7679010033607483
1773522551105676500,9.675676513671876,0.5565955638885498,0.4394523501396179,0.7697808742523193
1773522551115714800,9.68571484375,0.554119348526001,0.33995145559310913,0.7438182234764099
1773522551125752600,9.695752685546875,0.6197681427001953,0.09688608348369598,0.7323141694068909
1773522551135790600,9.70579052734375,0.7004663348197937,-0.19659674167633057,0.7417595386505127
1773522551145828600,9.71582861328125,0.7407528162002563,-0.4585985243320465,0.7303146123886108
1773522551155866600,9.72586669921875,0.7407577037811279,-0.7246560454368591,0.6660194396972656
1773522551165904600,9.735904541015625,0.693906307220459,-1.004625678062439,0.5762115120887756
1773522551175942700,9.745942626953125,0.5711833834648132,-1.1758155822753906,0.5190905928611755
1773522551185980700,9.755980712890626,0.3744426369667053,-1.1489453315734863,0.54871666431427
1773522551196018700,9.766018798828124,0.1273033618927002,-0.9698697924613953,0.623773455619812
1773522551206056700,9.776056640625,-0.11589942127466202,-0.6996539831161499,0.6928023099899292
1773522551216094700,9.7860947265625,-0.30741721391677856,-0.430285781621933,0.7173750996589661
1773522551226132700,9.7961328125,-0.3905690908432007,-0.26636502146720886,0.6440526843070984
1773522551236170800,9.806170654296874,-0.36725419759750366,-0.24816690385341644,0.46919625997543335
1773522551246208800,9.816208740234375,-0.2773951590061188,-0.2424919754266739,0.26873907446861267
1773522551256246800,9.826246826171875,-0.11465364694595337,-0.21074023842811584,0.08517152070999146
1773522551266284800,9.836284912109376,0.055411551147699356,-0.1719622164964676,-0.0812118649482727
1773522551276322600,9.846322509765624,0.05152743682265282,-0.04408276453614235,-0.2500806152820587
1773522551286360800,9.85636083984375,-0.07427389919757843,0.0987020805478096,-0.3913831412792206
1773522551296398600,9.866398681640625,-0.20901145040988922,0.20700395107269287,-0.47825339436531067
1773522551306436900,9.876436767578125,-0.2735382318496704,0.28299248218536377,-0.4744269847869873
1773522551316474600,9.886474609375,-0.26890620589256287,0.32189470529556274,-0.3798266351222992
1773522551326513000,9.896512939453125,-0.22497762739658356,0.36560195684432983,-0.16259899735450745
1773522551336550700,9.906550537109375,-0.19140513241291046,0.48738735914230347,0.13757392764091492
1773522551346588700,9.916588623046875,-0.19394072890281677,0.6478071212768555,0.42281097173690796
1773522551356626700,9.926626708984376,-0.23722724616527557,0.7518099546432495,0.6134301424026489
1773522551366664700,9.936664794921874,-0.2986229658126831,0.7531916499137878,0.7045565843582153
1773522551376702700,9.94670263671875,-0.3526771664619446,0.6715978980064392,0.7372170090675354
1773522551386740700,9.95674072265625,-0.3477921187877655,0.5347143411636353,0.7352417707443237
1773522551396778500,9.966778564453126,-0.268028199672699,0.31679511070251465,0.6932348012924194
1773522551406816800,9.976816650390624,-0.09506066143512726,0.06315776705741882,0.6353006958961487
1773522551416854500,9.9868544921875,0.16750818490982056,-0.1288924217224121,0.6084239482879639
1773522551426892800,9.996892822265625,0.40068790316581726,-0.1605997532606125,0.6503149271011353
1773522551436930600,10.0069306640625,0.5683974027633667,-0.043468791991472244,0.7453890442848206
1773522551446968800,10.01696875,0.6197186708450317,0.13970927894115448,0.8508981466293335
1773522551457006600,10.027006591796875,0.5566768050193787,0.25703081488609314,0.9182581305503845
1773522551467044600,10.037044677734375,0.44424960017204285,0.31719136238098145,0.9623143076896667
1773522551477082600,10.04708251953125,0.32400065660476685,0.34023842215538025,1.0191086530685425
1773522551487120600,10.05712060546875,0.24166718125343323,0.34318068623542786,1.1148810386657715
1773522551497158000,10.067157958984374,0.2290528118610382,0.3911229968070984,1.259203314781189
1773522551507195600,10.077195556640625,0.27785685658454895,0.5416722893714905,1.4183591604232788
1773522551517233700,10.087233642578125,0.35232993960380554,0.7776305675506592,1.53912353515625
1773522551527271700,10.097271728515626,0.3986785113811493,1.105122685432434,1.577214241027832
1773522551537309700,10.107309814453124,0.4125846028327942,1.416151523590088,1.5070778131484985
1773522551547347700,10.11734765625,0.3991614580154419,1.724251627922058,1.326154351234436
1773522551557385700,10.1273857421875,0.3492498993873596,2.037186622619629,1.077755331993103
1773522551567423500,10.137423583984376,0.26692864298820496,2.3445708751678467,0.7974116206169128
1773522551577461800,10.147461669921874,0.14331498742103577,2.5396270751953125,0.4954608082771301
1773522551587499500,10.15749951171875,-0.025464709848165512,2.5927674770355225,0.19929388165473938
1773522551597537800,10.167537841796875,-0.2366282343864441,2.492032289505005,-0.08879004418849945
1773522551607575600,10.177575439453125,-0.45705223083496094,2.1973073482513428,-0.36727067828178406
1773522551617613800,10.18761376953125,-0.6289236545562744,1.693791389465332,-0.5675919651985168
1773522551627651600,10.197651611328125,-0.6849536299705505,1.0844627618789673,-0.6433572769165039
1773522551637689600,10.207689697265625,-0.6311725378036499,0.55626380443573,-0.6124564409255981
1773522551647727600,10.2177275390625,-0.5422378182411194,0.1831226944923401,-0.5138384699821472
1773522551657762000,10.227761962890625,-0.4818481504917145,-0.039396725594997406,-0.40597769618034363
1773522551667800000,10.237800048828126,-0.45877373218536377,-0.1938619315624237,-0.3384724259376526
1773522551677838000,10.247838134765624,-0.48619481921195984,-0.34632033109664917,-0.3470402956008911
1773522551687876000,10.2578759765625,-0.5507791638374329,-0.5160230994224548,-0.4650673270225525
1773522551697914000,10.2679140625,-0.5761460065841675,-0.6709288358688354,-0.6804155111312866
1773522551707952000,10.2779521484375,-0.5095036029815674,-0.7859441041946411,-0.9282450079917908
1773522551717990100,10.287990234375,-0.40392908453941345,-0.8570895791053772,-1.1751970052719116
1773522551728028200,10.298028076171875,-0.31698355078697205,-0.8853784799575806,-1.4007662534713745
1773522551738066000,10.30806591796875,-0.26396921277046204,-0.8844119906425476,-1.5926482677459717
1773522551748104200,10.318104248046875,-0.24956363439559937,-0.8639264106750488,-1.763301968574524
1773522551758142000,10.328141845703126,-0.24997380375862122,-0.8830190896987915,-1.8916836977005005
1773522551768180200,10.33818017578125,-0.23860611021518707,-0.8947724103927612,-1.9685883522033691
1773522551778218000,10.348218017578125,-0.17670127749443054,-0.9064784049987793,-1.9673947095870972
1773522551788256300,10.35825634765625,-0.041695527732372284,-0.9227524399757385,-1.8770201206207275
1773522551798294000,10.3682939453125,0.1490255445241928,-0.9065617918968201,-1.6660605669021606
1773522551808332000,10.37833203125,0.3143590986728668,-0.7252870798110962,-1.280466079711914
1773522551818370000,10.3883701171875,0.40038830041885376,-0.44276946783065796,-0.7784296274185181
1773522551828408000,10.398407958984375,0.4090678095817566,-0.29934147000312805,-0.40318062901496887
1773522551838446000,10.408446044921876,0.33489036560058594,-0.24931925535202026,-0.2853931188583374
1773522551848484000,10.418484130859374,0.16742762923240662,-0.19090628623962402,-0.2532934844493866
1773522551858522000,10.428522216796875,-0.040850117802619934,-0.1315978616476059,-0.10180695354938507
1773522551868560100,10.43856005859375,-0.21779987215995789,-0.13679209351539612,0.1548946052789688
1773522551878598000,10.448597900390626,-0.382858544588089,-0.397857666015625,0.2899635136127472
1773522551888636200,10.45863623046875,-0.5871789455413818,-1.1275768280029297,0.08633528649806976
1773522551898674000,10.468673828125,-0.7798638343811035,-2.119105339050293,-0.3245670199394226
1773522551908712200,10.478712158203125,-0.9020078182220459,-2.7712395191192627,-0.5635513663291931
1773522551918750000,10.48875,-0.8520972728729248,-2.8731093406677246,-0.41986846923828125
1773522551928788200,10.498788330078124,-0.6820917129516602,-2.4673118591308594,0.017452135682106018
1773522551938826000,10.508825927734375,-0.46334636211395264,-1.8184199333190918,0.535793125629425
1773522551948864000,10.518864013671875,-0.27621960639953613,-1.3137173652648926,0.8582819700241089
1773522551958902000,10.528902099609375,-0.1672486513853073,-1.0381112098693848,0.9484211802482605
1773522551968940000,10.53893994140625,-0.10810224711894989,-0.926687479019165,0.8624183535575867
1773522551978978000,10.54897802734375,-0.05539758503437042,-0.8912544250488281,0.6721678972244263
1773522551989016000,10.55901611328125,-0.008047377690672874,-0.8405710458755493,0.4500408172607422
1773522551999054000,10.56905419921875,-0.0030133994296193123,-0.73882657289505,0.23696047067642212
1773522552009092000,10.579092041015626,-0.015004548244178295,-0.5854554176330566,0.04657721891999245
1773522552019130000,10.589130126953124,-0.024558022618293762,-0.4365062415599823,-0.15365977585315704
1773522552029168000,10.599168212890625,-0.050029296427965164,-0.326548308134079,-0.39425426721572876
1773522552039206100,10.6092060546875,-0.07423875480890274,-0.27811649441719055,-0.6753873229026794
1773522552049244200,10.619244140625,-0.08924886584281921,-0.2354619801044464,-0.9310750365257263
1773522552059282200,10.6292822265625,-0.06577025353908539,-0.16328604519367218,-1.1185626983642578
1773522552069320000,10.63931982421875,-0.022911205887794495,-0.07090018689632416,-1.22212815284729
1773522552079358200,10.649358154296875,0.02562200091779232,0.03597233071923256,-1.2640947103500366
1773522552089396000,10.65939599609375,0.06916654855012894,0.15533307194709778,-1.2446502447128296
1773522552099434200,10.669434326171874,0.12461335957050323,0.30298468470573425,-1.0922808647155762
1773522552109472000,10.679471923828125,0.15738755464553833,0.4617181420326233,-0.7986325025558472
1773522552119510300,10.68951025390625,0.14904803037643433,0.5211657285690308,-0.4583210051059723
1773522552129548000,10.699548095703125,0.11232943832874298,0.40285375714302063,-0.175741508603096
1773522552139586000,10.7095859375,0.08014439791440964,0.11530385911464691,0.03964085876941681
1773522552149624000,10.7196240234375,0.06181119382381439,-0.24334777891635895,0.18689501285552979
1773522552159661000,10.7296611328125,0.06954951584339142,-0.5896363854408264,0.27841195464134216
1773522552169699000,10.739698974609375,0.10066988319158554,-0.8561292886734009,0.314924955368042
1773522552179737000,10.749737060546876,0.15474794805049896,-1.020201325416565,0.31571483612060547
1773522552189775000,10.759775146484374,0.21976102888584137,-1.0717065334320068,0.2841995060443878
1773522552199813000,10.769813232421875,0.28399336338043213,-1.0102026462554932,0.22351819276809692
1773522552209851100,10.77985107421875,0.33338114619255066,-0.8658733367919922,0.14268113672733307
1773522552219889200,10.78988916015625,0.33386167883872986,-0.6594660878181458,0.042300399392843246
1773522552229927200,10.79992724609375,0.29614946246147156,-0.41939276456832886,-0.06856992095708847
1773522552239965000,10.80996484375,0.19911955296993256,-0.17780525982379913,-0.17071345448493958
1773522552250003200,10.820003173828125,0.09562591463327408,-0.003910426516085863,-0.2661683261394501
1773522552260041000,10.830041015625,0.06281719356775284,0.04598761349916458,-0.3642525374889374
1773522552270079200,10.840079345703124,0.11360286921262741,-0.016459789127111435,-0.44393110275268555
1773522552280117000,10.850116943359374,0.1415407806634903,-0.10310383141040802,-0.4817690849304199
1773522552290155300,10.8601552734375,0.10433322936296463,-0.14928491413593292,-0.47520920634269714
1773522552300193000,10.870193115234375,0.07397887855768204,-0.17810587584972382,-0.45158863067626953
1773522552310231000,10.88023095703125,0.056385233998298645,-0.234188050031662,-0.46279600262641907
1773522552320269000,10.89026904296875,0.0400661900639534,-0.3139273226261139,-0.5221669673919678
1773522552330307000,10.90030712890625,0.01097461674362421,-0.3858313262462616,-0.6301520466804504
1773522552340345000,10.910344970703125,-0.029594440013170242,-0.39420756697654724,-0.7222091555595398
1773522552350383000,10.920383056640626,-0.07764425873756409,-0.30895790457725525,-0.7646951079368591
1773522552360421000,10.930421142578124,-0.14452765882015228,-0.12655434012413025,-0.7558631300926208
1773522552370459100,10.940459228515625,-0.2313656061887741,0.08838298916816711,-0.7095425128936768
1773522552380497000,10.950496826171875,-0.3077966868877411,0.24108685553073883,-0.6891420483589172
1773522552390535200,10.96053515625,-0.3474554121494293,0.28355681896209717,-0.6927887201309204
1773522552400573000,10.970572998046874,-0.34440526366233826,0.25188061594963074,-0.6748096346855164
1773522552410611200,10.980611083984375,-0.28161031007766724,0.20268668234348297,-0.5640618205070496
1773522552420649000,10.99064892578125,-0.21198929846286774,0.17551866173744202,-0.34247151017189026
1773522552430687200,11.000687255859376,-0.13341912627220154,0.15350469946861267,-0.07264881581068039
1773522552440725000,11.01072509765625,-0.08172514289617538,0.07058893144130707,0.1433471292257309
1773522552450763000,11.020762939453125,-0.03401301056146622,-0.09405621141195297,0.265937477350235
1773522552460801000,11.030801025390625,0.060395218431949615,-0.3242757022380829,0.31459927558898926
1773522552470839000,11.040839111328125,0.17902760207653046,-0.5300474762916565,0.3460488021373749
1773522552480877000,11.050876953125,0.2576695382595062,-0.6348487138748169,0.38048186898231506
1773522552490915000,11.0609150390625,0.2750943601131439,-0.6033621430397034,0.44195881485939026
1773522552500952800,11.070952880859375,0.265474796295166,-0.4835796356201172,0.4982285499572754
1773522552510991000,11.0809912109375,0.22590050101280212,-0.3110174536705017,0.5223717093467712
1773522552521029000,11.091029052734376,0.14808225631713867,-0.1280866116285324,0.48494279384613037
1773522552531067100,11.101067138671874,0.03982716053724289,0.06790365278720856,0.39224961400032043
1773522552541105200,11.111105224609375,-0.08299791812896729,0.2590525448322296,0.2828576862812042
1773522552551143200,11.12114306640625,-0.1993436962366104,0.4476671814918518,0.20393435657024384
1773522552561180200,11.13118017578125,-0.30217474699020386,0.6367180943489075,0.1864784061908722
1773522552571218000,11.141218017578124,-0.37929245829582214,0.8081929087638855,0.20503850281238556
1773522552581256200,11.151256103515625,-0.46812424063682556,0.9327967166900635,0.20286086201667786
1773522552591294000,11.1612939453125,-0.5522980093955994,0.9915007948875427,0.17208349704742432
1773522552601332200,11.171332275390625,-0.5957934260368347,0.9690619707107544,0.11407368630170822
1773522552611370000,11.181369873046876,-0.5791353583335876,0.8725076913833618,0.036984220147132874
1773522552621408000,11.191407958984374,-0.5085954070091248,0.7021675109863281,-0.05341244116425514
1773522552631446000,11.201446044921875,-0.41208377480506897,0.4941471815109253,-0.15908800065517426
1773522552641484000,11.211484130859375,-0.3252306878566742,0.2850021421909332,-0.26242515444755554
1773522552651522000,11.22152197265625,-0.25949084758758545,0.12445321679115295,-0.3610561192035675
1773522552661560600,11.231560546875,-0.22493670880794525,0.04094751179218292,-0.4436982274055481
1773522552671598300,11.241598388671875,-0.1917252391576767,0.03854693844914436,-0.5182361006736755
1773522552681636400,11.25163623046875,-0.14861157536506653,0.11961054056882858,-0.5836846828460693
1773522552691674400,11.26167431640625,-0.1224907636642456,0.2839707136154175,-0.6430912613868713
1773522552701712400,11.27171240234375,-0.11984917521476746,0.5131033062934875,-0.6774815917015076
1773522552711750400,11.28175048828125,-0.14228151738643646,0.8028834462165833,-0.6522263288497925
1773522552721788400,11.291788330078125,-0.17239561676979065,1.0961458683013916,-0.5716201066970825
1773522552731826400,11.301826416015626,-0.21188417077064514,1.3223683834075928,-0.46406835317611694
1773522552741864400,11.311864501953124,-0.21585890650749207,1.3861392736434937,-0.3971540331840515
1773522552751902500,11.32190234375,-0.1737505942583084,1.2599140405654907,-0.38826653361320496
1773522552761940500,11.3319404296875,-0.12520644068717957,1.0250160694122314,-0.38925257325172424
1773522552771978500,11.341978515625,-0.0711061954498291,0.7556746006011963,-0.36261722445487976
1773522552782016500,11.3520166015625,-0.010527861304581165,0.5267755389213562,-0.2989201247692108
1773522552792054500,11.362054443359375,0.029410231858491898,0.3469330668449402,-0.22835887968540192
1773522552802092500,11.372092529296875,0.06369169056415558,0.20403516292572021,-0.20988298952579498
1773522552812130600,11.382130615234376,0.09150148183107376,0.1091211810708046,-0.23651432991027832
1773522552822168300,11.392168212890626,0.101779505610466,0.11928508430719376,-0.24774876236915588
1773522552832206600,11.40220654296875,0.0900658518075943,0.2755140960216522,-0.1979074329137802
1773522552842244400,11.412244384765625,0.06911870837211609,0.561786949634552,-0.07888400554656982
1773522552852282600,11.42228271484375,0.05588545650243759,0.9594879746437073,0.13242797553539276
1773522552862320400,11.4323203125,0.06768059730529785,1.383070945739746,0.4326643645763397
1773522552872357400,11.442357421875,0.1357952058315277,1.7087351083755493,0.795943558216095
1773522552882395400,11.4523955078125,0.24130161106586456,1.827799916267395,1.1635410785675049
1773522552892433400,11.462433349609375,0.31828638911247253,1.678993821144104,1.4652769565582275
1773522552902471400,11.472471435546876,0.3420931398868561,1.3508566617965698,1.6764376163482666
1773522552912509400,11.482509521484374,0.3238065242767334,0.9323774576187134,1.7804406881332397
1773522552922547500,11.49254736328125,0.21650229394435883,0.5655181407928467,1.7834738492965698
1773522552932585500,11.50258544921875,0.11860636621713638,0.4201545715332031,1.7653827667236328
1773522552942623500,11.51262353515625,0.037352755665779114,0.4435776174068451,1.7709099054336548
1773522552952661500,11.52266162109375,-0.017829272896051407,0.521784782409668,1.8217893838882446
1773522552962699500,11.532699462890625,-0.0892258957028389,0.5784077048301697,1.9055479764938354
1773522552972737500,11.542737548828125,-0.13875643908977509,0.5483883023262024,2.0218613147735596
1773522552982775600,11.552775634765625,-0.26239994168281555,0.6084128618240356,2.2253265380859375
1773522552992813300,11.562813232421876,-0.46560898423194885,0.8477543592453003,2.499160051345825
1773522553002851600,11.5728515625,-0.6788733601570129,1.20112943649292,2.698251962661743
1773522553012889300,11.582889404296875,-0.8340206146240234,1.4604640007019043,2.6862034797668457
1773522553022927600,11.592927734375,-0.8665974140167236,1.4301773309707642,2.414229393005371
1773522553032965400,11.60296533203125,-0.7972207069396973,1.153064489364624,1.964661717414856
1773522553043003600,11.613003662109374,-0.6534631848335266,0.9012382626533508,1.5010448694229126
1773522553053041400,11.62304150390625,-0.4816775619983673,0.8522078990936279,1.1271690130233765
1773522553063079400,11.633079345703125,-0.32978376746177673,1.0180883407592773,0.8464109301567078
1773522553073117400,11.643117431640626,-0.22144104540348053,1.2244210243225098,0.6635838150978088
1773522553083155500,11.653155517578124,-0.15467844903469086,1.1818516254425049,0.5145724415779114
1773522553093193500,11.663193359375,-0.08714599907398224,0.8229392766952515,0.35788941383361816
1773522553103231500,11.6732314453125,-0.03436741605401039,0.13367325067520142,0.21447421610355377
1773522553113269500,11.68326953125,0.003933102823793888,-0.6659775972366333,0.09099408239126205
1773522553123306500,11.693306396484376,0.003033546730875969,-1.3187576532363892,-0.035887882113456726
1773522553133344500,11.703344482421874,-0.05269496142864227,-1.529057264328003,-0.21019549667835236
1773522553143382500,11.713382568359375,-0.13092555105686188,-1.4405877590179443,-0.46051958203315735
1773522553153420500,11.723420654296875,-0.1501045674085617,-1.2733018398284912,-0.7345386147499084
1773522553163458300,11.733458251953126,-0.09916827827692032,-1.2183269262313843,-0.9870202541351318
1773522553173496600,11.74349658203125,0.001697617582976818,-1.3269538879394531,-1.1630821228027344
1773522553183534300,11.753534423828125,0.11581220477819443,-1.580748200416565,-1.244458556175232
1773522553193572600,11.763572509765625,0.21616944670677185,-1.848524570465088,-1.2084609270095825
1773522553203610400,11.7736103515625,0.2930494248867035,-2.0488548278808594,-1.0683977603912354
1773522553213648600,11.783648681640624,0.34581783413887024,-2.1930747032165527,-0.8325405716896057
1773522553223686400,11.793686279296875,0.3726615011692047,-2.2410802841186523,-0.5030190348625183
1773522553233724400,11.803724365234375,0.40089499950408936,-2.075427770614624,-0.10039430856704712
1773522553243762400,11.813762451171876,0.4090979993343353,-1.6759941577911377,0.2819092869758606
1773522553253800400,11.823800537109374,0.3376224935054779,-1.156810998916626,0.5388547778129578
1773522553263838500,11.83383837890625,0.20359940826892853,-0.6764468550682068,0.5943319797515869
1773522553273876500,11.84387646484375,0.09146807342767715,-0.3461315333843231,0.49695029854774475
1773522553283914500,11.85391455078125,0.021498098969459534,-0.156566321849823,0.37991806864738464
1773522553293952500,11.863952392578126,-0.10379590839147568,-0.09688940644264221,0.31659582257270813
1773522553303990300,11.873990234375,-0.2592697739601135,-0.15533876419067383,0.3272857666015625
1773522553314028500,11.884028564453125,-0.41543859243392944,-0.24396823346614838,0.4536258578300476
1773522553324066300,11.89406640625,-0.5775129199028015,-0.18595491349697113,0.69623863697052
1773522553334104600,11.9041044921875,-0.6972795128822327,0.036062970757484436,1.0193910598754883
1773522553344142300,11.914142333984374,-0.7762987017631531,0.1519213765859604,1.385744333267212
1773522553354179300,11.924179443359375,-0.7442517876625061,0.06412122398614883,1.7743688821792603
1773522553364217600,11.934217529296875,-0.49222657084465027,-0.077860027551651,2.0816712379455566
1773522553374255400,11.94425537109375,-0.06071007251739502,0.1787416636943817,2.2675371170043945
1773522553384293600,11.954293701171874,0.36408019065856934,1.0594067573547363,2.2963855266571045
1773522553394331400,11.964331298828125,0.7432490587234497,2.0085530281066895,2.1210074424743652
1773522553404369400,11.974369384765625,0.9974518418312073,2.2885870933532715,1.846044659614563
1773522553414407400,11.984407470703125,1.142511010169983,1.9177435636520386,1.5808659791946411
1773522553424445400,11.994445556640626,1.246999740600586,1.6620374917984009,1.4048974514007568
1773522553434483500,12.0044833984375,1.290277361869812,1.5445457696914673,1.234375238418579
1773522553444521500,12.014521484375,1.133071780204773,1.1998509168624878,1.1583257913589478
1773522553454559500,12.0245595703125,0.7092152237892151,0.7701791524887085,1.4865942001342773
1773522553464597500,12.034597412109376,0.2891281545162201,0.8343561887741089,2.290611982345581
1773522553474635300,12.04463525390625,0.18917225301265717,1.3734327554702759,2.8298866748809814
1773522553484673500,12.054673583984375,0.2904856204986572,1.6731055974960327,2.6890344619750977
1773522553494711300,12.064711181640625,0.46903643012046814,1.5387253761291504,2.2756378650665283
1773522553504749600,12.07474951171875,0.6906355619430542,1.2407821416854858,1.87273108959198
1773522553514787300,12.084787353515624,0.9187763333320618,1.100749135017395,1.5364869832992554
1773522553524825300,12.094825439453125,1.1409642696380615,1.2204673290252686,1.3267537355422974
1773522553534863400,12.10486328125,1.3361515998840332,1.5219086408615112,1.1902755498886108
1773522553544901400,12.1149013671875,1.356082797050476,1.7181096076965332,1.0543063879013062
1773522553554938600,12.124938720703126,1.1763074398040771,1.591923475265503,1.0345945358276367
1773522553564976400,12.134976318359374,0.8705083727836609,1.1104559898376465,1.1668823957443237
1773522553575014400,12.145014404296875,0.5465433597564697,0.6625440120697021,1.3499648571014404
1773522553585052400,12.155052490234375,0.22037489712238312,0.29735732078552246,1.6228866577148438
1773522553595090400,12.16509033203125,-0.018241943791508675,0.2370428591966629,1.8175477981567383
1773522553605128400,12.17512841796875,-0.21352088451385498,0.24577750265598297,1.8770688772201538
1773522553615166500,12.18516650390625,-0.34172335267066956,-0.020180685445666313,1.999367356300354
1773522553625204500,12.19520458984375,-0.41103115677833557,-0.19553513824939728,2.08697509765625
1773522553635242500,12.205242431640626,-0.4015601575374603,-0.12117008119821548,2.0553946495056152
1773522553645280300,12.2152802734375,-0.21485543251037598,-0.03936311602592468,2.0582385063171387
1773522553655318300,12.225318359375,0.0538596510887146,0.2064269483089447,1.9820911884307861
1773522553665356000,12.23535595703125,0.20149216055870056,0.5755906105041504,1.7164876461029053
1773522553675394000,12.24539404296875,0.287460058927536,0.564852237701416,1.4205191135406494
1773522553685432300,12.255432373046874,0.27311569452285767,0.6573376059532166,1.2302062511444092
1773522553695470000,12.265469970703125,0.18948230147361755,1.0550246238708496,1.0932515859603882
1773522553705508400,12.27550830078125,0.08100362122058868,1.261002779006958,0.936626672744751
1773522553715546000,12.285546142578125,-0.021164556965231895,1.162075400352478,0.8361453413963318
1773522553725584400,12.29558447265625,-0.15195702016353607,0.9698416590690613,0.8472126722335815
1773522553735622100,12.3056220703125,-0.2823573648929596,0.7783606648445129,0.9355471134185791
1773522553745660200,12.31566015625,-0.36516839265823364,0.5275426506996155,1.1210049390792847
1773522553755697200,12.325697265625,-0.3442055881023407,0.3071271777153015,1.3550664186477661
1773522553765735200,12.335735107421876,-0.27983546257019043,-0.06911737471818924,1.5920552015304565
1773522553775773000,12.34577294921875,-0.22594134509563446,-0.46028539538383484,1.667245864868164
1773522553785811200,12.355811279296875,-0.09425459802150726,-0.7579972147941589,1.6998745203018188
1773522553795849000,12.365848876953125,-0.003351854160428047,-0.8960136771202087,1.7727771997451782
1773522553805887200,12.37588720703125,0.029122576117515564,-0.8251775503158569,1.7621002197265625
1773522553815925200,12.38592529296875,0.11191599071025848,-0.726026713848114,1.6460739374160767
1773522553825963300,12.39596337890625,0.18023626506328583,-0.5264638066291809,1.383131504058838
1773522553836001300,12.406001220703125,0.1933954805135727,-0.07052823901176453,1.0570781230926514
1773522553846039000,12.4160390625,0.14984406530857086,0.3721691370010376,0.7847291231155396
1773522553856077300,12.426077392578126,-0.012246579863131046,0.5041833519935608,0.6412060260772705
1773522553866115000,12.436114990234374,-0.20974965393543243,0.3129282593727112,0.7107802033424377
1773522553876153300,12.4461533203125,-0.32241734862327576,0.0903007760643959,0.8521714210510254
1773522553886191000,12.456191162109375,-0.4012930691242218,-0.055114537477493286,0.9228711128234863
1773522553896229400,12.4662294921875,-0.4017737805843353,-0.2018456608057022,0.982441782951355
1773522553906267100,12.47626708984375,-0.2951027452945709,-0.2518804669380188,1.1331838369369507
1773522553916305200,12.48630517578125,-0.2466460019350052,-0.13740049302577972,1.2119580507278442
1773522553926342100,12.496342041015625,-0.27600276470184326,-0.1800416111946106,1.1673762798309326
1773522553936380200,12.506380126953125,-0.32235777378082275,-0.2762959897518158,1.1082383394241333
1773522553946418000,12.51641796875,-0.36878570914268494,-0.1436968892812729,0.9583513140678406
1773522553956456200,12.526456298828125,-0.38542938232421875,0.12727601826190948,0.7391987442970276
1773522553966494200,12.536494140625,-0.382218599319458,0.32713451981544495,0.5986437201499939
1773522553976532200,12.5465322265625,-0.4030093550682068,0.37626826763153076,0.6664379835128784
1773522553986570200,12.5565703125,-0.5269851684570312,0.12891706824302673,0.8164812326431274
