time,seconds_elapsed,z,y,x
1773522541509364000,0.079364013671875,-44.34568786621094,12.647832870483398,-8.384159088134766
1773522541519401700,0.089401611328125,-44.208587646484375,12.876554489135742,-8.562992095947266
1773522541529440000,0.09943994140625,-44.105072021484375,13.088329315185547,-8.64126968383789
1773522541539477800,0.109477783203125,-43.91780090332031,13.769601821899414,-9.318553924560547
1773522541549515800,0.119515869140625,-43.82969665527344,14.225397109985352,-9.402656555175781
1773522541559553800,0.1295537109375,-43.95201110839844,14.727212905883789,-9.509017944335938
1773522541569591800,0.139591796875,-44.35652160644531,14.97050666809082,-9.480323791503906
1773522541579629800,0.1496298828125,-43.90672302246094,15.149312973022461,-9.007736206054688
1773522541589666800,0.159666748046875,-44.04115295410156,15.534231185913086,-8.976638793945312
1773522541599704800,0.169704833984375,-44.093231201171875,15.266374588012695,-8.495441436767578
1773522541609742800,0.179742919921875,-44.33076477050781,15.203927993774414,-8.168266296386719
1773522541619780900,0.18978076171875,-44.419342041015625,15.126016616821289,-7.630542755126953
1773522541629819000,0.19981884765625,-44.595367431640625,14.755155563354492,-6.759860992431641
1773522541639857000,0.20985693359375,-44.73127746582031,14.736166000366211,-5.933006286621094
1773522541649894100,0.21989404296875,-44.60661315917969,14.823854446411133,-4.870201110839844
1773522541659932400,0.229932373046875,-44.71220397949219,15.128488540649414,-4.138740539550781
1773522541669970200,0.23997021484375,-44.72660827636719,15.686315536499023,-3.5918350219726562
1773522541680008400,0.250008544921875,-44.5418701171875,16.089651107788086,-3.1539688110351562
1773522541690045400,0.26004541015625,-44.60566711425781,16.33917808532715,-3.138629913330078
1773522541700083200,0.270083251953125,-44.38191223144531,16.43705177307129,-2.823223114013672
1773522541710121500,0.28012158203125,-44.10475158691406,16.458925247192383,-2.5772476196289062
1773522541720159200,0.2901591796875,-44.53044128417969,16.45549964904785,-2.5303268432617188
1773522541730197500,0.300197509765625,-44.3828125,16.369062423706055,-2.0735244750976562
1773522541740235300,0.3102353515625,-44.50462341308594,16.52530860900879,-1.8532142639160156
1773522541750273300,0.320273193359375,-44.53846740722656,16.385637283325195,-1.0914649963378906
1773522541760311300,0.330311279296875,-44.48927307128906,16.367422103881836,-0.27573394775390625
1773522541770349300,0.340349365234375,-44.58485412597656,16.393957138061523,-0.11813735961914062
1773522541780387300,0.35038720703125,-44.20469665527344,16.23482322692871,0.13128280639648438
1773522541790424300,0.36042431640625,-44.38124084472656,16.199968338012695,-0.3708000183105469
1773522541800462300,0.37046240234375,-44.72967529296875,15.964162826538086,-0.9009857177734375
1773522541810500400,0.380500244140625,-44.53532409667969,15.613378524780273,-1.4513397216796875
1773522541820538400,0.390538330078125,-44.68927001953125,15.006940841674805,-2.9062156677246094
1773522541830576400,0.400576416015625,-44.79383850097656,14.20952033996582,-4.297332763671875
1773522541840614400,0.410614501953125,-44.76824951171875,13.66859245300293,-5.792041778564453
1773522541850652200,0.420652099609375,-45.131805419921875,13.18863296508789,-6.786018371582031
1773522541860690400,0.4306904296875,-44.69757080078125,13.045450210571289,-7.216072082519531
1773522541870728200,0.440728271484375,-45.10736083984375,12.795732498168945,-7.752002716064453
1773522541880766500,0.450766357421875,-44.94020080566406,12.894842147827148,-7.333812713623047
1773522541890803500,0.460803466796875,-44.7490234375,13.187957763671875,-6.699806213378906
1773522541900841200,0.47084130859375,-44.7490234375,13.187957763671875,-6.699806213378906
1773522541910879500,0.48087939453125,-45.0059814453125,13.71537971496582,-5.6754150390625
1773522541920917200,0.490917236328125,-44.772003173828125,13.987333297729492,-3.8739852905273438
1773522541930955500,0.50095556640625,-44.7501220703125,15.091806411743164,-2.3565406799316406
1773522541940993300,0.5109931640625,-44.4869384765625,15.911672592163086,-0.310577392578125
1773522541951031300,0.52103125,-44.28143310546875,16.49530601501465,1.6389617919921875
1773522541961069300,0.5310693359375,-43.79557800292969,17.421987533569336,3.582386016845703
1773522541971107300,0.541107421875,-43.159027099609375,17.990861892700195,5.808860778808594
1773522541981145300,0.551145263671875,-42.438323974609375,18.83296775817871,7.835407257080078
1773522541991183400,0.561183349609375,-41.50666809082031,19.646284103393555,10.116264343261719
1773522542001220400,0.571220458984375,-40.531890869140625,20.131189346313477,12.132843017578125
1773522542011258400,0.58125830078125,-39.744720458984375,20.7177791595459,13.672672271728516
1773522542021296400,0.59129638671875,-38.7215576171875,20.365224838256836,15.070514678955078
1773522542031334400,0.60133447265625,-38.61250305175781,20.43010902404785,15.886295318603516
1773522542041372400,0.611372314453125,-38.31048583984375,20.474905014038086,16.784961700439453
1773522542051410400,0.621410400390625,-37.246856689453125,20.367631912231445,17.917709350585938
1773522542061448400,0.631448486328125,-36.77980041503906,20.54975700378418,19.070566177368164
1773522542071486200,0.641486328125,-36.292266845703125,20.434316635131836,19.934415817260742
1773522542081524500,0.6515244140625,-36.694549560546875,20.353635787963867,19.711280822753906
1773522542091562200,0.661562255859375,-37.312042236328125,20.082216262817383,19.226667404174805
1773522542101599200,0.67159912109375,-37.10919189453125,19.86903953552246,18.809959411621094
1773522542111637200,0.68163720703125,-37.939697265625,19.72184944152832,18.24703598022461
1773522542121675300,0.69167529296875,-38.07185363769531,19.694910049438477,17.997398376464844
1773522542131713300,0.70171337890625,-38.54383850097656,19.736093521118164,17.38254737854004
1773522542141751300,0.711751220703125,-38.45500183105469,19.78819465637207,17.250661849975586
1773522542151789300,0.721789306640625,-37.63798522949219,20.070615768432617,17.556968688964844
1773522542161827300,0.731827392578125,-37.77288818359375,20.317811965942383,17.90680694580078
1773522542171865300,0.741865234375,-36.97154235839844,20.75651741027832,18.490280151367188
1773522542181903400,0.7519033203125,-36.74357604980469,21.233625411987305,18.680696487426758
1773522542191941400,0.76194140625,-35.97502136230469,22.274690628051758,18.843406677246094
1773522542201979400,0.7719794921875,-34.96022033691406,23.34537696838379,18.680456161499023
1773522542212016400,0.782016357421875,-35.18536376953125,24.395952224731445,18.069164276123047
1773522542222054100,0.79205419921875,-34.72282409667969,25.732389450073242,17.25398063659668
1773522542232092400,0.802092529296875,-34.5970458984375,27.04558753967285,16.259117126464844
1773522542242130200,0.812130126953125,-34.22245788574219,28.290029525756836,15.132991790771484
1773522542252168400,0.82216845703125,-33.05738830566406,29.589567184448242,14.233776092529297
1773522542262206200,0.832206298828125,-32.42689514160156,31.23514747619629,13.253292083740234
1773522542272244200,0.842244140625,-31.372467041015625,32.86841583251953,12.364795684814453
1773522542282282200,0.8522822265625,-30.198394775390625,34.20570373535156,11.471000671386719
1773522542292320300,0.8623203125,-29.25677490234375,35.73930358886719,10.542957305908203
1773522542302358300,0.872358154296875,-27.853530883789062,37.18217468261719,9.388565063476562
1773522542312396300,0.882396240234375,-26.337493896484375,39.02702331542969,7.7398529052734375
1773522542322433300,0.892433349609375,-24.821533203125,40.512168884277344,6.198795318603516
1773522542332471300,0.90247119140625,-22.842086791992188,42.01752471923828,4.442768096923828
1773522542342509300,0.91250927734375,-21.104385375976562,43.73621368408203,2.1707611083984375
1773522542352547300,0.92254736328125,-19.14581298828125,44.68524932861328,0.1265411376953125
1773522542362585300,0.93258544921875,-17.15655517578125,45.792640686035156,-2.2528305053710938
1773522542372623400,0.942623291015625,-15.237075805664062,46.535247802734375,-4.417808532714844
1773522542382661400,0.952661376953125,-13.048828125,47.074493408203125,-6.280574798583984
1773522542392699100,0.96269921875,-11.15740966796875,47.683250427246094,-8.201248168945312
1773522542402737400,0.9727373046875,-8.775039672851562,47.94367218017578,-9.354854583740234
1773522542412775200,0.982775146484375,-6.37109375,48.17633819580078,-10.724555969238281
1773522542422813400,0.9928134765625,-3.9377593994140625,48.581024169921875,-11.775196075439453
1773522542432850400,1.002850341796875,-1.665863037109375,48.420562744140625,-12.35226821899414
1773522542442888200,1.01288818359375,0.6199951171875,48.635414123535156,-13.257904052734375
1773522542452926500,1.022926513671875,2.3919219970703125,48.451568603515625,-13.607402801513672
1773522542462964200,1.032964111328125,4.1487579345703125,48.34910583496094,-14.125152587890625
1773522542473002500,1.04300244140625,6.3352203369140625,48.02294921875,-14.581344604492188
1773522542483040300,1.053040283203125,8.57501220703125,47.467430114746094,-14.440925598144531
1773522542493078300,1.063078369140625,10.173065185546875,47.546714782714844,-14.884178161621094
1773522542503116300,1.0731162109375,12.060394287109375,47.0347900390625,-14.49935531616211
1773522542513154300,1.083154296875,13.734451293945312,46.751800537109375,-14.308635711669922
1773522542523192300,1.0931923828125,14.774261474609375,46.69447326660156,-14.120185852050781
1773522542533230300,1.103230224609375,15.994400024414062,46.084442138671875,-13.400348663330078
1773522542543268400,1.113268310546875,17.25286865234375,46.03709411621094,-13.16116714477539
1773522542553305300,1.123305419921875,17.849258422851562,45.81242370605469,-12.434989929199219
1773522542563343400,1.13334326171875,18.619476318359375,45.78418731689453,-11.698856353759766
1773522542573381400,1.14338134765625,19.332504272460938,45.903404235839844,-10.908515930175781
1773522542583419400,1.15341943359375,19.726287841796875,45.56449890136719,-9.931510925292969
1773522542593457200,1.16345703125,19.815872192382812,45.819183349609375,-9.517452239990234
1773522542603495400,1.173495361328125,19.7073974609375,45.71436309814453,-8.730316162109375
1773522542613533200,1.183533203125,19.560379028320312,45.81194305419922,-8.275592803955078
1773522542623571500,1.193571533203125,19.271072387695312,46.45796203613281,-8.180122375488281
1773522542633609200,1.203609130859375,18.7535400390625,46.32323455810547,-8.023136138916016
1773522542643647500,1.2136474609375,18.054611206054688,46.75006103515625,-8.344184875488281
1773522542653685500,1.223685546875,17.965835571289062,46.98468017578125,-8.376800537109375
1773522542663722500,1.233722412109375,17.792572021484375,46.904747009277344,-8.129119873046875
1773522542673760800,1.2437607421875,17.128311157226562,47.68708801269531,-8.052108764648438
1773522542683798500,1.253798583984375,16.7366943359375,47.47743225097656,-7.451774597167969
1773522542693836500,1.26383642578125,16.605545043945312,47.879058837890625,-6.970966339111328
1773522542703874600,1.27387451171875,16.422348022460938,48.02465057373047,-6.391513824462891
1773522542713912600,1.28391259765625,16.159408569335938,47.95050811767578,-5.594066619873047
1773522542723950600,1.29395068359375,16.164474487304688,48.41950225830078,-5.225189208984375
1773522542733988600,1.303988525390625,15.894287109375,48.103485107421875,-4.324962615966797
1773522542744026400,1.3140263671875,15.4617919921875,48.34693145751953,-3.8197860717773438
1773522542754064600,1.324064697265625,15.435546875,48.468406677246094,-3.2624778747558594
1773522542764102400,1.334102294921875,15.896697998046875,48.05840301513672,-2.2678604125976562
1773522542774140700,1.344140625,15.549026489257812,48.497596740722656,-1.8922157287597656
1773522542784177700,1.354177734375,15.276153564453125,48.164764404296875,-0.9334220886230469
1773522542794215400,1.36421533203125,14.766632080078125,48.522125244140625,-0.3003120422363281
1773522542804253700,1.374253662109375,14.49127197265625,48.89414978027344,0.5484161376953125
1773522542814291500,1.38429150390625,14.42626953125,48.47966766357422,1.534454345703125
1773522542824329700,1.394329833984375,13.757278442382812,48.69463348388672,1.9839515686035156
1773522542834367500,1.404367431640625,13.240325927734375,48.510353088378906,2.7592201232910156
1773522542844405800,1.41440576171875,12.661117553710938,48.24296569824219,3.514141082763672
1773522542854443500,1.424443603515625,12.44696044921875,48.6798095703125,4.136985778808594
1773522542864481500,1.4344814453125,12.058563232421875,48.08892059326172,4.8696136474609375
1773522542874519600,1.44451953125,11.389602661132812,48.400115966796875,5.4362945556640625
1773522542884557600,1.4545576171875,10.846725463867188,47.95979309082031,6.224918365478516
1773522542894595600,1.464595703125,10.30499267578125,48.19477844238281,6.872993469238281
1773522542904632600,1.474632568359375,9.240142822265625,48.56098175048828,7.483634948730469
1773522542914670600,1.484670654296875,8.47802734375,47.888816833496094,8.25509262084961
1773522542924708600,1.49470849609375,7.8524627685546875,48.066001892089844,8.60110855102539
1773522542934746600,1.50474658203125,7.706390380859375,47.98235321044922,9.059040069580078
1773522542944784600,1.51478466796875,7.204925537109375,47.70995330810547,9.671783447265625
1773522542954822700,1.52482275390625,6.6732330322265625,47.874847412109375,10.365589141845703
1773522542964860400,1.5348603515625,6.3922271728515625,47.36671447753906,10.978256225585938
1773522542974898700,1.544898681640625,5.1290435791015625,47.57329559326172,11.356536865234375
1773522542984936400,1.5549365234375,4.55889892578125,47.264427185058594,11.82126235961914
1773522542994974700,1.564974609375,4.0417938232421875,47.03071594238281,12.262992858886719
1773522543005012500,1.575012451171875,3.705291748046875,47.278099060058594,12.52792739868164
1773522543015050800,1.58505078125,2.9654998779296875,46.664390563964844,13.166572570800781
1773522543025088500,1.595088623046875,2.6054229736328125,46.70880889892578,13.362079620361328
1773522543035125500,1.60512548828125,2.2354278564453125,46.686134338378906,13.405059814453125
1773522543045163500,1.61516357421875,1.9452056884765625,46.45051574707031,13.431060791015625
1773522543055201500,1.625201416015625,1.6454620361328125,46.963340759277344,13.171226501464844
1773522543065239600,1.635239501953125,1.08447265625,46.676513671875,13.194511413574219
1773522543075277600,1.645277587890625,0.386016845703125,46.647621154785156,13.0101318359375
1773522543085315600,1.655315673828125,0.11468505859375,46.810691833496094,12.890380859375
1773522543095353600,1.665353515625,-0.23577880859375,46.39159393310547,13.236427307128906
1773522543105391600,1.6753916015625,-0.7417449951171875,46.76183319091797,13.05849838256836
1773522543115429600,1.6854296875,-0.9745941162109375,46.444976806640625,13.63186264038086
1773522543125467600,1.695467529296875,-1.3367919921875,46.122215270996094,13.902240753173828
1773522543135505400,1.70550537109375,-0.9942626953125,46.122955322265625,14.28610610961914
1773522543145543700,1.715543701171875,-0.93499755859375,45.73998260498047,14.477470397949219
1773522543155580400,1.725580322265625,-1.63958740234375,45.986549377441406,14.211833953857422
1773522543165618400,1.735618408203125,-1.8228607177734375,45.709312438964844,13.937023162841797
1773522543175656400,1.745656494140625,-2.563507080078125,45.90937805175781,13.20675277709961
1773522543185694500,1.755694580078125,-3.650482177734375,46.724273681640625,12.302154541015625
1773522543195732500,1.765732421875,-3.7429656982421875,46.617218017578125,11.357887268066406
1773522543205770500,1.7757705078125,-3.8953704833984375,47.29127502441406,10.484172821044922
1773522543215808500,1.78580859375,-3.354522705078125,47.442230224609375,10.059703826904297
1773522543225846500,1.795846435546875,-2.9033355712890625,47.446685791015625,9.781333923339844
1773522543235884500,1.805884521484375,-2.7161407470703125,47.96129608154297,9.725292205810547
1773522543245922600,1.815922607421875,-2.970794677734375,47.5638427734375,9.6114501953125
1773522543255960600,1.825960693359375,-2.9189605712890625,47.935340881347656,9.12222671508789
1773522543265998600,1.83599853515625,-2.7632598876953125,48.0765380859375,8.710067749023438
1773522543276036600,1.84603662109375,-2.6662445068359375,47.857513427734375,8.270652770996094
1773522543286074600,1.85607470703125,-2.4937744140625,48.465606689453125,7.749233245849609
1773522543296111600,1.866111572265625,-2.4937744140625,48.465606689453125,7.749233245849609
1773522543306149400,1.8761494140625,-1.80084228515625,48.18193817138672,7.242763519287109
1773522543316187600,1.886187744140625,-1.373443603515625,48.489280700683594,6.499919891357422
1773522543326225400,1.896225341796875,-1.1184844970703125,48.640594482421875,5.6181488037109375
1773522543336263400,1.906263427734375,-0.79315185546875,48.677940368652344,4.68206787109375
1773522543346301400,1.916301513671875,-0.653900146484375,49.220924377441406,3.6844749450683594
1773522543356339500,1.92633935546875,-0.5197601318359375,48.983314514160156,3.04840087890625
1773522543366377500,1.93637744140625,-0.827850341796875,49.23833465576172,2.4751548767089844
1773522543376415500,1.94641552734375,-1.1114654541015625,49.39314270019531,1.8565025329589844
1773522543386453500,1.95645361328125,-1.2620697021484375,49.18901824951172,1.6304550170898438
1773522543396491500,1.966491455078125,-1.6627655029296875,49.56227111816406,1.2671089172363281
1773522543406529500,1.976529541015625,-2.1259307861328125,49.287315368652344,1.2453575134277344
1773522543416567600,1.986567626953125,-3.0488433837890625,49.30839538574219,0.7395744323730469
1773522543426605600,1.99660546875,-3.4799957275390625,49.399253845214844,0.157958984375
1773522543436643600,2.0066435546875,-3.6274871826171875,48.979766845703125,-0.14778900146484375
1773522543446680600,2.0166806640625,-4.3188018798828125,49.20526123046875,-1.1331825256347656
1773522543456718300,2.02671826171875,-4.538238525390625,49.320213317871094,-1.7421875
1773522543466756600,2.036756591796875,-4.514068603515625,49.31571960449219,-2.613842010498047
1773522543476794400,2.04679443359375,-4.485748291015625,49.560523986816406,-3.396099090576172
1773522543486832600,2.05683251953125,-4.0070037841796875,49.091575622558594,-3.78253173828125
1773522543496870400,2.066870361328125,-3.7698211669921875,49.485076904296875,-4.828678131103516
1773522543506908400,2.076908447265625,-2.812713623046875,49.21355438232422,-5.504848480224609
1773522543516946400,2.086946533203125,-2.3949737548828125,49.157073974609375,-6.430484771728516
1773522543526984400,2.096984375,-1.7820587158203125,49.45652770996094,-7.419136047363281
1773522543537022500,2.1070224609375,-0.9196319580078125,49.119773864746094,-8.415882110595703
1773522543547060500,2.117060546875,-0.2681884765625,48.953216552734375,-10.083179473876953
1773522543557098800,2.1270986328125,0.37554931640625,48.695953369140625,-11.365196228027344
1773522543567136500,2.137136474609375,1.3439483642578125,48.365631103515625,-12.614757537841797
1773522543577174500,2.147174560546875,1.3619537353515625,48.27433776855469,-13.891422271728516
1773522543587211500,2.15721142578125,1.7805328369140625,47.65892028808594,-14.79775619506836
1773522543597249500,2.16724951171875,1.8544921875,47.5556640625,-15.94820785522461
1773522543607287600,2.17728759765625,2.4345855712890625,47.26365661621094,-16.499134063720703
1773522543617325600,2.18732568359375,2.7098236083984375,47.00373077392578,-16.918331146240234
1773522543627363300,2.19736328125,2.9440460205078125,47.21308135986328,-17.35659408569336
1773522543637401600,2.207401611328125,2.7074432373046875,46.883819580078125,-17.271312713623047
1773522543647439400,2.217439453125,2.6215667724609375,46.930389404296875,-17.423770904541016
1773522543657477000,2.22747705078125,3.0965728759765625,46.99260711669922,-17.40346908569336
1773522543667515400,2.237515380859375,3.846923828125,46.73218536376953,-16.88913345336914
1773522543677553200,2.24755322265625,3.64874267578125,47.16046142578125,-16.75668716430664
1773522543687591400,2.25759130859375,3.5426025390625,46.96160125732422,-16.432720184326172
1773522543697629200,2.267629150390625,2.8173828125,47.20454406738281,-16.295001983642578
1773522543707667200,2.277667236328125,2.58966064453125,47.409637451171875,-16.185230255126953
1773522543717705200,2.287705322265625,2.05535888671875,47.207252502441406,-15.901721954345703
1773522543727743200,2.2977431640625,1.50909423828125,47.328765869140625,-16.280712127685547
1773522543737781200,2.30778125,1.0088958740234375,47.239349365234375,-16.160594940185547
1773522543747818200,2.317818359375,0.483154296875,47.20256042480469,-16.42807388305664
1773522543757856300,2.327856201171875,0.6553497314453125,47.25408172607422,-16.91232681274414
1773522543767894300,2.337894287109375,1.0111541748046875,46.818748474121094,-17.075366973876953
1773522543777932300,2.347932373046875,0.9595794677734375,46.65137481689453,-18.022960662841797
1773522543787970300,2.35797021484375,1.615081787109375,46.11662292480469,-18.701679229736328
1773522543798008300,2.36800830078125,2.1531982421875,45.64967346191406,-19.72983169555664
1773522543808046000,2.378046142578125,2.906646728515625,45.16252899169922,-21.219364166259766
1773522543818084400,2.38808447265625,3.6033477783203125,44.19012451171875,-22.337398529052734
1773522543828122000,2.3981220703125,3.873779296875,43.46668243408203,-24.14858627319336
1773522543838160400,2.408160400390625,4.7564849853515625,42.539833068847656,-25.519039154052734
1773522543848198100,2.4181982421875,5.6545562744140625,41.48118591308594,-26.62167739868164
1773522543858236400,2.428236328125,6.400146484375,40.70417022705078,-27.931507110595703
1773522543868274200,2.438274169921875,7.316314697265625,39.22209167480469,-28.88241195678711
1773522543878312200,2.448312255859375,7.8954620361328125,38.291648864746094,-30.100086212158203
1773522543888350200,2.45835009765625,8.558319091796875,37.00922393798828,-31.055965423583984
1773522543898388200,2.46838818359375,8.7435302734375,35.664794921875,-32.1610221862793
1773522543908426200,2.47842626953125,9.070068359375,34.5428466796875,-33.381229400634766
1773522543918463200,2.488463134765625,9.120376586914062,33.141746520996094,-34.253604888916016
1773522543928501200,2.498501220703125,9.889801025390625,31.83611488342285,-35.2605094909668
1773522543938539300,2.508539306640625,11.511337280273438,30.97783088684082,-35.51601791381836
1773522543948577300,2.518577392578125,13.93463134765625,30.29960060119629,-34.932735443115234
1773522543958615300,2.528615234375,16.261322021484375,29.97043800354004,-34.24795913696289
1773522543968653300,2.5386533203125,18.620086669921875,29.7723331451416,-32.9691047668457
1773522543978691000,2.548691162109375,20.101364135742188,29.774370193481445,-32.06271743774414
1773522543988729300,2.558729248046875,21.409759521484375,29.757287979125977,-31.38174819946289
1773522543998767000,2.56876708984375,21.665252685546875,29.639982223510742,-31.038928985595703
1773522544008805400,2.578805419921875,20.930206298828125,29.734445571899414,-31.813236236572266
1773522544018843100,2.588843017578125,20.13427734375,29.83131217956543,-32.287471771240234
1773522544028881400,2.59888134765625,18.738739013671875,29.821985244750977,-33.03134536743164
1773522544038919200,2.608919189453125,17.7999267578125,30.03581428527832,-33.6624870300293
1773522544048957200,2.618957275390625,17.0948486328125,29.91254234313965,-33.57832717895508
1773522544058995200,2.6289951171875,16.424911499023438,30.290029525756836,-34.369266510009766
1773522544069033200,2.639033203125,16.037338256835938,30.364957809448242,-34.424373626708984
1773522544079071200,2.6490712890625,15.500152587890625,30.54952049255371,-34.558353424072266
1773522544089109200,2.659109130859375,14.747024536132812,30.53730583190918,-34.83949661254883
1773522544099147300,2.669147216796875,14.6610107421875,30.531930923461914,-34.576725006103516
1773522544109184300,2.679184326171875,14.314743041992188,30.67850685119629,-34.85422897338867
1773522544119222300,2.68922216796875,14.141311645507812,30.78782844543457,-34.76023483276367
1773522544129260300,2.69926025390625,14.104095458984375,30.953916549682617,-34.725589752197266
1773522544139298300,2.70929833984375,14.410659790039062,30.980066299438477,-34.87162399291992
1773522544149336000,2.719336181640625,14.269195556640625,30.939443588256836,-34.57639694213867
1773522544159374300,2.729374267578125,14.67864990234375,30.98158073425293,-34.638362884521484
1773522544169412000,2.739412109375,14.995361328125,31.06886100769043,-34.43623733520508
1773522544179450400,2.749450439453125,15.060653686523438,31.066225051879883,-34.23179244995117
1773522544189488000,2.759488037109375,15.262680053710938,31.096715927124023,-34.225345611572266
1773522544199526400,2.7695263671875,15.74713134765625,30.992761611938477,-33.99687576293945
1773522544209564200,2.779564208984375,16.101959228515625,30.77467918395996,-34.31099319458008
1773522544219602200,2.789602294921875,16.349746704101562,30.83127784729004,-34.0794563293457
1773522544229640200,2.79964013671875,16.740921020507812,30.52248191833496,-33.706905364990234
1773522544239678200,2.80967822265625,16.976974487304688,30.6503849029541,-33.91899490356445
1773522544249716200,2.81971630859375,16.706939697265625,30.469884872436523,-33.59821701049805
1773522544259754200,2.829754150390625,16.656997680664062,30.482316970825195,-33.8392219543457
1773522544269792300,2.839792236328125,16.97821044921875,30.554452896118164,-33.77985763549805
1773522544279830300,2.849830322265625,17.126419067382812,30.34248161315918,-33.59440994262695
1773522544289868000,2.859867919921875,17.083297729492188,30.372133255004883,-33.79562759399414
1773522544299905300,2.8699052734375,17.163665771484375,30.260923385620117,-33.3867073059082
1773522544309943300,2.879943359375,17.377182006835938,30.286550521850586,-33.5625114440918
1773522544319981000,2.88998095703125,17.37646484375,30.42219352722168,-33.62636184692383
1773522544330019300,2.900019287109375,17.350173950195312,30.23628807067871,-33.337886810302734
1773522544340057000,2.91005712890625,17.1544189453125,30.215822219848633,-33.69669723510742
1773522544350095400,2.920095458984375,17.313385009765625,30.2512264251709,-33.49211502075195
1773522544360133000,2.930133056640625,17.402114868164062,30.433130264282227,-33.73591995239258
1773522544370171400,2.94017138671875,17.732666015625,30.49730110168457,-33.84221267700195
1773522544380209200,2.950209228515625,17.554611206054688,30.334569931030273,-33.5146369934082
1773522544390247200,2.9602470703125,17.226486206054688,30.42098045349121,-33.81560134887695
1773522544400285200,2.97028515625,17.3284912109375,30.29962730407715,-33.52621078491211
1773522544410323200,2.9803232421875,17.334625244140625,30.275854110717773,-33.57304763793945
1773522544420361200,2.990361328125,17.332839965820312,30.37196922302246,-33.82175827026367
1773522544430399200,3.000399169921875,17.593368530273438,30.365049362182617,-33.411014556884766
1773522544440437200,3.010437255859375,17.41400146484375,30.50496482849121,-33.7629280090332
1773522544450475300,3.020475341796875,17.578018188476562,30.4794979095459,-33.60952377319336
1773522544460513000,3.030512939453125,17.303253173828125,30.594499588012695,-33.57852554321289
1773522544470551300,3.04055126953125,17.701309204101562,30.731237411499023,-33.79061508178711
1773522544480589000,3.050589111328125,17.555877685546875,30.59260368347168,-33.528255462646484
1773522544490627300,3.06062744140625,17.48431396484375,30.55088996887207,-33.69972610473633
1773522544500665000,3.0706650390625,17.412338256835938,30.54408073425293,-33.58784866333008
1773522544510703000,3.080703125,17.3704833984375,30.6131534576416,-33.48064041137695
1773522544520740400,3.090740234375,17.296279907226562,30.82404899597168,-33.64877700805664
1773522544530778000,3.100778076171875,17.013931274414062,30.632226943969727,-33.489261627197266
1773522544540816400,3.11081640625,16.895294189453125,30.781030654907227,-33.75642776489258
1773522544550854100,3.120854248046875,16.867340087890625,30.79969596862793,-33.82966232299805
1773522544560892200,3.13089208984375,16.808685302734375,30.661855697631836,-33.69754409790039
1773522544570930200,3.14093017578125,17.026046752929688,30.94577980041504,-33.86823654174805
1773522544580968200,3.15096826171875,16.638336181640625,30.971277236938477,-33.63631820678711
1773522544591006200,3.161006103515625,16.178756713867188,30.973390579223633,-33.96511459350586
1773522544601044200,3.171044189453125,16.089065551757812,31.011369705200195,-34.02546310424805
1773522544611082200,3.181082275390625,15.976882934570312,30.980558395385742,-33.888004302978516
1773522544621120300,3.191120361328125,15.60003662109375,31.163057327270508,-34.24881362915039
1773522544631158000,3.201157958984375,14.965423583984375,31.34775733947754,-34.137264251708984
1773522544641196300,3.2111962890625,14.069686889648438,31.333913803100586,-34.60995101928711
1773522544651233800,3.22123388671875,13.560073852539062,31.306447982788086,-34.83999252319336
1773522544661271800,3.231271728515625,13.19012451171875,31.217363357543945,-34.70078659057617
1773522544671309800,3.241309814453125,12.145278930664062,31.48320198059082,-35.29354476928711
1773522544681347800,3.251347900390625,11.5948486328125,31.371065139770508,-35.1777458190918
1773522544691386000,3.26138623046875,11.5948486328125,31.371065139770508,-35.1777458190918
1773522544701423900,3.271423828125,10.73175048828125,31.393762588500977,-35.36434555053711
1773522544711462100,3.281462158203125,10.05267333984375,31.574705123901367,-35.74325942993164
1773522544721500000,3.2915,9.549636840820312,31.306604385375977,-35.48725509643555
1773522544731538000,3.301537841796875,9.120208740234375,31.37830924987793,-35.977718353271484
1773522544741576000,3.311575927734375,8.675430297851562,31.244474411010742,-35.996578216552734
1773522544751614000,3.321614013671875,8.312301635742188,31.08180809020996,-36.01797103881836
1773522544761652000,3.33165185546875,8.141189575195312,31.131017684936523,-36.31693649291992
1773522544771689000,3.34168896484375,8.136871337890625,30.858476638793945,-35.998348236083984
1773522544781726700,3.351726806640625,8.10064697265625,30.90069007873535,-36.306392669677734
1773522544791765000,3.361764892578125,8.330490112304688,30.584123611450195,-36.34818649291992
1773522544801802800,3.371802734375,8.323150634765625,30.548189163208008,-36.22816848754883
1773522544811841000,3.381841064453125,8.198318481445312,30.50410270690918,-36.5733757019043
1773522544821878800,3.391878662109375,8.22454833984375,30.417818069458008,-36.4102668762207
1773522544831916800,3.401916748046875,8.2913818359375,30.380826950073242,-36.774662017822266
1773522544841955000,3.411955078125,8.79608154296875,30.11585807800293,-36.71158218383789
1773522544851992800,3.421992919921875,8.870132446289062,29.716577529907227,-36.57027816772461
1773522544862031000,3.432031005859375,9.162765502929688,29.505632400512695,-36.69997787475586
1773522544872068900,3.44206884765625,9.5413818359375,29.18189811706543,-36.34920120239258
1773522544882107100,3.452107177734375,9.561126708984375,29.02437400817871,-36.88070297241211
1773522544892145000,3.462144775390625,10.0845947265625,28.573312759399414,-36.86386489868164
1773522544902183000,3.472182861328125,10.100540161132812,28.52018165588379,-36.75651931762695
1773522544912221000,3.482220947265625,10.424911499023438,28.30661964416504,-37.15377426147461
1773522544922259000,3.492259033203125,10.716293334960938,28.17603874206543,-37.015254974365234
1773522544932297000,3.502296875,10.33758544921875,28.215452194213867,-37.22024917602539
1773522544942335000,3.5123349609375,10.302993774414062,28.05916404724121,-37.4894905090332
1773522544952373000,3.522373046875,10.094100952148438,27.89348030090332,-37.18606185913086
1773522544962411000,3.532410888671875,9.502960205078125,27.912912368774414,-37.6784782409668
1773522544972448800,3.54244873046875,9.144210815429688,28.025026321411133,-37.57370376586914
1773522544982487000,3.552487060546875,8.55078125,28.10301399230957,-37.79603958129883
1773522544992524800,3.56252490234375,7.9674530029296875,28.240480422973633,-37.91427230834961
1773522545002563000,3.57256298828125,7.3419342041015625,28.113080978393555,-37.58098220825195
1773522545012600800,3.582600830078125,6.1154632568359375,28.1892032623291,-38.158939361572266
1773522545022638800,3.592638916015625,5.17034912109375,28.29950523376465,-38.17751693725586
1773522545032676900,3.6026767578125,4.295013427734375,28.162443161010742,-38.27153396606445
1773522545042715000,3.61271484375,3.1077423095703125,28.277753829956055,-38.59829330444336
1773522545052752100,3.622752197265625,2.2738037109375,28.085344314575195,-38.387752532958984
1773522545062790000,3.632789794921875,1.4753570556640625,28.051759719848633,-38.92167282104492
1773522545072828000,3.642827880859375,0.8388519287109375,28.000917434692383,-38.85273361206055
1773522545082866000,3.652865966796875,0.07208251953125,27.7646541595459,-38.75246810913086
1773522545092904000,3.662904052734375,-0.6643829345703125,27.92024040222168,-38.996700286865234
1773522545102942000,3.67294189453125,-1.305419921875,27.692747116088867,-38.62520980834961
1773522545112980000,3.68297998046875,-2.2561187744140625,27.899328231811523,-38.75246047973633
1773522545123018000,3.69301806640625,-3.1762542724609375,27.915571212768555,-38.60616683959961
1773522545133056000,3.703055908203125,-3.8808135986328125,27.871583938598633,-38.4481086730957
1773522545143093800,3.71309375,-4.66802978515625,27.97808265686035,-38.56636428833008
1773522545153132000,3.723132080078125,-5.2610321044921875,27.959718704223633,-38.20798873901367
1773522545163169800,3.733169677734375,-6.4432373046875,28.317636489868164,-38.39979934692383
1773522545173208000,3.7432080078125,-6.9012908935546875,28.223100662231445,-38.35637283325195
1773522545183245800,3.753245849609375,-7.418121337890625,27.95897102355957,-37.947139739990234
1773522545193283800,3.763283935546875,-7.67059326171875,28.216699600219727,-37.90719223022461
1773522545203321900,3.77332177734375,-7.734588623046875,28.036287307739258,-37.72458267211914
1773522545213359900,3.78335986328125,-8.340591430664062,28.20082664489746,-37.72822952270508
1773522545223398000,3.79339794921875,-8.620147705078125,27.96927833557129,-37.72616958618164
1773522545233436000,3.803435791015625,-8.67828369140625,28.114187240600586,-37.51163864135742
1773522545243474000,3.813473876953125,-9.613540649414062,28.47691535949707,-37.468753814697266
1773522545253512000,3.823511962890625,-10.5836181640625,28.41090965270996,-36.8458137512207
1773522545263549700,3.8335498046875,-11.977142333984375,28.69220542907715,-36.38254165649414
1773522545273588000,3.843587890625,-13.101058959960938,28.65329933166504,-36.05775833129883
1773522545283625700,3.853625732421875,-13.311569213867188,28.434988021850586,-35.486385345458984
1773522545293664000,3.8636640625,-14.432418823242188,28.4785213470459,-35.56954574584961
1773522545303701800,3.87370166015625,-14.717788696289062,28.300851821899414,-35.31791305541992
1773522545313740000,3.883739990234375,-14.885696411132812,28.464677810668945,-35.31157302856445
1773522545323777800,3.89377783203125,-15.084518432617188,28.59132957458496,-35.44083786010742
1773522545333815800,3.90381591796875,-14.963943481445312,28.377901077270508,-35.08774185180664
1773522545343853800,3.913853759765625,-15.34820556640625,28.568334579467773,-35.3413200378418
1773522545353891800,3.923891845703125,-15.41552734375,28.59525489807129,-35.18222427368164
1773522545363930000,3.93393017578125,-15.595123291015625,28.78312873840332,-34.93049240112305
1773522545373968000,3.9439677734375,-16.179656982421875,29.089632034301758,-34.670108795166016
1773522545384006100,3.954006103515625,-15.996856689453125,29.299768447875977,-34.02488327026367
1773522545394044000,3.9640439453125,-16.926193237304688,29.48464012145996,-33.96762466430664
1773522545404082000,3.97408203125,-16.850234985351562,29.649309158325195,-33.60470962524414
1773522545414119000,3.984118896484375,-16.629409790039062,30.06159782409668,-33.32131576538086
1773522545424157000,3.994156982421875,-17.19024658203125,30.632497787475586,-33.09169387817383
1773522545434194700,4.004194580078125,-16.856796264648438,30.711149215698242,-32.77103805541992
1773522545444233000,4.01423291015625,-17.2655029296875,30.912073135375977,-32.70075607299805
1773522545454270700,4.024270751953125,-17.231170654296875,30.8980655670166,-32.56051254272461
1773522545464309000,4.03430908203125,-17.353271484375,30.927885055541992,-32.25838851928711
1773522545474346800,4.0443466796875,-17.627838134765625,31.310060501098633,-32.17039108276367
1773522545484385000,4.054385009765625,-17.620574951171875,31.098390579223633,-32.0625114440918
1773522545494423000,4.064423095703125,-17.994705200195312,31.28687858581543,-32.16312026977539
1773522545504460800,4.074460693359375,-18.049118041992188,31.06782341003418,-32.2338752746582
1773522545514499000,4.0844990234375,-17.744171142578125,30.854726791381836,-32.2379035949707
1773522545524536800,4.094536865234375,-17.927825927734375,30.835329055786133,-32.338375091552734
1773522545534575000,4.1045751953125,-18.165603637695312,30.49100685119629,-32.26455307006836
1773522545544612900,4.11461279296875,-18.243209838867188,30.587194442749023,-32.36057662963867
1773522545554651100,4.124651123046875,-18.6021728515625,30.21868324279785,-32.63045883178711
1773522545564689000,4.13468896484375,-18.515838623046875,30.063737869262695,-32.59762954711914
1773522545574727000,4.144726806640625,-19.016510009765625,30.09633445739746,-32.84147262573242
1773522545584765000,4.154764892578125,-18.934906005859375,29.86699104309082,-32.5836296081543
1773522545594803000,4.164802978515625,-19.19183349609375,29.85948371887207,-32.70185470581055
1773522545604841000,4.174841064453125,-19.562850952148438,29.735578536987305,-32.7597770690918
1773522545614879000,4.18487890625,-19.352569580078125,29.421541213989258,-32.68781661987305
1773522545624916700,4.194916748046875,-20.105255126953125,29.024606704711914,-32.93277359008789
1773522545634955000,4.204955078125,-20.196334838867188,28.723684310913086,-33.07822799682617
1773522545644992800,4.21499267578125,-20.330535888671875,28.546419143676758,-33.22171401977539
1773522545655031300,4.22503125,-20.773849487304688,28.091814041137695,-33.556636810302734
1773522545665069000,4.235069091796875,-20.200973510742188,27.564321517944336,-33.59109115600586
1773522545675107300,4.245107421875,-20.675430297851562,27.22430992126465,-33.99103927612305
1773522545685145000,4.25514501953125,-20.531326293945312,26.653459548950195,-34.520931243896484
1773522545695183400,4.265183349609375,-20.757308959960938,26.1185245513916,-34.6512336730957
1773522545705221000,4.27522119140625,-21.147369384765625,25.790693283081055,-35.01369857788086
1773522545715259100,4.285259033203125,-20.5048828125,25.518640518188477,-35.01259231567383
1773522545725297200,4.295297119140625,-21.075897216796875,25.098634719848633,-35.4233283996582
1773522545735335200,4.305335205078125,-21.0277099609375,24.819746017456055,-35.74937057495117
1773522545745373200,4.315373291015625,-20.944305419921875,24.633153915405273,-35.6287727355957
1773522545755411200,4.3254111328125,-21.360275268554688,24.618242263793945,-35.7899284362793
1773522545765449000,4.335448974609375,-20.88995361328125,24.478673934936523,-35.7686882019043
1773522545775487200,4.3454873046875,-21.442581176757812,24.388322830200195,-36.038578033447266
1773522545785525000,4.35552490234375,-21.248077392578125,24.447874069213867,-36.22849655151367
1773522545795563300,4.365563232421875,-21.007110595703125,24.215696334838867,-36.239688873291016
1773522545805601000,4.37560107421875,-21.035079956054688,24.29789924621582,-36.410030364990234
1773522545815639300,4.385639404296875,-20.442031860351562,24.16664695739746,-36.44864273071289
1773522545825677000,4.395677001953125,-20.60247802734375,24.486299514770508,-36.59267044067383
1773522545835715000,4.405715087890625,-20.510879516601562,24.55845832824707,-36.804012298583984
1773522545845753000,4.415753173828125,-20.479080200195312,24.7138729095459,-36.65391159057617
1773522545855791000,4.425791015625,-20.4085693359375,24.885854721069336,-36.69655227661133
1773522545865829000,4.4358291015625,-19.89764404296875,24.936941146850586,-36.62273025512695
1773522545875867100,4.4458671875,-20.130401611328125,25.03592872619629,-36.6698112487793
1773522545885905200,4.4559052734375,-20.052642822265625,25.240304946899414,-36.93612289428711
1773522545895943200,4.465943115234375,-19.629547119140625,25.32737922668457,-36.7679557800293
1773522545905981200,4.475981201171875,-19.718307495117188,25.362455368041992,-37.28517532348633
1773522545916019200,4.486019287109375,-18.914016723632812,25.194299697875977,-37.32914352416992
1773522545926057200,4.49605712890625,-18.81829833984375,25.442777633666992,-37.58315658569336
1773522545936095200,4.50609521484375,-18.492156982421875,25.50728416442871,-37.914005279541016
1773522545946133200,4.51613330078125,-17.732711791992188,25.3795223236084,-37.882930755615234
1773522545956171300,4.526171142578125,-17.541046142578125,25.466020584106445,-38.37517166137695
1773522545966209300,4.536209228515625,-16.779464721679688,25.298810958862305,-38.50407028198242
1773522545976247000,4.5462470703125,-16.989166259765625,25.504606246948242,-38.49149703979492
1773522545986285300,4.556285400390625,-17.272857666015625,25.52496910095215,-38.5526008605957
1773522545996323000,4.566322998046875,-16.434951782226562,25.594873428344727,-38.32852554321289
1773522546006360000,4.576360107421875,-16.822097778320312,25.735109329223633,-38.71792984008789
1773522546016398000,4.586398193359375,-16.3687744140625,25.9762020111084,-38.8650016784668
1773522546026436000,4.59643603515625,-16.324722290039062,25.902376174926758,-38.8370475769043
1773522546036474000,4.60647412109375,-16.567108154296875,26.191728591918945,-39.019229888916016
1773522546046512000,4.61651220703125,-16.1195068359375,26.202199935913086,-38.67537307739258
1773522546056550100,4.626550048828125,-16.502914428710938,26.485754013061523,-39.06721115112305
1773522546066588200,4.636588134765625,-15.920562744140625,26.370634078979492,-39.18698501586914
1773522546076626200,4.646626220703125,-15.920562744140625,26.370634078979492,-39.18698501586914
1773522546086664200,4.656664306640625,-14.345718383789062,26.982576370239258,-39.58523941040039
1773522546096702200,4.6667021484375,-14.345718383789062,26.982576370239258,-39.58523941040039
1773522546106740200,4.676740234375,-13.184356689453125,27.081640243530273,-39.7434196472168
1773522546116778200,4.6867783203125,-12.266067504882812,27.022695541381836,-40.38093948364258
1773522546126816300,4.696816162109375,-11.1343994140625,26.891462326049805,-40.7071647644043
1773522546136854300,4.706854248046875,-10.437515258789062,26.599966049194336,-40.75979995727539
1773522546146892000,4.71689208984375,-10.1346435546875,26.92569923400879,-41.30875778198242
1773522546156930300,4.726930419921875,-9.679183959960938,26.39008140563965,-41.25876998901367
1773522546166968000,4.736968017578125,-10.15643310546875,26.480772018432617,-41.53425979614258
1773522546177006300,4.74700634765625,-10.2642822265625,26.053232192993164,-42.0207405090332
1773522546187044000,4.757044189453125,-9.98431396484375,25.404775619506836,-41.87404251098633
1773522546197082000,4.76708203125,-9.845535278320312,25.267911911010742,-42.43887710571289
1773522546207120100,4.7771201171875,-8.988662719726562,25.008630752563477,-42.582828521728516
1773522546217158100,4.787158203125,-8.162399291992188,24.922304153442383,-42.8773307800293
1773522546227196200,4.797196044921875,-7.3621978759765625,24.805723190307617,-43.31755447387695
1773522546237234200,4.807234130859375,-6.385711669921875,24.465456008911133,-43.14402389526367
1773522546247272200,4.817272216796875,-5.98126220703125,24.748762130737305,-43.66279220581055
1773522546257310200,4.827310302734375,-5.0650787353515625,24.319562911987305,-43.5547981262207
1773522546267348000,4.837347900390625,-4.8009490966796875,24.33498191833496,-43.650691986083984
1773522546277386200,4.84738623046875,-4.6114654541015625,24.50604820251465,-44.06230545043945
1773522546287424000,4.857424072265625,-3.7082977294921875,24.305192947387695,-43.53792190551758
1773522546297462300,4.867462158203125,-3.001983642578125,24.645578384399414,-44.04884719848633
1773522546307500000,4.8775,-2.0809326171875,24.585416793823242,-43.65969467163086
1773522546317538300,4.887538330078125,-1.5756378173828125,24.9316463470459,-43.49494552612305
1773522546327576000,4.897576171875,-1.0063323974609375,25.589662551879883,-43.75934982299805
1773522546337614000,4.907614013671875,-0.2306671142578125,25.749277114868164,-43.15678024291992
1773522546347652000,4.917652099609375,-0.2079010009765625,26.200780868530273,-43.51144790649414
1773522546357690000,4.927690185546875,0.0757598876953125,26.46549415588379,-43.21281814575195
1773522546367728000,4.93772802734375,0.21893310546875,26.58183479309082,-42.91048812866211
1773522546377766100,4.94776611328125,0.5050048828125,26.98911476135254,-43.082027435302734
1773522546387804200,4.95780419921875,0.8920745849609375,26.89838981628418,-42.53813552856445
1773522546397842200,4.96784228515625,0.90740966796875,27.271753311157227,-42.70994186401367
1773522546407880200,4.977880126953125,1.4181671142578125,27.39202308654785,-42.766178131103516
1773522546417918200,4.987918212890625,2.05108642578125,27.152456283569336,-42.47101974487305
1773522546427956200,4.997956298828125,2.3415679931640625,27.53468894958496,-42.77994918823242
1773522546437994200,5.007994140625,2.7242279052734375,27.19377326965332,-42.30404281616211
1773522546448032300,5.0180322265625,3.0228424072265625,27.361631393432617,-42.409725189208984
1773522546458070300,5.0280703125,3.4065399169921875,27.241090774536133,-42.49862289428711
1773522546468108300,5.0381083984375,3.6200103759765625,26.93891716003418,-42.23600387573242
1773522546478146000,5.04814599609375,3.8031005859375,27.170156478881836,-42.46541213989258
1773522546488184300,5.058184326171875,4.1951751708984375,26.85245704650879,-42.14339065551758
1773522546498222000,5.06822216796875,4.4291839599609375,26.849679946899414,-42.2745475769043
1773522546508260400,5.07826025390625,4.9320220947265625,26.931623458862305,-42.35397720336914
1773522546518298000,5.088298095703125,5.5963897705078125,26.78986167907715,-41.76694869995117
1773522546528336100,5.098336181640625,5.946563720703125,27.020540237426758,-42.17202377319336
1773522546538374100,5.1083740234375,6.289886474609375,26.959524154663086,-41.53542709350586
1773522546548412200,5.118412109375,6.4673919677734375,27.084840774536133,-41.495182037353516
1773522546558450200,5.1284501953125,6.7321319580078125,27.19545555114746,-41.649723052978516
1773522546568488200,5.13848828125,7.005126953125,27.296419143676758,-41.15007400512695
1773522546578526200,5.148526123046875,6.82269287109375,27.552587509155273,-41.70089340209961
1773522546588564200,5.158564208984375,7.0530853271484375,27.47447395324707,-41.3094596862793
1773522546598602000,5.16860205078125,6.711151123046875,27.91792869567871,-41.282657623291016
1773522546608640300,5.17864013671875,6.05242919921875,28.26048469543457,-41.465641021728516
1773522546618678000,5.188677978515625,6.160491943359375,28.211965560913086,-40.88591384887695
1773522546628716300,5.19871630859375,4.822723388671875,28.371557235717773,-41.560482025146484
1773522546638754000,5.208754150390625,4.1375885009765625,28.36993980407715,-41.50837326049805
1773522546648792800,5.218792724609375,2.687957763671875,28.2834415435791,-41.70163345336914
1773522546658830600,5.22883056640625,0.97137451171875,28.354707717895508,-42.4155387878418
1773522546668868900,5.238868896484375,0.158935546875,27.64621925354004,-42.012386322021484
1773522546678906600,5.24890673828125,-2.248443603515625,27.43645668029785,-42.55363082885742
1773522546688945000,5.25894482421875,-3.780670166015625,27.002443313598633,-42.64484786987305
1773522546698982700,5.268982666015625,-5.373931884765625,26.329004287719727,-42.66031265258789
1773522546709020700,5.279020751953125,-6.8549041748046875,25.9832706451416,-43.211002349853516
1773522546719058700,5.28905859375,-7.3963165283203125,25.239824295043945,-42.9556770324707
1773522546729096700,5.2990966796875,-8.301925659179688,24.48933219909668,-43.5605354309082
1773522546739134700,5.309134765625,-8.3023681640625,23.844770431518555,-43.85165023803711
1773522546749172700,5.3191728515625,-8.473358154296875,23.09998893737793,-43.73207473754883
1773522546759210500,5.32921044921875,-9.37799072265625,22.73423194885254,-44.08391189575195
1773522546769248800,5.339248779296875,-9.809555053710938,22.329256057739258,-43.52157211303711
1773522546779286500,5.34928662109375,-10.910842895507812,22.205778121948242,-43.72731399536133
1773522546789324800,5.35932470703125,-11.34271240234375,22.14336585998535,-43.663997650146484
1773522546799362600,5.369362548828125,-11.330398559570312,22.240808486938477,-43.12813949584961
1773522546809400800,5.37940087890625,-11.478988647460938,22.43586540222168,-43.57661819458008
1773522546819438600,5.3894384765625,-11.525787353515625,22.5739803314209,-43.089717864990234
1773522546829476600,5.3994765625,-11.8179931640625,22.633100509643555,-43.1097526550293
1773522546839514600,5.4095146484375,-11.75433349609375,22.70707130432129,-43.30665969848633
1773522546849552600,5.419552734375,-11.21734619140625,22.63384437561035,-43.0225715637207
1773522546859590700,5.429590576171875,-11.409378051757812,22.64351463317871,-43.69801712036133
1773522546869628700,5.439628662109375,-10.4844970703125,22.743528366088867,-43.49250411987305
1773522546879666700,5.449666748046875,-10.30810546875,22.67677116394043,-43.6023063659668
1773522546889704700,5.45970458984375,-9.850631713867188,22.64467430114746,-43.938358306884766
1773522546899742700,5.46974267578125,-8.696624755859375,22.80101203918457,-43.466800689697266
1773522546909780700,5.47978076171875,-8.064910888671875,22.80247688293457,-44.20558547973633
1773522546919818800,5.48981884765625,-7.4830780029296875,22.834890365600586,-43.96171188354492
1773522546929856800,5.499856689453125,-7.02471923828125,23.206079483032227,-44.14255142211914
1773522546939894800,5.509894775390625,-6.401611328125,23.25101661682129,-44.50905227661133
1773522546949932800,5.519932861328125,-5.221771240234375,23.200624465942383,-43.78965377807617
1773522546959970800,5.529970703125,-4.531341552734375,23.516481399536133,-44.44302749633789
1773522546970008600,5.540008544921875,-3.27325439453125,23.537321090698242,-44.442134857177734
1773522546980046800,5.550046875,-2.2147369384765625,23.5679988861084,-44.36116409301758
1773522546990084600,5.560084716796875,-1.0093994140625,23.787343978881836,-44.828121185302734
1773522547000123000,5.570122802734375,0.389556884765625,23.824567794799805,-44.158870697021484
1773522547010160600,5.58016064453125,1.161407470703125,23.798189163208008,-44.621089935302734
1773522547020198700,5.59019873046875,2.7165374755859375,23.905942916870117,-44.45991897583008
1773522547030237700,5.60023779296875,4.0524444580078125,23.70720100402832,-44.14017105102539
1773522547040274700,5.610274658203125,4.9584503173828125,23.946077346801758,-44.44014358520508
1773522547050313700,5.620313720703125,5.88397216796875,23.78059196472168,-44.01980972290039
1773522547060351500,5.6303515625,6.4001312255859375,23.770326614379883,-44.2650032043457
1773522547070389800,5.6403896484375,7.09735107421875,24.0406436920166,-44.0630989074707
1773522547080427500,5.650427490234375,7.6379852294921875,24.00687599182129,-43.4536247253418
1773522547090465800,5.6604658203125,8.202346801757812,24.64290428161621,-43.609683990478516
1773522547100503800,5.67050390625,8.597335815429688,24.68528175354004,-42.9246711730957
1773522547110541600,5.68054150390625,8.02020263671875,25.14640235900879,-43.176517486572266
1773522547120579800,5.690579833984375,8.250244140625,25.483945846557617,-42.99904251098633
1773522547130617600,5.70061767578125,8.608047485351562,25.700471878051758,-42.45754623413086
1773522547140655900,5.71065576171875,8.81622314453125,26.027769088745117,-42.9344596862793
1773522547150693600,5.720693603515625,9.21417236328125,26.0367374420166,-42.443050384521484
1773522547160732000,5.73073193359375,9.325057983398438,25.950258255004883,-42.4734001159668
1773522547170769700,5.740769775390625,9.990524291992188,26.04493522644043,-42.612979888916016
1773522547180807700,5.7508076171875,10.705352783203125,25.747873306274414,-42.0268669128418
1773522547190845700,5.760845703125,11.25518798828125,25.647192001342773,-42.68831253051758
1773522547200883700,5.7708837890625,11.408737182617188,25.690092086791992,-42.3829231262207
1773522547210921700,5.780921630859375,10.681259155273438,25.698774337768555,-42.57426071166992
1773522547220959700,5.790959716796875,10.269577026367188,25.95280647277832,-43.08920669555664
1773522547230997800,5.800997802734375,10.083145141601562,26.00886344909668,-42.4596061706543
1773522547241035800,5.811035888671875,9.78204345703125,26.16893196105957,-42.92942428588867
1773522547251073500,5.821073486328125,9.720428466796875,26.300397872924805,-42.5335807800293
1773522547261111800,5.83111181640625,9.213973999023438,26.799734115600586,-42.57431411743164
1773522547271149600,5.841149658203125,9.180068969726562,27.088876724243164,-43.07060623168945
1773522547281187800,5.851187744140625,8.514892578125,27.055307388305664,-42.35698318481445
1773522547291225600,5.8612255859375,7.6332855224609375,27.274290084838867,-43.1342887878418
1773522547301264000,5.871263916015625,6.9160308837890625,27.240903854370117,-42.931758880615234
1773522547311301600,5.881301513671875,6.2283935546875,27.34229850769043,-42.79433059692383
1773522547321339600,5.891339599609375,5.392974853515625,27.532472610473633,-43.26847457885742
1773522547331377700,5.901377685546875,4.9481964111328125,27.618986129760742,-42.736087799072266
1773522547341415700,5.911415771484375,4.014678955078125,27.732595443725586,-43.18855667114258
1773522547351453700,5.92145361328125,3.3507080078125,27.808015823364258,-42.99979782104492
1773522547361491700,5.93149169921875,2.749176025390625,27.798860549926758,-42.631412506103516
1773522547371529700,5.94152978515625,2.47271728515625,27.86496925354004,-43.31489181518555
1773522547381567700,5.951567626953125,1.7922210693359375,27.820405960083008,-42.89931106567383
1773522547391605500,5.96160546875,1.2492828369140625,27.722108840942383,-43.423587799072266
1773522547401643800,5.971643798828125,0.919464111328125,27.54731559753418,-43.290531158447266
1773522547411681500,5.981681640625,0.6776275634765625,27.30356788635254,-42.91141891479492
1773522547421719800,5.9917197265625,0.450164794921875,27.5329647064209,-43.40690231323242
1773522547431757600,6.001757568359375,0.1654510498046875,27.46574592590332,-42.8947639465332
1773522547441795600,6.011795654296875,-0.720733642578125,27.406518936157227,-43.202449798583984
1773522547451833600,6.02183349609375,-0.892578125,27.6213321685791,-43.41415786743164
1773522547461871600,6.03187158203125,-1.28277587890625,27.335538864135742,-42.96249771118164
1773522547471910000,6.041909912109375,-1.7057342529296875,27.421998977661133,-43.68410873413086
1773522547481947600,6.05194775390625,-1.7057342529296875,27.421998977661133,-43.68410873413086
1773522547491986000,6.06198583984375,-2.3719482421875,27.088266372680664,-43.20463180541992
1773522547502023700,6.072023681640625,-3.2359466552734375,26.735754013061523,-43.490047454833984
1773522547512061700,6.082061767578125,-3.70208740234375,26.583925247192383,-43.78828811645508
1773522547522099700,6.092099609375,-4.374114990234375,26.339487075805664,-43.392093658447266
1773522547532137700,6.1021376953125,-4.81939697265625,26.047731399536133,-44.044376373291016
1773522547542175700,6.11217578125,-5.0291290283203125,25.785520553588867,-43.71596145629883
1773522547552213800,6.1222138671875,-5.761566162109375,25.382661819458008,-43.7957878112793
1773522547562251800,6.132251708984375,-6.6511688232421875,25.332319259643555,-44.269351959228516
1773522547572289800,6.142289794921875,-6.425048828125,24.978513717651367,-43.57313919067383
1773522547582327600,6.15232763671875,-7.2231292724609375,24.762807846069336,-44.26107406616211
1773522547592365800,6.16236572265625,-7.617279052734375,24.404314041137695,-43.96500778198242
1773522547602403600,6.172403564453125,-8.15777587890625,24.221834182739258,-43.98861312866211
1773522547612441900,6.18244189453125,-8.446502685546875,24.118791580200195,-44.47530746459961
1773522547622479600,6.192479736328125,-8.482345581054688,23.669164657592773,-43.82999038696289
1773522547632518000,6.202517822265625,-8.788055419921875,23.416807174682617,-44.47980880737305
1773522547642555600,6.2125556640625,-8.9385986328125,23.103296279907227,-44.356319427490234
1773522547652597000,6.222596923828125,-8.715606689453125,22.882516860961914,-44.2327995300293
1773522547662635000,6.232635009765625,-9.09124755859375,22.666563034057617,-44.69331741333008
1773522547672673000,6.242673095703125,-8.97076416015625,22.201929092407227,-44.27463150024414
1773522547682711000,6.2527109375,-9.150390625,22.124082565307617,-44.717350006103516
1773522547692749000,6.2627490234375,-8.928634643554688,21.819128036499023,-44.78770065307617
1773522547702788000,6.2727880859375,-9.173583984375,21.548227310180664,-44.3574333190918
1773522547712826000,6.282826171875,-9.387710571289062,21.445417404174805,-44.93464279174805
1773522547722864000,6.292864013671875,-9.370407104492188,21.102170944213867,-44.6389045715332
1773522547732902100,6.302902099609375,-9.481277465820312,20.919015884399414,-44.98185348510742
1773522547742940000,6.31293994140625,-9.261627197265625,20.764596939086914,-45.07536697387695
1773522547752978200,6.322978271484375,-9.0074462890625,20.666513442993164,-44.7326774597168
1773522547763016000,6.333015869140625,-9.31207275390625,20.717618942260742,-45.2055778503418
1773522547773054200,6.34305419921875,-9.081207275390625,20.70634651184082,-44.879268646240234
1773522547783092000,6.353092041015625,-9.192214965820312,20.51682472229004,-45.0742301940918
1773522547793130000,6.3631298828125,-9.1094970703125,20.519189834594727,-45.2468376159668
1773522547803168000,6.37316796875,-8.645736694335938,20.41978645324707,-44.68893051147461
1773522547813206000,6.3832060546875,-8.995834350585938,20.433523178100586,-45.23494338989258
1773522547823244000,6.393244140625,-8.929794311523438,20.547334671020508,-44.852291107177734
1773522547833282000,6.403281982421875,-8.894180297851562,20.47435188293457,-44.85786056518555
1773522547843320000,6.413320068359375,-9.184524536132812,20.69181251525879,-45.15519332885742
1773522547853358000,6.423358154296875,-9.092041015625,20.81795310974121,-44.70405960083008
1773522547863395800,6.433395751953125,-9.209121704101562,20.654691696166992,-45.1297721862793
1773522547873434000,6.44343408203125,-8.956283569335938,20.824682235717773,-44.9444694519043
1773522547883472000,6.453471923828125,-8.72637939453125,20.959569931030273,-44.824222564697266
1773522547893510100,6.46351025390625,-8.972320556640625,21.014028549194336,-45.1998405456543
1773522547903548000,6.4735478515625,-8.322189331054688,21.094785690307617,-44.43729019165039
1773522547913586200,6.483586181640625,-8.376968383789062,21.16135597229004,-45.018131256103516
1773522547923624000,6.4936240234375,-8.3917236328125,21.07179832458496,-44.85940933227539
1773522547933662000,6.503661865234375,-8.291961669921875,21.289026260375977,-44.51790237426758
1773522547943700000,6.513699951171875,-8.457901000976562,21.365468978881836,-44.9658088684082
1773522547953738000,6.523738037109375,-8.179885864257812,21.207307815551758,-44.403385162353516
1773522547963776000,6.53377587890625,-8.31146240234375,21.408720016479492,-44.803279876708984
1773522547973814000,6.54381396484375,-8.159393310546875,21.63276481628418,-44.691219329833984
1773522547983852000,6.55385205078125,-7.93353271484375,21.690732955932617,-44.51118850708008
1773522547993890000,6.56389013671875,-7.80780029296875,21.739030838012695,-44.88612747192383
1773522548003928000,6.573927978515625,-8.113006591796875,21.798372268676758,-44.46921157836914
1773522548013966000,6.583966064453125,-8.185012817382812,21.802709579467773,-44.656497955322266
1773522548024004000,6.594004150390625,-8.061492919921875,21.912351608276367,-44.755924224853516
1773522548034042000,6.6040419921875,-7.8604583740234375,21.755277633666992,-44.197505950927734
1773522548044080000,6.614080078125,-7.81085205078125,22.038423538208008,-44.59256362915039
1773522548054118000,6.624117919921875,-7.6367950439453125,22.16887092590332,-44.15798568725586
1773522548064156200,6.63415625,-8.080917358398438,22.347536087036133,-44.47220993041992
1773522548074194000,6.64419384765625,-7.8731842041015625,22.52579689025879,-44.64619827270508
1773522548084232200,6.654232177734375,-7.772216796875,22.58611488342285,-44.146724700927734
1773522548094270000,6.66427001953125,-7.4678497314453125,22.80317497253418,-44.52775192260742
1773522548104308200,6.67430810546875,-7.6446533203125,23.24479866027832,-44.17074966430664
1773522548114346000,6.684345947265625,-7.722808837890625,23.23946189880371,-44.222904205322266
1773522548124384000,6.694384033203125,-7.861236572265625,23.41286277770996,-44.4257698059082
1773522548134422000,6.704422119140625,-7.5700531005859375,23.60355567932129,-43.85795974731445
1773522548144460000,6.7144599609375,-7.61346435546875,23.811120986938477,-44.43589401245117
1773522548154499000,6.7244990234375,-7.119171142578125,24.015562057495117,-43.94795608520508
1773522548164536800,6.734536865234375,-7.15435791015625,24.051252365112305,-43.913570404052734
1773522548174575000,6.7445751953125,-7.53802490234375,24.27321434020996,-44.230960845947266
1773522548184612900,6.75461279296875,-7.1949920654296875,24.26454734802246,-43.41231918334961
1773522548194651100,6.764651123046875,-7.3662567138671875,24.374143600463867,-43.9442253112793
1773522548204689200,6.774689208984375,-7.241119384765625,24.778650283813477,-43.81174087524414
1773522548214727000,6.784726806640625,-7.18743896484375,24.683931350708008,-43.5754280090332
1773522548224765200,6.79476513671875,-7.3857574462890625,24.972368240356445,-43.97700881958008
1773522548234803000,6.804802978515625,-7.031585693359375,24.894933700561523,-43.273197174072266
1773522548244841200,6.81484130859375,-6.9864044189453125,24.928369522094727,-43.697574615478516
1773522548254879000,6.82487890625,-6.7194061279296875,25.2366886138916,-43.54537582397461
1773522548264917200,6.834917236328125,-6.623016357421875,25.34016990661621,-43.2585563659668
1773522548274955000,6.844955078125,-6.8238372802734375,25.419790267944336,-43.73225021362305
1773522548284993000,6.854992919921875,-6.7494964599609375,25.425912857055664,-43.23740005493164
1773522548295031000,6.865031005859375,-6.5001983642578125,25.531827926635742,-43.633419036865234
1773522548305069000,6.875069091796875,-6.51409912109375,25.5853214263916,-43.5735969543457
1773522548315107000,6.885107177734375,-6.5959320068359375,25.48918342590332,-43.25998306274414
1773522548325145000,6.89514501953125,-6.5961761474609375,25.6910343170166,-43.73042678833008
1773522548335183000,6.90518310546875,-6.3097991943359375,25.545194625854492,-43.12632369995117
1773522548345221000,6.91522119140625,-6.4637298583984375,25.636117935180664,-43.6117057800293
1773522548355259000,6.9252587890625,-6.5329742431640625,25.625505447387695,-43.671199798583984
1773522548365297200,6.935297119140625,-6.479766845703125,25.534936904907227,-43.103145599365234
1773522548375335000,6.9453349609375,-6.459991455078125,25.83943748474121,-43.56307601928711
1773522548385373200,6.955373291015625,-6.4403076171875,25.901723861694336,-43.16970443725586
1773522548395411000,6.965410888671875,-6.7291717529296875,25.872861862182617,-43.332027435302734
1773522548405449200,6.97544921875,-7.00311279296875,26.03145408630371,-43.47311019897461
1773522548415487000,6.985487060546875,-6.7806396484375,25.8101749420166,-43.006099700927734
1773522548425525000,6.99552490234375,-6.54168701171875,25.997663497924805,-43.4478645324707
1773522548435563000,7.00556298828125,-6.6145172119140625,25.835107803344727,-42.838924407958984
1773522548445601000,7.01560107421875,-7.140045166015625,25.938478469848633,-42.917789459228516
1773522548455639000,7.02563916015625,-7.395294189453125,26.051332473754883,-43.44871139526367
1773522548465677000,7.035677001953125,-7.3585662841796875,25.967313766479492,-42.74982833862305
1773522548475714800,7.04571484375,-7.9749298095703125,26.0311222076416,-43.253299713134766
1773522548485753000,7.055753173828125,-8.044479370117188,25.9628849029541,-42.840885162353516
1773522548495790800,7.065790771484375,-8.02276611328125,25.988569259643555,-42.73476028442383
1773522548505829000,7.0758291015625,-8.461837768554688,26.092573165893555,-43.16060256958008
1773522548515867000,7.085866943359375,-8.207443237304688,25.88572120666504,-42.28550338745117
1773522548525905200,7.0959052734375,-8.399887084960938,25.983972549438477,-42.936519622802734
1773522548535944000,7.10594384765625,-8.6585693359375,25.982213973999023,-42.75710678100586
1773522548545982200,7.115982177734375,-8.678863525390625,25.839738845825195,-42.50693130493164
1773522548556020000,7.12602001953125,-8.762283325195312,25.997411727905273,-42.93894577026367
1773522548566058000,7.13605810546875,-8.581222534179688,26.061246871948242,-42.166568756103516
1773522548576096000,7.146095947265625,-8.834335327148438,25.931135177612305,-42.64143753051758
1773522548586134000,7.156134033203125,-8.738204956054688,26.1279354095459,-42.572078704833984
1773522548596172000,7.166172119140625,-8.968536376953125,26.135095596313477,-42.312931060791016
1773522548606210000,7.1762099609375,-9.148666381835938,26.184968948364258,-42.74116897583008
1773522548616248000,7.186248046875,-8.891448974609375,26.15821647644043,-42.12021255493164
1773522548626286000,7.1962861328125,-8.752609252929688,26.198129653930664,-42.563968658447266
1773522548636323800,7.20632373046875,-8.58477783203125,26.306859970092773,-42.55781936645508
1773522548646362000,7.216362060546875,-8.300003051757812,26.26042366027832,-42.09238052368164
1773522548656400000,7.22639990234375,-8.332351684570312,26.442659378051758,-42.47671127319336
1773522548666438100,7.236438232421875,-8.349853515625,26.47287940979004,-42.22563552856445
1773522548676476000,7.246475830078125,-8.356399536132812,26.37373924255371,-42.28852462768555
1773522548686514200,7.25651416015625,-8.380691528320312,26.54429054260254,-42.42421340942383
1773522548696552000,7.266552001953125,-8.182083129882812,26.368432998657227,-42.12441635131836
1773522548706590200,7.276590087890625,-8.053298950195312,26.38960838317871,-42.55289840698242
1773522548716628000,7.2866279296875,-8.287567138671875,26.175107955932617,-42.23984146118164
1773522548726666000,7.296666015625,-8.34661865234375,26.147146224975586,-42.44955825805664
1773522548736704000,7.3067041015625,-7.9499053955078125,26.206300735473633,-42.73787307739258
1773522548746742000,7.316741943359375,-8.193145751953125,26.024324417114258,-42.3997688293457
1773522548756780000,7.326780029296875,-8.435943603515625,26.007658004760742,-42.894588470458984
1773522548766818000,7.336818115234375,-8.097030639648438,25.883058547973633,-42.598636627197266
1773522548776856000,7.34685595703125,-8.557373046875,25.59379768371582,-42.636959075927734
1773522548786894000,7.35689404296875,-8.601089477539062,25.459043502807617,-42.92458724975586
1773522548796932000,7.36693212890625,-8.016464233398438,25.27602195739746,-42.291072845458984
1773522548806970000,7.37697021484375,-8.635910034179688,25.263620376586914,-42.925960540771484
1773522548817008000,7.387008056640625,-8.521194458007812,25.359983444213867,-42.79689407348633
1773522548827046100,7.397046142578125,-8.625778198242188,25.131616592407227,-42.84128952026367
1773522548837084200,7.407084228515625,-8.743118286132812,25.033021926879883,-43.08475112915039
1773522548847122200,7.4171220703125,-8.909713745117188,24.89116096496582,-42.62308883666992
1773522548857160200,7.42716015625,-9.433029174804688,24.87000846862793,-43.1075553894043
1773522548867198000,7.437197998046875,-9.433029174804688,24.87000846862793,-43.1075553894043
1773522548877236200,7.447236328125,-9.004104614257812,24.86790657043457,-42.80046463012695
1773522548887274000,7.45727392578125,-9.133438110351562,24.897001266479492,-42.7593879699707
1773522548897313000,7.46731298828125,-9.333709716796875,24.97831916809082,-43.063167572021484
1773522548907351000,7.47735107421875,-9.132110595703125,25.087385177612305,-42.570926666259766
1773522548917389000,7.48738916015625,-9.295379638671875,25.06519889831543,-42.80803298950195
1773522548927427000,7.497427001953125,-9.271377563476562,25.164758682250977,-42.772457122802734
1773522548937465000,7.507465087890625,-8.962203979492188,25.17268180847168,-42.37343978881836
1773522548947503000,7.517503173828125,-9.084640502929688,25.300546646118164,-42.80476760864258
1773522548957540900,7.527540771484375,-9.330810546875,25.385526657104492,-42.22775650024414
1773522548967579100,7.5375791015625,-9.402008056640625,25.592695236206055,-42.5546760559082
1773522548977617200,7.5476171875,-9.252639770507812,25.780683517456055,-42.58498001098633
1773522548987655200,7.5576552734375,-9.079559326171875,25.923460006713867,-42.08444595336914
1773522548997693200,7.567693115234375,-8.699264526367188,25.967260360717773,-42.40897750854492
1773522549007731000,7.57773095703125,-8.762420654296875,25.83902931213379,-42.06851577758789
1773522549017769200,7.587769287109375,-8.583419799804688,25.952314376831055,-42.19160079956055
1773522549027807000,7.597806884765625,-9.093307495117188,25.787519454956055,-42.477420806884766
1773522549037845200,7.60784521484375,-8.760528564453125,25.816694259643555,-42.023372650146484
1773522549047883000,7.617883056640625,-8.583389282226562,25.94060707092285,-42.4749870300293
1773522549057921300,7.62792138671875,-8.5823974609375,25.9393367767334,-42.16360092163086
1773522549067959000,7.637958984375,-8.761917114257812,25.60457420349121,-42.32059860229492
1773522549077997000,7.6479970703125,-8.8587646484375,25.637727737426758,-42.694576263427734
1773522549088035000,7.65803515625,-8.595474243164062,25.50560188293457,-42.120182037353516
1773522549098073000,7.668072998046875,-8.546920776367188,25.539880752563477,-42.684017181396484
1773522549108111000,7.678111083984375,-8.659759521484375,25.351041793823242,-42.4066276550293
1773522549118149000,7.688149169921875,-8.356948852539062,25.40059471130371,-42.465328216552734
1773522549128187100,7.698187255859375,-8.826507568359375,25.566518783569336,-42.94350814819336
1773522549138225200,7.70822509765625,-8.476943969726562,25.434030532836914,-42.350101470947266
1773522549148263000,7.718262939453125,-8.848678588867188,25.309968948364258,-42.9002571105957
1773522549158301200,7.72830126953125,-8.494522094726562,25.43303871154785,-42.7507209777832
1773522549168339000,7.7383388671875,-8.361618041992188,25.195798873901367,-42.7179069519043
1773522549178377200,7.748377197265625,-8.7279052734375,25.196165084838867,-43.236934661865234
1773522549188415000,7.7584150390625,-8.518203735351562,25.175661087036133,-42.5388069152832
1773522549198453200,7.768453369140625,-8.794967651367188,25.235383987426758,-43.07120895385742
1773522549208491000,7.778490966796875,-8.829757690429688,25.32948112487793,-42.93357467651367
1773522549218529000,7.788529052734375,-8.8214111328125,25.19841957092285,-42.80739974975586
1773522549228567000,7.798567138671875,-9.15435791015625,25.24567222595215,-43.29356002807617
1773522549238605000,7.80860498046875,-8.997314453125,25.02469825744629,-42.75371170043945
1773522549248643000,7.81864306640625,-9.083297729492188,24.836820602416992,-43.2090950012207
1773522549258681000,7.82868115234375,-9.178924560546875,24.8386287689209,-43.24196243286133
1773522549268720000,7.83872021484375,-8.839645385742188,24.664159774780273,-42.91859817504883
1773522549278758100,7.848758056640625,-8.835235595703125,24.72467613220215,-43.42380142211914
1773522549288796200,7.858796142578125,-8.723831176757812,24.679548263549805,-43.01906967163086
1773522549298834200,7.868834228515625,-8.781982421875,24.543615341186523,-43.30368423461914
1773522549308872000,7.878871826171875,-8.86737060546875,24.625669479370117,-43.48745346069336
1773522549318910200,7.88891015625,-8.272354125976562,24.38187599182129,-43.255558013916016
1773522549328948000,7.898947998046875,-8.354034423828125,24.40580177307129,-43.73744583129883
1773522549338986200,7.908986328125,-7.96978759765625,24.33995246887207,-43.612728118896484
1773522549349024000,7.91902392578125,-7.8943634033203125,24.203474044799805,-43.836360931396484
1773522549359062300,7.929062255859375,-7.620361328125,24.147523880004883,-44.07814407348633
1773522549369100000,7.93910009765625,-7.15545654296875,24.121809005737305,-43.76991653442383
1773522549379138000,7.949137939453125,-7.0403289794921875,24.186567306518555,-44.423946380615234
1773522549389176000,7.959176025390625,-6.453460693359375,24.048616409301758,-44.13619613647461
1773522549399214000,7.969214111328125,-6.40948486328125,23.931535720825195,-44.03044509887695
1773522549409252000,7.979252197265625,-5.99658203125,24.076261520385742,-44.505924224853516
1773522549419290000,7.9892900390625,-5.7439727783203125,23.96571922302246,-43.91183090209961
1773522549429328000,7.999327880859375,-5.45452880859375,23.989919662475586,-44.55776596069336
1773522549439366100,8.0093662109375,-4.970794677734375,24.119646072387695,-44.30460739135742
1773522549449404000,8.01940380859375,-4.8384857177734375,24.350141525268555,-44.300228118896484
1773522549459442200,8.029442138671875,-4.9011993408203125,24.486268997192383,-44.6973762512207
1773522549469480000,8.03947998046875,-4.2950439453125,24.56721305847168,-43.9459114074707
1773522549479518200,8.049518310546874,-4.0947723388671875,24.509016036987305,-44.63406753540039
1773522549489556000,8.059555908203125,-3.508453369140625,24.62278938293457,-44.68973159790039
1773522549499594000,8.069593994140625,-3.02008056640625,24.43987464904785,-44.488956451416016
1773522549509632000,8.079632080078126,-2.98980712890625,24.637048721313477,-45.08769607543945
1773522549519670000,8.089669921875,-2.4464569091796875,24.627809524536133,-44.5255012512207
1773522549529708000,8.0997080078125,-2.3135986328125,24.591909408569336,-44.90193557739258
1773522549539746000,8.10974609375,-2.206329345703125,24.660593032836914,-44.82290267944336
1773522549549784000,8.1197841796875,-1.9158935546875,24.961938858032227,-44.46456527709961
1773522549559822000,8.129822021484374,-1.943450927734375,24.967832565307617,-44.9929084777832
1773522549569860000,8.139860107421875,-1.8944091796875,24.863733291625977,-44.47298049926758
1773522549579898000,8.149898193359375,-1.8126678466796875,24.88292121887207,-44.900264739990234
1773522549589936000,8.15993603515625,-1.5435943603515625,24.891603469848633,-44.96061325073242
1773522549599974100,8.16997412109375,-1.1970977783203125,24.700815200805664,-44.5497932434082
1773522549610012200,8.18001220703125,-0.76544189453125,24.99226951599121,-45.07468032836914
1773522549620050200,8.19005029296875,-0.4812774658203125,24.986223220825195,-44.607967376708984
1773522549630089000,8.2000888671875,-0.3865966796875,25.403860092163086,-44.90208053588867
1773522549640127200,8.210127197265624,0.136505126953125,26.205541610717773,-44.97793960571289
1773522549650165000,8.2201650390625,0.75860595703125,26.817373275756836,-43.9426155090332
1773522549660200000,8.230199951171874,0.4255218505859375,28.81325340270996,-43.94752883911133
1773522549670238000,8.240238037109375,-0.5439300537109375,31.257028579711914,-41.94797897338867
1773522549680276000,8.25027587890625,-1.6652069091796875,34.0338134765625,-40.16243362426758
1773522549690314000,8.26031396484375,-2.058441162109375,36.619956970214844,-38.85524368286133
1773522549700352000,8.27035205078125,-1.9706268310546875,37.77080535888672,-37.04530715942383
1773522549710389800,8.2803896484375,-1.9482879638671875,39.14856719970703,-36.765071868896484
1773522549720428000,8.290427978515625,-1.7094268798828125,39.60699462890625,-36.118282318115234
1773522549730465800,8.3004658203125,-1.8976898193359375,39.53251647949219,-36.0494499206543
1773522549740504000,8.310504150390624,-2.1584014892578125,39.453765869140625,-36.73600387573242
1773522549750541800,8.320541748046875,-2.3004150390625,38.453033447265625,-36.35062789916992
1773522549760580000,8.330580078125,-2.4122772216796875,38.335594177246094,-37.47926712036133
1773522549770617900,8.340617919921876,-1.7690582275390625,37.65052795410156,-37.52432632446289
1773522549780655900,8.35065576171875,-1.385498046875,37.34691619873047,-37.6298942565918
1773522549790694000,8.36069384765625,-1.09954833984375,37.293479919433594,-38.16813278198242
1773522549800732000,8.37073193359375,-0.1136474609375,36.44219207763672,-37.41353988647461
1773522549810770000,8.38077001953125,0.791778564453125,36.340736389160156,-37.834957122802734
1773522549820808000,8.390807861328126,1.89678955078125,36.070037841796875,-37.5295295715332
1773522549830846000,8.400845947265625,2.5850067138671875,35.781883239746094,-37.107364654541016
1773522549840884000,8.410884033203125,3.61737060546875,35.7896728515625,-37.28414535522461
1773522549850922000,8.420921875,4.9630584716796875,35.190032958984375,-36.247684478759766
1773522549860960000,8.4309599609375,5.6536407470703125,35.211158752441406,-36.29066848754883
1773522549870998000,8.440998046875,6.679412841796875,35.235008239746094,-35.604434967041016
1773522549881036000,8.4510361328125,7.59716796875,35.24591064453125,-34.73867416381836
1773522549891074000,8.461073974609375,8.553512573242188,35.88249969482422,-34.47383499145508
1773522549901111800,8.47111181640625,9.729873657226562,35.91725158691406,-33.34541702270508
1773522549911150000,8.481150146484374,10.582977294921875,36.615577697753906,-32.811092376708984
1773522549921187800,8.491187744140625,11.597503662109375,37.23121643066406,-32.2437629699707
1773522549931226000,8.50122607421875,12.2421875,37.244972229003906,-31.02706527709961
1773522549941264000,8.511263916015626,13.53179931640625,38.113731384277344,-30.589916229248047
1773522549951302100,8.52130224609375,14.618728637695312,38.36345672607422,-29.488147735595703
1773522549961340000,8.53133984375,15.561111450195312,38.76226806640625,-28.92465591430664
1773522549971378000,8.5413779296875,16.198226928710938,39.09400939941406,-28.276134490966797
1773522549981416000,8.551416015625,17.19952392578125,39.10375213623047,-26.902469635009766
1773522549991454000,8.561453857421874,18.17523193359375,39.802955627441406,-26.230754852294922
1773522550001492000,8.571491943359375,18.447906494140625,40.163719177246094,-24.99209976196289
1773522550011530000,8.581530029296875,19.067520141601562,40.734703063964844,-24.027095794677734
1773522550021568000,8.591568115234375,19.686416625976562,41.49815368652344,-23.310016632080078
1773522550031606000,8.60160595703125,20.087753295898438,41.59425354003906,-22.15079116821289
1773522550041643800,8.611643798828124,20.750503540039062,41.95008850097656,-21.435779571533203
1773522550051682000,8.62168212890625,21.157241821289062,42.22899627685547,-20.33475112915039
1773522550061720800,8.631720947265626,21.275436401367188,42.45372009277344,-19.560596466064453
1773522550071759000,8.641759033203124,21.720306396484375,42.61809539794922,-18.919902801513672
1773522550081796900,8.651796875,22.107894897460938,42.59581756591797,-17.436519622802734
1773522550091835100,8.661835205078125,23.008621215820312,42.596641540527344,-16.698307037353516
1773522550101873000,8.671872802734375,23.641891479492188,42.50647735595703,-15.52237319946289
1773522550111911200,8.6819111328125,24.12982177734375,42.515785217285156,-14.512088775634766
1773522550121949000,8.691948974609375,24.480361938476562,43.04704284667969,-14.251251220703125
1773522550131987000,8.701987060546875,24.335693359375,42.82085418701172,-13.416584014892578
1773522550142025000,8.71202490234375,24.549911499023438,43.105247497558594,-13.361621856689453
1773522550152063000,8.72206298828125,24.474349975585938,43.01899719238281,-12.954498291015625
1773522550162101000,8.73210107421875,24.207839965820312,42.81495666503906,-12.649105072021484
1773522550172139000,8.742138916015625,24.577957153320312,43.03041076660156,-12.753936767578125
1773522550182177000,8.752177001953125,24.09039306640625,43.00835418701172,-12.54874038696289
1773522550192215000,8.762215087890626,23.995162963867188,43.207611083984375,-12.858264923095703
1773522550202252800,8.772252685546874,23.82147216796875,43.263038635253906,-12.931400299072266
1773522550212291000,8.782291015625,23.607040405273438,42.999755859375,-13.027690887451172
1773522550222328800,8.792328857421875,23.546966552734375,43.246009826660156,-13.605216979980469
1773522550232367000,8.8023671875,23.169082641601562,42.979637145996094,-13.836784362792969
1773522550242404900,8.81240478515625,22.810562133789062,43.117645263671875,-14.676307678222656
1773522550252443000,8.82244287109375,22.506088256835938,43.253761291503906,-15.215618133544922
1773522550262481000,8.83248095703125,22.03851318359375,43.21795654296875,-15.518413543701172
1773522550272519000,8.842518798828126,22.03851318359375,43.21795654296875,-15.518413543701172
1773522550282557000,8.852556884765624,21.748138427734375,43.558982849121094,-16.11209487915039
1773522550292595000,8.862594970703125,21.55987548828125,43.56096649169922,-16.159358978271484
1773522550302633000,8.872633056640625,20.316787719726562,43.80967712402344,-16.810253143310547
1773522550312671000,8.8826708984375,19.536407470703125,44.178306579589844,-17.05025863647461
1773522550322708700,8.892708740234376,18.714889526367188,44.37712097167969,-16.940166473388672
1773522550332747000,8.9027470703125,18.020538330078125,45.08856201171875,-17.203815460205078
1773522550342784800,8.91278466796875,17.5968017578125,44.91327667236328,-16.943218231201172
1773522550352823000,8.922822998046875,17.21282958984375,44.8846435546875,-16.772747039794922
1773522550362860800,8.93286083984375,17.4234619140625,45.184539794921875,-16.878047943115234
1773522550372899000,8.942899169921875,17.449874877929688,44.93622589111328,-16.420146942138672
1773522550382936800,8.952936767578125,16.980560302734375,45.21965026855469,-16.59261703491211
1773522550392974800,8.962974853515625,16.55596923828125,45.302101135253906,-16.128154754638672
1773522550403012900,8.973012939453126,15.574996948242188,45.58326721191406,-15.977428436279297
1773522550413051000,8.98305078125,15.293869018554688,46.18914031982422,-16.039318084716797
1773522550423089200,8.993089111328125,14.737701416015625,46.31360626220703,-15.362957000732422
1773522550433127000,9.003126953125,14.49591064453125,46.63573455810547,-15.527599334716797
1773522550443165200,9.013165283203126,14.0865478515625,46.791908264160156,-15.290172576904297
1773522550453203000,9.023202880859374,13.085739135742188,46.79035949707031,-14.975448608398438
1773522550463241000,9.033240966796875,12.559585571289062,47.386199951171875,-14.901996612548828
1773522550473279000,9.043279052734375,12.174392700195312,47.43451690673828,-14.267219543457031
1773522550483317000,9.05331689453125,11.918853759765625,47.60144805908203,-14.046638488769531
1773522550493355000,9.06335498046875,12.0552978515625,47.74168395996094,-13.527057647705078
1773522550503393000,9.07339306640625,11.788253784179688,47.50940704345703,-12.83837890625
1773522550513430800,9.0834306640625,11.963165283203125,47.882843017578125,-12.570209503173828
1773522550523469000,9.093468994140625,11.54754638671875,47.86516571044922,-12.275959014892578
1773522550533506800,9.1035068359375,11.359268188476562,48.23429870605469,-12.524494171142578
1773522550543545000,9.113545166015625,10.6732177734375,48.10020446777344,-12.762638092041016
1773522550553582800,9.123582763671875,10.367462158203125,47.988365173339844,-12.920452117919922
1773522550563621000,9.13362109375,10.175994873046875,48.25019836425781,-13.775299072265625
1773522550573659000,9.143658935546876,9.157745361328125,47.98754119873047,-14.529991149902344
1773522550583697000,9.15369677734375,8.706787109375,47.71039581298828,-15.655033111572266
1773522550593735000,9.16373486328125,8.076919555664062,47.524696350097656,-16.956073760986328
1773522550603773000,9.17377294921875,7.3896636962890625,46.86634063720703,-17.927867889404297
1773522550613811000,9.18381103515625,7.364990234375,46.56523132324219,-19.53763198852539
1773522550623849000,9.193848876953124,7.2207183837890625,45.7264404296875,-21.003658294677734
1773522550633887000,9.203886962890625,6.6499176025390625,44.99230194091797,-22.98465347290039
1773522550643925000,9.213925048828125,6.962432861328125,44.34083557128906,-24.656543731689453
1773522550653965800,9.2239658203125,7.5261993408203125,43.35895538330078,-25.576007843017578
1773522550664003600,9.234003662109375,8.1611328125,42.68144989013672,-26.607196807861328
1773522550674041900,9.244041748046875,9.080780029296875,42.36559295654297,-26.690013885498047
1773522550684079600,9.25407958984375,9.779937744140625,42.15027618408203,-26.825511932373047
1773522550694118000,9.264117919921874,10.350143432617188,42.0130615234375,-27.230236053466797
1773522550704156700,9.27415673828125,11.555831909179688,41.368980407714844,-27.02438735961914
1773522550714194700,9.284194580078125,12.438339233398438,40.985740661621094,-27.777118682861328
1773522550724232700,9.294232666015626,13.353759765625,40.262718200683594,-28.26321029663086
1773522550734270700,9.304270751953124,13.708267211914062,39.53075408935547,-28.910503387451172
1773522550744308700,9.314308837890625,13.74420166015625,39.04442596435547,-30.134456634521484
1773522550754346500,9.324346435546875,13.617919921875,38.395118713378906,-30.40262222290039
1773522550764384800,9.334384765625,12.476226806640625,38.02137756347656,-31.47342300415039
1773522550774422500,9.344422607421874,11.988571166992188,37.814697265625,-31.850414276123047
1773522550784460800,9.354460693359375,11.916183471679688,37.68507385253906,-32.0362663269043
1773522550794498600,9.36449853515625,12.479812622070312,37.570823669433594,-32.47377395629883
1773522550804536800,9.374536865234376,13.481765747070312,37.03807830810547,-32.15980911254883
1773522550814574600,9.38457470703125,14.899093627929688,36.58946228027344,-32.28676986694336
1773522550824612600,9.394612548828125,16.387130737304688,36.04978942871094,-32.25954818725586
1773522550834651000,9.40465087890625,16.17999267578125,35.74217224121094,-32.09476852416992
1773522550844688600,9.414688720703126,15.459213256835938,35.784461975097656,-32.84175491333008
1773522550854727000,9.424726806640624,13.930694580078125,35.671424865722656,-33.15065383911133
1773522550864764700,9.4347646484375,12.398605346679688,35.895965576171875,-33.7667121887207
1773522550874802700,9.444802734375,12.329498291015625,36.04359436035156,-33.95901107788086
1773522550884840700,9.4548408203125,12.761428833007812,36.120025634765625,-33.295047760009766
1773522550894878700,9.464878662109374,13.442398071289062,36.63694763183594,-33.00300216674805
1773522550904916700,9.474916748046875,13.89654541015625,36.867652893066406,-32.26039505004883
1773522550914954800,9.484954833984375,13.763168334960938,37.287635803222656,-31.964405059814453
1773522550924992800,9.49499267578125,13.491928100585938,37.761146545410156,-31.808277130126953
1773522550935030800,9.50503076171875,13.209869384765625,37.79053497314453,-31.297473907470703
1773522550945068500,9.515068603515624,13.506179809570312,37.99574279785156,-31.63082504272461
1773522550955106800,9.52510693359375,12.748443603515625,37.87360382080078,-31.58358383178711
1773522550965144600,9.53514453125,12.267852783203125,37.79322052001953,-32.0241813659668
1773522550975182800,9.545182861328126,12.242172241210938,37.806121826171875,-32.499691009521484
1773522550985220600,9.555220703125,12.371017456054688,37.168907165527344,-32.45368576049805
1773522550995259000,9.5652587890625,12.548431396484375,37.1439208984375,-33.07835006713867
1773522551005296600,9.575296630859375,12.85906982421875,36.92704772949219,-32.73794174194336
1773522551015334700,9.585334716796876,13.117446899414062,37.025611877441406,-32.3731803894043
1773522551025372700,9.59537255859375,13.537033081054688,37.276512145996094,-32.39939498901367
1773522551035410700,9.60541064453125,14.2373046875,37.524009704589844,-31.478153228759766
1773522551045448700,9.61544873046875,14.69873046875,37.75630187988281,-31.06363296508789
1773522551055486700,9.62548681640625,15.374420166015625,38.2421875,-30.287593841552734
1773522551065524700,9.635524658203124,15.640274047851562,38.54618835449219,-29.42904281616211
1773522551075562800,9.645562744140625,15.588241577148438,39.13526153564453,-29.149456024169922
1773522551085600500,9.6556005859375,15.403701782226562,39.28363800048828,-28.11587905883789
1773522551095638800,9.665638671875,15.1690673828125,39.787506103515625,-28.158748626708984
1773522551105676500,9.675676513671876,14.967010498046875,40.094154357910156,-28.028621673583984
1773522551115714800,9.68571484375,14.560501098632812,40.05345916748047,-27.652332305908203
1773522551125752600,9.695752685546875,14.274017333984375,40.642005920410156,-27.866741180419922
1773522551135790600,9.70579052734375,13.879531860351562,40.515663146972656,-27.253726959228516
1773522551145828600,9.71582861328125,13.548568725585938,41.08653259277344,-27.286968231201172
1773522551155866600,9.72586669921875,13.375808715820312,41.10460662841797,-26.898693084716797
1773522551165904600,9.735904541015625,13.436492919921875,41.25212097167969,-26.279956817626953
1773522551175942700,9.745942626953125,13.522064208984375,41.66046905517578,-26.32925033569336
1773522551185980700,9.755980712890626,13.431198120117188,41.83190155029297,-25.633991241455078
1773522551196018700,9.766018798828124,13.377822875976562,42.05271911621094,-25.523632049560547
1773522551206056700,9.776056640625,13.681671142578125,42.11164855957031,-25.500415802001953
1773522551216094700,9.7860947265625,13.33935546875,41.875144958496094,-25.14426040649414
1773522551226132700,9.7961328125,13.488632202148438,42.01130676269531,-25.305240631103516
1773522551236170800,9.806170654296874,12.93963623046875,41.88446807861328,-25.25625991821289
1773522551246208800,9.816208740234375,12.799789428710938,42.086692810058594,-25.59292984008789
1773522551256246800,9.826246826171875,12.8707275390625,42.176048278808594,-25.795116424560547
1773522551266284800,9.836284912109376,12.894302368164062,41.88330078125,-25.437427520751953
1773522551276322600,9.846322509765624,13.273757934570312,42.081092834472656,-25.694469451904297
1773522551286360800,9.85636083984375,13.046737670898438,42.017906188964844,-25.45553207397461
1773522551296398600,9.866398681640625,12.869171142578125,41.8985595703125,-25.588253021240234
1773522551306436900,9.876436767578125,12.987594604492188,41.9522705078125,-25.984577178955078
1773522551316474600,9.886474609375,12.9671630859375,41.69721984863281,-25.782695770263672
1773522551326513000,9.896512939453125,13.194961547851562,41.665069580078125,-26.22800064086914
1773522551336550700,9.906550537109375,12.783660888671875,41.298316955566406,-26.201541900634766
1773522551346588700,9.916588623046875,12.892715454101562,41.36823272705078,-26.324954986572266
1773522551356626700,9.926626708984376,12.5611572265625,41.54029083251953,-26.740612030029297
1773522551366664700,9.936664794921874,11.922042846679688,41.48529052734375,-26.512737274169922
1773522551376702700,9.94670263671875,11.486328125,41.72180938720703,-27.198123931884766
1773522551386740700,9.95674072265625,11.09014892578125,41.53479766845703,-27.27328872680664
1773522551396778500,9.966778564453126,10.931076049804688,41.635841369628906,-27.340465545654297
1773522551406816800,9.976816650390624,10.629837036132812,41.76433563232422,-27.690601348876953
1773522551416854500,9.9868544921875,10.569976806640625,41.721824645996094,-27.352039337158203
1773522551426892800,9.996892822265625,10.241683959960938,42.033477783203125,-27.67934799194336
1773522551436930600,10.0069306640625,9.936843872070312,42.08452606201172,-27.445552825927734
1773522551446968800,10.01696875,9.519012451171875,42.08625793457031,-27.069652557373047
1773522551457006600,10.027006591796875,8.91650390625,42.39105987548828,-27.228443145751953
1773522551467044600,10.037044677734375,8.304977416992188,42.433616638183594,-26.763736724853516
1773522551477082600,10.04708251953125,7.9607086181640625,42.695404052734375,-26.993587493896484
1773522551487120600,10.05712060546875,7.662139892578125,42.88774871826172,-26.95810317993164
1773522551497158000,10.067157958984374,7.2628631591796875,42.893463134765625,-26.660205841064453
1773522551507195600,10.077195556640625,6.324676513671875,43.3538818359375,-26.905902862548828
1773522551517233700,10.087233642578125,5.1660919189453125,43.358306884765625,-26.63430404663086
1773522551527271700,10.097271728515626,4.372283935546875,43.59503936767578,-26.663829803466797
1773522551537309700,10.107309814453124,3.3415374755859375,43.753517150878906,-26.77725601196289
1773522551547347700,10.11734765625,2.3495941162109375,43.763336181640625,-26.28647232055664
1773522551557385700,10.1273857421875,1.8719940185546875,44.17310333251953,-26.478870391845703
1773522551567423500,10.137423583984376,0.8486785888671875,44.152305603027344,-26.229419708251953
1773522551577461800,10.147461669921874,0.127410888671875,44.196624755859375,-26.161510467529297
1773522551587499500,10.15749951171875,-0.486297607421875,44.35466003417969,-26.471981048583984
1773522551597537800,10.167537841796875,-0.9751739501953125,44.082908630371094,-26.05428695678711
1773522551607575600,10.177575439453125,-1.4821014404296875,44.211181640625,-26.605968475341797
1773522551617613800,10.18761376953125,-1.6880950927734375,44.011016845703125,-26.519298553466797
1773522551627651600,10.197651611328125,-1.872833251953125,43.905487060546875,-26.691768646240234
1773522551637689600,10.207689697265625,-1.59857177734375,43.94081115722656,-27.253192901611328
1773522551647727600,10.2177275390625,-1.6869659423828125,43.665184020996094,-26.995716094970703
1773522551657762000,10.227761962890625,-1.6869659423828125,43.665184020996094,-26.995716094970703
1773522551667800000,10.237800048828126,-1.4971160888671875,43.628753662109375,-27.56052017211914
1773522551677838000,10.247838134765624,-1.21795654296875,43.663482666015625,-27.72604751586914
1773522551687876000,10.2578759765625,-0.9145965576171875,43.18614959716797,-27.704235076904297
1773522551697914000,10.2679140625,-0.720855712890625,43.22673797607422,-28.153392791748047
1773522551707952000,10.2779521484375,0.11248779296875,42.91741180419922,-27.805797576904297
1773522551717990100,10.287990234375,0.3755645751953125,42.92742919921875,-28.54763412475586
1773522551728028200,10.298028076171875,1.251861572265625,42.769065856933594,-28.643718719482422
1773522551738066000,10.30806591796875,1.5386505126953125,42.399696350097656,-28.497905731201172
1773522551748104200,10.318104248046875,2.43975830078125,42.571632385253906,-28.976444244384766
1773522551758142000,10.328141845703126,3.5641021728515625,42.41075897216797,-28.691516876220703
1773522551768180200,10.33818017578125,4.6371307373046875,42.4735107421875,-28.966556549072266
1773522551778218000,10.348218017578125,5.6598052978515625,42.22264099121094,-29.018115997314453
1773522551788256300,10.35825634765625,6.6890869140625,41.86382293701172,-28.690113067626953
1773522551798294000,10.3682939453125,7.6557159423828125,41.93262481689453,-28.867595672607422
1773522551808332000,10.37833203125,8.8253173828125,41.711204528808594,-28.452289581298828
1773522551818370000,10.3883701171875,9.425003051757812,41.85131072998047,-28.441570281982422
1773522551828408000,10.398407958984375,9.988983154296875,41.974273681640625,-28.469158172607422
1773522551838446000,10.408446044921876,10.198776245117188,41.81012725830078,-28.028919219970703
1773522551848484000,10.418484130859374,10.46820068359375,42.01951599121094,-27.911663055419922
1773522551858522000,10.428522216796875,10.821121215820312,41.918548583984375,-27.604984283447266
1773522551868560100,10.43856005859375,10.455734252929688,42.041282653808594,-27.74020004272461
1773522551878598000,10.448597900390626,10.546524047851562,42.19078826904297,-27.828983306884766
1773522551888636200,10.45863623046875,10.779312133789062,42.01341247558594,-27.614253997802734
1773522551898674000,10.468673828125,11.0784912109375,41.932037353515625,-27.95633316040039
1773522551908712200,10.478712158203125,11.750350952148438,41.72930145263672,-27.75143814086914
1773522551918750000,10.48875,12.485321044921875,41.31438446044922,-27.74954605102539
1773522551928788200,10.498788330078124,13.187759399414062,41.1456298828125,-28.014698028564453
1773522551938826000,10.508825927734375,13.893951416015625,40.90813446044922,-27.596393585205078
1773522551948864000,10.518864013671875,14.301422119140625,40.922630310058594,-27.736454010009766
1773522551958902000,10.528902099609375,14.506759643554688,40.846710205078125,-27.44791030883789
1773522551968940000,10.53893994140625,14.27215576171875,41.032798767089844,-27.505870819091797
1773522551978978000,10.54897802734375,14.321502685546875,41.120147705078125,-27.625255584716797
1773522551989016000,10.55901611328125,14.185333251953125,41.46100616455078,-27.05697250366211
1773522551999054000,10.56905419921875,14.208572387695312,41.405662536621094,-27.160938262939453
1773522552009092000,10.579092041015626,14.413131713867188,41.194488525390625,-26.973323822021484
1773522552019130000,10.589130126953124,14.115646362304688,41.189239501953125,-26.761310577392578
1773522552029168000,10.599168212890625,14.677734375,41.20240783691406,-26.969257354736328
1773522552039206100,10.6092060546875,14.799453735351562,41.208152770996094,-26.50442886352539
1773522552049244200,10.619244140625,15.530303955078125,41.006202697753906,-26.64725112915039
1773522552059282200,10.6292822265625,15.798004150390625,40.901580810546875,-26.559772491455078
1773522552069320000,10.63931982421875,16.173553466796875,40.65430450439453,-26.462650299072266
1773522552079358200,10.649358154296875,16.716506958007812,40.598297119140625,-26.569583892822266
1773522552089396000,10.65939599609375,17.108322143554688,40.336570739746094,-26.253826141357422
1773522552099434200,10.669434326171874,17.35113525390625,40.17029571533203,-26.46621322631836
1773522552109472000,10.679471923828125,17.761184692382812,40.201866149902344,-26.491771697998047
1773522552119510300,10.68951025390625,18.15130615234375,39.752540588378906,-26.074695587158203
1773522552129548000,10.699548095703125,18.396652221679688,40.10272216796875,-26.38430404663086
1773522552139586000,10.7095859375,18.103561401367188,39.820579528808594,-26.163066864013672
1773522552149624000,10.7196240234375,17.7218017578125,40.01997375488281,-26.409587860107422
1773522552159661000,10.7296611328125,17.842620849609375,40.04791259765625,-26.360118865966797
1773522552169699000,10.739698974609375,18.305221557617188,40.01061248779297,-25.967693328857422
1773522552179737000,10.749737060546876,18.6199951171875,40.355613708496094,-25.924114227294922
1773522552189775000,10.759775146484374,18.418930053710938,40.33032989501953,-25.49374771118164
1773522552199813000,10.769813232421875,18.297561645507812,40.40031433105469,-25.275463104248047
1773522552209851100,10.77985107421875,18.457565307617188,40.683349609375,-25.212604522705078
1773522552219889200,10.78988916015625,18.544647216796875,40.407318115234375,-24.57278823852539
1773522552229927200,10.79992724609375,19.012939453125,40.59466552734375,-24.47073745727539
1773522552239965000,10.80996484375,19.21771240234375,40.59056091308594,-24.07944107055664
1773522552250003200,10.820003173828125,19.265106201171875,40.614830017089844,-24.016109466552734
1773522552260041000,10.830041015625,19.237777709960938,40.618988037109375,-24.077617645263672
1773522552270079200,10.840079345703124,19.5205078125,40.56525421142578,-23.881290435791016
1773522552280117000,10.850116943359374,19.678085327148438,40.573020935058594,-23.792720794677734
1773522552290155300,10.8601552734375,19.805679321289062,40.417518615722656,-23.52640151977539
1773522552300193000,10.870193115234375,19.873321533203125,40.4443359375,-23.315502166748047
1773522552310231000,10.88023095703125,20.126907348632812,40.310829162597656,-23.405200958251953
1773522552320269000,10.89026904296875,20.34375,40.22480010986328,-22.97622299194336
1773522552330307000,10.90030712890625,20.437850952148438,40.13038635253906,-23.085857391357422
1773522552340345000,10.910344970703125,20.82049560546875,40.07676696777344,-22.834896087646484
1773522552350383000,10.920383056640626,20.947723388671875,39.82378387451172,-22.599735260009766
1773522552360421000,10.930421142578124,21.3804931640625,39.851966857910156,-22.820751190185547
1773522552370459100,10.940459228515625,21.649246215820312,39.73573303222656,-22.492984771728516
1773522552380497000,10.950496826171875,21.720108032226562,39.434913635253906,-22.851062774658203
1773522552390535200,10.96053515625,21.802169799804688,39.24781036376953,-23.061565399169922
1773522552400573000,10.970572998046874,22.084152221679688,38.905738830566406,-22.87997055053711
1773522552410611200,10.980611083984375,22.264984130859375,38.83233642578125,-23.328983306884766
1773522552420649000,10.99064892578125,22.632186889648438,38.61518859863281,-23.163516998291016
1773522552430687200,11.000687255859376,22.22784423828125,38.47969055175781,-23.45053482055664
1773522552440725000,11.01072509765625,22.526031494140625,38.48052215576172,-23.392200469970703
1773522552450763000,11.020762939453125,22.575637817382812,38.390113830566406,-23.25130844116211
1773522552460801000,11.030801025390625,22.676071166992188,38.577880859375,-23.206897735595703
1773522552470839000,11.040839111328125,22.591690063476562,38.692230224609375,-23.028705596923828
1773522552480877000,11.050876953125,22.341796875,38.921669006347656,-23.00271224975586
1773522552490915000,11.0609150390625,22.2510986328125,39.108070373535156,-22.860157012939453
1773522552500952800,11.070952880859375,22.2203369140625,39.151397705078125,-22.350955963134766
1773522552510991000,11.0809912109375,22.514144897460938,39.583412170410156,-22.370319366455078
1773522552521029000,11.091029052734376,22.068756103515625,39.701324462890625,-22.095996856689453
1773522552531067100,11.101067138671874,21.850479125976562,39.819862365722656,-22.169689178466797
1773522552541105200,11.111105224609375,21.73651123046875,40.08399200439453,-22.292247772216797
1773522552551143200,11.12114306640625,21.64697265625,39.896507263183594,-22.10629653930664
1773522552561180200,11.13118017578125,21.653091430664062,39.949501037597656,-22.401073455810547
1773522552571218000,11.141218017578124,21.311599731445312,39.762672424316406,-22.444477081298828
1773522552581256200,11.151256103515625,21.009292602539062,39.727394104003906,-22.77450942993164
1773522552591294000,11.1612939453125,20.852645874023438,39.65325927734375,-23.25784683227539
1773522552601332200,11.171332275390625,20.565582275390625,39.663612365722656,-23.496631622314453
1773522552611370000,11.181369873046876,20.138565063476562,39.50780487060547,-24.128299713134766
1773522552621408000,11.191407958984374,20.007598876953125,39.19535827636719,-24.20383071899414
1773522552631446000,11.201446044921875,19.686019897460938,38.95538330078125,-24.297252655029297
1773522552641484000,11.211484130859375,19.894485473632812,38.99543762207031,-24.873706817626953
1773522552651522000,11.22152197265625,19.92181396484375,38.795997619628906,-24.681636810302734
1773522552661560600,11.231560546875,19.998947143554688,38.84379577636719,-25.193370819091797
1773522552671598300,11.241598388671875,20.341766357421875,38.50151824951172,-25.061786651611328
1773522552681636400,11.25163623046875,20.526992797851562,38.22833251953125,-24.988712310791016
1773522552691674400,11.26167431640625,20.891738891601562,38.25614929199219,-25.440731048583984
1773522552701712400,11.27171240234375,20.958358764648438,37.93010711669922,-25.130474090576172
1773522552711750400,11.28175048828125,20.795257568359375,38.03112030029297,-25.49161148071289
1773522552721788400,11.291788330078125,20.94708251953125,37.75115966796875,-25.687061309814453
1773522552731826400,11.301826416015626,21.0579833984375,37.511817932128906,-25.661365509033203
1773522552741864400,11.311864501953124,20.9525146484375,37.42121124267578,-26.200634002685547
1773522552751902500,11.32190234375,20.327301025390625,37.26658630371094,-26.26572036743164
1773522552761940500,11.3319404296875,19.9954833984375,37.17875671386719,-26.72744369506836
1773522552771978500,11.341978515625,20.120529174804688,37.0621337890625,-26.91049575805664
1773522552782016500,11.3520166015625,19.976226806640625,36.873939514160156,-26.78756332397461
1773522552792054500,11.362054443359375,20.266937255859375,36.88471984863281,-27.090923309326172
1773522552802092500,11.372092529296875,19.94854736328125,36.868194580078125,-27.059764862060547
1773522552812130600,11.382130615234376,19.921035766601562,36.83927917480469,-27.073909759521484
1773522552822168300,11.392168212890626,20.01409912109375,37.04688262939453,-27.229679107666016
1773522552832206600,11.40220654296875,20.124649047851562,36.867042541503906,-27.060131072998047
1773522552842244400,11.412244384765625,20.305770874023438,36.94971466064453,-27.248096466064453
1773522552852282600,11.42228271484375,19.731475830078125,36.963401794433594,-27.125606536865234
1773522552862320400,11.4323203125,18.937362670898438,37.14088439941406,-27.44925308227539
1773522552872357400,11.442357421875,18.513290405273438,37.51756286621094,-28.00094985961914
1773522552882395400,11.4523955078125,17.73321533203125,37.53468322753906,-27.85574722290039
1773522552892433400,11.462433349609375,16.786376953125,37.874481201171875,-28.378559112548828
1773522552902471400,11.472471435546876,15.996795654296875,38.197486877441406,-28.378231048583984
1773522552912509400,11.482509521484374,14.918136596679688,38.45256805419922,-28.468891143798828
1773522552922547500,11.49254736328125,14.201950073242188,38.975990295410156,-28.710514068603516
1773522552932585500,11.50258544921875,13.629226684570312,39.03166198730469,-28.335918426513672
1773522552942623500,11.51262353515625,12.911056518554688,39.44935607910156,-28.701862335205078
1773522552952661500,11.52266162109375,12.281265258789062,39.53208923339844,-28.703250885009766
1773522552962699500,11.532699462890625,11.369857788085938,39.73487091064453,-28.691753387451172
1773522552972737500,11.542737548828125,10.658493041992188,39.95697784423828,-29.020938873291016
1773522552982775600,11.552775634765625,9.46337890625,40.018287658691406,-28.767078399658203
1773522552992813300,11.562813232421876,8.202468872070312,40.054481506347656,-29.330081939697266
1773522553002851600,11.5728515625,7.170867919921875,40.00250244140625,-29.611515045166016
1773522553012889300,11.582889404296875,5.75213623046875,39.82219696044922,-29.857593536376953
1773522553022927600,11.592927734375,4.40325927734375,39.927978515625,-30.468334197998047
1773522553032965400,11.60296533203125,3.042144775390625,39.662635803222656,-30.452533721923828
1773522553043003600,11.613003662109374,1.9512176513671875,39.397552490234375,-30.983509063720703
1773522553053041400,11.62304150390625,1.40069580078125,39.15997314453125,-31.257740020751953
1773522553063079400,11.633079345703125,1.40069580078125,39.15997314453125,-31.257740020751953
1773522553073117400,11.643117431640626,0.855621337890625,39.11665344238281,-31.231403350830078
1773522553083155500,11.653155517578124,0.36553955078125,39.16914367675781,-31.678302764892578
1773522553093193500,11.663193359375,0.0244598388671875,39.090614318847656,-31.651371002197266
1773522553103231500,11.6732314453125,-0.3708038330078125,38.9810791015625,-31.69326400756836
1773522553113269500,11.68326953125,-1.1293487548828125,38.94490051269531,-31.747074127197266
1773522553123306500,11.693306396484376,-1.1395721435546875,38.87047576904297,-31.620220184326172
1773522553133344500,11.703344482421874,-0.6433563232421875,39.060707092285156,-31.728046417236328
1773522553143382500,11.713382568359375,0.1839752197265625,39.107948303222656,-31.632892608642578
1773522553153420500,11.723420654296875,0.410125732421875,39.089576721191406,-31.672191619873047
1773522553163458300,11.733458251953126,0.9429168701171875,39.00335693359375,-31.917346954345703
1773522553173496600,11.74349658203125,1.978729248046875,38.9063720703125,-31.713207244873047
1773522553183534300,11.753534423828125,2.5052032470703125,39.06605529785156,-31.82919692993164
1773522553193572600,11.763572509765625,3.3697509765625,38.788848876953125,-31.494274139404297
1773522553203610400,11.7736103515625,4.2938079833984375,38.755889892578125,-31.367916107177734
1773522553213648600,11.783648681640624,5.0724945068359375,38.86088562011719,-31.401103973388672
1773522553223686400,11.793686279296875,6.089630126953125,38.79071807861328,-30.916431427001953
1773522553233724400,11.803724365234375,7.155059814453125,39.01127624511719,-30.782100677490234
1773522553243762400,11.813762451171876,7.8796539306640625,39.12157440185547,-30.446086883544922
1773522553253800400,11.823800537109374,8.273345947265625,39.251495361328125,-30.05087661743164
1773522553263838500,11.83383837890625,8.019912719726562,39.667457580566406,-30.070873260498047
1773522553273876500,11.84387646484375,8.229248046875,39.41600799560547,-29.596118927001953
1773522553283914500,11.85391455078125,8.231307983398438,39.353515625,-29.75516128540039
1773522553293952500,11.863952392578126,8.1397705078125,39.51209259033203,-29.745616912841797
1773522553303990300,11.873990234375,8.218154907226562,39.513648986816406,-29.59469985961914
1773522553314028500,11.884028564453125,8.085357666015625,39.666343688964844,-29.97507095336914
1773522553324066300,11.89406640625,8.14874267578125,39.54399871826172,-29.718685150146484
1773522553334104600,11.9041044921875,7.798370361328125,39.26560974121094,-30.145374298095703
1773522553344142300,11.914142333984374,7.5988922119140625,39.145233154296875,-30.391063690185547
1773522553354179300,11.924179443359375,7.06427001953125,38.998451232910156,-30.423763275146484
1773522553364217600,11.934217529296875,6.4663848876953125,38.790130615234375,-30.934429168701172
1773522553374255400,11.94425537109375,5.8481292724609375,39.034446716308594,-30.974933624267578
1773522553384293600,11.954293701171874,4.9497222900390625,38.94115447998047,-31.085315704345703
1773522553394331400,11.964331298828125,3.6390838623046875,38.972267150878906,-31.144908905029297
1773522553404369400,11.974369384765625,2.3307647705078125,39.20319366455078,-30.719646453857422
1773522553414407400,11.984407470703125,1.4564971923828125,39.714210510253906,-30.66043472290039
1773522553424445400,11.994445556640626,0.105316162109375,39.98577880859375,-30.120952606201172
1773522553434483500,12.0044833984375,-0.970703125,40.303810119628906,-29.749004364013672
1773522553444521500,12.014521484375,-1.861083984375,40.54267120361328,-29.458187103271484
1773522553454559500,12.0245595703125,-2.6653594970703125,40.79466247558594,-28.845760345458984
1773522553464597500,12.034597412109376,-3.0639495849609375,41.04692840576172,-28.60024642944336
1773522553474635300,12.04463525390625,-4.1708831787109375,41.10602569580078,-28.37105941772461
1773522553484673500,12.054673583984375,-5.736846923828125,40.92552947998047,-28.182361602783203
1773522553494711300,12.064711181640625,-7.09185791015625,40.80005645751953,-28.180362701416016
1773522553504749600,12.07474951171875,-8.316116333007812,40.59662628173828,-27.655841827392578
1773522553514787300,12.084787353515624,-9.243438720703125,40.74192810058594,-27.42636489868164
1773522553524825300,12.094825439453125,-10.135162353515625,40.70191192626953,-26.785770416259766
1773522553534863400,12.10486328125,-11.01849365234375,40.732757568359375,-26.19949722290039
1773522553544901400,12.1149013671875,-11.634552001953125,40.87257385253906,-25.73935317993164
1773522553554938600,12.124938720703126,-12.435333251953125,40.87934875488281,-24.698238372802734
1773522553564976400,12.134976318359374,-13.47137451171875,40.97015380859375,-24.362018585205078
1773522553575014400,12.145014404296875,-13.930404663085938,41.175018310546875,-23.82217025756836
1773522553585052400,12.155052490234375,-14.622573852539062,41.16777038574219,-23.42525863647461
1773522553595090400,12.16509033203125,-15.595062255859375,40.936058044433594,-23.383892059326172
1773522553605128400,12.17512841796875,-15.9423828125,40.53961944580078,-22.98074722290039
1773522553615166500,12.18516650390625,-17.03851318359375,40.035194396972656,-23.088092803955078
1773522553625204500,12.19520458984375,-17.516693115234375,39.897682189941406,-23.215900421142578
1773522553635242500,12.205242431640626,-18.543731689453125,39.22594451904297,-23.181926727294922
1773522553645280300,12.2152802734375,-19.136062622070312,38.713653564453125,-23.360645294189453
1773522553655318300,12.225318359375,-19.774368286132812,38.25153350830078,-23.068706512451172
1773522553665356000,12.23535595703125,-20.780059814453125,37.782615661621094,-22.99545669555664
1773522553675394000,12.24539404296875,-21.378799438476562,37.27812957763672,-22.758991241455078
1773522553685432300,12.255432373046874,-21.928573608398438,36.875099182128906,-22.39328384399414
1773522553695470000,12.265469970703125,-22.819656372070312,36.60791015625,-22.203861236572266
1773522553705508400,12.27550830078125,-23.246978759765625,36.16166687011719,-21.597454071044922
1773522553715546000,12.285546142578125,-23.954208374023438,35.96617889404297,-21.360538482666016
1773522553725584400,12.29558447265625,-24.500076293945312,35.68775177001953,-21.11861801147461
1773522553735622100,12.3056220703125,-24.716812133789062,35.24488830566406,-20.640087127685547
1773522553745660200,12.31566015625,-24.996795654296875,35.01630401611328,-20.651905059814453
1773522553755697200,12.325697265625,-25.314285278320312,34.61259460449219,-20.369182586669922
1773522553765735200,12.335735107421876,-26.121170043945312,33.93779754638672,-20.363292694091797
1773522553775773000,12.34577294921875,-26.553298950195312,33.459259033203125,-20.467548370361328
1773522553785811200,12.355811279296875,-26.856781005859375,32.91040802001953,-20.380657196044922
1773522553795849000,12.365848876953125,-27.28826904296875,32.52598571777344,-20.665393829345703
1773522553805887200,12.37588720703125,-27.345367431640625,31.826189041137695,-20.66952896118164
1773522553815925200,12.38592529296875,-27.840133666992188,31.239076614379883,-20.84830093383789
1773522553825963300,12.39596337890625,-28.369705200195312,30.79997444152832,-21.030750274658203
1773522553836001300,12.406001220703125,-28.348098754882812,30.28851890563965,-20.88254165649414
1773522553846039000,12.4160390625,-28.504989624023438,30.03483009338379,-20.849163055419922
1773522553856077300,12.426077392578126,-28.85345458984375,29.743131637573242,-20.76943588256836
1773522553866115000,12.436114990234374,-28.953125,29.61932945251465,-20.56551742553711
1773522553876153300,12.4461533203125,-29.576507568359375,29.186399459838867,-20.606243133544922
1773522553886191000,12.456191162109375,-29.496978759765625,28.784555435180664,-20.290637969970703
1773522553896229400,12.4662294921875,-30.0322265625,28.406587600708008,-20.557918548583984
1773522553906267100,12.47626708984375,-30.219497680664062,27.943174362182617,-20.68001937866211
1773522553916305200,12.48630517578125,-30.289779663085938,27.454450607299805,-20.624988555908203
1773522553926342100,12.496342041015625,-30.701248168945312,26.93610954284668,-20.924251556396484
1773522553936380200,12.506380126953125,-30.655410766601562,26.49824333190918,-20.57686996459961
1773522553946418000,12.51641796875,-31.300186157226562,26.120336532592773,-20.928226470947266
1773522553956456200,12.526456298828125,-31.654037475585938,25.76068687438965,-21.02120590209961
1773522553966494200,12.536494140625,-31.172760009765625,25.413000106811523,-20.866191864013672
1773522553976532200,12.5465322265625,-31.639068603515625,25.154279708862305,-21.070392608642578
1773522553986570200,12.5565703125,-31.508682250976562,24.8186092376709,-20.952289581298828
1773522553996608300,12.566608154296874,-31.643310546875,24.28383445739746,-20.940120697021484
1773522554006646300,12.576646240234375,-31.722763061523438,23.888216018676758,-21.398738861083984
1773522554016684000,12.58668408203125,-32.0477294921875,23.394128799438477,-21.509151458740234
1773522554026722300,12.596722412109376,-32.16252136230469,22.933305740356445,-21.922077178955078
1773522554036760000,12.606760009765624,-32.00367736816406,22.3640193939209,-21.974750518798828
1773522554046798300,12.61679833984375,-32.53886413574219,21.68358039855957,-22.386859893798828
1773522554056836000,12.626836181640625,-32.384246826171875,21.153730392456055,-22.681507110595703
1773522554066874400,12.636874267578126,-32.31024169921875,20.69648551940918,-22.716808319091797
1773522554076912000,12.646912109375,-32.38763427734375,20.265581130981445,-22.956798553466797
1773522554086950100,12.6569501953125,-32.2066650390625,20.03972053527832,-23.226154327392578
1773522554096987100,12.666987060546875,-32.84129333496094,19.227781295776367,-23.338275909423828
1773522554107025200,12.677025146484375,-32.85289001464844,18.76157569885254,-23.58145523071289
1773522554117063200,12.687063232421876,-32.74310302734375,18.39632225036621,-23.45553970336914
1773522554127101200,12.69710107421875,-32.97381591796875,18.097246170043945,-23.760074615478516
1773522554137139200,12.70713916015625,-32.812835693359375,17.896711349487305,-24.06240463256836
1773522554147177200,12.71717724609375,-32.9356689453125,17.34791374206543,-24.193126678466797
1773522554157215200,12.72721533203125,-32.945159912109375,17.15199851989746,-24.461345672607422
1773522554167253200,12.737253173828124,-32.93199157714844,17.04112434387207,-24.378971099853516
1773522554177291300,12.747291259765625,-32.96672058105469,16.947729110717773,-24.65317153930664
1773522554187329000,12.7573291015625,-32.59126281738281,16.929445266723633,-24.751270294189453
1773522554197367300,12.7673671875,-32.91111755371094,16.872804641723633,-24.68075180053711
1773522554207405000,12.777405029296874,-33.08259582519531,17.03243064880371,-24.91097640991211
1773522554217443300,12.787443359375,-32.49870300292969,17.13966941833496,-24.744525909423828
1773522554227481000,12.797481201171875,-32.373748779296875,17.29111671447754,-25.004405975341797
1773522554237519400,12.807519287109375,-32.220184326171875,17.555673599243164,-25.09402084350586
1773522554247557000,12.81755712890625,-31.925338745117188,17.74378776550293,-25.013179779052734
1773522554257595100,12.82759521484375,-31.78338623046875,17.907499313354492,-25.316646575927734
1773522554267632000,12.837632080078125,-31.189743041992188,18.401277542114258,-25.099666595458984
1773522554277670100,12.847670166015625,-31.378799438476562,18.49442481994629,-25.256832122802734
1773522554287708200,12.857708251953126,-31.187667846679688,19.088274002075195,-25.247119903564453
1773522554297746200,12.86774609375,-30.79949951171875,19.91522789001465,-24.87069320678711
1773522554307784200,12.8777841796875,-30.696823120117188,20.341005325317383,-25.06583023071289
1773522554317822200,12.887822265625,-30.402786254882812,21.24662971496582,-24.665287017822266
1773522554327860200,12.897860107421875,-30.43109130859375,21.87034034729004,-24.46872329711914
1773522554337898200,12.907898193359374,-30.169967651367188,22.527437210083008,-24.49807357788086
1773522554347936300,12.917936279296875,-29.563873291015625,23.237272262573242,-24.275821685791016
1773522554357974000,12.92797412109375,-29.40716552734375,23.67509651184082,-24.473834991455078
