time,seconds_elapsed,z,y,x
1773522541509745000,0.079744873046875,-220.9743194580078,31.229522705078125,-57.32411193847656
1773522541519855600,0.089855712890625,-220.70013427734375,31.686965942382812,-57.68177795410156
1773522541529966800,0.099966796875,-220.5266876220703,32.09356689453125,-57.73777770996094
1773522541540077800,0.110077880859375,-220.471923828125,32.62232971191406,-58.5279541015625
1773522541550186800,0.120186767578125,-220.42327880859375,32.98841857910156,-58.376068115234375
1773522541560297700,0.130297607421875,-220.62930297851562,33.508544921875,-58.49128723144531
1773522541570408700,0.14040869140625,-221.1460723876953,33.64898681640625,-58.40885925292969
1773522541580520000,0.15052001953125,-220.35641479492188,33.80213928222656,-57.759674072265625
1773522541590630000,0.1606298828125,-220.7232666015625,34.26905822753906,-57.90422058105469
1773522541600740900,0.170740966796875,-220.74258422851562,33.74150085449219,-57.24395751953125
1773522541610852600,0.1808525390625,-221.05389404296875,33.760772705078125,-56.978057861328125
1773522541620964900,0.19096484375,-221.08322143554688,33.67671203613281,-56.3565673828125
1773522541631076900,0.201076904296875,-221.29403686523438,33.189300537109375,-55.353424072265625
1773522541641188900,0.21118896484375,-221.41397094726562,33.310302734375,-54.54400634765625
1773522541651299300,0.22129931640625,-221.18563842773438,33.4404296875,-53.3873291015625
1773522541661410300,0.231410400390625,-221.38284301757812,33.83137512207031,-52.787689208984375
1773522541671520300,0.241520263671875,-221.3609619140625,34.48992919921875,-52.314208984375
1773522541681631200,0.25163134765625,-221.09701538085938,34.83180236816406,-51.91972351074219
1773522541691741200,0.2617412109375,-221.25967407226562,35.0201416015625,-52.072479248046875
1773522541701853200,0.271853271484375,-220.92152404785156,35.05767822265625,-51.6376953125
1773522541711964400,0.28196435546875,-220.6231231689453,35.04931640625,-51.419342041015625
1773522541722076400,0.292076416015625,-221.32843017578125,35.03582763671875,-51.45161437988281
1773522541732188200,0.302188232421875,-220.9527130126953,34.91636657714844,-50.83174133300781
1773522541742300200,0.312300048828125,-221.1817169189453,35.169158935546875,-50.70552062988281
1773522541752412400,0.322412353515625,-221.18057250976562,34.91175842285156,-49.728363037109375
1773522541762523400,0.3325234375,-221.09832763671875,34.941864013671875,-48.89115905761719
1773522541772634400,0.34263427734375,-221.2515106201172,34.9862060546875,-48.995391845703125
1773522541782746400,0.352746337890625,-220.6820831298828,34.753204345703125,-48.709442138671875
1773522541792859400,0.362859375,-221.08010864257812,34.767791748046875,-49.510498046875
1773522541802971400,0.372971435546875,-221.49691772460938,34.45204162597656,-50.05186462402344
1773522541813083400,0.38308349609375,-221.08663940429688,34.055511474609375,-50.61024475097656
1773522541823195100,0.393195068359375,-221.379150390625,33.34736633300781,-52.42497253417969
1773522541833307400,0.403307373046875,-221.46408081054688,32.473968505859375,-53.79072570800781
1773522541843418400,0.41341845703125,-221.38670349121094,32.03507995605469,-55.32664489746094
1773522541853529000,0.423529052734375,-221.9050750732422,31.579376220703125,-56.12141418457031
1773522541863641300,0.433641357421875,-221.15345764160156,31.570175170898438,-56.327117919921875
1773522541873751300,0.443751220703125,-221.89903259277344,31.278076171875,-56.90516662597656
1773522541883861200,0.453861328125,-221.5023193359375,31.515960693359375,-56.107391357421875
1773522541893972500,0.463972412109375,-221.3015899658203,31.886260986328125,-55.38752746582031
1773522541904082200,0.474082275390625,-221.73683166503906,32.50689697265625,-54.20782470703125
1773522541914192400,0.4841923828125,-221.30755615234375,32.677215576171875,-52.097259521484375
1773522541924304100,0.49430419921875,-221.37005615234375,34.11289978027344,-50.69279479980469
1773522541934415400,0.504415283203125,-221.0108642578125,34.81953430175781,-48.43656921386719
1773522541944526300,0.5145263671875,-220.82830810546875,35.30918884277344,-46.525390625
1773522541954637300,0.52463720703125,-220.2309112548828,36.372344970703125,-44.58439636230469
1773522541964747500,0.53474755859375,-219.534423828125,36.79887390136719,-42.24531555175781
1773522541974858200,0.544858154296875,-218.78024291992188,37.74967956542969,-40.298309326171875
1773522541984970200,0.55497021484375,-217.7646484375,38.551544189453125,-37.91627502441406
1773522541995081500,0.56508154296875,-216.77272033691406,38.905792236328125,-36.00483703613281
1773522542005192200,0.575192138671875,-216.0601806640625,39.5328369140625,-34.65467834472656
1773522542015304400,0.585304443359375,-214.94313049316406,38.80665588378906,-33.313323974609375
1773522542025415400,0.59541552734375,-215.19775390625,39.03761291503906,-32.72911071777344
1773522542035526400,0.6055263671875,-214.8189697265625,39.07441711425781,-31.797470092773438
1773522542045637400,0.615637451171875,-213.4523468017578,38.906646728515625,-30.57159423828125
1773522542055747300,0.625747314453125,-213.2226104736328,39.20390319824219,-29.410736083984375
1773522542065859300,0.635859375,-212.7269287109375,38.97007751464844,-28.661865234375
1773522542075970300,0.64597021484375,-213.48321533203125,38.903228759765625,-29.31744384765625
1773522542086080300,0.656080322265625,-214.18634033203125,38.55592346191406,-29.906082153320312
1773522542096192300,0.666192138671875,-213.65711975097656,38.36592102050781,-30.2957763671875
1773522542106304500,0.676304443359375,-214.89874267578125,38.24497985839844,-30.9168701171875
1773522542116416300,0.686416259765625,-214.75306701660156,38.26588439941406,-31.0418701171875
1773522542126527200,0.69652734375,-215.36024475097656,38.33416748046875,-31.802017211914062
1773522542136637200,0.70663720703125,-215.0482940673828,38.39060974121094,-31.74176025390625
1773522542146748400,0.71674853515625,-213.9415740966797,38.76466369628906,-31.261123657226562
1773522542156859400,0.726859375,-214.45518493652344,38.99784851074219,-30.893966674804688
1773522542166970400,0.736970458984375,-213.2813720703125,39.51274108886719,-30.217544555664062
1773522542177082400,0.747082275390625,-213.28150939941406,40.005126953125,-30.183502197265625
1773522542187194400,0.7571943359375,-212.29788208007812,41.27055358886719,-30.031814575195312
1773522542197306400,0.767306396484375,-211.18511962890625,42.35302734375,-30.324325561523438
1773522542207417300,0.777417236328125,-211.903564453125,43.395599365234375,-31.113983154296875
1773522542217530400,0.7875302734375,-211.16744995117188,44.84576416015625,-32.010284423828125
1773522542227642400,0.797642333984375,-211.17562866210938,46.14971923828125,-33.076629638671875
1773522542237754400,0.80775439453125,-210.7020721435547,47.36680603027344,-34.254974365234375
1773522542247866400,0.817866455078125,-209.22251892089844,48.688262939453125,-35.06391906738281
1773522542257978400,0.827978271484375,-208.80470275878906,50.47151184082031,-36.07673645019531
1773522542268090400,0.83809033203125,-207.58160400390625,52.099884033203125,-36.92863464355469
1773522542278202400,0.848202392578125,-206.3599395751953,53.31941223144531,-37.82453918457031
1773522542288313300,0.858313232421875,-205.51080322265625,54.931121826171875,-38.766204833984375
1773522542298425300,0.86842529296875,-203.9239044189453,56.337890625,-40.010650634765625
1773522542308536300,0.878536376953125,-202.3629913330078,58.34266662597656,-41.85601806640625
1773522542318648300,0.8886484375,-200.84706115722656,59.68470764160156,-43.354248046875
1773522542328760300,0.89876025390625,-198.68321228027344,61.19810485839844,-45.19580078125
1773522542338873300,0.908873291015625,-197.0417022705078,63.00166320800781,-47.67308044433594
1773522542348985300,0.9189853515625,-194.99525451660156,63.644500732421875,-49.626678466796875
1773522542359096300,0.929096435546875,-192.9937744140625,64.81489562988281,-52.13938903808594
1773522542369207300,0.939207275390625,-191.10206604003906,65.41236877441406,-54.21907043457031
1773522542379320300,0.9493203125,-188.80690002441406,65.87071228027344,-55.96160888671875
1773522542389431300,0.959431396484375,-187.0335693359375,66.50712585449219,-57.90531921386719
1773522542399543300,0.969543212890625,-184.45587158203125,66.62896728515625,-58.753753662109375
1773522542409655300,0.9796552734375,-182.0433349609375,66.8505859375,-60.20942687988281
1773522542419766500,0.9897666015625,-179.59832763671875,67.32371520996094,-61.13313293457031
1773522542429876200,0.999876220703125,-177.39065551757812,66.93841552734375,-61.52180480957031
1773522542439987500,1.009987548828125,-175.0992431640625,67.30258178710938,-62.55815124511719
1773522542450098200,1.02009814453125,-173.53176879882812,66.96011352539062,-62.6864013671875
1773522542460210400,1.03021044921875,-171.78094482421875,66.89002990722656,-63.271087646484375
1773522542470321400,1.0403212890625,-169.42355346679688,66.47488403320312,-63.702789306640625
1773522542480432400,1.050432373046875,-167.16253662109375,65.82810974121094,-63.32501220703125
1773522542490543400,1.06054345703125,-165.81979370117188,66.15994262695312,-64.00047302246094
1773522542500654300,1.070654296875,-163.8173828125,65.41281127929688,-63.28620910644531
1773522542510766300,1.080766357421875,-162.22817993164062,65.22090148925781,-63.17271423339844
1773522542520878300,1.09087841796875,-161.44070434570312,65.25335693359375,-62.98516845703125
1773522542530989300,1.1009892578125,-160.14881896972656,64.42343139648438,-62.053924560546875
1773522542541100300,1.111100341796875,-158.87510681152344,64.59994506835938,-62.00596618652344
1773522542551212300,1.12121240234375,-158.5421142578125,64.30473327636719,-61.08604431152344
1773522542561324300,1.13132421875,-157.70272827148438,64.35464477539062,-60.345947265625
1773522542571435300,1.141435302734375,-157.01246643066406,64.53251647949219,-59.53404235839844
1773522542581545500,1.15154541015625,-156.7456817626953,64.0113525390625,-58.48277282714844
1773522542591656200,1.16165625,-156.77711486816406,64.502197265625,-58.29267883300781
1773522542601767400,1.171767333984375,-156.96438598632812,64.25434875488281,-57.35711669921875
1773522542611878400,1.18187841796875,-157.12673950195312,64.43244934082031,-57.034637451171875
1773522542621989400,1.1919892578125,-157.47265625,65.29666137695312,-57.08209228515625
1773522542632100400,1.202100341796875,-158.0809783935547,64.851318359375,-56.900634765625
1773522542642211300,1.21221142578125,-158.85208129882812,65.50155639648438,-57.411865234375
1773522542652322600,1.222322509765625,-158.6981201171875,65.65971374511719,-57.32972717285156
1773522542662432500,1.2324326171875,-158.90499877929688,65.45463562011719,-56.97053527832031
1773522542672543500,1.24254345703125,-159.76458740234375,66.58001708984375,-56.96142578125
1773522542682653400,1.2526533203125,-160.04774475097656,65.9757080078125,-56.15289306640625
1773522542692763600,1.262763671875,-160.07525634765625,66.62052917480469,-55.719635009765625
1773522542702873300,1.272873291015625,-160.27915954589844,66.66426086425781,-55.10093688964844
1773522542712983600,1.282983642578125,-160.57382202148438,66.50270080566406,-54.216766357421875
1773522542723093500,1.293093505859375,-160.46214294433594,67.18777465820312,-54.01838684082031
1773522542733203700,1.30320361328125,-160.84182739257812,66.5594482421875,-52.906768798828125
1773522542743313700,1.313313720703125,-161.33889770507812,67.02546691894531,-52.55876159667969
1773522542753424600,1.323424560546875,-161.20352172851562,67.09841918945312,-51.980712890625
1773522542763536400,1.333536376953125,-160.5484619140625,66.47697448730469,-50.81211853027344
1773522542773646600,1.343646484375,-161.21792602539062,67.25401306152344,-50.68272399902344
1773522542783757600,1.353757568359375,-161.46102905273438,66.61404418945312,-49.49192810058594
1773522542793867500,1.363867431640625,-162.06471252441406,67.24598693847656,-48.98838806152344
1773522542803977500,1.3739775390625,-162.24691772460938,67.62384033203125,-48.05387878417969
1773522542814086400,1.38408642578125,-162.2282257080078,66.89645385742188,-47.013214111328125
1773522542824197600,1.39419775390625,-163.1374969482422,67.36184692382812,-46.77717590332031
1773522542834308600,1.40430859375,-163.59396362304688,67.01872253417969,-45.87229919433594
1773522542844419600,1.414419677734375,-164.19793701171875,66.71827697753906,-45.12547302246094
1773522542854529500,1.424529541015625,-164.26686096191406,67.43528747558594,-44.55517578125
1773522542864640500,1.434640625,-164.72457885742188,66.43553161621094,-43.77886962890625
1773522542874751500,1.44475146484375,-165.5051727294922,67.10560607910156,-43.27821350097656
1773522542884861400,1.454861328125,-165.9978790283203,66.36630249023438,-42.40129089355469
1773522542894970400,1.464970458984375,-166.53916931152344,66.86994934082031,-41.80912780761719
1773522542905080600,1.47508056640625,-167.8121337890625,67.28836059570312,-41.21337890625
1773522542915190500,1.4851904296875,-168.4538116455078,66.20309448242188,-40.37794494628906
1773522542925301500,1.495301513671875,-169.02503967285156,66.71818542480469,-40.20118713378906
1773522542935412700,1.505412841796875,-168.9803466796875,66.53076171875,-39.69873046875
1773522542945523500,1.5155234375,-169.62319946289062,66.18327331542969,-39.02439880371094
1773522542955633700,1.525633544921875,-170.1669158935547,66.52214050292969,-38.29833984375
1773522542965744400,1.535744384765625,-170.34820556640625,65.74624633789062,-37.71795654296875
1773522542975855600,1.545855712890625,-172.0021209716797,66.23716735839844,-37.43292236328125
1773522542985966300,1.55596630859375,-172.2965545654297,65.72323608398438,-36.933807373046875
1773522542996076500,1.56607666015625,-172.7925567626953,65.51942443847656,-36.501220703125
1773522543006187500,1.5761875,-173.05722045898438,65.95820617675781,-36.30662536621094
1773522543016298500,1.586298583984375,-173.95745849609375,65.00192260742188,-35.51930236816406
1773522543026409700,1.59640966796875,-174.1664581298828,65.30816650390625,-35.500091552734375
1773522543036520400,1.6065205078125,-174.5404052734375,65.25880432128906,-35.517791748046875
1773522543046629400,1.61662939453125,-174.79888916015625,64.93846130371094,-35.49855041503906
1773522543056739600,1.626739501953125,-175.1024169921875,65.74905395507812,-35.872100830078125
1773522543066848500,1.6368486328125,-175.767333984375,65.14408874511719,-35.736175537109375
1773522543076958500,1.64695849609375,-176.52049255371094,65.21781921386719,-36.003173828125
1773522543087067600,1.657067626953125,-176.62188720703125,65.45726013183594,-36.09721374511719
1773522543097178400,1.667178466796875,-177.0038299560547,64.80654907226562,-35.56585693359375
1773522543107288600,1.67728857421875,-177.57167053222656,65.49081420898438,-35.952239990234375
1773522543117399600,1.687399658203125,-177.69586181640625,64.90060424804688,-35.079986572265625
1773522543127509500,1.697509521484375,-178.10952758789062,64.57550048828125,-34.930145263671875
1773522543137620500,1.707620361328125,-177.48663330078125,64.70494079589844,-34.501129150390625
1773522543147730700,1.717730712890625,-177.54005432128906,64.1693115234375,-34.3863525390625
1773522543157840400,1.72784033203125,-178.5485382080078,64.66633605957031,-34.83380126953125
1773522543167951600,1.73795166015625,-178.52439880371094,64.18070983886719,-35.11225891113281
1773522543178060500,1.748060546875,-179.48678588867188,64.57066345214844,-36.02372741699219
1773522543188171500,1.758171630859375,-180.7115478515625,65.63015747070312,-36.9976806640625
1773522543198282500,1.768282470703125,-180.40838623046875,65.15631103515625,-37.957733154296875
1773522543208393500,1.7783935546875,-180.58462524414062,66.14112854003906,-38.803375244140625
1773522543218503400,1.78850341796875,-179.76797485351562,66.08396911621094,-39.04911804199219
1773522543228613600,1.798613525390625,-179.3524627685547,66.0301513671875,-39.26936340332031
1773522543238721500,1.808721435546875,-179.2703094482422,66.74771118164062,-39.23695373535156
1773522543248830500,1.81883056640625,-179.70074462890625,65.98741149902344,-39.37379455566406
1773522543258941700,1.828941650390625,-179.52696228027344,66.66482543945312,-40.012359619140625
1773522543269051600,1.8390517578125,-179.32994079589844,66.71440124511719,-40.39385986328125
1773522543279161300,1.849161376953125,-179.25628662109375,66.35206604003906,-40.8441162109375
1773522543289272600,1.8592724609375,-179.0537872314453,67.28921508789062,-41.398162841796875
1773522543299381500,1.869381591796875,-178.15379333496094,66.65077209472656,-41.898681640625
1773522543309491700,1.87949169921875,-177.83203125,67.1932373046875,-42.735565185546875
1773522543319600600,1.8896005859375,-177.64569091796875,67.28248596191406,-43.672607421875
1773522543329709600,1.89970947265625,-177.2923583984375,67.27449035644531,-44.63029479980469
1773522543339819500,1.909819580078125,-177.22714233398438,68.01863098144531,-45.65235900878906
1773522543349929500,1.919929443359375,-177.0950164794922,67.47047424316406,-46.14460754394531
1773522543360040400,1.93004052734375,-177.5790557861328,67.92147827148438,-46.69285583496094
1773522543370150700,1.940150634765625,-177.85293579101562,68.03642272949219,-47.32957458496094
1773522543380260400,1.95026025390625,-177.95062255859375,67.68949890136719,-47.39942932128906
1773522543390369500,1.96036962890625,-178.4508056640625,68.29244995117188,-47.81739807128906
1773522543400479500,1.9704794921875,-178.93882751464844,67.75961303710938,-47.7032470703125
1773522543410588400,1.98058837890625,-180.04464721679688,67.89846801757812,-48.40159606933594
1773522543420698600,1.99069873046875,-180.28016662597656,68.01708984375,-49.01338195800781
1773522543430808600,2.00080859375,-180.31480407714844,67.39456176757812,-49.209381103515625
1773522543440918500,2.01091845703125,-181.2224578857422,67.87666320800781,-50.46516418457031
1773522543451029500,2.021029541015625,-181.25418090820312,67.9476318359375,-50.92442321777344
1773522543461139500,2.031139404296875,-181.13308715820312,67.89561462402344,-51.90057373046875
1773522543471249700,2.041249755859375,-181.10311889648438,68.23960876464844,-52.64726257324219
1773522543481358600,2.051358642578125,-180.44517517089844,67.4866943359375,-52.876220703125
1773522543491469600,2.061469482421875,-180.30409240722656,68.22331237792969,-54.18482971191406
1773522543501580500,2.07158056640625,-179.06056213378906,67.68722534179688,-54.71380615234375
1773522543511691500,2.08169140625,-178.857421875,67.71629333496094,-55.73869323730469
1773522543521803500,2.091803466796875,-178.16683959960938,68.1573486328125,-56.752410888671875
1773522543531914500,2.10191455078125,-177.2051544189453,67.56748962402344,-57.75238037109375
1773522543542025500,2.112025390625,-176.6376495361328,67.46864318847656,-59.68644714355469
1773522543552135400,2.122135498046875,-175.99697875976562,67.17529296875,-60.815185546875
1773522543562244400,2.132244384765625,-174.8994140625,66.81590270996094,-62.05183410644531
1773522543572353500,2.142353515625,-175.25950622558594,66.8197021484375,-63.33927917480469
1773522543582463500,2.15246337890625,-174.68157958984375,65.99577331542969,-64.09828186035156
1773522543592571400,2.1625712890625,-174.7447052001953,66.09626770019531,-65.34585571289062
1773522543602679600,2.172679443359375,-173.9632568359375,65.72917175292969,-65.65826416015625
1773522543612787500,2.182787353515625,-173.80931091308594,65.48200988769531,-66.02505493164062
1773522543622896400,2.192896484375,-173.59140014648438,65.8780517578125,-66.47090148925781
1773522543633004500,2.203004638671875,-174.01531982421875,65.33451843261719,-66.17733764648438
1773522543643112400,2.213112548828125,-174.04122924804688,65.53060913085938,-66.42437744140625
1773522543653221000,2.22322119140625,-173.34307861328125,65.59904479980469,-66.33534240722656
1773522543663329000,2.2333291015625,-172.4832000732422,65.21026611328125,-65.62446594238281
1773522543673438200,2.243438232421875,-173.05873107910156,65.91253662109375,-65.64395141601562
1773522543683549200,2.253549072265625,-173.1282501220703,65.46417236328125,-65.24378967285156
1773522543693658000,2.263658203125,-174.09976196289062,65.88288879394531,-65.18016052246094
1773522543703768300,2.273768310546875,-174.1295623779297,66.07292175292969,-65.08151245117188
1773522543713879000,2.283879150390625,-174.7858428955078,65.70841979980469,-64.7288818359375
1773522543723989200,2.2939892578125,-175.3368682861328,65.95880126953125,-65.37144470214844
1773522543734100200,2.304100341796875,-175.81874084472656,65.78546142578125,-65.05276489257812
1773522543744211200,2.314211181640625,-176.35462951660156,65.76960754394531,-65.47444152832031
1773522543754322200,2.324322265625,-175.90476989746094,65.85626220703125,-66.04493713378906
1773522543764433200,2.33443310546875,-175.47592163085938,65.22724914550781,-66.08018493652344
1773522543774544100,2.344544189453125,-175.68955993652344,65.16647338867188,-67.33990478515625
1773522543784656400,2.354656494140625,-174.7527618408203,64.48556518554688,-67.91165161132812
1773522543794767000,2.36476708984375,-174.2613525390625,64.04559326171875,-69.07882690429688
1773522543804878300,2.37487841796875,-173.4222412109375,63.5504150390625,-70.75190734863281
1773522543814990300,2.384990234375,-172.74810791015625,62.38494873046875,-71.72215270996094
1773522543825100300,2.395100341796875,-172.6472625732422,61.76055908203125,-73.80909729003906
1773522543835213300,2.40521337890625,-171.52098083496094,60.75279235839844,-75.00421142578125
1773522543845324300,2.41532421875,-170.61679077148438,59.64170837402344,-76.00030517578125
1773522543855434200,2.425434326171875,-169.93185424804688,58.97673034667969,-77.39256286621094
1773522543865545200,2.435545166015625,-168.9478302001953,57.21415710449219,-78.20066833496094
1773522543875655200,2.4456552734375,-168.5027618408203,56.503173828125,-79.52447509765625
1773522543885764000,2.45576416015625,-167.8065948486328,55.080718994140625,-80.37620544433594
1773522543895872000,2.4658720703125,-167.81141662597656,53.71162414550781,-81.54060363769531
1773522543905982200,2.475982177734375,-167.42864990234375,52.67817687988281,-82.80662536621094
1773522543916093200,2.48609326171875,-167.48825073242188,51.16603088378906,-83.54061889648438
1773522543926204200,2.4962041015625,-166.43272399902344,49.89837646484375,-84.60104370117188
1773522543936314000,2.506314208984375,-164.47218322753906,49.21806335449219,-84.5576171875
1773522543946425000,2.516425048828125,-161.72991943359375,48.61146545410156,-83.64064025878906
1773522543956535000,2.52653515625,-159.44166564941406,48.421173095703125,-82.91548156738281
1773522543966645200,2.536645263671875,-157.0701446533203,48.27520751953125,-81.40028381347656
1773522543976755200,2.546755126953125,-155.93795776367188,48.35687255859375,-80.64207458496094
1773522543986863000,2.556863037109375,-154.69833374023438,48.332183837890625,-80.05078125
1773522543996972000,2.566971923828125,-154.86172485351562,48.17500305175781,-79.84249877929688
1773522544007081200,2.577081298828125,-155.99085998535156,48.35371398925781,-81.06123352050781
1773522544017191200,2.587191162109375,-156.81100463867188,48.4515380859375,-81.41609191894531
1773522544027299000,2.597299072265625,-158.44509887695312,48.39996337890625,-82.26724243164062
1773522544037408000,2.607407958984375,-159.2021942138672,48.70257568359375,-82.85353088378906
1773522544047518200,2.617518310546875,-159.8142852783203,48.4451904296875,-82.48480224609375
1773522544057627100,2.627627197265625,-160.47024536132812,49.02189636230469,-83.62388610839844
1773522544067737000,2.637737060546875,-160.7454833984375,48.97645568847656,-83.38624572753906
1773522544077847300,2.647847412109375,-161.34219360351562,49.20463562011719,-83.55160522460938
1773522544087959300,2.657959228515625,-162.1812286376953,49.1141357421875,-83.89129638671875
1773522544098071000,2.668071044921875,-162.00184631347656,49.111480712890625,-83.41213989257812
1773522544108183000,2.67818310546875,-162.45164489746094,49.318511962890625,-83.90458679199219
1773522544118296000,2.688296142578125,-162.5563201904297,49.41300964355469,-83.66279602050781
1773522544128408300,2.698408203125,-162.53933715820312,49.6016845703125,-83.65176391601562
1773522544138520300,2.708520263671875,-162.09600830078125,49.57215881347656,-83.86967468261719
1773522544148634000,2.718634033203125,-162.4157257080078,49.504974365234375,-83.39889526367188
1773522544158745300,2.728745361328125,-161.78709411621094,49.58003234863281,-83.60296630859375
1773522544168857000,2.738857177734375,-161.5072784423828,49.685272216796875,-83.2957763671875
1773522544178969000,2.748968994140625,-161.5419921875,49.64686584472656,-83.09040832519531
1773522544189082000,2.75908203125,-161.28558349609375,49.69053649902344,-83.16273498535156
1773522544199194000,2.769194091796875,-160.6887664794922,49.53309631347656,-82.84593200683594
1773522544209306400,2.779306396484375,-160.38551330566406,49.26960754394531,-83.37591552734375
1773522544219418400,2.78941845703125,-160.18031311035156,49.43548583984375,-82.92729187011719
1773522544229530000,2.799530029296875,-159.73208618164062,48.9813232421875,-82.49864196777344
1773522544239642000,2.80964208984375,-159.5577392578125,49.282958984375,-82.94332885742188
1773522544249753300,2.81975341796875,-160.02911376953125,48.979766845703125,-82.41055297851562
1773522544259864000,2.829864013671875,-159.9915008544922,49.06895446777344,-82.87506103515625
1773522544269974300,2.839974365234375,-159.5226287841797,49.16484069824219,-82.69619750976562
1773522544280084200,2.850084228515625,-159.44325256347656,48.83984375,-82.46058654785156
1773522544290196200,2.8601962890625,-159.56248474121094,48.96562194824219,-82.81562805175781
1773522544300307200,2.87030712890625,-159.4329833984375,48.798370361328125,-82.16397094726562
1773522544310418200,2.880418212890625,-159.16650390625,48.87843322753906,-82.57240295410156
1773522544320528400,2.8905283203125,-159.25245666503906,49.05784606933594,-82.59172058105469
1773522544330638000,2.90063818359375,-159.28890991210938,48.7440185546875,-82.16307067871094
1773522544340749300,2.910749267578125,-159.55209350585938,48.78936767578125,-82.77940368652344
1773522544350861300,2.920861328125,-159.2519989013672,48.84700012207031,-82.35067749023438
1773522544360972300,2.93097216796875,-159.19122314453125,49.087188720703125,-82.77287292480469
1773522544371083300,2.941083251953125,-158.76446533203125,49.104522705078125,-82.82444763183594
1773522544381193200,2.951193115234375,-159.1448516845703,48.85151672363281,-82.32426452636719
1773522544391302100,2.96130224609375,-159.53268432617188,49.03704833984375,-82.87528991699219
1773522544401413000,2.9714130859375,-159.25955200195312,48.833038330078125,-82.35102844238281
1773522544411524400,2.9815244140625,-159.29156494140625,48.84808349609375,-82.53163146972656
1773522544421635000,2.991635009765625,-159.2965087890625,48.99189758300781,-82.86065673828125
1773522544431746300,3.001746337890625,-158.93162536621094,48.94398498535156,-82.18756103515625
1773522544441856300,3.011856201171875,-159.28599548339844,49.14231872558594,-82.84288024902344
1773522544451968300,3.02196826171875,-158.9853515625,49.051055908203125,-82.48844909667969
1773522544462079200,3.032079345703125,-159.4346923828125,49.22193908691406,-82.50614929199219
1773522544472191000,3.04219091796875,-158.7689666748047,49.36732482910156,-82.81494140625
1773522544482302200,3.05230224609375,-159.130615234375,49.119140625,-82.36383056640625
1773522544492412200,3.062412109375,-159.17279052734375,49.11598205566406,-82.70790100097656
1773522544502523100,3.072523193359375,-159.2449188232422,49.12306213378906,-82.48329162597656
1773522544512633000,3.082633056640625,-159.27479553222656,49.222320556640625,-82.37794494628906
1773522544522743300,3.092743408203125,-159.3618621826172,49.48963928222656,-82.65562438964844
1773522544532853200,3.102853271484375,-159.72702026367188,49.137603759765625,-82.36575317382812
1773522544542964200,3.112964111328125,-159.78053283691406,49.42192077636719,-82.80267333984375
1773522544553075200,3.1230751953125,-159.7724151611328,49.38880920410156,-82.79875183105469
1773522544563185200,3.13318505859375,-159.84327697753906,49.18870544433594,-82.58493041992188
1773522544573297200,3.143297119140625,-159.51611328125,49.64042663574219,-82.8760986328125
1773522544583406300,3.15340625,-160.14454650878906,49.5631103515625,-82.4840087890625
1773522544593516000,3.16351611328125,-160.63270568847656,49.55592346191406,-83.03587341308594
1773522544603627300,3.173627197265625,-160.5752410888672,49.60816955566406,-82.98942565917969
1773522544613737200,3.1837373046875,-160.69638061523438,49.54998779296875,-82.77326965332031
1773522544623847200,3.19384716796875,-161.17852783203125,49.817352294921875,-83.33230590820312
1773522544633957000,3.20395703125,-161.91567993164062,50.0029296875,-83.0328369140625
1773522544644067300,3.2140673828125,-162.91529846191406,49.91009521484375,-83.73796081542969
1773522544654177800,3.224177734375,-163.27130126953125,49.87721252441406,-83.8714599609375
1773522544664289000,3.2342890625,-163.585693359375,49.76361083984375,-83.58535766601562
1773522544674399000,3.24439892578125,-164.89903259277344,50.170654296875,-84.46931457519531
1773522544684510000,3.254510009765625,-165.2527618408203,49.90814208984375,-84.07162475585938
1773522544694619000,3.264618896484375,-166.24024963378906,49.98448181152344,-84.3785400390625
1773522544704727800,3.274727783203125,-166.8461151123047,50.22837829589844,-84.83395385742188
1773522544714836700,3.284836669921875,-167.27911376953125,49.78163146972656,-84.32536315917969
1773522544724946000,3.29494580078125,-167.67926025390625,49.988525390625,-85.11279296875
1773522544735054800,3.305054931640625,-168.13015747070312,49.772918701171875,-84.94403076171875
1773522544745165800,3.315165771484375,-168.46080017089844,49.598785400390625,-84.9664306640625
1773522544755276800,3.32527685546875,-168.55551147460938,49.73228454589844,-85.37582397460938
1773522544765386800,3.33538671875,-168.49346923828125,49.33174133300781,-84.81155395507812
1773522544775497000,3.3454970703125,-168.5424041748047,49.499176025390625,-85.368896484375
1773522544785607000,3.35560693359375,-168.2067108154297,49.03987121582031,-85.30476379394531
1773522544795718000,3.3657177734375,-168.3083953857422,49.11558532714844,-85.12037658691406
1773522544805828900,3.375828857421875,-168.47998046875,49.06825256347656,-85.65066528320312
1773522544815939000,3.38593896484375,-168.39364624023438,48.965179443359375,-85.28532409667969
1773522544826051000,3.396051025390625,-168.3106689453125,48.94779968261719,-85.85958862304688
1773522544836161000,3.4061611328125,-167.6317596435547,48.592132568359375,-85.62643432617188
1773522544846272000,3.41627197265625,-167.72903442382812,48.13941955566406,-85.45401000976562
1773522544856382700,3.4263828125,-167.3494415283203,48.00340270996094,-85.6915283203125
1773522544866495000,3.436494873046875,-166.93663024902344,47.634796142578125,-85.14959716796875
1773522544876604700,3.446604736328125,-167.0596466064453,47.54339599609375,-86.0321044921875
1773522544886715000,3.45671484375,-166.33578491210938,46.975555419921875,-85.797119140625
1773522544896824800,3.466824951171875,-166.52174377441406,47.08073425292969,-85.65376281738281
1773522544906934000,3.47693408203125,-166.07467651367188,46.8033447265625,-86.25177001953125
1773522544917044000,3.4870439453125,-165.79641723632812,46.705780029296875,-85.90010070800781
1773522544927151900,3.49715185546875,-166.44171142578125,46.81282043457031,-86.24176025390625
1773522544937261800,3.50726171875,-166.3394012451172,46.57867431640625,-86.53656005859375
1773522544947369700,3.51736962890625,-166.6176300048828,46.40925598144531,-86.00529479980469
1773522544957479000,3.52747900390625,-167.36083984375,46.50233459472656,-86.8143310546875
1773522544967588900,3.5375888671875,-167.6271514892578,46.65132141113281,-86.47196960449219
1773522544977697800,3.54769775390625,-168.31393432617188,46.715728759765625,-86.82444763183594
1773522544987806700,3.557806640625,-168.89324951171875,46.876861572265625,-86.90126037597656
1773522544997917000,3.5679169921875,-169.53555297851562,46.64408874511719,-86.38833618164062
1773522545008027000,3.57802685546875,-171.00111389160156,46.801177978515625,-87.32882690429688
1773522545018137000,3.58813720703125,-171.83428955078125,46.925079345703125,-87.12486267089844
1773522545028246000,3.59824609375,-172.68185424804688,46.689605712890625,-87.24888610839844
1773522545038355700,3.608355712890625,-173.99322509765625,46.90531921386719,-87.66824340820312
1773522545048465000,3.61846484375,-174.6865997314453,46.590484619140625,-87.24394226074219
1773522545058574800,3.628574951171875,-175.47093200683594,46.620086669921875,-88.07403564453125
1773522545068684800,3.638684814453125,-176.04299926757812,46.5623779296875,-87.7652587890625
1773522545078795000,3.648794921875,-176.86160278320312,46.252349853515625,-87.65252685546875
1773522545088905000,3.658905029296875,-177.5860137939453,46.56382751464844,-88.0338134765625
1773522545099015000,3.669014892578125,-178.18907165527344,46.183929443359375,-87.41737365722656
1773522545109126000,3.6791259765625,-179.26296997070312,46.563201904296875,-87.7430419921875
1773522545119236000,3.689236083984375,-180.1709442138672,46.50372314453125,-87.4879150390625
1773522545129347800,3.699347900390625,-180.7897491455078,46.43577575683594,-87.32518005371094
1773522545139458800,3.709458740234375,-181.60984802246094,46.602142333984375,-87.55335998535156
1773522545149568800,3.71956884765625,-182.12557983398438,46.53410339355469,-87.00537109375
1773522545159680000,3.729679931640625,-183.54220581054688,47.041717529296875,-87.41606140136719
1773522545169791000,3.739791015625,-183.712158203125,46.767181396484375,-87.279052734375
1773522545179901000,3.74990087890625,-184.2523651123047,46.435577392578125,-86.72428894042969
1773522545190011100,3.76001123046875,-184.39967346191406,46.90092468261719,-86.83125305175781
1773522545200121900,3.770121826171875,-184.388671875,46.54620361328125,-86.59188842773438
1773522545210232000,3.780232177734375,-185.21031188964844,46.84797668457031,-86.66963195800781
1773522545220342000,3.790342041015625,-185.36000061035156,46.45884704589844,-86.66529846191406
1773522545230451700,3.80045166015625,-185.33004760742188,46.75352478027344,-86.36624145507812
1773522545240562000,3.81056201171875,-186.61424255371094,47.202911376953125,-86.39164733886719
1773522545250671900,3.820671875,-187.5981903076172,46.966339111328125,-85.53793334960938
1773522545260780800,3.83078076171875,-189.16017150878906,47.38580322265625,-85.13818359375
1773522545270891000,3.84089111328125,-190.1768341064453,47.219512939453125,-84.86849975585938
1773522545281001000,3.8510009765625,-190.02394104003906,46.92982482910156,-84.19902038574219
1773522545291112000,3.86111181640625,-191.5069580078125,47.07752990722656,-84.54258728027344
1773522545301220900,3.871220947265625,-191.45994567871094,46.811859130859375,-84.15776062011719
1773522545311332000,3.88133203125,-191.5811309814453,47.111541748046875,-84.24900817871094
1773522545321441800,3.89144189453125,-191.79225158691406,47.22340393066406,-84.43222045898438
1773522545331551700,3.9015517578125,-191.5446014404297,46.87467956542969,-83.88722229003906
1773522545341661000,3.911660888671875,-192.1297149658203,47.22578430175781,-84.38215637207031
1773522545351771000,3.92177099609375,-192.07093811035156,47.187652587890625,-84.05888366699219
1773522545361881900,3.9318818359375,-192.2952117919922,47.43955993652344,-83.77029418945312
1773522545371992800,3.941992919921875,-193.0408477783203,47.79325866699219,-83.5064697265625
1773522545382104800,3.952104736328125,-192.55276489257812,47.965057373046875,-82.70814514160156
1773522545392216800,3.962216796875,-193.924560546875,48.13987731933594,-82.88479614257812
1773522545402329000,3.9723291015625,-193.4486541748047,48.2965087890625,-82.40028381347656
1773522545412441000,3.982441162109375,-193.17018127441406,48.80731201171875,-82.14852905273438
1773522545422554000,3.99255419921875,-194.04200744628906,49.441314697265625,-81.94029235839844
1773522545432664800,4.002664794921875,-193.35276794433594,49.324127197265625,-81.58341979980469
1773522545442776000,4.012776123046875,-194.05673217773438,49.573699951171875,-81.61274719238281
1773522545452886800,4.02288671875,-193.8461456298828,49.47418212890625,-81.44467163085938
1773522545462998800,4.032998779296875,-194.0304718017578,49.52143859863281,-81.07814025878906
1773522545473110000,4.043110107421875,-194.36570739746094,50.043792724609375,-81.07533264160156
1773522545483220700,4.053220703125,-194.24632263183594,49.59587097167969,-80.95954895019531
1773522545493332700,4.063332763671875,-194.77218627929688,49.94355773925781,-81.14309692382812
1773522545503445000,4.073445068359375,-194.69940185546875,49.56236267089844,-81.20198059082031
1773522545513556000,4.083555908203125,-194.25148010253906,49.35163879394531,-81.17945861816406
1773522545523667000,4.0936669921875,-194.6295166015625,49.4093017578125,-81.31829833984375
1773522545533777000,4.10377685546875,-194.8888397216797,48.93571472167969,-81.17514038085938
1773522545543886800,4.113886962890625,-194.90272521972656,49.2071533203125,-81.33872985839844
1773522545553998800,4.123998779296875,-195.3736114501953,48.65376281738281,-81.67778015136719
1773522545564107800,4.134107666015625,-195.11012268066406,48.58378601074219,-81.52452087402344
1773522545574219000,4.144218994140625,-195.84432983398438,48.69099426269531,-81.87843322753906
1773522545584329000,4.154328857421875,-195.5310821533203,48.35743713378906,-81.42100524902344
1773522545594439000,4.16443896484375,-195.9226837158203,48.43818664550781,-81.6888427734375
1773522545604551000,4.174551025390625,-196.33909606933594,48.267974853515625,-81.7227783203125
1773522545614660900,4.184660888671875,-195.8975372314453,47.8782958984375,-81.59913635253906
1773522545624771800,4.194771728515625,-197.0333251953125,47.44837951660156,-81.97018432617188
1773522545634882800,4.2048828125,-196.86119079589844,47.18565368652344,-82.0760498046875
1773522545644994000,4.214994140625,-197.01255798339844,47.057586669921875,-82.21875
1773522545655105000,4.22510498046875,-197.57884216308594,46.492645263671875,-82.62983703613281
1773522545665215200,4.23521533203125,-196.6016845703125,45.9361572265625,-82.54475402832031
1773522545675326200,4.245326171875,-197.49281311035156,45.67073059082031,-83.09010314941406
1773522545685436200,4.255436279296875,-197.10263061523438,45.00804138183594,-83.67169189453125
1773522545695547100,4.265547119140625,-197.47584533691406,44.487396240234375,-83.64302062988281
1773522545705657300,4.2756572265625,-197.93118286132812,44.24195861816406,-84.09785461425781
1773522545715769000,4.28576904296875,-196.87789916992188,43.992095947265625,-83.95210266113281
1773522545725879300,4.29587939453125,-197.93170166015625,43.51322937011719,-84.52668762207031
1773522545735990000,4.305989990234375,-197.63717651367188,43.29048156738281,-84.81903076171875
1773522545746100200,4.316100341796875,-197.5397491455078,43.14060974121094,-84.520751953125
1773522545756210200,4.326210205078125,-198.15440368652344,43.194000244140625,-84.79399108886719
1773522545766321200,4.336321044921875,-197.3314666748047,43.00483703613281,-84.7001953125
1773522545776433200,4.34643310546875,-198.29107666015625,42.93406677246094,-85.08590698242188
1773522545786544000,4.356544189453125,-197.79933166503906,43.053253173828125,-85.24400329589844
1773522545796657200,4.3666572265625,-197.5398712158203,42.70501708984375,-85.18409729003906
1773522545806767000,4.37676708984375,-197.67483520507812,42.91229248046875,-85.41775512695312
1773522545816877000,4.386876953125,-196.83473205566406,42.69612121582031,-85.40396118164062
1773522545826990000,4.396989990234375,-197.29493713378906,43.195159912109375,-85.58992004394531
1773522545837100300,4.407100341796875,-197.1030731201172,43.168853759765625,-85.82804870605469
1773522545847210200,4.417210205078125,-197.09506225585938,43.357391357421875,-85.53414916992188
1773522545857320200,4.4273203125,-197.0091552734375,43.53596496582031,-85.65347290039062
1773522545867430100,4.43743017578125,-196.32301330566406,43.53895568847656,-85.53330993652344
1773522545877541000,4.447541015625,-196.8516387939453,43.65699768066406,-85.62849426269531
1773522545887652000,4.457652099609375,-196.65032958984375,43.90330505371094,-85.98202514648438
1773522545897763300,4.467763427734375,-196.08985900878906,43.94371032714844,-85.64100646972656
1773522545907875000,4.477875,-196.3822479248047,43.958099365234375,-86.43089294433594
1773522545917986000,4.487986083984375,-195.22267150878906,43.70909118652344,-86.28659057617188
1773522545928097300,4.49809716796875,-195.4088592529297,44.123321533203125,-86.62416076660156
1773522545938207200,4.508207275390625,-194.99102783203125,44.11463928222656,-86.98558044433594
1773522545948318200,4.518318115234375,-194.0592041015625,43.91038513183594,-86.81051635742188
1773522545958430000,4.528429931640625,-194.0934295654297,44.082122802734375,-87.51095581054688
1773522545968542200,4.538542236328125,-193.1051025390625,43.81398010253906,-87.49530029296875
1773522545978655000,4.548655029296875,-193.7012176513672,44.16816711425781,-87.42645263671875
1773522545988767200,4.558767333984375,-194.0143585205078,44.11476135253906,-87.51686096191406
1773522545998878200,4.568878173828125,-192.730224609375,44.204376220703125,-87.17933654785156
1773522546008990000,4.578989990234375,-193.60475158691406,44.372589111328125,-87.81280517578125
1773522546019101200,4.58910107421875,-192.81704711914062,44.65380859375,-87.86346435546875
1773522546029212200,4.599212158203125,-192.93582153320312,44.45469665527344,-87.76588439941406
1773522546039322000,4.609322021484375,-193.2921600341797,44.88853454589844,-88.03166198730469
1773522546049433300,4.619433349609375,-192.570068359375,44.788055419921875,-87.47853088378906
1773522546059544000,4.6295439453125,-193.28407287597656,45.18025207519531,-88.16305541992188
1773522546069653200,4.6396533203125,-192.3175048828125,44.906524658203125,-88.17459106445312
1773522546079763200,4.64976318359375,-191.247314453125,45.26246643066406,-88.14584350585938
1773522546089872100,4.6598720703125,-190.71835327148438,45.719451904296875,-88.67825317382812
1773522546099983000,4.669983154296875,-189.3509521484375,45.70274353027344,-88.74630737304688
1773522546110094000,4.680093994140625,-188.5293731689453,45.5809326171875,-89.57452392578125
1773522546120204300,4.690204345703125,-187.31280517578125,45.42094421386719,-89.77690124511719
1773522546130314000,4.70031396484375,-186.78890991210938,45.06568908691406,-89.72068786621094
1773522546140425200,4.71042529296875,-186.6427764892578,45.63697814941406,-90.46710205078125
1773522546150535200,4.72053515625,-186.12661743164062,44.75868225097656,-90.1788330078125
1773522546160645000,4.73064501953125,-186.9749298095703,45.098541259765625,-90.58381652832031
1773522546170755000,4.740755126953125,-186.93582153320312,44.46482849121094,-91.15423583984375
1773522546180866300,4.7508662109375,-186.50155639648438,43.728485107421875,-90.75563049316406
1773522546190975200,4.760975341796875,-186.41896057128906,43.79515075683594,-91.60354614257812
1773522546201085200,4.771085205078125,-185.27639770507812,43.48716735839844,-91.58004760742188
1773522546211194400,4.7811943359375,-184.46231079101562,43.46965026855469,-91.9344482421875
1773522546221303300,4.79130322265625,-183.6724853515625,43.341033935546875,-92.43264770507812
1773522546231413200,4.801413330078125,-182.6258544921875,42.911773681640625,-92.01493835449219
1773522546241523200,4.811523193359375,-182.44898986816406,43.44316101074219,-92.80912780761719
1773522546251635200,4.82163525390625,-181.3292236328125,42.730499267578125,-92.4517822265625
1773522546261747200,4.831747314453125,-181.32449340820312,42.92280578613281,-92.62879943847656
1773522546271858200,4.841858154296875,-181.16470336914062,43.155792236328125,-93.166015625
1773522546281971200,4.85197119140625,-179.9776153564453,42.806976318359375,-92.26925659179688
1773522546292082200,4.862082275390625,-179.349609375,43.36268615722656,-93.19206237792969
1773522546302194200,4.872194091796875,-178.3431396484375,43.14317321777344,-92.44482421875
1773522546312306200,4.88230615234375,-178.0032501220703,43.65107727050781,-92.36935424804688
1773522546322416000,4.892416015625,-177.40846252441406,44.433135986328125,-92.80448913574219
1773522546332528000,4.902528076171875,-176.5507049560547,44.39447021484375,-91.85700988769531
1773522546342640000,4.91264013671875,-176.8274688720703,44.96209716796875,-92.59249877929688
1773522546352752000,4.922752197265625,-176.4400177001953,45.152496337890625,-92.03396606445312
1773522546362864000,4.932864013671875,-176.3527374267578,45.209808349609375,-91.73016357421875
1773522546372976000,4.94297607421875,-176.0098114013672,45.73283386230469,-92.09022521972656
1773522546383088000,4.953088134765625,-175.5825653076172,45.44398498535156,-91.26170349121094
1773522546393200000,4.9632001953125,-175.71511840820312,46.001983642578125,-91.71824645996094
1773522546403311400,4.973311279296875,-175.00726318359375,46.02156066894531,-91.72850036621094
1773522546413421000,4.983421142578125,-174.32574462890625,45.63883972167969,-91.29354858398438
1773522546423532300,4.9935322265625,-174.1715087890625,46.26844787597656,-91.84280395507812
1773522546433642200,5.003642333984375,-173.75216674804688,45.63983154296875,-91.05465698242188
1773522546443752000,5.013751953125,-173.48699951171875,46.010101318359375,-91.3917236328125
1773522546453863200,5.02386328125,-173.06944274902344,45.77482604980469,-91.47393798828125
1773522546463974100,5.03397412109375,-172.92369079589844,45.400390625,-91.07147216796875
1773522546474085000,5.044085205078125,-172.752685546875,45.843841552734375,-91.49662780761719
1773522546484196000,5.054196044921875,-172.27748107910156,45.30775451660156,-90.95523071289062
1773522546494308400,5.064308349609375,-172.10635375976562,45.430267333984375,-91.26667785644531
1773522546504420000,5.074420166015625,-171.49655151367188,45.54591369628906,-91.32553100585938
1773522546514531000,5.084531005859375,-170.76792907714844,45.315155029296875,-90.47335815429688
1773522546524642300,5.094642333984375,-170.54275512695312,45.694000244140625,-91.27313232421875
1773522546534753000,5.1047529296875,-170.2021484375,45.516937255859375,-90.22212219238281
1773522546544865000,5.114864990234375,-170.0906219482422,45.71638488769531,-90.41912841796875
1773522546554976300,5.124976318359375,-169.79116821289062,45.82115173339844,-90.65115356445312
1773522546565086200,5.135086181640625,-169.514892578125,45.91827392578125,-89.89125061035156
1773522546575197200,5.145197265625,-169.87850952148438,46.23619079589844,-90.8599853515625
1773522546585308200,5.15530810546875,-169.48388671875,46.02508544921875,-90.09368896484375
1773522546595419100,5.165419189453125,-170.0535125732422,46.67604064941406,-90.21194458007812
1773522546605530400,5.1755302734375,-170.8382568359375,46.97845458984375,-90.4783935546875
1773522546615642000,5.18564208984375,-170.42515563964844,46.77435302734375,-89.59523010253906
1773522546625755100,5.195755126953125,-172.33811950683594,47.01673889160156,-90.768798828125
1773522546635866000,5.2058662109375,-172.7636260986328,46.95098876953125,-90.42759704589844
1773522546645978000,5.21597802734375,-174.51739501953125,46.830718994140625,-90.71847534179688
1773522546656088600,5.226088623046875,-176.34017944335938,46.964752197265625,-91.63951110839844
1773522546666199800,5.23619970703125,-176.79290771484375,45.946044921875,-90.79194641113281
1773522546676311800,5.246311767578125,-179.83482360839844,45.9346923828125,-91.70890808105469
1773522546686423800,5.256423828125,-181.01889038085938,45.411468505859375,-91.62109375
1773522546696534500,5.266534423828125,-182.6364288330078,44.64277648925781,-91.60641479492188
1773522546706645800,5.276645751953125,-184.07272338867188,44.42741394042969,-92.37004089355469
1773522546716754700,5.286754638671875,-184.24034118652344,43.52574157714844,-91.79405212402344
1773522546726863600,5.296863525390625,-185.2908477783203,42.77244567871094,-92.74111938476562
1773522546736975600,5.3069755859375,-184.93116760253906,42.17002868652344,-92.90742492675781
1773522546747085800,5.3170859375,-185.17001342773438,41.3853759765625,-92.62445068359375
1773522546757195800,5.32719580078125,-186.36651611328125,41.17041015625,-93.16383361816406
1773522546767306800,5.337306640625,-186.60987854003906,40.74983215332031,-92.23780822753906
1773522546777416700,5.347416748046875,-187.9776153564453,40.73834228515625,-92.74911499023438
1773522546787526700,5.357526611328125,-188.14315795898438,40.700225830078125,-92.57876586914062
1773522546797635800,5.3676357421875,-187.95413208007812,40.86126708984375,-91.85490417480469
1773522546807746600,5.37774658203125,-188.16673278808594,41.09515380859375,-92.69499206542969
1773522546817857800,5.38785791015625,-188.17303466796875,41.21061706542969,-91.83596801757812
1773522546827967700,5.3979677734375,-188.56288146972656,41.238311767578125,-92.05767822265625
1773522546838077700,5.40807763671875,-188.35763549804688,41.31819152832031,-92.324951171875
1773522546848187600,5.418187744140625,-187.63233947753906,41.1864013671875,-91.84950256347656
1773522546858297600,5.428297607421875,-188.11441040039062,41.22904968261719,-92.90669250488281
1773522546868409600,5.43840966796875,-186.74517822265625,41.36500549316406,-92.35069274902344
1773522546878520800,5.448520751953125,-186.86656188964844,41.231903076171875,-92.5859375
1773522546888631600,5.458631591796875,-186.29727172851562,41.213592529296875,-93.01200866699219
1773522546898741800,5.46874169921875,-184.86614990234375,41.44490051269531,-92.21914672851562
1773522546908851700,5.478851806640625,-184.44223022460938,41.38475036621094,-93.439453125
1773522546918961700,5.488961669921875,-183.88023376464844,41.429473876953125,-92.80464172363281
1773522546929072600,5.49907275390625,-183.4709930419922,41.93544006347656,-93.15444946289062
1773522546939181800,5.509181884765625,-182.7823486328125,41.8505859375,-93.59481811523438
1773522546949292500,5.51929248046875,-181.3810272216797,41.76226806640625,-92.44340515136719
1773522546959401700,5.529401611328125,-180.88528442382812,42.22383117675781,-93.64291381835938
1773522546969512700,5.5395126953125,-179.4013671875,42.12730407714844,-93.38172912597656
1773522546979622700,5.54962255859375,-178.42225646972656,42.161895751953125,-93.26890563964844
1773522546989732900,5.55973291015625,-177.15850830078125,42.456298828125,-93.95384216308594
1773522546999843600,5.569843505859375,-175.68251037597656,42.42106628417969,-92.83256530761719
1773522547009953800,5.579953857421875,-175.16015625,42.369384765625,-93.74493408203125
1773522547020063700,5.590063720703125,-173.2934112548828,42.53050231933594,-93.33575439453125
1773522547030173700,5.600173583984375,-172.04470825195312,42.20982360839844,-92.95291137695312
1773522547040283600,5.61028369140625,-171.3097381591797,42.622802734375,-93.49943542480469
1773522547050395000,5.620394775390625,-170.37644958496094,42.29644775390625,-92.79254150390625
1773522547060505600,5.630505615234375,-170.0231475830078,42.347930908203125,-93.30250549316406
1773522547070617600,5.64061767578125,-169.25389099121094,42.72987365722656,-92.9227294921875
1773522547080729600,5.6507294921875,-168.7755584716797,42.57513427734375,-92.15110778808594
1773522547090840800,5.6608408203125,-168.20175170898438,43.477630615234375,-92.61172485351562
1773522547100952600,5.67095263671875,-167.87416076660156,43.28382873535156,-91.59210205078125
1773522547111062800,5.681062744140625,-168.83804321289062,43.91154479980469,-92.21665954589844
1773522547121173500,5.691173583984375,-168.286865234375,44.199920654296875,-91.86839294433594
1773522547131284700,5.70128466796875,-167.87823486328125,44.36830139160156,-91.18206787109375
1773522547141396700,5.711396728515625,-167.72958374023438,44.73966979980469,-92.06414794921875
1773522547151507700,5.7215078125,-167.25613403320312,44.62199401855469,-91.1875
1773522547161619700,5.73161962890625,-167.25946044921875,44.49754333496094,-91.42543029785156
1773522547171731700,5.741731689453125,-166.37335205078125,44.66429138183594,-91.60845947265625
1773522547181841700,5.751841552734375,-165.63890075683594,44.21138000488281,-90.733642578125
1773522547191953700,5.76195361328125,-165.15469360351562,44.18882751464844,-91.89141845703125
1773522547202064000,5.77206396484375,-165.1588134765625,44.288848876953125,-91.20138549804688
1773522547212173800,5.782173828125,-166.23678588867188,44.28392028808594,-91.59033203125
1773522547222284800,5.792284912109375,-166.52284240722656,44.63555908203125,-92.23402404785156
1773522547232396500,5.802396484375,-166.61965942382812,44.61285400390625,-91.14907836914062
1773522547242507800,5.8125078125,-166.96636962890625,44.814300537109375,-92.05628967285156
1773522547252619800,5.822619873046875,-166.93270874023438,44.93438720703125,-91.31605529785156
1773522547262730500,5.83273046875,-167.6161346435547,45.580078125,-91.53047180175781
1773522547272841700,5.842841796875,-167.46205139160156,45.78559875488281,-92.2080078125
1773522547282953700,5.85295361328125,-168.3783721923828,45.62364196777344,-91.01303100585938
1773522547293064700,5.863064697265625,-169.34608459472656,45.94309997558594,-92.38348388671875
1773522547303175700,5.87317578125,-169.99795532226562,45.80931091308594,-91.7911376953125
1773522547313288700,5.883288818359375,-170.67379760742188,45.964324951171875,-91.67961120605469
1773522547323400700,5.893400634765625,-171.56802368164062,46.1898193359375,-92.39706420898438
1773522547333510700,5.9035107421875,-171.8573760986328,46.23509216308594,-91.4642333984375
1773522547343621600,5.91362158203125,-172.98533630371094,46.35948181152344,-92.30851745605469
1773522547353731600,5.923731689453125,-173.54208374023438,46.419708251953125,-91.86465454101562
1773522547363843600,5.933843505859375,-174.1187744140625,46.37690734863281,-91.4248046875
1773522547373954800,5.943954833984375,-174.26589965820312,46.47296142578125,-92.52676391601562
1773522547384066600,5.954066650390625,-175.1071319580078,46.384368896484375,-91.67393493652344
1773522547394179600,5.9641796875,-175.59535217285156,46.26469421386719,-92.57211303710938
1773522547404291600,5.97429150390625,-175.8403778076172,46.05946350097656,-92.17755126953125
1773522547414403600,5.984403564453125,-176.04722595214844,45.78828430175781,-91.70054626464844
1773522547424515800,5.994515869140625,-176.2689666748047,46.20591735839844,-92.54397583007812
1773522547434627800,6.0046279296875,-176.57644653320312,46.02069091796875,-91.63096618652344
1773522547444738600,6.014738525390625,-177.70191955566406,45.96464538574219,-92.26481628417969
1773522547454849800,6.024849853515625,-177.58958435058594,46.288482666015625,-92.43833923339844
1773522547464962800,6.034962890625,-178.06663513183594,45.80352783203125,-91.72276306152344
1773522547475074800,6.04507470703125,-178.50262451171875,46.0380859375,-92.91114807128906
1773522547485186800,6.055186767578125,-179.265625,45.53718566894531,-91.95382690429688
1773522547495297800,6.0652978515625,-180.20831298828125,45.17720031738281,-92.54354858398438
1773522547505410600,6.07541064453125,-180.5161590576172,45.10520935058594,-92.84689331054688
1773522547515521800,6.085521728515625,-181.27011108398438,44.82392883300781,-92.17442321777344
1773522547525633800,6.0956337890625,-181.62518310546875,44.51335144042969,-93.24383544921875
1773522547535745500,6.10574560546875,-181.74119567871094,44.26289367675781,-92.52525329589844
1773522547545856800,6.115856689453125,-182.68157958984375,43.8040771484375,-92.76750183105469
1773522547555968800,6.12596875,-183.6337127685547,43.89398193359375,-93.397705078125
1773522547566080800,6.136080810546875,-182.96371459960938,43.41944885253906,-92.23611450195312
1773522547576193800,6.14619384765625,-184.1692657470703,43.25868225097656,-93.47471618652344
1773522547586305500,6.156305419921875,-184.4027099609375,42.8433837890625,-92.78717041015625
1773522547596417800,6.166417724609375,-185.00143432617188,42.730926513671875,-92.93795776367188
1773522547606530600,6.176530517578125,-185.19000244140625,42.65948486328125,-93.60888671875
1773522547616642800,6.186642822265625,-185.12522888183594,42.07197570800781,-92.51321411132812
1773522547626755800,6.196755859375,-185.53831481933594,41.898101806640625,-93.67828369140625
1773522547636866800,6.20686669921875,-185.6271209716797,41.56025695800781,-93.24714660644531
1773522547646978600,6.216978515625,-185.25552368164062,41.376373291015625,-93.12361145019531
1773522547657092000,6.227092041015625,-185.86932373046875,41.16233825683594,-93.81648254394531
1773522547667203000,6.237203125,-185.55145263671875,40.59877014160156,-93.04801940917969
1773522547677313000,6.24731298828125,-185.85049438476562,40.6748046875,-93.83343505859375
1773522547687424000,6.257424072265625,-185.4690399169922,40.27949523925781,-93.75564575195312
1773522547697536000,6.267535888671875,-185.89967346191406,40.02214050292969,-93.12620544433594
1773522547707647000,6.27764697265625,-186.10153198242188,39.9862060546875,-94.10423278808594
1773522547717757000,6.2877568359375,-185.99215698242188,39.54730224609375,-93.46119689941406
1773522547727867100,6.2978671875,-186.15402221679688,39.42784118652344,-94.05824279785156
1773522547737977000,6.30797705078125,-185.80287170410156,39.28485107421875,-94.05252075195312
1773522547748086000,6.3180859375,-185.5349578857422,39.20918273925781,-93.53630065917969
1773522547758196200,6.3281962890625,-186.0618896484375,39.31964111328125,-94.33366394042969
1773522547768308000,6.338307861328125,-185.6179962158203,39.28355407714844,-93.68940734863281
1773522547778419000,6.3484189453125,-185.86500549316406,39.02311706542969,-94.09175109863281
1773522547788530200,6.3585302734375,-185.70521545410156,39.10182189941406,-94.25546264648438
1773522547798641000,6.368640869140625,-185.08987426757812,38.96192932128906,-93.40692138671875
1773522547808753000,6.3787529296875,-185.7637481689453,39.02067565917969,-94.39212036132812
1773522547818864000,6.388864013671875,-185.5321502685547,39.17430114746094,-93.6400146484375
1773522547828974800,6.398974853515625,-185.50865173339844,39.027008056640625,-93.80003356933594
1773522547839087900,6.409087890625,-185.9286651611328,39.360015869140625,-94.21343994140625
1773522547849199000,6.41919921875,-185.6838836669922,39.4498291015625,-93.46453857421875
1773522547859311000,6.42931103515625,-185.88433837890625,39.17143249511719,-94.23908996582031
1773522547869421000,6.439421142578125,-185.4843292236328,39.4739990234375,-93.81069946289062
1773522547879531300,6.44953125,-185.2635498046875,39.59492492675781,-93.71633911132812
1773522547889640200,6.45964013671875,-185.69879150390625,39.61738586425781,-94.28923034667969
1773522547899750000,6.46975,-184.6921844482422,39.70860290527344,-93.07386779785156
1773522547909861000,6.479861083984375,-185.0273895263672,39.76953125,-94.18916320800781
1773522547919971000,6.48997119140625,-185.02622985839844,39.61785888671875,-93.73622131347656
1773522547930082000,6.50008203125,-184.8809051513672,39.95713806152344,-93.32199096679688
1773522547940193000,6.510193115234375,-185.15255737304688,39.977569580078125,-94.08395385742188
1773522547950303000,6.520302978515625,-184.69790649414062,39.72607421875,-93.11958312988281
1773522547960414000,6.5304140625,-184.992431640625,40.07054138183594,-93.90232849121094
1773522547970524200,6.540524169921875,-184.72752380371094,40.3035888671875,-93.58659362792969
1773522547980636200,6.55063623046875,-184.47230529785156,40.29548645019531,-93.3795166015625
1773522547990747000,6.560746826171875,-184.38641357421875,40.339935302734375,-93.97525024414062
1773522548000858000,6.570858154296875,-184.86305236816406,40.40367126464844,-93.24330139160156
1773522548010968800,6.58096875,-184.84230041503906,40.38612365722656,-93.67095947265625
1773522548021081000,6.5910810546875,-184.6409912109375,40.53765869140625,-93.73542785644531
1773522548031192000,6.601192138671875,-184.4091033935547,40.27447509765625,-92.91529846191406
1773522548041305000,6.61130517578125,-184.4197540283203,40.732757568359375,-93.68968200683594
1773522548051417000,6.6214169921875,-184.19618225097656,40.802459716796875,-92.925048828125
1773522548061528000,6.631528076171875,-184.88624572753906,41.00030517578125,-93.53717041015625
1773522548071639000,6.64163916015625,-184.41917419433594,41.17840576171875,-93.65536499023438
1773522548081751000,6.6517509765625,-184.36068725585938,41.191802978515625,-92.88796997070312
1773522548091863000,6.661863037109375,-183.97540283203125,41.471221923828125,-93.61929321289062
1773522548101975000,6.67197509765625,-184.3436279296875,42.00218200683594,-92.96867370605469
1773522548112087000,6.682087158203125,-184.38253784179688,41.81903076171875,-93.18360900878906
1773522548122198000,6.692197998046875,-184.54493713378906,42.06353759765625,-93.44642639160156
1773522548132310300,6.702310302734375,-184.0828399658203,42.2611083984375,-92.572021484375
1773522548142422000,6.712422119140625,-184.25936889648438,42.47538757324219,-93.60577392578125
1773522548152534000,6.722533935546875,-183.55116271972656,42.6785888671875,-92.69378662109375
1773522548162645000,6.73264501953125,-183.7969970703125,42.64714050292969,-92.83984375
1773522548172757200,6.74275732421875,-184.3192901611328,42.943206787109375,-93.29718017578125
1773522548182868000,6.752867919921875,-183.68714904785156,42.84278869628906,-92.02658081054688
1773522548192979200,6.762979248046875,-184.0630340576172,42.99943542480469,-93.09579467773438
1773522548203090000,6.77308984375,-183.81997680664062,43.521270751953125,-92.69898986816406
1773522548213201200,6.783201171875,-183.7947235107422,43.227935791015625,-92.42137145996094
1773522548223312100,6.79331201171875,-184.09329223632812,43.66880798339844,-93.07672119140625
1773522548233421000,6.803421142578125,-183.51931762695312,43.44581604003906,-91.93315124511719
1773522548243531000,6.813531005859375,-183.59706115722656,43.52336120605469,-92.80636596679688
1773522548253641200,6.82364111328125,-183.2418212890625,43.9410400390625,-92.42477416992188
1773522548263751000,6.8337509765625,-183.2133026123047,43.96302795410156,-92.08439636230469
1773522548273862100,6.843862060546875,-183.53236389160156,44.03315734863281,-92.86065673828125
1773522548283971000,6.85397119140625,-183.3485565185547,44.010040283203125,-91.98048400878906
1773522548294081000,6.8640810546875,-183.02964782714844,44.15565490722656,-92.73092651367188
1773522548304192000,6.87419189453125,-183.14825439453125,44.18829345703125,-92.48974609375
1773522548314302000,6.884302001953125,-183.2571258544922,44.032623291015625,-92.07516479492188
1773522548324413200,6.8944130859375,-183.22491455078125,44.35302734375,-92.8575439453125
1773522548334525200,6.904525146484375,-182.8245086669922,44.06886291503906,-91.82594299316406
1773522548344637000,6.914636962890625,-183.1536102294922,44.25398254394531,-92.74476623535156
1773522548354749000,6.9247490234375,-183.18914794921875,44.202972412109375,-92.63482666015625
1773522548364860200,6.934860107421875,-183.0872344970703,44.080596923828125,-91.81710815429688
1773522548374971100,6.94497119140625,-183.0807647705078,44.542266845703125,-92.68600463867188
1773522548385080000,6.955080078125,-183.0611114501953,44.50819396972656,-91.95315551757812
1773522548395190000,6.96518994140625,-183.4727325439453,44.44306945800781,-92.33656311035156
1773522548405300200,6.97530029296875,-183.74072265625,44.676239013671875,-92.46919250488281
1773522548415411000,6.985410888671875,-183.32077026367188,44.3038330078125,-91.76025390625
1773522548425521200,6.995521240234375,-183.07525634765625,44.65394592285156,-92.56356811523438
1773522548435633000,7.0056328125,-183.27212524414062,44.35212707519531,-91.53662109375
1773522548445743000,7.0157431640625,-183.97775268554688,44.56129455566406,-91.88911437988281
1773522548455853800,7.025853759765625,-184.12547302246094,44.67791748046875,-92.59988403320312
1773522548465964000,7.035964111328125,-183.97259521484375,44.51557922363281,-91.4117431640625
1773522548476075000,7.046074951171875,-184.84877014160156,44.63819885253906,-92.3935546875
1773522548486185000,7.05618505859375,-184.70077514648438,44.517425537109375,-91.61676025390625
1773522548496296000,7.0662958984375,-184.64276123046875,44.580474853515625,-91.63249206542969
1773522548506407000,7.076406982421875,-185.26515197753906,44.71563720703125,-92.26997375488281
1773522548516516900,7.086516845703125,-184.73486328125,44.38511657714844,-90.87730407714844
1773522548526628000,7.096628173828125,-185.10508728027344,44.60475158691406,-92.13546752929688
1773522548536741000,7.1067412109375,-185.39010620117188,44.563201904296875,-91.62568664550781
1773522548546850800,7.116850830078125,-185.31556701660156,44.36474609375,-91.34735107421875
1773522548556962000,7.126962158203125,-185.42410278320312,44.64183044433594,-92.05076599121094
1773522548567072300,7.137072265625,-185.1378173828125,44.6683349609375,-90.79924011230469
1773522548577183000,7.147182861328125,-185.56365966796875,44.4610595703125,-91.77030944824219
1773522548587295000,7.157294921875,-185.32859802246094,44.78791809082031,-91.48443603515625
1773522548597405000,7.167405029296875,-185.6887969970703,44.719635009765625,-91.1497802734375
1773522548607517000,7.177516845703125,-185.84896850585938,44.7864990234375,-91.85148620605469
1773522548617628200,7.187628173828125,-185.41775512695312,44.72926330566406,-90.81312561035156
1773522548627740200,7.197740234375,-185.3260040283203,44.79570007324219,-91.68046569824219
1773522548637854200,7.207854248046875,-185.14663696289062,44.93180847167969,-91.49533081054688
1773522548647967000,7.217967041015625,-184.81533813476562,44.823638916015625,-90.84716796875
1773522548658079200,7.228079345703125,-184.97386169433594,45.09684753417969,-91.56956481933594
1773522548668192300,7.238192138671875,-184.98545837402344,45.06658935546875,-91.06570434570312
1773522548678304000,7.248303955078125,-184.9876251220703,44.915985107421875,-91.25349426269531
1773522548688416000,7.258416015625,-185.01898193359375,45.19383239746094,-91.41815185546875
1773522548698527000,7.26852685546875,-184.73170471191406,44.880157470703125,-90.94509887695312
1773522548708640000,7.278639892578125,-184.6306915283203,44.97972106933594,-91.66331481933594
1773522548718752300,7.288752197265625,-185.0093994140625,44.67146301269531,-91.05525207519531
1773522548728865000,7.298864990234375,-184.99874877929688,44.71771240234375,-91.47294616699219
1773522548738978000,7.30897802734375,-184.4207000732422,44.8115234375,-91.79252624511719
1773522548749091000,7.319091064453125,-184.91854858398438,44.53361511230469,-91.20521545410156
1773522548759204000,7.3292041015625,-185.16116333007812,44.58271789550781,-92.03140258789062
1773522548769315800,7.33931591796875,-184.59083557128906,44.41517639160156,-91.42085266113281
1773522548779428900,7.349428955078125,-185.369140625,44.06040954589844,-91.5921630859375
1773522548789542000,7.3595419921875,-185.2471160888672,43.98712158203125,-91.97897338867188
1773522548799655000,7.369655029296875,-184.41250610351562,43.78489685058594,-90.97898864746094
1773522548809769200,7.379769287109375,-185.510986328125,43.84037780761719,-92.11849975585938
1773522548819881000,7.389880859375,-185.10418701171875,43.980010986328125,-91.68550109863281
1773522548829995300,7.399995361328125,-185.2960205078125,43.62245178222656,-91.79890441894531
1773522548840108000,7.41010791015625,-185.41842651367188,43.57548522949219,-92.12156677246094
1773522548850220000,7.420219970703125,-185.6046142578125,43.416412353515625,-91.37937927246094
1773522548860332000,7.43033203125,-186.2698516845703,43.44328308105469,-92.24024963378906
1773522548870445000,7.440445068359375,-185.46209716796875,43.448760986328125,-91.61824035644531
1773522548880558000,7.45055810546875,-185.8135223388672,43.490264892578125,-91.68299865722656
1773522548890669000,7.4606689453125,-186.04200744628906,43.59236145019531,-92.12397766113281
1773522548900781000,7.470781005859375,-185.6805419921875,43.71246337890625,-91.31504821777344
1773522548910892000,7.48089208984375,-185.9889678955078,43.6380615234375,-91.84231567382812
1773522548921005000,7.491005126953125,-185.8904571533203,43.78605651855469,-91.69825744628906
1773522548931116000,7.501115966796875,-185.46783447265625,43.75752258300781,-91.15464782714844
1773522548941227000,7.51122705078125,-185.76197814941406,43.93310546875,-91.91632080078125
1773522548951339000,7.521339111328125,-186.057373046875,44.00102233886719,-90.93815612792969
1773522548961450000,7.531449951171875,-186.0589599609375,44.256805419921875,-91.62469482421875
1773522548971561200,7.541561279296875,-185.8218536376953,44.437164306640625,-91.5369873046875
1773522548981673000,7.5516728515625,-185.63934326171875,44.56195068359375,-90.82527160644531
1773522548991784200,7.5617841796875,-185.17660522460938,44.566375732421875,-91.47804260253906
1773522549001895200,7.571895263671875,-185.41616821289062,44.36970520019531,-90.87301635742188
1773522549012006100,7.582006103515625,-185.14083862304688,44.579071044921875,-91.18052673339844
1773522549022116000,7.5921162109375,-185.92478942871094,44.30364990234375,-91.53108215332031
1773522549032227000,7.60222705078125,-185.2567596435547,44.40998840332031,-90.78268432617188
1773522549042338000,7.612338134765625,-185.14154052734375,44.57159423828125,-91.5946044921875
1773522549052450300,7.6224501953125,-185.21063232421875,44.52052307128906,-90.97967529296875
1773522549062562000,7.63256201171875,-185.46197509765625,44.05308532714844,-91.32301330566406
1773522549072674000,7.642674072265625,-185.5259246826172,44.23260498046875,-91.78330993652344
1773522549082787000,7.652787109375,-185.11936950683594,44.03472900390625,-90.83161926269531
1773522549092899000,7.662899169921875,-185.15623474121094,44.13520812988281,-91.84828186035156
1773522549103010300,7.67301025390625,-185.33328247070312,43.85760498046875,-91.23622131347656
1773522549113121000,7.68312109375,-184.8651123046875,44.00199890136719,-91.42863464355469
1773522549123233000,7.69323291015625,-185.64193725585938,44.21421813964844,-92.07369995117188
1773522549133344300,7.70334423828125,-184.9665069580078,43.9630126953125,-91.05397033691406
1773522549143456000,7.7134560546875,-185.6251983642578,43.84230041503906,-92.05908203125
1773522549153567000,7.72356689453125,-184.9822540283203,44.063690185546875,-91.63117980957031
1773522549163679200,7.73367919921875,-184.9373779296875,43.68310546875,-91.64480590820312
1773522549173790000,7.7437900390625,-185.50225830078125,43.77799987792969,-92.38337707519531
1773522549183901200,7.753901123046875,-185.06341552734375,43.74919128417969,-91.20101928710938
1773522549194012200,7.76401220703125,-185.53370666503906,43.84083557128906,-92.22297668457031
1773522549204122000,7.7741220703125,-185.47222900390625,43.9486083984375,-91.81877136230469
1773522549214234000,7.784234130859375,-185.4467315673828,43.72796630859375,-91.69715881347656
1773522549224346000,7.79434619140625,-185.9154510498047,43.846160888671875,-92.42692565917969
1773522549234457000,7.80445703125,-185.56346130371094,43.51847839355469,-91.47889709472656
1773522549244568000,7.814568115234375,-185.7461395263672,43.34376525878906,-92.33021545410156
1773522549254680000,7.82468017578125,-185.84559631347656,43.42103576660156,-92.19499206542969
1773522549264792000,7.8347919921875,-185.3332977294922,43.17643737792969,-91.72990417480469
1773522549274903000,7.844903076171875,-185.4621124267578,43.3304443359375,-92.56474304199219
1773522549285015000,7.85501513671875,-185.3081512451172,43.2432861328125,-91.79800415039062
1773522549295127000,7.865126953125,-185.43374633789062,43.07122802734375,-92.35687255859375
1773522549305239000,7.875239013671875,-185.52996826171875,43.24000549316406,-92.50051879882812
1773522549315352000,7.88535205078125,-184.66427612304688,42.8665771484375,-92.10325622558594
1773522549325464000,7.895464111328125,-185.01515197753906,42.99700927734375,-92.86911010742188
1773522549335576000,7.905576171875,-184.44554138183594,42.89544677734375,-92.50306701660156
1773522549345689000,7.915689208984375,-184.4929962158203,42.730865478515625,-92.86528015136719
1773522549355799000,7.925799072265625,-184.13998413085938,42.70695495605469,-93.11428833007812
1773522549365911000,7.9359111328125,-183.59912109375,42.693267822265625,-92.58724975585938
1773522549376023000,7.94602294921875,-183.62315368652344,42.79402160644531,-93.62409973144531
1773522549386136000,7.956135986328125,-182.84861755371094,42.57542419433594,-92.961669921875
1773522549396246300,7.966246337890625,-183.02061462402344,42.466644287109375,-92.92832946777344
1773522549406358000,7.97635791015625,-182.4609375,42.71553039550781,-93.63504028320312
1773522549416469000,7.986468994140625,-182.27210998535156,42.50343322753906,-92.61543273925781
1773522549426580200,7.996580322265625,-181.96800231933594,42.58123779296875,-93.75469970703125
1773522549436691000,8.00669091796875,-181.406982421875,42.75294494628906,-93.14384460449219
1773522549446802200,8.01680224609375,-181.41448974609375,43.023529052734375,-93.23843383789062
1773522549456912100,8.026912109375,-181.55477905273438,43.12211608886719,-93.79533386230469
1773522549467023000,8.037023193359374,-180.68252563476562,43.18110656738281,-92.58689880371094
1773522549477133000,8.047133056640625,-180.64373779296875,43.06755065917969,-93.84779357910156
1773522549487242000,8.057241943359376,-179.90382385253906,43.24974060058594,-93.65182495117188
1773522549497352200,8.067352294921875,-179.4544219970703,42.94879150390625,-93.34902954101562
1773522549507461000,8.077461181640626,-179.6063995361328,43.29718017578125,-94.26585388183594
1773522549517572000,8.087572021484375,-178.85891723632812,43.20582580566406,-93.24179077148438
1773522549527682000,8.09768212890625,-178.88937377929688,43.15931701660156,-93.99165344238281
1773522549537792000,8.1077919921875,-178.7922821044922,43.26960754394531,-93.73141479492188
1773522549547902200,8.117902099609376,-178.42898559570312,43.66351318359375,-93.261962890625
1773522549558012000,8.128011962890625,-178.5830535888672,43.55186462402344,-94.14305114746094
1773522549568122000,8.1381220703125,-178.5035400390625,43.40400695800781,-93.20608520507812
1773522549578232000,8.148232177734375,-178.40878295898438,43.47224426269531,-94.01020812988281
1773522549588343000,8.158343017578124,-178.065185546875,43.47674560546875,-93.92457580566406
1773522549598454000,8.1684541015625,-177.68788146972656,43.20660400390625,-93.32630920410156
1773522549608565000,8.17856494140625,-177.2223358154297,43.689910888671875,-94.22344970703125
1773522549618676200,8.18867626953125,-176.99685668945312,43.56550598144531,-93.36224365234375
1773522549628787000,8.198786865234375,-176.97755432128906,44.151702880859375,-93.95904541015625
1773522549638898200,8.208898193359374,-176.28402709960938,45.106170654296875,-93.94807434082031
1773522549649010200,8.21901025390625,-175.62252807617188,45.64247131347656,-92.47067260742188
1773522549659118800,8.229118896484374,-176.33563232421875,48.18898010253906,-92.88943481445312
1773522549669227800,8.239227783203125,-177.55824279785156,50.810943603515625,-90.09243774414062
1773522549679338000,8.249337890625,-178.73992919921875,53.72021484375,-88.39202880859375
1773522549689449000,8.259448974609375,-178.843505859375,56.23051452636719,-87.275146484375
1773522549699558100,8.26955810546875,-178.5643310546875,56.81034851074219,-85.26519775390625
1773522549709667800,8.279667724609375,-178.5680389404297,58.27838134765625,-85.59353637695312
1773522549719776800,8.28977685546875,-178.24302673339844,58.371063232421875,-84.80091857910156
1773522549729887000,8.299886962890625,-178.60122680664062,58.08457946777344,-84.96202087402344
1773522549739998000,8.309998046875,-178.89076232910156,58.004119873046875,-85.9490966796875
1773522549750108000,8.32010791015625,-178.9855499267578,56.6365966796875,-85.13726806640625
1773522549760217900,8.3302177734375,-179.08541870117188,56.87055969238281,-86.86824035644531
1773522549770329000,8.3403291015625,-178.14178466796875,55.95967102050781,-86.48220825195312
1773522549780438000,8.35043798828125,-177.86154174804688,55.80781555175781,-86.61184692382812
1773522549790547000,8.360546875,-177.6144256591797,55.853912353515625,-87.32221984863281
1773522549800656000,8.37065576171875,-176.3500518798828,54.685211181640625,-86.05328369140625
1773522549810766000,8.38076611328125,-175.4766387939453,54.88206481933594,-86.94256591796875
1773522549820875000,8.390875,-174.29222106933594,54.544036865234375,-86.34797668457031
1773522549830985000,8.40098486328125,-173.76983642578125,54.248931884765625,-85.87936401367188
1773522549841096000,8.411095947265625,-172.6005401611328,54.37446594238281,-86.29443359375
1773522549851204900,8.421204833984374,-171.1302032470703,53.53315734863281,-84.77529907226562
1773522549861315000,8.431315185546875,-170.7002410888672,53.80125427246094,-85.24772644042969
1773522549871425000,8.441425048828124,-169.54112243652344,53.82618713378906,-84.27137756347656
1773522549881534000,8.451533935546875,-168.66635131835938,53.831939697265625,-83.33419799804688
1773522549891644000,8.461643798828124,-167.69464111328125,54.71745300292969,-83.30842590332031
1773522549901753900,8.47175390625,-166.43075561523438,54.51277160644531,-81.83644104003906
1773522549911865000,8.481864990234374,-165.7062530517578,55.47508239746094,-81.53846740722656
1773522549921974000,8.49197412109375,-164.62750244140625,56.057830810546875,-80.9580078125
1773522549932083000,8.5020830078125,-164.12997436523438,55.83213806152344,-79.48297119140625
1773522549942193200,8.512193115234375,-162.58377075195312,57.041046142578125,-79.35595703125
1773522549952302000,8.522302001953125,-161.57748413085938,57.04449462890625,-77.98977661132812
1773522549962411800,8.532411865234375,-160.69259643554688,57.50262451171875,-77.64042663574219
1773522549972521000,8.54252099609375,-160.17694091796875,57.80767822265625,-76.95808410644531
1773522549982631000,8.552630859375,-159.03074645996094,57.68931579589844,-75.29592895507812
1773522549992739000,8.562739013671875,-158.0652313232422,58.662811279296875,-74.90347290039062
1773522550002848800,8.572848876953126,-158.07223510742188,58.88893127441406,-73.43927001953125
1773522550012957000,8.58295703125,-157.31460571289062,59.543548583984375,-72.5831298828125
1773522550023067000,8.59306689453125,-156.6959991455078,60.383575439453125,-71.96469116210938
1773522550033176000,8.603176025390624,-156.38121032714844,60.21417236328125,-70.62956237792969
1773522550043285000,8.613284912109375,-155.6144561767578,60.67333984375,-70.09127807617188
1773522550053396000,8.62339599609375,-155.3095703125,60.92164611816406,-68.836669921875
1773522550063505000,8.6335048828125,-155.30618286132812,61.12481689453125,-68.19256591796875
1773522550073613800,8.64361376953125,-154.73133850097656,61.26518249511719,-67.60496520996094
1773522550083725000,8.65372509765625,-154.3665313720703,61.16864013671875,-65.78633117675781
1773522550093834000,8.663833984375,-153.26165771484375,61.17866516113281,-65.34457397460938
1773522550103943000,8.67394287109375,-152.73480224609375,61.05229187011719,-63.99449157714844
1773522550114053000,8.68405322265625,-152.3046875,61.10118103027344,-63.05010986328125
1773522550124162800,8.694162841796874,-152.00881958007812,61.840087890625,-63.087432861328125
1773522550134273000,8.70427294921875,-152.35049438476562,61.31256103515625,-62.02447509765625
1773522550144383000,8.714383056640624,-151.99349975585938,61.800079345703125,-62.27970886230469
1773522550154494000,8.724493896484375,-152.18434143066406,61.566375732421875,-61.73248291015625
1773522550164606000,8.73460595703125,-152.5268096923828,61.31547546386719,-61.467559814453125
1773522550174716000,8.7447158203125,-151.90342712402344,61.69781494140625,-61.735595703125
1773522550184827000,8.754826904296875,-152.73220825195312,61.581268310546875,-61.40705871582031
1773522550194937000,8.76493701171875,-152.67135620117188,61.86857604980469,-61.921356201171875
1773522550205046000,8.7750458984375,-152.8762664794922,61.86677551269531,-61.90045166015625
1773522550215155700,8.78515576171875,-153.10690307617188,61.47669982910156,-62.005950927734375
1773522550225265200,8.79526513671875,-153.10556030273438,61.92567443847656,-62.774932861328125
1773522550235374000,8.8053740234375,-153.60987854003906,61.455352783203125,-62.868865966796875
1773522550245482000,8.81548193359375,-153.960693359375,61.754241943359375,-63.95025634765625
1773522550255591000,8.8255908203125,-154.24366760253906,61.88960266113281,-64.37013244628906
1773522550265701000,8.835701171875,-154.77613830566406,61.785400390625,-64.57882690429688
1773522550275811800,8.845811767578125,-154.9960174560547,62.27635192871094,-65.28823852539062
1773522550285923000,8.855923095703124,-155.14366149902344,62.14344787597656,-65.11811828613281
1773522550296035000,8.86603515625,-156.80638122558594,62.49031066894531,-66.0091552734375
1773522550306145800,8.876145751953125,-157.40267944335938,62.906646728515625,-66.085693359375
1773522550316257000,8.886257080078124,-158.24057006835938,63.03790283203125,-65.83631896972656
1773522550326369000,8.896369140625,-158.8843231201172,63.95329284667969,-66.2486572265625
1773522550336479000,8.90647900390625,-159.20040893554688,63.42523193359375,-65.77949523925781
1773522550346590000,8.91658984375,-159.5685577392578,63.45494079589844,-65.64488220214844
1773522550356701000,8.926700927734375,-159.12136840820312,63.88554382324219,-65.85989379882812
1773522550366813000,8.93681298828125,-159.1682586669922,63.41912841796875,-65.17793273925781
1773522550376925000,8.946925048828126,-159.8347930908203,63.914093017578125,-65.60118103027344
1773522550387038000,8.957037841796875,-160.2415771484375,63.916595458984375,-64.88333129882812
1773522550397149000,8.96714892578125,-161.4438934326172,64.27680969238281,-64.857421875
1773522550407260000,8.977260009765626,-161.4466094970703,65.01187133789062,-65.00389099121094
1773522550417369900,8.987369873046875,-162.11219787597656,64.94480895996094,-64.03382873535156
1773522550427480000,8.99747998046875,-162.22891235351562,65.3455810546875,-64.53305053710938
1773522550437589800,9.00758984375,-162.70494079589844,65.43572998046875,-64.13566589355469
1773522550447701000,9.017700927734374,-163.94105529785156,65.37142944335938,-63.790191650390625
1773522550457811700,9.027811767578125,-164.2783660888672,66.20494079589844,-63.81272888183594
1773522550467923000,9.0379228515625,-164.60748291015625,66.03543090820312,-62.95463562011719
1773522550478034000,9.048033935546876,-164.8114471435547,66.24954223632812,-62.898834228515625
1773522550488144000,9.058143798828125,-164.51905822753906,66.37916564941406,-62.26029968261719
1773522550498254000,9.068254150390626,-164.9466094970703,65.99868774414062,-61.50434875488281
1773522550508362000,9.078362060546874,-164.5958709716797,66.61309814453125,-61.403472900390625
1773522550518471000,9.088470947265625,-165.24642944335938,66.4398193359375,-61.098846435546875
1773522550528579800,9.098579833984376,-165.34426879882812,66.96284484863281,-61.563323974609375
1773522550538689800,9.108689697265625,-166.2283477783203,66.6285400390625,-61.797332763671875
1773522550548799000,9.118799072265626,-166.3828125,66.52555847167969,-61.923187255859375
1773522550558909000,9.128908935546875,-166.52880859375,66.93605041503906,-63.05534362792969
1773522550569020200,9.139020263671876,-167.8759765625,66.46473693847656,-63.77018737792969
1773522550579129900,9.1491298828125,-168.10125732421875,66.18182373046875,-65.04257202148438
1773522550589238800,9.15923876953125,-168.8022918701172,66.03250122070312,-66.41363525390625
1773522550599349000,9.169348876953125,-169.51239013671875,65.18611145019531,-67.25444030761719
1773522550609460000,9.1794599609375,-169.27345275878906,65.02713012695312,-69.11801147460938
1773522550619570000,9.18956982421875,-169.46531677246094,63.97442626953125,-70.52685546875
1773522550629679900,9.199679931640626,-170.20579528808594,63.28192138671875,-72.71272277832031
1773522550639791000,9.209791015625,-169.5418701171875,62.66334533691406,-74.26164245605469
1773522550649900800,9.21990087890625,-168.87814331054688,61.550018310546875,-74.88175964355469
1773522550660014600,9.2300146484375,-168.21490478515625,60.99360656738281,-75.9573974609375
1773522550670124800,9.240124755859375,-167.18199157714844,60.821624755859375,-75.66291809082031
1773522550680236800,9.25023681640625,-166.57054138183594,60.64630126953125,-75.81936645507812
1773522550690346800,9.2603466796875,-166.0516357421875,60.5401611328125,-76.33120727539062
1773522550700457700,9.270457763671875,-164.5931396484375,59.694427490234375,-75.8824462890625
1773522550710568700,9.280568603515626,-163.83920288085938,59.41496276855469,-77.01654052734375
1773522550720680700,9.2906806640625,-162.91067504882812,58.5567626953125,-77.39654541015625
1773522550730790700,9.300790771484374,-162.77932739257812,57.82124328613281,-78.10797119140625
1773522550740901600,9.310901611328125,-162.87013244628906,57.43263244628906,-79.56134033203125
1773522550751013600,9.321013671875,-163.0609588623047,56.71849060058594,-79.44926452636719
1773522550761126000,9.3311259765625,-164.6066131591797,56.454376220703125,-80.83938598632812
1773522550771237600,9.341237548828126,-164.83407592773438,56.31416320800781,-80.94035339355469
1773522550781348600,9.3513486328125,-164.7412567138672,56.21519470214844,-81.05015563964844
1773522550791459800,9.3614599609375,-163.92459106445312,56.1070556640625,-81.58778381347656
1773522550801571600,9.371571533203126,-162.7482452392578,55.40782165527344,-80.974853515625
1773522550811681800,9.381681884765625,-161.16567993164062,54.99267578125,-81.27723693847656
1773522550821791700,9.391791748046876,-159.64950561523438,54.416778564453125,-81.18867492675781
1773522550831901700,9.401901611328125,-160.5310516357422,54.20147705078125,-80.96916198730469
1773522550842011600,9.41201171875,-161.45616149902344,54.38298034667969,-82.07888793945312
1773522550852121600,9.42212158203125,-163.3060302734375,54.20814514160156,-82.2135009765625
1773522550862232600,9.432232666015626,-164.8395538330078,54.566986083984375,-82.95175170898438
1773522550872342500,9.442342529296875,-164.32662963867188,54.68402099609375,-82.9754638671875
1773522550882453800,9.452453857421874,-163.6953582763672,54.73211669921875,-81.97085571289062
1773522550892563500,9.4625634765625,-162.91531372070312,55.424285888671875,-81.82676696777344
1773522550902675700,9.47267578125,-162.55140686035156,55.54112243652344,-80.9049072265625
1773522550912786700,9.48278662109375,-162.91851806640625,56.036407470703125,-80.78660583496094
1773522550922898000,9.49289794921875,-163.24461364746094,56.531219482421875,-80.68611145019531
1773522550933008600,9.503008544921874,-163.53097534179688,56.3839111328125,-80.03421020507812
1773522550943120000,9.513119873046875,-163.00457763671875,56.65907287597656,-80.70339965820312
1773522550953232000,9.52323193359375,-164.181640625,56.406707763671875,-80.50474548339844
1773522550963342600,9.533342529296876,-164.55197143554688,56.342926025390625,-81.13941955566406
1773522550973453800,9.543453857421875,-164.3966827392578,56.3929443359375,-81.62881469726562
1773522550983565800,9.55356591796875,-164.20635986328125,55.49708557128906,-81.37533569335938
1773522550993676500,9.563676513671876,-164.00962829589844,55.715667724609375,-82.26681518554688
1773522551003788800,9.573788818359375,-163.64598083496094,55.422454833984375,-81.54246520996094
1773522551013900800,9.58390087890625,-163.4084014892578,55.646514892578125,-81.16801452636719
1773522551024011500,9.594011474609376,-162.92466735839844,55.95802307128906,-81.34977722167969
1773522551034123800,9.604123779296875,-162.11273193359375,56.20416259765625,-80.05160522460938
1773522551044234800,9.61423486328125,-161.746337890625,56.43040466308594,-79.83866882324219
1773522551054344700,9.6243447265625,-160.9853973388672,57.017181396484375,-78.91880798339844
1773522551064455000,9.634454833984375,-160.88259887695312,57.24882507324219,-78.02743530273438
1773522551074565600,9.644565673828126,-161.0610809326172,57.95130920410156,-77.97817993164062
1773522551084675800,9.65467578125,-161.29835510253906,57.92436218261719,-76.64463806152344
1773522551094786600,9.66478662109375,-161.5529022216797,58.56965637207031,-77.11575317382812
1773522551104896800,9.674896728515625,-161.74200439453125,58.79783630371094,-76.91680908203125
1773522551115007700,9.6850078125,-162.2298583984375,58.61895751953125,-76.44258117675781
1773522551125119700,9.69511962890625,-162.4685821533203,59.45783996582031,-76.89199829101562
1773522551135231700,9.705231689453125,-162.90603637695312,59.047088623046875,-75.94979858398438
1773522551145344800,9.7153447265625,-163.21173095703125,59.89533996582031,-76.24014282226562
1773522551155456800,9.725456787109374,-163.32156372070312,59.6934814453125,-75.68417358398438
1773522551165568500,9.735568603515626,-163.16799926757812,59.89250183105469,-74.9737548828125
1773522551175680500,9.745680419921875,-163.07252502441406,60.40461730957031,-75.288818359375
1773522551185792800,9.755792724609375,-163.23358154296875,60.48179626464844,-74.29734802246094
1773522551195903700,9.76590380859375,-163.2720489501953,60.722259521484375,-74.419677734375
1773522551206013700,9.776013671875,-162.82608032226562,60.71678161621094,-74.43113708496094
1773522551216124000,9.7861240234375,-163.4254608154297,60.36274719238281,-73.94252014160156
1773522551226234600,9.796234619140625,-163.0806121826172,60.64717102050781,-74.30923461914062
1773522551236345900,9.806345947265624,-163.90740966796875,60.41569519042969,-74.17672729492188
1773522551246456600,9.81645654296875,-163.8844757080078,60.74884033203125,-74.66682434082031
1773522551256567800,9.82656787109375,-163.7296905517578,60.79328918457031,-74.81550598144531
1773522551266678800,9.8366787109375,-163.72496032714844,60.34852600097656,-74.23507690429688
1773522551276790500,9.84679052734375,-163.2039031982422,60.74147033691406,-74.73667907714844
1773522551286902800,9.85690283203125,-163.67221069335938,60.574462890625,-74.30043029785156
1773522551297013800,9.867013671875,-163.83009338378906,60.432769775390625,-74.58100891113281
1773522551307124700,9.877124755859375,-163.59393310546875,60.555328369140625,-75.08219909667969
1773522551317235700,9.887235595703125,-163.6696014404297,60.17744445800781,-74.642333984375
1773522551327346700,9.8973466796875,-163.34304809570312,60.23396301269531,-75.34510803222656
1773522551337456600,9.90745654296875,-164.00860595703125,59.734100341796875,-75.13096618652344
1773522551347568600,9.917568603515624,-163.69253540039062,59.97773742675781,-75.31401062011719
1773522551357681000,9.927680908203126,-164.1993865966797,60.1904296875,-75.84593200683594
1773522551367792600,9.937792724609375,-164.9608612060547,60.04510498046875,-75.36203002929688
1773522551377903600,9.947903564453124,-165.31564331054688,60.39759826660156,-76.41075134277344
1773522551388014800,9.958014892578126,-165.69610595703125,60.042083740234375,-76.24314880371094
1773522551398123800,9.968123779296874,-165.76084899902344,60.25773620605469,-76.30714416503906
1773522551408233700,9.978233642578125,-166.11863708496094,60.39714050292969,-76.76985168457031
1773522551418343700,9.98834375,-166.0824737548828,60.28660583496094,-76.15730285644531
1773522551428454700,9.99845458984375,-166.51756286621094,60.73915100097656,-76.74951171875
1773522551438566700,10.008566650390625,-166.8130645751953,60.6865234375,-76.29249572753906
1773522551448676600,10.018676513671876,-167.27584838867188,60.66864013671875,-75.86006164550781
1773522551458786800,10.028786865234375,-167.9518280029297,61.09400939941406,-76.2315673828125
1773522551468895700,10.038895751953126,-168.5669403076172,61.03224182128906,-75.51881408691406
1773522551479005700,10.049005615234375,-168.8048858642578,61.38124084472656,-76.02497863769531
1773522551489115000,10.059114990234375,-169.08526611328125,61.54595947265625,-75.88394165039062
1773522551499224600,10.069224609375,-169.5246124267578,61.47743225097656,-75.48164367675781
1773522551509336800,10.0793369140625,-170.6772003173828,62.118743896484375,-75.943603515625
1773522551519445800,10.08944580078125,-171.9234619140625,61.94175720214844,-75.46620178222656
1773522551529555700,10.0995556640625,-172.57215881347656,62.270904541015625,-75.61552429199219
1773522551539665700,10.109665771484375,-173.69715881347656,62.39825439453125,-75.7623291015625
1773522551549777000,10.11977685546875,-174.6736602783203,62.34893798828125,-75.03117370605469
1773522551559885800,10.1298857421875,-174.9466552734375,62.917816162109375,-75.495361328125
1773522551569994800,10.139994873046875,-176.18707275390625,62.72572326660156,-75.07012939453125
1773522551580104700,10.150104736328124,-176.7881622314453,62.79594421386719,-75.07444763183594
1773522551590214000,10.1602138671875,-177.3590850830078,62.99922180175781,-75.53544616699219
1773522551600323600,10.170323486328124,-177.7982940673828,62.556488037109375,-74.82806396484375
1773522551610433800,10.180433837890625,-178.31240844726562,62.843902587890625,-75.76539611816406
1773522551620543700,10.190543701171874,-178.398681640625,62.51307678222656,-75.42477416992188
1773522551630652700,10.200652587890625,-178.574951171875,62.4451904296875,-75.70033264160156
1773522551640760600,10.210760498046875,-178.1180877685547,62.53656005859375,-76.41650390625
1773522551650868700,10.22086865234375,-178.3507537841797,62.13722229003906,-75.83323669433594
1773522551660973000,10.23097314453125,-178.0502166748047,62.195953369140625,-76.72517395019531
1773522551671081000,10.2410810546875,-177.73553466796875,62.25898742675781,-76.73185729980469
1773522551681189000,10.251189208984375,-177.4225311279297,61.57794189453125,-76.63551330566406
1773522551691296000,10.2612958984375,-177.2724151611328,61.82456970214844,-77.27203369140625
1773522551701405000,10.271405029296876,-176.1846160888672,61.37603759765625,-76.60746765136719
1773522551711513000,10.28151318359375,-176.14840698242188,61.51310729980469,-77.78271484375
1773522551721623300,10.291623291015625,-175.0281524658203,61.287750244140625,-77.62190246582031
1773522551731731200,10.301731201171876,-174.97589111328125,60.834442138671875,-77.37985229492188
1773522551741839000,10.311839111328124,-173.8303680419922,61.22172546386719,-78.10678100585938
1773522551751949000,10.321948974609375,-172.61721801757812,60.92845153808594,-77.51811218261719
1773522551762058000,10.33205810546875,-171.56460571289062,61.080169677734375,-78.01593017578125
1773522551772167000,10.3421669921875,-170.5619659423828,60.70452880859375,-77.97857666015625
1773522551782277000,10.352277099609376,-169.53005981445312,60.302764892578125,-77.49957275390625
1773522551792387000,10.362386962890625,-168.58836364746094,60.54168701171875,-77.87815856933594
1773522551802498000,10.372498046875,-167.3380126953125,60.204803466796875,-77.22702026367188
1773522551812608000,10.38260791015625,-166.9650421142578,60.488739013671875,-77.37725830078125
1773522551822718200,10.39271826171875,-166.415283203125,60.604888916015625,-77.42008972167969
1773522551832828200,10.402828125,-166.3463897705078,60.326507568359375,-76.79373168945312
1773522551842937000,10.41293701171875,-166.05323791503906,60.68450927734375,-76.80496215820312
1773522551853048000,10.423048095703125,-165.66709899902344,60.46006774902344,-76.42292785644531
1773522551863157000,10.433156982421876,-166.31826782226562,60.67179870605469,-76.73394775390625
1773522551873264000,10.44326416015625,-166.04598999023438,60.83195495605469,-76.80426025390625
1773522551883373000,10.453373046875,-165.75669860839844,60.5245361328125,-76.46878051757812
1773522551893482000,10.46348193359375,-165.4311065673828,60.481353759765625,-77.03237915039062
1773522551903591200,10.473591064453124,-164.61099243164062,60.23033142089844,-76.60987854003906
1773522551913700000,10.4837001953125,-163.85092163085938,59.73100280761719,-76.68875122070312
1773522551923810000,10.49381005859375,-163.16140747070312,59.660186767578125,-77.06013488769531
1773522551933920300,10.503920166015625,-162.45372009277344,59.39533996582031,-76.36993408203125
1773522551944030000,10.514030029296874,-162.16510009765625,59.51008605957031,-76.73213195800781
1773522551954142200,10.52414208984375,-162.04017639160156,59.398193359375,-76.2730712890625
1773522551964252000,10.534251953125,-162.44981384277344,59.68852233886719,-76.46888732910156
1773522551974362000,10.544362060546876,-162.28750610351562,59.73658752441406,-76.61270141601562
1773522551984472000,10.55447216796875,-162.4974822998047,60.17829895019531,-75.77084350585938
1773522551994582300,10.564582275390626,-162.4108123779297,59.96533203125,-76.14225769042969
1773522552004694000,10.574694091796875,-162.13412475585938,59.692169189453125,-75.83863830566406
1773522552014804200,10.58480419921875,-162.63133239746094,59.76884460449219,-75.61691284179688
1773522552024915000,10.5949150390625,-161.72727966308594,59.789337158203125,-75.991943359375
1773522552035026200,10.605026123046875,-161.78074645996094,59.79212951660156,-75.25946044921875
1773522552045136000,10.615135986328125,-160.8075714111328,59.50755310058594,-75.64402770996094
1773522552055246000,10.62524609375,-160.72413635253906,59.441650390625,-75.46492004394531
1773522552065355000,10.63535498046875,-160.30567932128906,59.13761901855469,-75.36396789550781
1773522552075466200,10.64546630859375,-159.6961212158203,59.15769958496094,-75.55207824707031
1773522552085577000,10.655576904296876,-159.3644256591797,58.81413269042969,-75.06816101074219
1773522552095688200,10.665688232421875,-159.18089294433594,58.68583679199219,-75.49066162109375
1773522552105798000,10.6757978515625,-158.70431518554688,58.796112060546875,-75.44189453125
1773522552115908000,10.685908203125,-158.32211303710938,58.15547180175781,-74.84872436523438
1773522552126019000,10.69601904296875,-158.13436889648438,58.82373046875,-75.44743347167969
1773522552136130000,10.706130126953125,-158.64166259765625,58.29002380371094,-75.01499938964844
1773522552146241300,10.7162412109375,-159.0587158203125,58.68098449707031,-75.44761657714844
1773522552156352000,10.72635205078125,-158.73794555664062,58.640716552734375,-75.2803955078125
1773522552166464000,10.736464111328125,-158.13937377929688,58.57746887207031,-74.75152587890625
1773522552176575200,10.7465751953125,-157.88340759277344,59.074554443359375,-74.84672546386719
1773522552186685200,10.756685302734375,-158.28968811035156,58.90196228027344,-74.26248168945312
1773522552196795000,10.766794921875,-158.3793487548828,59.00984191894531,-74.12857055664062
1773522552206906000,10.776906005859376,-158.10740661621094,59.37763977050781,-74.12754821777344
1773522552217017000,10.78701708984375,-158.04933166503906,58.87919616699219,-73.25819396972656
1773522552227127000,10.797126953125,-157.42938232421875,59.250885009765625,-73.37008666992188
1773522552237237000,10.807237060546875,-157.32945251464844,59.170623779296875,-72.86372375488281
1773522552247347200,10.81734716796875,-157.34466552734375,59.2061767578125,-72.93086242675781
1773522552257459200,10.827459228515625,-157.40171813964844,59.20233154296875,-73.04203796386719
1773522552267569200,10.837569091796874,-156.9956512451172,59.12556457519531,-72.74313354492188
1773522552277678000,10.847677978515625,-156.88784790039062,59.157806396484375,-72.69743347167969
1773522552287787000,10.857787109375,-156.77218627929688,58.937347412109375,-72.36039733886719
1773522552297896200,10.867896240234375,-156.72840881347656,59.03669738769531,-72.17155456542969
1773522552308006100,10.878006103515625,-156.40084838867188,58.83940124511719,-72.38084411621094
1773522552318115000,10.888114990234374,-156.19862365722656,58.77226257324219,-71.74551391601562
1773522552328226000,10.89822607421875,-156.15333557128906,58.67451477050781,-72.06942749023438
1773522552338336000,10.9083359375,-155.65591430664062,58.63713073730469,-71.67500305175781
1773522552348445200,10.918445068359375,-155.6302947998047,58.30482482910156,-71.44613647460938
1773522552358554000,10.92855419921875,-155.07595825195312,58.44486999511719,-71.8486328125
1773522552368664000,10.9386640625,-154.87246704101562,58.27117919921875,-71.30253601074219
1773522552378775000,10.948775146484374,-154.88034057617188,57.89692687988281,-71.9334716796875
1773522552388884000,10.958884033203125,-154.7938232421875,57.75506591796875,-72.08526611328125
1773522552398993000,10.968992919921876,-154.4322967529297,57.35133361816406,-71.7476806640625
1773522552409101000,10.97910107421875,-154.2917022705078,57.38482666015625,-72.44757080078125
1773522552419210000,10.9892099609375,-153.85035705566406,57.11048889160156,-72.03764343261719
1773522552429320200,10.9993203125,-154.5616455078125,57.007476806640625,-72.50466918945312
1773522552439430000,11.009429931640625,-153.98397827148438,57.06254577636719,-72.30894470214844
1773522552449539000,11.0195390625,-154.03326416015625,56.93583679199219,-72.13520812988281
1773522552459649000,11.02964892578125,-153.91259765625,57.23426818847656,-72.12918090820312
1773522552469758000,11.039758056640625,-154.0705108642578,57.31941223144531,-71.89776611328125
1773522552479868200,11.0498681640625,-154.38624572753906,57.594635009765625,-71.93232727050781
1773522552489978000,11.05997802734375,-154.4136199951172,57.763916015625,-71.74339294433594
1773522552500088000,11.070088134765625,-154.4205322265625,57.75032043457031,-71.08833312988281
1773522552510197200,11.080197265625,-153.9976043701172,58.33697509765625,-71.31797790527344
1773522552520308000,11.090307861328125,-154.73707580566406,58.329925537109375,-70.92681884765625
1773522552530417000,11.1004169921875,-154.864990234375,58.44871520996094,-71.13896179199219
1773522552540528000,11.110528076171875,-154.93746948242188,58.77076721191406,-71.28096008300781
1773522552550638000,11.12063818359375,-155.0172882080078,58.40361022949219,-70.97227478027344
1773522552560747300,11.130747314453124,-154.97311401367188,58.552276611328125,-71.45829772949219
1773522552570856200,11.140856201171875,-155.45289611816406,58.27003479003906,-71.40170288085938
1773522552580965000,11.150965087890626,-155.73960876464844,58.2950439453125,-71.84576416015625
1773522552591074000,11.161073974609375,-155.8383026123047,58.20545959472656,-72.39009094238281
1773522552601184300,11.171184326171876,-156.17724609375,58.249420166015625,-72.53158569335938
1773522552611294000,11.1812939453125,-156.6599578857422,58.02751159667969,-73.31954956054688
1773522552621404200,11.191404052734375,-156.67312622070312,57.652740478515625,-73.173828125
1773522552631515100,11.20151513671875,-157.07054138183594,57.44160461425781,-73.27436828613281
1773522552641626000,11.211626220703126,-156.65121459960938,57.59306335449219,-74.04299926757812
1773522552651737000,11.221737060546875,-156.69595336914062,57.29833984375,-73.54518127441406
1773522552661847300,11.231847412109374,-156.5989990234375,57.44450378417969,-74.3369140625
1773522552671959300,11.241959228515626,-156.15048217773438,56.94703674316406,-73.94938659667969
1773522552682069500,11.252069580078125,-156.0279541015625,56.70133972167969,-73.89959716796875
1773522552692179500,11.262179443359376,-155.59178161621094,56.848907470703125,-74.56051635742188
1773522552702289400,11.272289306640625,-155.64376831054688,56.382080078125,-73.94699096679688
1773522552712400400,11.282400390625,-155.8982696533203,56.65299987792969,-74.57524108886719
1773522552722510300,11.29251025390625,-155.6211395263672,56.221466064453125,-74.70477294921875
1773522552732620500,11.30262060546875,-155.5265350341797,55.998291015625,-74.59109497070312
1773522552742731300,11.312731201171875,-155.71807861328125,55.96685791015625,-75.35513305664062
1773522552752843300,11.32284326171875,-156.55006408691406,55.78675842285156,-75.2315673828125
1773522552762955500,11.33295556640625,-156.76516723632812,55.72550964355469,-75.85108947753906
1773522552773066500,11.34306640625,-156.45835876464844,55.59742736816406,-75.92327880859375
1773522552783177500,11.353177490234375,-156.70982360839844,55.38075256347656,-75.67860412597656
1773522552793288400,11.363288330078126,-156.24603271484375,55.470703125,-76.15156555175781
1773522552803399700,11.373399658203125,-156.80674743652344,55.44331359863281,-75.98731994628906
1773522552813512400,11.383512451171875,-156.7185516357422,55.40946960449219,-76.01948547363281
1773522552823624400,11.39362451171875,-156.5775146484375,55.71116638183594,-76.23159790039062
1773522552833736400,11.403736328125,-156.4600067138672,55.37718200683594,-75.93263244628906
1773522552843848400,11.413848388671875,-156.2508087158203,55.564300537109375,-76.26283264160156
1773522552853959700,11.423959716796874,-157.12564086914062,55.550537109375,-76.01683044433594
1773522552864071400,11.434071533203126,-158.0072021484375,55.793182373046875,-76.51795959472656
1773522552874181600,11.444181640625,-158.2840576171875,56.249114990234375,-77.16038513183594
1773522552884292400,11.454292236328126,-159.20574951171875,56.12318420410156,-76.73793029785156
1773522552894403600,11.464403564453125,-160.2189483642578,56.59135437011719,-77.52650451660156
1773522552904513300,11.47451318359375,-160.9459686279297,56.907684326171875,-77.31805419921875
1773522552914624500,11.48462451171875,-162.13963317871094,57.1357421875,-77.44491577148438
1773522552924734500,11.494734375,-162.71160888671875,57.76591491699219,-77.74659729003906
1773522552934845400,11.504845458984375,-163.22726440429688,57.635498046875,-77.12684631347656
1773522552944955400,11.514955322265624,-164.0032958984375,58.19721984863281,-77.78739929199219
1773522552955065600,11.525065673828125,-164.59793090820312,58.146697998046875,-77.64375305175781
1773522552965175300,11.53517529296875,-165.62136840820312,58.39723205566406,-77.62713623046875
1773522552975285500,11.545285400390625,-166.25314331054688,58.62702941894531,-78.09185791015625
1773522552985395500,11.5553955078125,-167.64071655273438,58.62437438964844,-77.60603332519531
1773522552995504400,11.56550439453125,-168.9278106689453,58.65057373046875,-78.4940185546875
1773522553005614600,11.575614501953124,-169.86817932128906,58.563507080078125,-78.66343688964844
1773522553015725300,11.585725341796875,-171.44091796875,58.3321533203125,-78.89544677734375
1773522553025836500,11.59583642578125,-172.7620086669922,58.5517578125,-79.65126037597656
1773522553035947500,11.605947509765626,-174.12799072265625,58.138763427734375,-79.38619995117188
1773522553046058500,11.61605859375,-175.11141967773438,57.873779296875,-80.13470458984375
1773522553056169500,11.62616943359375,-175.44696044921875,57.64714050292969,-80.30679321289062
1773522553066279400,11.636279541015625,-175.9898681640625,57.68110656738281,-80.16087341308594
1773522553076390400,11.646390380859375,-176.45806884765625,57.77171325683594,-80.79605102539062
1773522553086500400,11.656500244140625,-176.7398681640625,57.64106750488281,-80.58061218261719
1773522553096611600,11.666611572265625,-177.15667724609375,57.519195556640625,-80.64988708496094
1773522553106722300,11.676722412109376,-178.05975341796875,57.51219177246094,-80.70843505859375
1773522553116833500,11.68683349609375,-177.77227783203125,57.42256164550781,-80.50970458984375
1773522553126943200,11.696943115234374,-177.0745849609375,57.71807861328125,-80.71089172363281
1773522553137053400,11.707053466796875,-176.11550903320312,57.70843505859375,-80.53498840332031
1773522553147163400,11.717163330078124,-176.1285400390625,57.66395568847656,-80.62777709960938
1773522553157272300,11.727272216796875,-175.47373962402344,57.550750732421875,-80.954833984375
1773522553167382500,11.737382568359376,-174.23782348632812,57.44947814941406,-80.57194519042969
1773522553177491500,11.747491455078125,-173.9139862060547,57.711273193359375,-80.81529235839844
1773522553187602400,11.7576025390625,-172.91493225097656,57.26025390625,-80.30097961425781
1773522553197713400,11.76771337890625,-171.96719360351562,57.324462890625,-80.25759887695312
1773522553207823600,11.77782373046875,-171.24635314941406,57.484344482421875,-80.35426330566406
1773522553217934300,11.787934326171875,-170.13433837890625,57.34449768066406,-79.66355895996094
1773522553228046300,11.79804638671875,-169.04969787597656,57.68070983886719,-79.66860961914062
1773522553238156500,11.808156494140626,-168.46070861816406,57.74714660644531,-79.25236511230469
1773522553248266500,11.8182666015625,-168.1986541748047,57.88487243652344,-78.83360290527344
1773522553258377500,11.82837744140625,-168.70953369140625,58.41462707519531,-79.01878356933594
1773522553268488400,11.838488525390625,-168.31610107421875,57.89765930175781,-78.34719848632812
1773522553278598700,11.8485986328125,-168.39649963378906,57.91033935546875,-78.75839233398438
1773522553288708400,11.858708251953125,-168.5252685546875,58.15687561035156,-78.68177795410156
1773522553298818300,11.868818359375,-168.37928771972656,58.09596252441406,-78.474609375
1773522553308928500,11.878928466796875,-168.59609985351562,58.30877685546875,-79.06634521484375
1773522553319038500,11.88903857421875,-168.45468139648438,58.07701110839844,-78.556640625
1773522553329148400,11.8991484375,-168.9696502685547,57.736541748046875,-79.25508117675781
1773522553339259400,11.90925927734375,-169.10910034179688,57.67903137207031,-79.42875671386719
1773522553349369600,11.91936962890625,-169.7770538330078,57.52174377441406,-79.37672424316406
1773522553359480300,11.929480224609375,-170.40011596679688,57.2889404296875,-80.07754516601562
1773522553369590500,11.939590576171875,-171.02647399902344,57.71333312988281,-79.93099975585938
1773522553379699500,11.949699462890624,-172.0363311767578,57.48573303222656,-80.06918334960938
1773522553389808400,11.959808349609375,-173.51097106933594,57.56632995605469,-80.10856628417969
1773522553399917300,11.969917236328126,-174.81837463378906,57.87675476074219,-79.49041748046875
1773522553410028500,11.980028564453125,-175.5199432373047,58.49920654296875,-79.57682800292969
1773522553420137500,11.990137451171876,-177.0608673095703,58.675506591796875,-78.84628295898438
1773522553430247400,12.000247314453125,-178.0274200439453,59.01202392578125,-78.54098510742188
1773522553440356600,12.010356689453126,-178.84393310546875,59.219390869140625,-78.28244018554688
1773522553450467300,12.02046728515625,-179.61395263671875,59.47660827636719,-77.54206848144531
1773522553460576500,12.030576416015625,-179.8511505126953,59.728973388671875,-77.44252014160156
1773522553470687500,12.0406875,-181.23989868164062,59.71122741699219,-77.21983337402344
1773522553480798500,12.050798583984376,-182.9884796142578,59.43540954589844,-77.0472412109375
1773522553490908400,12.060908447265625,-184.2595672607422,59.33183288574219,-77.11952209472656
1773522553501018600,12.0710185546875,-185.4318084716797,59.097381591796875,-76.38711547851562
1773522553511128300,12.08112841796875,-186.24099731445312,59.38142395019531,-76.2750244140625
1773522553521237200,12.0912373046875,-187.11856079101562,59.26768493652344,-75.47087097167969
1773522553531346400,12.101346435546875,-187.99855041503906,59.32672119140625,-74.90620422363281
1773522553541455600,12.11145556640625,-188.50827026367188,59.5098876953125,-74.49624633789062
1773522553551564500,12.121564453125,-189.38255310058594,59.46372985839844,-73.2239990234375
1773522553561673500,12.131673583984375,-190.51217651367188,59.58796691894531,-73.168212890625
1773522553571783400,12.141783447265626,-190.7416534423828,59.83821105957031,-72.54734802246094
1773522553581891600,12.1518916015625,-191.52658081054688,59.74658203125,-72.20730590820312
1773522553592000500,12.16200048828125,-192.610595703125,59.425567626953125,-72.30738830566406
1773522553602110500,12.1721103515625,-192.70919799804688,58.963592529296875,-71.76031494140625
1773522553612220400,12.182220458984375,-194.1032257080078,58.41619873046875,-72.07075500488281
1773522553622331400,12.192331298828124,-194.3355712890625,58.42466735839844,-72.20669555664062
1773522553632442400,12.2024423828125,-195.58094787597656,57.54039001464844,-72.10836791992188
1773522553642553600,12.2125537109375,-196.00035095214844,57.09153747558594,-72.3717041015625
1773522553652663600,12.22266357421875,-196.6569366455078,56.64936828613281,-71.89251708984375
1773522553662773200,12.232773193359375,-197.8087921142578,56.17774963378906,-71.90626525878906
1773522553672884200,12.24288427734375,-198.24563598632812,55.65911865234375,-71.60487365722656
1773522553682995200,12.2529951171875,-198.7759246826172,55.29644775390625,-71.187744140625
1773522553693106200,12.263106201171874,-199.80279541015625,55.08329772949219,-71.06845092773438
1773522553703218200,12.27321826171875,-200.0456085205078,54.565826416015625,-70.29615783691406
1773522553713330200,12.283330078125,-200.86419677734375,54.4700927734375,-70.20623779296875
1773522553723441200,12.293441162109374,-201.3458709716797,54.15867614746094,-69.96232604980469
1773522553733553200,12.30355322265625,-201.43167114257812,53.650390625,-69.38966369628906
1773522553743663000,12.3136630859375,-201.73681640625,53.507049560546875,-69.5965576171875
1773522553753776000,12.323776123046875,-202.06922912597656,53.03367614746094,-69.1966552734375
1773522553763887000,12.33388720703125,-203.07081604003906,52.25102233886719,-69.3009033203125
1773522553773998300,12.343998291015625,-203.35385131835938,51.85057067871094,-69.448974609375
1773522553784111400,12.354111328125,-203.60614013671875,51.27374267578125,-69.28604125976562
1773522553794223000,12.36422314453125,-204.08856201171875,50.954742431640625,-69.7186279296875
1773522553804335000,12.374335205078125,-203.99671936035156,50.12947082519531,-69.61112976074219
1773522553814447000,12.384447021484375,-204.6656036376953,49.587188720703125,-69.859375
1773522553824560000,12.39456005859375,-205.20901489257812,49.20697021484375,-70.04328918457031
1773522553834671400,12.40467138671875,-204.9681396484375,48.66673278808594,-69.76353454589844
1773522553844782000,12.414781982421875,-205.196044921875,48.515594482421875,-69.77583312988281
1773522553854893300,12.424893310546874,-205.62071228027344,48.208770751953125,-69.67767333984375
1773522553865005300,12.43500537109375,-205.6214141845703,48.151763916015625,-69.42434692382812
1773522553875116000,12.445115966796875,-206.45314025878906,47.595855712890625,-69.56239318847656
1773522553885228000,12.45522802734375,-206.09397888183594,47.20637512207031,-69.10502624511719
1773522553895339300,12.46533935546875,-206.87380981445312,46.83790588378906,-69.60420227050781
1773522553905449200,12.47544921875,-206.92263793945312,46.34049987792969,-69.66854858398438
1773522553915559200,12.48555908203125,-206.94638061523438,45.841705322265625,-69.54304504394531
1773522553925669000,12.495669189453125,-207.4935760498047,45.31158447265625,-69.98326110839844
1773522553935779000,12.505779052734376,-207.26580810546875,44.905731201171875,-69.37861633300781
1773522553945890300,12.515890380859375,-208.18533325195312,44.55168151855469,-70.00796508789062
1773522553956001000,12.5260009765625,-208.42344665527344,44.19929504394531,-69.99815368652344
1773522553966111200,12.536111328125,-207.60992431640625,43.85636901855469,-69.74447631835938
1773522553976221200,12.54622119140625,-208.45321655273438,43.63304138183594,-70.09158325195312
1773522553986332200,12.556332275390625,-208.08544921875,43.266754150390625,-69.84526062011719
1773522553996443400,12.566443359375,-208.32550048828125,42.65277099609375,-69.87522888183594
1773522554006553000,12.576552978515625,-208.38299560546875,42.31251525878906,-70.52114868164062
1773522554016664300,12.586664306640625,-208.80564880371094,41.77925109863281,-70.49302673339844
1773522554026774300,12.596774169921876,-208.83682250976562,41.3316650390625,-71.02630615234375
1773522554036885200,12.60688525390625,-208.56910705566406,40.71922302246094,-70.93565368652344
1773522554046995200,12.6169951171875,-209.3804168701172,39.99456787109375,-71.49076843261719
1773522554057106200,12.627106201171875,-208.9513702392578,39.524627685546875,-71.73867797851562
1773522554067216100,12.637216064453124,-208.90943908691406,39.09626770019531,-71.67080688476562
1773522554077328100,12.647328125,-209.04705810546875,38.67584228515625,-71.99223327636719
1773522554087439000,12.657439208984375,-208.7633056640625,38.53155517578125,-72.27326965332031
1773522554097551000,12.667551025390624,-209.722412109375,37.4864501953125,-72.32283020019531
1773522554107662000,12.677662109375,-209.48614501953125,37.15779113769531,-72.61814880371094
1773522554117774300,12.6877744140625,-209.32806396484375,36.83270263671875,-72.34539794921875
1773522554127884000,12.697884033203126,-209.69424438476562,36.55995178222656,-72.82118225097656
1773522554137995300,12.707995361328125,-209.37742614746094,36.39862060546875,-73.12263488769531
1773522554148106000,12.71810595703125,-209.6131591796875,35.711273193359375,-73.18508911132812
1773522554158218200,12.72821826171875,-209.57757568359375,35.65574645996094,-73.50801086425781
1773522554168328000,12.738327880859375,-209.5553741455078,35.578704833984375,-73.28614807128906
1773522554178440200,12.748440185546874,-209.6091766357422,35.49226379394531,-73.70220947265625
1773522554188551200,12.75855126953125,-209.07052612304688,35.50386047363281,-73.73025512695312
1773522554198663200,12.7686630859375,-209.6669921875,35.43196105957031,-73.5926513671875
1773522554208774100,12.778774169921874,-209.77944946289062,35.67762756347656,-73.94252014160156
1773522554218884400,12.78888427734375,-208.89505004882812,35.76402282714844,-73.61825561523438
1773522554228996400,12.798996337890625,-208.95266723632812,35.93305969238281,-74.04774475097656
1773522554239109400,12.809109375,-208.7877197265625,36.24261474609375,-74.06962585449219
1773522554249219000,12.819218994140625,-208.43667602539062,36.40031433105469,-73.92097473144531
1773522554259330300,12.829330322265625,-208.3555450439453,36.5543212890625,-74.37733459472656
1773522554269440300,12.839440185546875,-207.5821990966797,37.179412841796875,-73.95329284667969
1773522554279551200,12.84955126953125,-208.0826416015625,37.11317443847656,-74.25930786132812
1773522554289661200,12.8596611328125,-207.74026489257812,37.906219482421875,-74.18321228027344
1773522554299772200,12.869772216796875,-207.27369689941406,38.82591247558594,-73.660888671875
1773522554309884200,12.87988427734375,-207.28460693359375,39.09208679199219,-74.08341979980469
1773522554319995100,12.8899951171875,-206.9144287109375,40.18861389160156,-73.44589233398438
1773522554330106400,12.9001064453125,-207.07098388671875,40.700164794921875,-73.33047485351562
1773522554340217000,12.910217041015626,-206.69471740722656,41.37054443359375,-73.44970703125
1773522554350328300,12.920328369140625,-205.9513702392578,42.10136413574219,-73.12734985351562
1773522554360440300,12.9304404296875,-205.97344970703125,42.43096923828125,-73.49256896972656
1773522554370551000,12.940551025390626,-205.28604125976562,42.92149353027344,-73.29754638671875
1773522554380663000,12.9506630859375,-205.53466796875,43.41383361816406,-73.43870544433594
1773522554390775300,12.960775390625,-205.01173400878906,43.579559326171875,-73.48106384277344
1773522554400887300,12.97088720703125,-204.54928588867188,44.54353332519531,-73.30174255371094
1773522554410999000,12.9809990234375,-204.29859924316406,44.904052734375,-73.44517517089844
1773522554421111000,12.991111083984375,-203.8983154296875,45.250518798828125,-73.73785400390625
1773522554431223000,13.00122314453125,-203.78814697265625,45.49812316894531,-73.8140869140625
1773522554441335300,13.011335205078124,-203.52000427246094,45.90357971191406,-74.20404052734375
1773522554451447300,13.021447265625,-203.25942993164062,46.332305908203125,-74.05032348632812
1773522554461559000,13.03155908203125,-202.42227172851562,46.9420166015625,-74.41328430175781
1773522554471670300,13.041670166015624,-201.99017333984375,47.281982421875,-74.54788208007812
