time,seconds_elapsed,z,y,x
1772547795598739700,0.10573974609375,1.8227023336499928,-0.10402502261996269,-0.555914365492016
1772547795608777700,0.11577783203125,1.201360241088271,-0.011356968055665492,-0.544555461207591
1772547795618815700,0.125815673828125,0.5019616798996925,0.1366398827597499,-0.3343472515530884
1772547795628853800,0.135853759765625,-0.08212123384773731,0.20288959373682736,-0.06800118058717343
1772547795638891800,0.145891845703125,-0.12581073797047138,0.19931641142517328,0.13251806272254324
1772547795648929500,0.155929443359375,0.4183931698530912,0.15620120005905627,0.02844168437467888
1772547795658967800,0.1659677734375,1.410832428085804,-0.005821838021278381,-0.4021733815340325
1772547795669005600,0.176005615234375,1.9778449645668268,-0.06992839948982,-0.753488463294506
1772547795679043800,0.1860439453125,1.9537679234087466,-0.04622779042869806,-1.0193240502879024
1772547795689081600,0.19608154296875,1.576777023524046,-0.42783787454664707,-1.1428649436302483
1772547795699119900,0.206119873046875,0.862589474004507,-0.7928834850937128,-1.0312035809129476
1772547795709157600,0.21615771484375,0.6030985798627138,-0.6741817023456096,-0.8910930263679474
1772547795719195600,0.226195556640625,0.13171090192496776,-0.2568497319832444,-0.488513146392256
1772547795729233700,0.236233642578125,-1.422292564254999,0.40398967370837924,0.2394093523606658
1772547795739271700,0.246271728515625,-2.0647546017348763,1.1240145510792732,0.7367883806452155
1772547795749309700,0.256309814453125,-1.2164064190506934,1.1153282635375856,-0.41065044677183027
1772547795759347700,0.26634765625,1.808151245728135,0.6445140015736222,-1.106987136171758
1772547795769385700,0.2763857421875,2.094409150764346,0.4670093167230487,-1.5349115199580787
1772547795779423700,0.286423828125,2.633511351534724,1.6106085659772156,-0.986053794979304
1772547795789461500,0.29646142578125,1.4211322883039712,0.8228899163007736,-1.1428162821829317
1772547795799499800,0.306499755859375,0.18023206398785113,0.18791122031360863,-1.0384750332206487
1772547795809537500,0.31653759765625,-0.2569529000967741,0.06330693552345038,-0.3111857178047299
1772547795819575800,0.326575927734375,0.4850707508534193,0.6664040540814399,0.14705343248546124
1772547795829613600,0.336613525390625,1.8427146095871925,0.8166559903472661,-0.16891981185674668
1772547795839651800,0.34665185546875,1.9285364515185355,0.8551806590527296,0.5256026677280664
1772547795849689600,0.356689697265625,0.5397416677176952,0.5737170025557279,0.8403098376572131
1772547795859727600,0.3667275390625,-0.3474398112297058,0.10142053920999168,0.8979477876335382
1772547795869765600,0.376765625,-1.5367098015516996,-0.15314897288158535,0.8640250597655773
1772547795879803600,0.3868037109375,-1.6142366933465002,0.4533826501697302,1.248832186359167
1772547795889842000,0.396842041015625,0.2314116316050291,1.0097267853811382,1.698162638528645
1772547795899879700,0.406879638671875,-3.781758426594734,-0.2071712165787816,-0.9762003633543849
1772547795909918000,0.41691796875,-2.268881920573115,-0.9436071305245161,-3.8855338583678005
1772547795919955700,0.426955810546875,-1.0016080685943365,0.09918225876390933,-2.5661802750617264
1772547795929993700,0.43699365234375,0.5554056853175163,1.5244553001344203,-0.9564493687018751
1772547795940031700,0.44703173828125,2.1027707363963124,2.484935824048519,-2.8150468993365765
1772547795950069800,0.45706982421875,4.390499396258592,3.7128976563364264,-5.840612864375114
1772547795960107800,0.467107666015625,5.927154252752661,5.808965680223703,-7.204933716654777
1772547795970145800,0.477145751953125,6.9269327678322785,7.708304678830504,-8.24868055279851
1772547795980183600,0.48718359375,7.752924157279729,7.945547500807047,-11.346008270233868
1772547795990221800,0.497221923828125,6.9881959225684405,7.290721656316518,-12.461080805444716
1772547796000259600,0.507259521484375,5.097622414219379,6.462300409373641,-11.744382149887084
1772547796010297900,0.5172978515625,2.950534981712699,6.4340241629600525,-11.236226876044272
1772547796020335600,0.527335693359375,0.798476190534234,7.488980959904193,-10.17610524368286
1772547796030374000,0.537373779296875,0.139964935529232,9.030307899862528,-8.285739240604638
1772547796040411600,0.54741162109375,0.5840940196633339,10.394823982453346,-11.177754813331365
1772547796050449700,0.55744970703125,1.5831126562863587,10.79873796057701,-10.401164875912666
1772547796060487700,0.56748779296875,3.0721897690474984,10.687571249508856,-8.77334038671851
1772547796070525700,0.577525634765625,5.471000384303927,11.825247246193886,-7.781717121043801
1772547796080563700,0.587563720703125,6.660958356890082,12.850223915416002,-5.583990219146013
1772547796090601700,0.597601806640625,7.2669585034132,13.1718313662529,-3.641354515126347
1772547796100643000,0.60764306640625,7.561821155187487,13.488681977951526,-1.5384475851297377
1772547796110681000,0.61768115234375,7.000819841820001,14.024678029400109,1.0950105749130248
1772547796120719000,0.627718994140625,6.103335580044985,14.114129752266406,3.6624750445663925
1772547796130757000,0.637757080078125,5.273108744984865,13.563257618725299,6.367994232213497
1772547796140795000,0.647794921875,4.3449195483446115,13.270063776946067,7.854904522329568
1772547796150833200,0.657833251953125,2.534082424533367,13.414527192938326,8.481874391645192
1772547796160871000,0.667870849609375,0.27184125714898105,14.10302500540614,9.326853390157222
1772547796170909200,0.6779091796875,-0.6763023477613925,14.202888232171535,10.90519576330185
1772547796180947000,0.687947021484375,-0.12933540496528148,13.024333112609385,13.066561312007904
1772547796190985200,0.697985107421875,0.34778789401501414,12.77832889202833,15.151152248591183
1772547796201023000,0.70802294921875,0.36475334960222244,13.24383861784339,17.569824333137273
1772547796211061000,0.71806103515625,-0.42797377588599916,13.065817800164222,19.56430303711891
1772547796221099300,0.728099365234375,-1.7249246809870005,11.98105740110874,20.965385640084744
1772547796231137000,0.738136962890625,-3.220973678587377,10.05262382544279,21.651929980397224
1772547796241175300,0.74817529296875,-4.51814553296268,8.411471068120003,20.78198137580156
1772547796251213000,0.758213134765625,-5.476678429940343,7.111872571119665,19.01989337759018
1772547796261251000,0.7682509765625,-6.302586232757568,6.501101556932926,16.493078898233176
1772547796271289000,0.7782890625,-6.972676866397261,6.731503719234466,14.173209717744587
1772547796281327000,0.7883271484375,-8.921645865091682,6.16173750013113,13.383628196805715
1772547796291365000,0.798365234375,-9.989826300746202,3.749060856607556,13.673602492016553
1772547796301403100,0.808403076171875,-12.132351539903878,1.0168342792987823,14.432884736281633
1772547796311441200,0.818441162109375,-15.194429080259798,-0.21701661102771758,12.901634953701496
1772547796321479200,0.828479248046875,-14.861944846099615,-1.6502514250576494,12.116210552442073
1772547796331518200,0.838518310546875,-12.63975979477167,-2.1232371858417984,10.428508809912204
1772547796341555200,0.84855517578125,-11.894638177806138,-1.0017296491473913,7.890723439207672
1772547796351594000,0.858593994140625,-10.651401034975052,-0.6644926675021648,5.603010561436414
1772547796361632000,0.868632080078125,-7.9922788568437095,-1.3803034343093632,4.2969227024167775
1772547796371670000,0.878669921875,-7.56140439108014,-1.1092302389234303,2.654291689234972
1772547796381708000,0.8887080078125,-7.547756973999738,-1.5087848527938126,0.33962884521782394
1772547796391746000,0.89874609375,-7.5650880480289455,-2.4690549488276243,-0.9015501960396766
1772547796401784000,0.9087841796875,-7.78136465434432,-3.8389761053323745,-1.0404881266087294
1772547796411822000,0.918822021484375,-6.577365296924114,-4.760628009158372,-1.060088022352755
1772547796421860000,0.928860107421875,-4.948609079837799,-4.724018818685412,1.8260466756418345
1772547796431898000,0.938898193359375,-2.6075731926798817,-2.5345441968262192,3.2913197189673777
1772547796441936100,0.94893603515625,0.9226866537012159,-2.2947715641111133,4.251428194698691
1772547796451974100,0.95897412109375,3.1092788519918915,-1.9197680386513472,2.0749936716765163
1772547796462012200,0.96901220703125,2.67106162225008,-1.802742664682865,-1.6763316227316856
1772547796472050200,0.97905029296875,0.8743126450240611,-3.310773484238982,-5.954840132057666
1772547796482088200,0.989088134765625,-1.2940893781900404,-5.046096225121617,-6.154528591665625
1772547796492126000,0.9991259765625,-3.1915888864099977,-5.51056959362626,-4.955753106373548
1772547796502164200,1.009164306640625,-3.367727543604374,-4.383467597925662,-5.190966468349099
1772547796512202000,1.019201904296875,-2.2923674255788327,-3.3279344623982903,-6.180348092576861
1772547796522240300,1.029240234375,-0.87146134724617,-3.39104704439342,-5.784029391887784
1772547796532278000,1.039278076171875,-1.3923486768901348,-2.511692898070812,-3.8181139345675703
1772547796542316300,1.04931640625,1.5056243429362772,-3.553496783453226,-1.7058213365882635
1772547796552354000,1.05935400390625,0.8895148903310298,-2.441540334436297,-1.369054310542345
1772547796562392000,1.06939208984375,0.33532384150028227,-0.5887713638246059,-1.2674854489028453
1772547796572430000,1.07943017578125,-0.05883563532829284,-1.2605442514628171,-0.653052405077219
1772547796582468000,1.089468017578125,-0.14611585024124943,-1.1452695205539465,-0.4469201761573553
1772547796592506000,1.099506103515625,0.18267655279682948,-1.3024912958323955,0.1995475898325443
1772547796602544000,1.109544189453125,0.5262222974637523,1.0739297929614782,-0.4576859003216028
1772547796612582100,1.11958203125,2.514859837669134,0.9063000209152698,-1.1290846939504147
1772547796622620200,1.1296201171875,2.463835168352723,3.1776784344792364,-1.4702707054823636
1772547796632658000,1.139657958984375,1.9429934314161539,2.906111902618408,-1.7050421689093112
1772547796642696200,1.1496962890625,0.9342834218621253,3.400263785549998,-1.9143845920473337
1772547796652734000,1.15973388671875,0.5546598719188943,4.176962444040179,-2.3906454289793966
1772547796662773200,1.169773193359375,-1.0963169813364744,6.24168957324624,-3.2349995735913515
1772547796672811000,1.17981103515625,0.6046089844256639,3.2491976102918385,-2.2430945683658123
1772547796682849300,1.189849365234375,-0.6374643753230571,0.793847361689806,-1.8787521376520395
1772547796692887000,1.199886962890625,-1.4446920275896786,1.4857505986869335,-2.4393986462324855
1772547796702925300,1.20992529296875,-1.3266102764360606,2.887758499804139,-3.597975392127037
1772547796712963000,1.219963134765625,1.2493512417972088,5.574870508623123,-4.859526190283894
1772547796723001000,1.2300009765625,3.713455874741077,3.818672152972221,-3.1455922743886706
1772547796733039000,1.2400390625,1.93887898183465,-0.470302220788598,0.0621007746040821
1772547796743077000,1.2500771484375,0.7485843246400355,-0.964297451853752,1.356141052955389
1772547796753115100,1.260115234375,0.43328379192762073,0.5068535435944795,2.1810709506511685
1772547796763153200,1.270153076171875,0.3105629097312689,1.1304255871653557,3.908636501535773
1772547796773191000,1.28019091796875,0.5578092393279075,2.218357601994276,4.25124348578155
1772547796783229200,1.290229248046875,1.9738281301409004,3.1992332636833187,3.3397529104858634
1772547796793267000,1.300266845703125,2.892552163821459,2.2213094375371933,3.3014795861929653
1772547796803305200,1.31030517578125,3.144657623887062,0.5582412010043859,3.177203802704811
1772547796813343000,1.320343017578125,1.9669126516640185,-0.1832669016391039,2.4053864865154027
1772547796823381200,1.33038134765625,0.8900339457690716,0.5608885006427765,3.599713760226965
1772547796833419000,1.3404189453125,-0.2731646147072315,1.435800865125656,4.701170442539453
1772547796843457000,1.35045703125,-1.4159937563717364,0.6905430545598268,4.277168785154819
1772547796853495000,1.3604951171875,-1.5208166513711212,-0.5969599309772252,3.0638346131563186
1772547796863533000,1.370532958984375,-2.044223854881525,-1.2622867112159728,2.158021498975158
1772547796873571000,1.380571044921875,-2.572863698348403,-1.8870476723104714,2.1040169370651243
1772547796883610000,1.390610107421875,-2.604454768398404,-2.1238269684284923,1.7742226726412773
1772547796893648100,1.400648193359375,-2.4399159481048582,-2.0204782376348973,1.1363064618974923
1772547796903686100,1.41068603515625,-2.0341279928028584,-1.646026500838995,0.0015045593440532684
1772547796913724200,1.42072412109375,-2.242656176948547,-2.1413146943241355,-0.05543722506165504
1772547796923762200,1.43076220703125,-3.5183605881422757,-3.1966525995403527,1.3578805900990962
1772547796933800000,1.440800048828125,-3.6515742958456276,-2.393103343525529,0.6616010377138852
1772547796943838200,1.450838134765625,-2.6547593067467212,-2.2480320247679946,0.359321387681365
1772547796953876000,1.4608759765625,-1.3479909181170164,-2.1327216380238534,-0.07003098308146
1772547796963914200,1.470914306640625,-0.3810024005483836,-2.0673358503997323,-0.8883487691611051
1772547796973952000,1.480951904296875,-0.04923194068074226,-1.705307541847229,-1.8663228641897438
1772547796983990300,1.490990234375,0.39086869165487587,-1.1105185251682996,-2.303396184593439
1772547796994028000,1.501028076171875,2.7595366090387103,-0.4420552004694938,-0.2291805115520954
1772547797004066000,1.511066162109375,5.436951984229683,0.05907821191251278,1.4309540096163749
1772547797014104000,1.52110400390625,5.390455605992675,0.8639233529567718,2.061768279400468
1772547797024142000,1.53114208984375,3.5759395014077424,0.24746610982716083,1.7860785301297901
1772547797034180000,1.54118017578125,2.1604284139864145,-1.1190472840607166,-0.4466407746940851
1772547797044218000,1.551218017578125,1.4046949482440947,-1.141838961583376,-3.2753228161513803
1772547797054256000,1.561256103515625,-0.624450579971075,0.36849896587133407,-4.9048050094246864
1772547797064294100,1.571294189453125,0.28267420133054255,0.5815864207565784,-4.632647525933384
1772547797074333200,1.581333251953125,2.246046550039202,-0.2905675849288702,-4.315317021763325
1772547797084371200,1.59137109375,4.012407257133722,-0.5746487304478883,-5.100346870747209
1772547797094409000,1.601408935546875,3.219210760568082,0.21369769573807715,-5.7745326647460455
1772547797104443600,1.611443603515625,0.22740137305036187,0.0569160654425621,-5.3451095668345685
1772547797114481400,1.6214814453125,0.3114049135133624,-1.1715829424619675,-4.015093135216832
1772547797124519400,1.63151953125,3.6864012790769336,-2.6646576004266738,-3.3308325219273565
1772547797134557400,1.641557373046875,6.927521965897083,-2.912159950610995,-3.7239725925803184
1772547797144595500,1.651595458984375,5.7908414099901915,-2.5119050795167683,-3.3797911986246705
1772547797154633500,1.661633544921875,2.014961520040035,-3.1175095047205685,-2.445785716921091
1772547797164671500,1.67167138671875,-2.4035101712495086,-2.7879735989719627,-1.4154527813628315
1772547797174709500,1.68170947265625,-5.212577411654591,-1.7164947062939404,-0.8388543781518936
1772547797184747500,1.69174755859375,-8.015501911520957,0.1506324600160122,-0.44040947908908123
1772547797194785300,1.701785400390625,-8.410024960964918,1.7005518717527388,-1.6764496961534023
1772547797204823600,1.711823486328125,-1.5481202533602714,-4.655090243887901,-0.5633771025881171
1772547797214861300,1.721861328125,1.079554647105932,-7.889654348671436,0.25615342028215526
1772547797224899600,1.731899658203125,0.048189226694777605,-8.489180915266274,0.5550631554901599
1772547797234937300,1.741937255859375,-0.5666274096209556,-8.354017242538928,1.1446196783430873
1772547797244976600,1.7519765625,-0.7530162426728755,-8.326775599870086,1.3636764168962836
1772547797255014400,1.762014404296875,-0.11221074022836983,-8.17469294104576,1.6774670565024017
1772547797265052700,1.772052734375,-0.12306304669752716,-7.639032989683747,2.020190652865171
1772547797275090400,1.78209033203125,-0.21923077994585036,-8.528760061460734,1.9535880367971956
1772547797285128400,1.79212841796875,-0.6345382587432861,-5.714241569912433,1.779875876097381
1772547797295166500,1.80216650390625,0.09961305139660835,0.07416238379776477,2.430275720839202
1772547797305204500,1.81220458984375,2.5543559817552564,10.846607965254783,-0.025830752957612276
1772547797315242500,1.822242431640625,7.330594232499599,28.9440369535923,-3.824140939772129
1772547797325280500,1.832280517578125,10.543985785394906,39.832604238176344,-4.6802784611582755
1772547797335318500,1.842318603515625,11.468458591860532,39.799141529035566,-2.944574027481675
1772547797345356500,1.8523564453125,8.440618836671113,28.821338794684408,-1.5686048229843377
1772547797355394300,1.862394287109375,4.366586605751515,16.140598170226813,-0.2121075039371848
1772547797365432600,1.8724326171875,1.5007014995813368,7.718742486214637,0.9512884057421237
1772547797375470300,1.88247021484375,-0.42172216814532876,1.6186884120583533,1.5615458443835377
1772547797385508600,1.892508544921875,-1.51813793368116,-2.6398721187382934,1.6856337040841578
1772547797395547400,1.90254736328125,-2.5179075348019597,-5.602617178204655,1.570295844811201
1772547797405585400,1.91258544921875,-6.61370268471837,-8.47992091948986,1.1985338585559278
1772547797415623400,1.92262353515625,-15.414655885505676,-11.337494124388694,-0.13172777999453245
1772547797425661400,1.932661376953125,-14.194790265911816,-10.22271268107891,-1.5521343113072215
1772547797435699500,1.942699462890625,-8.396433657985925,-7.92924167817235,-1.4165011213719845
1772547797445737500,1.952737548828125,-4.430111275678873,-6.267400937607884,-1.2337259487725794
1772547797455775500,1.962775390625,-2.027825531657785,-4.874567692071199,-1.083038689829409
1772547797465813500,1.9728134765625,-0.7299788467608391,-2.7641765437990427,-1.1023871680956334
1772547797475851500,1.9828515625,0.0714905342400074,-0.16535948902666567,-1.2177440973952411
1772547797485889500,1.9928896484375,0.7742820988677441,2.395971592438221,-1.3022805756911635
1772547797495927600,2.002927490234375,1.3785107056736945,4.756278581777215,-1.3495960152260957
1772547797505965600,2.012965576171875,1.7366811697542666,6.175116037142276,-1.340543232459575
1772547797516003300,2.02300341796875,1.6251381727196275,5.647451176187396,-1.067536877053976
1772547797526041600,2.03304150390625,1.4229776239097118,4.553693816205859,-1.0121633648782968
1772547797536079400,2.043079345703125,1.3058967203617096,2.9050439811259507,-1.1981800036169588
1772547797546118400,2.053118408203125,1.1166636768598108,1.1320312687963248,-1.2303289998106657
1772547797556156400,2.063156494140625,0.9170493054013699,-0.10706336740255355,-1.0926587510898709
1772547797566194400,2.0731943359375,0.7907225076675415,-0.7520616453617811,-0.9662438366811722
1772547797576232400,2.083232421875,0.6508055759985,-0.938373906046152,-0.8290260809682309
1772547797586270500,2.0932705078125,0.411207642263174,-1.218565058389306,-0.5933645368337631
1772547797596308500,2.10330859375,0.238129541683197,-2.1751965056598186,-0.18553042612429707
1772547797606346500,2.113346435546875,0.7986673291921615,-2.6882325372815132,0.014395020577311514
1772547797616384500,2.123384521484375,1.883707275841385,-2.2978169231563803,-0.22926566908489912
1772547797626422500,2.133422607421875,3.05461904104352,-1.4065309314996004,-0.3561764041865244
1772547797636460500,2.14346044921875,2.8435961174726483,-0.3711620476007461,0.04362093239855021
1772547797646498600,2.15349853515625,1.8544366115629671,0.5491004476934671,0.43183567547854035
1772547797656536600,2.16353662109375,1.5238111570119857,0.9605015667021274,0.6147310038588941
1772547797666574600,2.17357470703125,1.1697218247652053,1.0626157872647046,0.8792214598536491
1772547797676612400,2.1836123046875,0.6776958479464054,0.8759200802206992,0.9947842139236629
1772547797686651400,2.1936513671875,0.22571422368101773,0.5291624060362577,1.0166925327405334
1772547797696689400,2.203689453125,-0.21417473866529763,0.1871867054313421,0.9820794845208525
1772547797706727400,2.2137275390625,-0.6835796452879905,-0.08536708390116692,0.8853334399279207
1772547797716765400,2.223765380859375,-1.122685421367362,-0.12485329111516474,0.7355354579746722
1772547797726803500,2.233803466796875,-1.5913199281394481,0.02000233906507492,0.5848838183341547
1772547797736841500,2.243841552734375,-2.035852186246961,0.12307108387351036,0.38508977945987133
1772547797746879500,2.25387939453125,-2.33026899394989,0.07879822690486908,0.1938922674845904
1772547797756917500,2.26391748046875,-2.5007436340332028,-0.10548924995362759,0.033023769734241065
1772547797766955300,2.273955322265625,-2.360703879702091,-0.2567524090886116,-0.055020241758599875
1772547797776993500,2.28399365234375,-1.822338176512718,-0.3594248480558395,-0.11670682780491187
1772547797787031300,2.29403125,-1.1876209079407154,-0.4174579348295927,-0.05598453847980126
1772547797797069600,2.304069580078125,-0.5624104495130479,-0.37451194255053993,0.011528470431361347
1772547797807107300,2.314107421875,-0.07139014260545372,-0.27087971864044663,0.03096084585506469
1772547797817145300,2.324145263671875,0.3427086179893464,-0.1620259606897831,0.005446995093207806
1772547797827184400,2.334184326171875,0.666316375797987,-0.09822831903994082,-0.04966099801408127
1772547797837222700,2.34422265625,0.9257857156950979,-0.08923544976711273,-0.1091713359998539
1772547797847260400,2.354260498046875,1.154019301785901,-0.13868541711270807,-0.12568274594293907
1772547797857298400,2.36429833984375,1.2826993846476078,-0.21949615288376806,-0.12032489043790846
1772547797867336400,2.37433642578125,1.340821903270483,-0.27130291248857974,-0.09086755361412652
1772547797877374500,2.38437451171875,1.3228548694252966,-0.3168395057827234,-0.04761322603826411
1772547797887412500,2.39441259765625,1.216063889223337,-0.3294423822462559,0.005061274578096344
1772547797897450500,2.404450439453125,1.098397367807105,-0.33928047017157076,-0.005325496738543734
1772547797907488300,2.41448828125,0.9476327327787876,-0.381958751425147,-0.048273553110519424
1772547797917526500,2.424526611328125,0.7707460336960852,-0.4280968177437782,-0.11187348936432973
1772547797927564300,2.434564208984375,0.5725450361669063,-0.4697720594346523,-0.16985424316264688
1772547797937602600,2.4446025390625,0.4316916273653507,-0.4330371967554092,-0.24054093194017184
1772547797947640300,2.454640380859375,0.30885552129149435,-0.3718377549052238,-0.29776091223275286
1772547797957679600,2.4646796875,0.19534597342424093,-0.4083814789265394,-0.3447556136470288
1772547797967717400,2.47471728515625,0.0702618692278862,-0.4646352810680866,-0.36829712315630164
1772547797977755600,2.484755615234375,-0.01512508841753006,-0.4601116661638021,-0.38065786142703145
1772547797987793400,2.49479345703125,-0.12459887796267867,-0.3248398568868637,-0.3702732455348596
1772547797997831700,2.504831787109375,-0.22257176093682646,-0.06373217519819736,-0.3193711796848103
1772547798007869400,2.514869384765625,-0.3426806340038776,0.24159283387959002,-0.2260994601389393
1772547798017907500,2.524907470703125,-0.44439314189776774,0.4084674036443233,-0.15525924303382635
1772547798027945500,2.534945556640625,-0.5249930113971233,0.551639026260376,-0.06203166402378119
1772547798037983500,2.5449833984375,-0.6264531519651413,0.7494920871347188,0.07418758673768025
1772547798048021500,2.555021484375,-0.6912602629184722,0.8555623518466949,0.1997544923151843
1772547798058059500,2.5650595703125,-0.8085694222643971,0.8521212714821099,0.36978889608401805
1772547798068097300,2.57509716796875,-0.9188087893545627,0.6584802753448485,0.5764405092354864
1772547798078135600,2.585135498046875,-1.0247734017349779,0.3589426174968481,0.7545851724900304
1772547798088174600,2.595174560546875,-1.0670074463523924,0.07024082643985748,0.8780379491575062
1772547798098212600,2.605212646484375,-1.047250606480986,-0.08959726881682872,0.9360103917852044
1772547798108249900,2.615249755859375,-0.9412148285605013,0.007176175239682197,0.9758910782095044
1772547798118288000,2.625287841796875,-0.7463515971519052,0.3064180650115013,0.9679907534137367
1772547798128326000,2.635325927734375,-0.5414285978913307,0.6564163285523653,0.9564431581567973
1772547798138364000,2.645364013671875,-0.3504663194440305,0.9205547562390566,0.9443866635296493
1772547798148402000,2.65540185546875,-0.1697707295976579,1.0949041919291018,0.9454800847895443
1772547798158440000,2.66543994140625,-0.012139496735483406,1.005702644431591,0.8513013334013522
1772547798168477700,2.675477783203125,0.07652662871107459,0.4201894056200981,0.6650081427436322
1772547798178516000,2.685515869140625,0.08865691922679543,-0.17998013505339622,0.5047490455958992
1772547798188553700,2.6955537109375,0.09288301248922944,-0.5199339744418859,0.38509602653756736
1772547798198592000,2.705592041015625,0.10506664062738418,-0.6254471897929906,0.3021585626698099
1772547798208629800,2.715629638671875,0.14955094838961958,-0.5524047499358654,0.24887119085211307
1772547798218669000,2.7256689453125,0.20955007453933358,-0.3704220428884029,0.21375866867769508
1772547798228706800,2.735706787109375,0.2772295260585844,-0.21286475204527378,0.1984768187958747
1772547798238745000,2.7457451171875,0.3560087560020387,-0.12751871093213557,0.16005771109042688
1772547798248782800,2.755782958984375,0.4481598009549081,-0.11818857252895831,0.09745724333589896
1772547798258820900,2.76582080078125,0.5373695317588746,-0.1871130556732416,0.011678272431902587
1772547798268859000,2.77585888671875,0.6288378551445901,-0.3697667938500643,-0.07947324008960277
1772547798278897000,2.78589697265625,0.6905598595641553,-0.6201479143410921,-0.16802523763719945
1772547798288935000,2.795934814453125,0.7425495745204389,-0.872334038427472,-0.238751290310733
1772547798298973000,2.805972900390625,0.7846982789419591,-1.0549632266849278,-0.30521552082132547
1772547798309011000,2.816010986328125,0.9166413821876048,-1.0194149434417485,-0.3865293838089332
1772547798319049000,2.826049072265625,1.1213352488674222,-0.7915753251045942,-0.4957765249913558
1772547798329086700,2.836086669921875,1.3614565488897263,-0.47042263229787346,-0.6320695305421948
1772547798339125800,2.846125732421875,1.5817429753683507,-0.2190764661669731,-0.7625934146396816
1772547798349163800,2.856163818359375,1.7712449720047414,-0.051232174587249754,-0.9114137106671929
1772547798359201800,2.866201904296875,1.8988555990040301,0.07403261993825436,-1.0050148082979022
1772547798369239800,2.87623974609375,1.9623191863939164,0.16809271338284015,-1.0689188329316675
1772547798379277800,2.88627783203125,1.9133049801170825,0.2584837629258632,-1.101900480557233
1772547798389315800,2.89631591796875,1.730239592399448,0.22517069138884543,-1.136353515909612
1772547798399353900,2.906353759765625,1.451854028173536,0.07212181788086891,-1.1090490371376276
1772547798409391900,2.916391845703125,1.137832648551464,-0.10585808326601981,-1.0498094241183251
1772547798419430000,2.926429931640625,0.840568342462927,-0.12970423827767372,-0.9449906938374042
1772547798429468000,2.936468017578125,0.5997546762622893,0.053449266114830966,-0.8369500789005309
1772547798439506000,2.946505859375,0.379372972715646,0.19743395867943764,-0.684127050037682
1772547798449544000,2.9565439453125,0.15488397998064757,0.12473638673722744,-0.5096887304877862
1772547798459582000,2.96658203125,-0.04054916027039289,-0.06088204646408558,-0.3604379340885207
1772547798469621000,2.97662109375,-0.21011223846673965,-0.27226971169412134,-0.20550562145411966
1772547798479658800,2.98665869140625,-0.36651875183954835,-0.4202285685867071,-0.03263075182866305
1772547798489697000,2.996697021484375,-0.5041770178616046,-0.45147886237502094,0.13870269704107194
1772547798499734800,3.00673486328125,-0.608707213524729,-0.37543548713624475,0.31387616246510297
1772547798509772800,3.016772705078125,-0.680351184760779,-0.1302092651903629,0.4897229605734348
1772547798519810800,3.026810791015625,-0.7325652099922298,0.2559370010524988,0.6650915101781487
1772547798529848800,3.036848876953125,-0.7502163097560405,0.6612362960547208,0.8226676518522202
1772547798539886800,3.046886962890625,-0.7701730561137199,0.9593284312695264,0.9433566628947854
1772547798549924900,3.0569248046875,-0.8131716553628444,1.1707412309408187,1.070736696008593
1772547798559963000,3.066962890625,-0.8785776089921593,1.290032211753726,1.170985999482125
1772547798570001000,3.0770009765625,-0.9286746420696377,1.3172440438061952,1.2555267155617476
1772547798580039000,3.087038818359375,-0.9684311906576156,1.2139987733870743,1.347776252453029
1772547798590078000,3.097077880859375,-0.9372881566360592,0.9905319633066654,1.4340220188848674
1772547798600115700,3.10711572265625,-0.9924547480627893,0.627856004500389,1.478214650224149
1772547798610154000,3.117154052734375,-1.1697756007790565,0.26138708315193654,1.5049809304662047
1772547798620191700,3.127191650390625,-1.3905086019814015,-0.02555237440764904,1.4859446599543094
1772547798630230000,3.13722998046875,-1.613543450385332,-0.2807721671015024,1.4466324941329658
1772547798640267800,3.147267822265625,-1.8039063016347585,-0.437502359470725,1.4077800547778605
1772547798650306000,3.15730615234375,-1.8660835024759173,-0.44323301207721233,1.3705850272409617
1772547798660343800,3.16734375,-1.840281537221372,-0.3837859668523073,1.2805379688300191
1772547798670381800,3.1773818359375,-1.7133248440861701,-0.3763607852876186,1.1765660646367817
1772547798680419800,3.187419921875,-1.4854726585283875,-0.3500754204303026,1.0273130032151936
1772547798690457900,3.197457763671875,-1.1517357939586044,-0.1993564511746168,0.8704182679340243
1772547798700496000,3.207495849609375,-0.7802043285235762,-0.016072013878822327,0.7236343000397085
1772547798710535000,3.217534912109375,-0.3908370544075966,0.10621814875006676,0.6294090791612863
1772547798720573000,3.227572998046875,-0.029823183594644066,0.07801672113835811,0.5648354847028851
1772547798730611000,3.23761083984375,0.3104348994374275,-0.005645312410593032,0.5288986405335366
1772547798740649000,3.24764892578125,0.6130655548647046,-0.08297522032856941,0.4887612394018098
1772547798750687000,3.25768701171875,0.9065268154084682,-0.06198737735748291,0.4590509415971115
1772547798760724700,3.267724853515625,1.1662006649017334,0.014390344402194022,0.4467744110111147
1772547798770763000,3.277762939453125,1.406905463900417,0.13756839578151703,0.4201536036543548
1772547798780800800,3.28780078125,1.5606171852312982,0.27317981227636334,0.41966845048591495
1772547798790839000,3.297839111328125,1.5703331080816685,0.3493681489437818,0.4001553562425077
1772547798800876800,3.307876708984375,1.4579764565765856,0.3018897739320993,0.3552092031221837
1772547798810915000,3.3179150390625,1.2722893420532344,0.1937012018918991,0.31557149514090266
1772547798820952800,3.327952880859375,0.986938614989817,0.10237900897860526,0.28555015862565486
1772547798830990800,3.337990966796875,0.6943515069320797,0.05602642312645912,0.23294687834829092
1772547798841030000,3.34802978515625,0.4235597588360309,0.03412088078856468,0.1863716992540285
1772547798851068000,3.35806787109375,0.17365210107564924,0.029198621955513954,0.14544007900469005
1772547798861106000,3.36810595703125,-0.03366612275838852,0.006935936743021011,0.09301051132641733
1772547798871144000,3.37814404296875,-0.21350246542692183,-0.03286357420384884,0.04549293681550771
1772547798881182000,3.388181884765625,-0.34952450854927297,-0.0751285984814167,-0.00737885820493102
1772547798891220000,3.398219970703125,-0.4461912773609161,-0.11743395476937293,-0.06848718770556152
1772547798901258000,3.408258056640625,-0.5146002121984958,-0.13751461976766585,-0.13182722178101539
1772547798911296000,3.4182958984375,-0.5505155751883983,-0.10589841527640818,-0.1931179951764643
1772547798921333800,3.428333740234375,-0.5461664400681853,-0.050562897023558616,-0.23884868627060205
1772547798931372000,3.4383720703125,-0.49546661879196763,-0.022046412113308905,-0.2691870528457686
1772547798941409800,3.448409912109375,-0.44114568440914154,-0.029141923332214353,-0.29914171733297407
1772547798951448800,3.45844873046875,-0.335971491754055,-0.006432078874111175,-0.30036965169273316
1772547798961486800,3.46848681640625,-0.20342501578778027,0.04396072227954864,-0.28367417215332386
1772547798971524900,3.47852490234375,-0.034428485433012246,0.094565120357275,-0.26765695720165966
1772547798981563000,3.48856298828125,0.1068780739635229,0.13286182552576065,-0.23659546398371456
1772547798991601000,3.498600830078125,0.2611053436011076,0.15248130275309085,-0.21556305121853947
1772547799001639000,3.508638916015625,0.3835796306252479,0.10975567522644997,-0.19878701725620776
1772547799011676700,3.5186767578125,0.45340077034831044,-0.0159206227093935,-0.1523567265253514
1772547799021715000,3.52871484375,0.47925621935576196,-0.11705518458485603,-0.09944825275633483
1772547799031752700,3.538752685546875,0.5045990426659583,-0.11078209566473961,-0.04146342557109892
1772547799041791000,3.548791015625,0.5096835063233971,-0.031184827336668965,0.038293892156891524
1772547799051828700,3.558828857421875,0.4524466844938695,0.046231005299091334,0.10727792346868663
1772547799061867000,3.568866943359375,0.38920477703064676,0.09667992055416107,0.16398915052153168
1772547799071905800,3.57890576171875,0.30597718937620516,0.07512275326251983,0.20996190674323587
1772547799081944000,3.588944091796875,0.20548370188325643,-0.011506897920370102,0.24428605501893907
1772547799091981800,3.59898193359375,0.08291063065975904,-0.08904548015296458,0.28645280655380334
1772547799102020000,3.60902001953125,-0.005574293000996112,-0.11921908462047576,0.32167836064863947
1772547799112058000,3.61905810546875,-0.05863266010209918,-0.11172259138524532,0.33904969362299886
1772547799122096000,3.62909619140625,-0.10127572391182184,-0.07775836246311664,0.3447663177041337
1772547799132134100,3.639134033203125,-0.12233239433541893,-0.028719314005970952,0.33975364064127206
1772547799142172200,3.649172119140625,-0.14904372951984404,0.0013444003462791442,0.3461510500608012
1772547799152210200,3.659210205078125,-0.16375468417853117,0.001188333001732826,0.32790450515449043
1772547799162248200,3.669248291015625,-0.17225860089063644,-0.0014724106401205062,0.2954359216175973
1772547799172286000,3.679285888671875,-0.1437958919942379,0.004931611183285713,0.2547435900168493
1772547799182324200,3.68932421875,-0.1033770801052451,0.0485766916424036,0.18228406461421398
1772547799192363000,3.699363037109375,-0.0435290528640151,0.10988953073918818,0.11169625136759131
1772547799202401300,3.7094013671875,0.00348170463591814,0.1011228714376688,0.031799707832001145
1772547799212439000,3.71943896484375,0.026551322317123413,0.02437982349693775,-0.018071480600349604
1772547799222477300,3.729477294921875,0.030016221948713062,-0.045479894670844075,-0.04934972184151411
1772547799232515000,3.73951513671875,0.051926440461724996,-0.08840659772753715,-0.06495492192618549
1772547799242553300,3.74955322265625,0.09761398653388023,-0.09142916041910648,-0.07654186281282455
1772547799252591000,3.759591064453125,0.1407493639051914,-0.08243862923383713,-0.07543521674517542
1772547799262629000,3.769629150390625,0.18719240451976657,-0.08320318386554718,-0.06817370130959897
1772547799272667100,3.779667236328125,0.18634060999602078,-0.06694295393824577,-0.05202851259671151
1772547799282705200,3.789705078125,0.1736883414328098,-0.020823592320084572,-0.011229578816331923
1772547799292743200,3.7997431640625,0.15273907690644264,0.054019759479165076,0.03630275487229228
1772547799302781200,3.80978125,0.1171744270503521,0.09191431358754634,0.07372603820711374
1772547799312820200,3.8198203125,0.08761749317646027,0.0652776510745287,0.10352434308882802
1772547799322858000,3.82985791015625,0.051414545416831964,0.009033201283216476,0.12271215090062469
1772547799332896300,3.839896240234375,0.043173225163668394,-0.03567512449324131,0.1341280826019123
1772547799342934000,3.84993408203125,0.03735913205742836,-0.054936874324083326,0.1452150380771607
1772547799352972000,3.859971923828125,0.034465748703479765,-0.09977262587249279,0.143549516017735
1772547799363010000,3.870010009765625,0.00969049614816904,-0.14402560909688472,0.1482130143167451
1772547799373048000,3.880048095703125,0.00968085153698921,-0.13852058193981648,0.1762461361568421
1772547799383086000,3.890086181640625,0.04525719183087348,-0.09445464572012424,0.18171086783614007
1772547799393124000,3.9001240234375,0.10624854388833045,-0.0549988336443901,0.1640742715217173
1772547799403162400,3.910162353515625,0.1336918466091156,-0.06639467240571975,0.12932930401805787
1772547799413200100,3.9202001953125,0.15234510915279387,-0.09333820891082287,0.0901668123330921
1772547799423239200,3.9302392578125,0.1497103767350316,-0.09473287813961505,0.05004059018250555
1772547799433277200,3.940277099609375,0.16204203504174947,-0.035893151158094404,0.005177950627170503
1772547799443315000,3.95031494140625,0.16328487470969558,0.09822305834293366,-0.027736111654900013
1772547799453353200,3.960353271484375,0.15167977711185812,0.19325404264628887,-0.058599305821768935
1772547799463391000,3.970390869140625,0.11501607997268437,0.17206629318892955,-0.10532404945455491
1772547799473429200,3.98042919921875,0.047453825092315674,0.08896130900084973,-0.1635693542068824
1772547799483467000,3.990467041015625,-0.0032020109117031096,-0.01000116953253746,-0.20692969944048673
1772547799493505300,4.00050537109375,-0.03137479695081711,-0.07980126646757126,-0.24207707373257725
1772547799503543000,4.01054296875,-0.06541968989372253,-0.08743629139065742,-0.25999789381586014
1772547799513581000,4.0205810546875,-0.07429039409160614,-0.01939677438735962,-0.2635752773785964
1772547799523619000,4.030619140625,-0.06915098537653684,0.07325228321552277,-0.2672259819058701
1772547799533657000,4.040656982421875,-0.04370587073564529,0.17820669564008712,-0.27494645662270484
1772547799543696100,4.050696044921875,-0.01336582366004586,0.24629472796022892,-0.2973622135050595
1772547799553734100,4.060734130859375,-0.016418196967989206,0.22937983351647853,-0.31025227287951856
1772547799563772200,4.070772216796875,-0.04361030140668153,0.13309212715029717,-0.3002113558584824
1772547799573810200,4.08081005859375,-0.07292728904485703,0.009804770177602767,-0.28180125442091375
1772547799583848200,4.09084814453125,-0.09725172909274697,-0.09116729461252689,-0.25817254155222324
1772547799593886200,4.10088623046875,-0.09513444467782974,-0.11219137794077395,-0.22932331755626945
1772547799603924000,4.110924072265625,-0.09506211009398102,-0.05940145251750946,-0.1857485989196226
1772547799613962200,4.120962158203125,-0.08300678451061248,0.0014537059396505356,-0.16900281396508215
1772547799624000000,4.131,-0.054505204908549786,0.06174830790460109,-0.17436499858535826
1772547799634038300,4.141038330078125,-0.014509002345800399,0.08222235613465309,-0.19090283987764267
1772547799644076000,4.151075927734375,0.011518588358163833,0.010479308438301086,-0.20935831482689826
1772547799654114300,4.1611142578125,0.05084522109627723,-0.04016542164981365,-0.258196360819228
1772547799664153000,4.171153076171875,0.0814015412710607,-0.04371054691076279,-0.30372210392579435
1772547799674191400,4.18119140625,0.11862199551016092,-0.05230126512348652,-0.35727198087088763
1772547799684229000,4.19122900390625,0.12422054616957902,-0.10429857886433601,-0.39121860107108947
1772547799694267100,4.20126708984375,0.11154928064495324,-0.1494254223138094,-0.41299730215892194
1772547799704305200,4.21130517578125,0.11312982783466577,-0.1238666181653738,-0.41750016653612254
1772547799714343200,4.22134326171875,0.11869769109487532,-0.05931085162460804,-0.38164789537768806
1772547799724381200,4.231381103515625,0.11401216362714767,-0.024838088658452034,-0.34617654982823876
1772547799734419200,4.241419189453125,0.1300850542888045,-0.007908581167459487,-0.32218671202957627
1772547799744457200,4.251457275390625,0.14239055524095892,0.007698737809062004,-0.30151659323815255
1772547799754495200,4.2614951171875,0.18066314888149498,0.00043020811080932614,-0.2985215396080166
1772547799764533000,4.271532958984375,0.22373393658399582,-0.03087093908190727,-0.29098376451432706
1772547799774571300,4.2815712890625,0.2386114799812436,-0.07988426857590675,-0.27969284743219613
1772547799784610000,4.291610107421875,0.2585118199765682,-0.07766483896076679,-0.2598523113327101
1772547799794648000,4.30164794921875,0.26081483622193335,-0.021897359031438825,-0.23950828269049523
1772547799804688100,4.311688232421875,0.2655763515353203,0.049018590191006656,-0.23222667431496083
1772547799814726100,4.32172607421875,0.25287264504581686,0.08859948995113372,-0.24131324975322932
1772547799824764000,4.331763916015625,0.21549553894028067,0.08064531607627869,-0.27384865144863724
1772547799834802200,4.34180224609375,0.17271248213797807,0.03889876271486282,-0.3293272314339876
1772547799844840000,4.35183984375,0.1330816057562828,0.023501287096738814,-0.39650775698777285
1772547799854878200,4.361878173828125,0.08370207329839467,-0.014133739292621612,-0.4210742986958474
1772547799864917000,4.3719169921875,0.04284691581875086,0.01300093587040901,-0.44149566689059133
1772547799874955300,4.381955322265625,0.018039368429034947,0.08121054874360562,-0.4662514110278338
1772547799884993000,4.391992919921875,-0.01252776540070772,0.0927875892907381,-0.4855350804295391
1772547799895031300,4.40203125,-0.03565583527088165,0.03473696686029434,-0.5032049579590558
1772547799905069000,4.412069091796875,-0.04602876072525978,-0.03580839548408985,-0.5223864821605384
1772547799915107300,4.422107421875,0.02236468428224325,-0.043969490107893944,-0.5494959498170763
1772547799925145000,4.43214501953125,0.08460340605229139,-0.05505787035524845,-0.5502008832160383
1772547799935183000,4.44218310546875,0.06867898395061492,-0.11222060403525828,-0.547290256466344
1772547799945221000,4.45222119140625,-0.0010663140572607518,-0.24124270526766775,-0.5082954129658639
1772547799955259100,4.462259033203125,-0.07181202127933502,-0.35385201635956764,-0.4456503754172474
1772547799965297200,4.472297119140625,-0.07392682147622108,-0.370854589086771,-0.3825277104195207
1772547799975336200,4.482336181640625,-0.12415244936943054,-0.38704350734353066,-0.28791750881150363
1772547799985374200,4.492374267578125,-0.19789806905984877,-0.4701823938012123,-0.13792765754796563
1772547799995412200,4.502412109375,-0.2484441610790789,-0.4158563448518514,0.02419336101412773
1772547800005450200,4.5124501953125,-0.23937691139578818,-0.21717910811305044,0.1899605540588498
1772547800015488300,4.52248828125,-0.23777532141804694,-0.09316168330013752,0.3398318204440176
1772547800025526000,4.532526123046875,-0.2141632674232125,-0.0990226842880249,0.478248065226525
1772547800035564300,4.542564208984375,-0.18550386691093443,-0.08258242161870002,0.5903352521404623
1772547800045602000,4.55260205078125,-0.14414265960529446,-0.06336567997336387,0.6838528362061828
1772547800055640300,4.562640380859375,-0.04622954399436712,0.03021510552167892,0.7428908622387796
1772547800065678000,4.572677978515625,0.03531915066242218,0.1794230856925249,0.809970228973031
1772547800075716000,4.582716064453125,0.059927522218227385,0.25310382345318794,0.9389292018413543
1772547800085754000,4.592754150390625,0.06691241266950965,0.2278261743336916,1.025167807880044
1772547800095793200,4.602793212890625,0.0598547492429614,0.2528998253136873,1.1256726204846053
1772547800105831700,4.612831787109375,0.09825564543828368,0.24244915844798087,1.171538080406934
1772547800115869400,4.622869384765625,0.11031330910921096,0.21306290496587751,1.197404854525998
1772547800125907500,4.632907470703125,0.12887977015227078,0.13110241463780403,1.1635685628324746
1772547800135945500,4.642945556640625,0.14488660984039306,0.03711830903887749,1.071821495570615
1772547800145983500,4.6529833984375,0.1552630424261093,-0.0820867470562458,0.9268296717900782
1772547800156021500,4.663021484375,0.15884017026051878,-0.16309037505090235,0.7823417058784514
1772547800166059500,4.6730595703125,0.12811287743300198,-0.08736556424200534,0.6960100147288292
1772547800176097300,4.68309716796875,0.06127177643403411,0.045945758616924286,0.6250950153544544
1772547800186135600,4.693135498046875,-0.045673371416330336,0.09899871889054775,0.5562918205022812
1772547800196173300,4.70317333984375,-0.1469150469280779,0.10400456435382366,0.5225622771188616
1772547800206212600,4.713212646484375,-0.27660189567953347,0.07991466371417046,0.5118738559745252
1772547800216250400,4.72325048828125,-0.39739904327169057,0.042240474358201024,0.5137462257176637
1772547800226288600,4.73328857421875,-0.5107612185575068,0.03404372389912605,0.5418127749033272
1772547800236326400,4.743326416015625,-0.6106359896302223,0.007234042906761169,0.5848671229276806
1772547800246364700,4.75336474609375,-0.6467853075064718,-0.07775543985366822,0.5923210191302001
1772547800256402400,4.76340234375,-0.6134510470509529,-0.19758242723941802,0.5772521909445524
1772547800266440400,4.7734404296875,-0.508938679305464,-0.29228491024076936,0.5555085611701012
1772547800276478500,4.783478515625,-0.32633491775020956,-0.28519290615320203,0.5122196006722748
1772547800286516500,4.7935166015625,-0.12472045851573348,-0.22815467563569544,0.4871658234365284
1772547800296554500,4.803554443359375,0.06306421280875801,-0.18233166661560535,0.45746392813399434
1772547800306592500,4.813592529296875,0.21529694762825966,-0.1723556315243244,0.42699660141691564
1772547800316631600,4.823631591796875,0.3479099129594862,-0.12195055541098117,0.4153863892525434
1772547800326669600,4.833669677734375,0.4791058510996401,-0.01896364366710186,0.4320492086313665
1772547800336707600,4.84370751953125,0.5704946795083582,0.12636135759055614,0.45993375231362876
1772547800346745600,4.85374560546875,0.6575229746200144,0.24197569571733474,0.46879963420592247
1772547800356783400,4.863783447265625,0.7318952017761766,0.2558493227690458,0.4850521922834217
1772547800366821600,4.873821533203125,0.7493804434537887,0.13751111263632773,0.5220902026277036
1772547800376859400,4.883859375,0.755157857811451,0.03437573233246803,0.5470440266203135
1772547800386897700,4.893897705078125,0.7897064624927937,-0.01445055015683174,0.5454007163926958
1772547800396935400,4.903935302734375,0.8545886845089494,-0.061467737397551535,0.5082124839227646
1772547800406973700,4.9139736328125,0.9135140439473092,-0.08509820383191108,0.4331329122148454
1772547800417011500,4.924011474609375,0.9413441540285944,-0.058036009383201595,0.3559532264225185
1772547800427049500,4.934049560546875,0.9402323933944106,-0.011437339815497398,0.3043219695150852
1772547800437088500,4.944088623046875,0.8726350672006606,0.07931377521157264,0.284109860156849
1772547800447126300,4.954126220703125,0.7710441398598253,0.2266226437628269,0.28760793140567836
1772547800457164500,4.96416455078125,0.6645384063400328,0.36867081530690193,0.27810587050169705
1772547800467202300,4.974202392578125,0.5485891371704638,0.46915480431914325,0.27357670263946055
1772547800477240600,4.984240478515625,0.4187761778213083,0.4970686471611261,0.2650116303246468
1772547800487278300,4.9942783203125,0.29885420562848447,0.374015683466196,0.2270033867087215
1772547800497316600,5.004316650390625,0.1794588876582682,0.14310031094551084,0.17735212463736533
1772547800507354600,5.014354736328125,0.06360168068632484,-0.14063304404914378,0.11758841467872261
1772547800517392400,5.024392333984375,-0.040241994017362594,-0.3647323068141937,0.09462751806899905
1772547800527430700,5.0344306640625,-0.11623436972126364,-0.4864987378299236,0.058532341532781716
1772547800537469700,5.0444697265625,-0.1301848614014685,-0.5076502469301224,0.0067548080224543805
1772547800547507500,5.054507568359375,-0.11824410210847854,-0.41134091325402256,-0.027664836516976356
1772547800557545500,5.06454541015625,-0.05919643146470189,-0.3013970219790935,-0.05507562520764768
1772547800567583500,5.07458349609375,0.015032587828487157,-0.20998481269478797,-0.07448211727142333
1772547800577621500,5.08462158203125,0.13069894840344787,-0.14978841040730476,-0.10019896152578293
1772547800587659500,5.094659423828125,0.31080300209745765,-0.12407061630487441,-0.14740670290254054
1772547800597697500,5.104697509765625,0.4664098895251751,-0.13362404206991194,-0.18964988067448138
1772547800607735300,5.1147353515625,0.6121430331923067,-0.20777239734232425,-0.23016572319716214
1772547800617773600,5.124773681640625,0.7287493049658834,-0.2694973243713379,-0.2430669980853796
1772547800627811300,5.134811279296875,0.8130081353642046,-0.29933073709905145,-0.22406492210403084
1772547800637849600,5.144849609375,0.8548108028270304,-0.29019641352891923,-0.19164529227539895
1772547800647887400,5.154887451171875,0.8934590979121625,-0.2911030069798231,-0.16599413366839288
1772547800657926700,5.1649267578125,0.9518914862018077,-0.2783236049056053,-0.1746982491277158
1772547800667964400,5.17496435546875,0.9842892695248127,-0.26471944244503975,-0.21602562722899019
1772547800678002700,5.185002685546875,1.0128992779374122,-0.2144716027200222,-0.2626000391382724
1772547800688040400,5.19504052734375,1.003150475730747,-0.14682605347037314,-0.3162145788174122
1772547800698078500,5.205078369140625,0.9704430419366806,-0.07826631198525429,-0.38478549928367134
1772547800708116500,5.215116455078125,0.8717137876372784,-0.019433599266409873,-0.43266061852797866
1772547800718154500,5.225154541015625,0.7210919220805168,-0.011381225714087485,-0.47149851790107783
1772547800728192500,5.235192626953125,0.5361619095347822,-0.01981412301659584,-0.47019094243384896
1772547800738230500,5.24523046875,0.32174305991530416,0.002599368843436241,-0.4568554408468306
1772547800748268500,5.2552685546875,0.11879121459722518,0.04163666324615478,-0.4195414631053805
1772547800758306600,5.265306640625,-0.07224675943478942,0.1137754322618246,-0.373625076713413
1772547800768344300,5.27534423828125,-0.23320436024069785,0.2092944923430681,-0.3481283049505204
1772547800778383600,5.285383544921875,-0.3747532039605081,0.3241699948012829,-0.3430840271729976
1772547800788421400,5.29542138671875,-0.47434192463345826,0.3862953193247318,-0.34635464634150265
1772547800798459600,5.305459716796875,-0.5990237316392362,0.32515491418540476,-0.364411477361992
1772547800808497400,5.315497314453125,-0.6999170321047306,0.10857552553117275,-0.3959796049278229
1772547800818535700,5.32553564453125,-0.7718202387988566,-0.1381751295030117,-0.3769323746304959
1772547800828573400,5.335573486328125,-0.7939502375423908,-0.2822404860883951,-0.3480277671854943
1772547800838611700,5.34561181640625,-0.809138454324007,-0.3122176912009716,-0.26750768492408095
1772547800848649500,5.3556494140625,-0.7822774084705859,-0.25975743612349034,-0.1906125882267952
1772547800858687500,5.3656875,-0.7136639640368521,-0.12336217577457427,-0.09894289705008268
1772547800868725500,5.3757255859375,-0.6387468894142657,0.049773207950592036,-0.012840776872634886
1772547800878763500,5.385763427734375,-0.5357561052128672,0.20616028597056865,0.07918956431001424
1772547800888801500,5.395801513671875,-0.4775404284138232,0.26617548647224903,0.18560951924249527
1772547800898840300,5.40584033203125,-0.41873979133367534,0.21579846740961073,0.23083646206557748
1772547800908878600,5.415878662109375,-0.34697438567504285,0.12758008573055266,0.2243684350952506
1772547800918916400,5.425916259765625,-0.25512042397260665,0.03255786925554275,0.1615576855909079
1772547800928954600,5.43595458984375,-0.19631284569501875,-0.13240940558314324,0.053381607706099746
1772547800938992400,5.445992431640625,-0.1451941414196044,-0.2908686137020588,-0.0507808506231755
1772547800949030400,5.456030517578125,-0.09515789861865341,-0.4080161527454853,-0.16396240864507852
1772547800959068400,5.466068359375,-0.04204465952515602,-0.44651977866292,-0.2543647832997143
1772547800969106400,5.4761064453125,0.007831424278020858,-0.34570495026111603,-0.30817506474666295
1772547800979144400,5.48614453125,0.12250409764051437,-0.17431787150800226,-0.37815767864175137
1772547800989182500,5.496182373046875,0.22442827552370725,0.0008235913425683975,-0.44331645257696506
1772547800999220700,5.506220703125,0.31769466130733487,0.14603753344118595,-0.4914938427034765
1772547801009259500,5.516259521484375,0.383627488354966,0.15542261690199374,-0.516474846963957
1772547801019297500,5.526297607421875,0.4571195716757327,0.06286416019201278,-0.5362844399359077
1772547801029335600,5.53633544921875,0.507799811468646,0.00970657050013542,-0.5201482017144561
1772547801039373300,5.546373291015625,0.5324761336941272,-0.07049041728675365,-0.4823934944681823
1772547801049411600,5.55641162109375,0.5473206516046076,-0.20884090335667133,-0.4550624930154532
1772547801059449300,5.566449462890625,0.5530548113424331,-0.2790472430050373,-0.41004349385462696
1772547801069487600,5.576487548828125,0.5530184613874182,-0.31127018121778965,-0.36689496474079786
1772547801079525400,5.586525390625,0.5171055460829287,-0.30200667831003664,-0.2946291352793574
1772547801089563600,5.596563720703125,0.4957845256347209,-0.25446283684670923,-0.2413260727021843
1772547801099604500,5.6066044921875,0.4675403548598289,-0.1448147136479616,-0.20053411665186285
1772547801109642800,5.616642822265625,0.41388113578874614,-0.03995499376952648,-0.17205621018633246
1772547801119680800,5.6266806640625,0.35160741577055304,-0.020301029750704764,-0.17999577101394534
1772547801129719800,5.6367197265625,0.28227727443482725,0.03931201969087124,-0.17014314310662448
1772547801139757600,5.646757568359375,0.17797511537391691,0.14226327559947965,-0.14300634905174373
1772547801149795800,5.6567958984375,0.035543607068061825,0.23912732054889202,-0.09530848607048392
1772547801159833600,5.66683349609375,-0.14847674328684807,0.26443127315342424,-0.049021805061399935
1772547801169872000,5.676871826171875,-0.36870004140138624,0.22909458683431147,0.028971827462315556
1772547801179909600,5.68690966796875,-0.6120294898152351,0.1844511429876089,0.12182612531371415
1772547801189947600,5.69694775390625,-0.8078232800722122,0.20657237390279767,0.2465741294234991
1772547801199985700,5.706985595703125,-0.935933015700057,0.17278817772269248,0.36054851832352575
1772547801210023700,5.717023681640625,-0.9391957438230514,0.11735855144560337,0.43610644813291727
1772547801220061700,5.727061767578125,-0.8314180906713008,0.1444885504335165,0.4129308127939701
1772547801230099700,5.737099609375,-0.6037035600185394,0.25027649107277394,0.29072321388199923
1772547801240137700,5.7471376953125,-0.40353988411426545,0.3196580703347921,0.11055289001874626
1772547801250175700,5.75717578125,-0.2519593661257997,0.32284137654602524,-0.09395254141688346
1772547801260214800,5.76721484375,-0.15093761697504668,0.13693535857498645,-0.27256876770593225
1772547801270252800,5.777252685546875,-0.08021278814421966,-0.1087649106234312,-0.38237821894623336
1772547801280290600,5.78729052734375,-0.0057984206130728124,-0.328272753944993,-0.4735067889835685
1772547801290328800,5.797328857421875,0.024023831399809566,-0.42924364969134327,-0.49763607178553937
1772547801300366600,5.80736669921875,0.012546177840232849,-0.4551835621118545,-0.44503114754036066
1772547801310404900,5.81740478515625,-0.09299509456157684,-0.47348201986849303,-0.3363611486587673
1772547801320442600,5.827442626953125,-0.23816578204035757,-0.3473971411317587,-0.20986118631511924
1772547801330481000,5.83748095703125,-0.48661798029541964,-0.14069909502267836,-0.11618965379670261
1772547801340518700,5.8475185546875,-0.852846663147211,0.046834231889247895,-0.04246281187199056
1772547801350556700,5.857556640625,-1.3026982165813445,0.14659458280205725,0.16908566994294524
1772547801360594700,5.8675947265625,-1.6838947514623404,0.0358060573965311,0.5203400710247457
1772547801370632700,5.8776328125,-1.8115291977286339,-0.3249795576184988,0.9469166203986853
1772547801380671700,5.887671630859375,-1.5534031621992588,-0.7455173382848501,1.38684628008157
1772547801390709800,5.897709716796875,-1.106715041232109,-0.9849474411725997,1.7873950195558368
1772547801400747800,5.907747802734375,-0.5540191993951797,-0.9704413614362478,2.2307827838033436
1772547801410785800,5.917785888671875,-0.06939907838609069,-0.7147282322674989,2.6378093409895897
1772547801420823800,5.92782373046875,0.282130595973134,-0.1982633952409029,2.9662089361846444
1772547801430861800,5.93786181640625,0.5398235373148694,0.46544250579774377,3.2535721721142528
1772547801440899600,5.947899658203125,0.6573626694917678,1.1027455530792474,3.6269767379447817
1772547801450937900,5.957937744140625,0.6001899989396333,1.5172463916689156,3.9738530700728294
1772547801460975600,5.9679755859375,0.32328623423669484,1.511973419702053,4.369986185061931
1772547801471014000,5.978013916015625,-0.1990630029196851,1.0359878925800323,4.863303370735049
1772547801481051600,5.9880517578125,-0.9275146583795547,0.5663379982203245,5.253766915655135
1772547801491090000,5.99808984375,-2.0513561909794804,0.2038923410385847,5.592377523741126
1772547801501127700,6.008127685546875,-3.254291134038567,0.03471533955037594,5.7893654922187325
1772547801511166700,6.018166748046875,-4.604565925309061,0.3657850307375192,5.944811489996313
1772547801521204700,6.028204833984375,-5.594274881795048,1.1124936246335506,5.701004487198591
1772547801531242500,6.038242431640625,-5.759003087180853,2.2564292662352323,5.067895384475588
1772547801541280800,6.04828076171875,-5.153308645606041,3.2013731983214613,4.173479570360482
1772547801551318500,6.058318603515625,-3.773397425484657,3.1430899361789226,3.5490322052598
1772547801561356800,6.068356689453125,-2.430613136100024,2.244614909800887,3.3111832340836522
1772547801571394600,6.07839453125,-1.6066396623462438,1.3321388305991888,3.170812348102033
1772547801581432800,6.088432861328125,-1.0442957021981476,0.9155600166916846,3.1521836354777215
1772547801591470600,6.098470703125,-1.008302013275027,0.9418763612091541,3.2578888662695884
1772547801601508600,6.108508544921875,-1.5098931062966585,1.1505419079989194,2.6350954058557745
1772547801611547000,6.118546875,-2.910932454642653,1.5767834532648324,1.4978784049846232
1772547801621584600,6.128584716796875,-4.38914213643074,1.5020558367997408,0.21697189510315656
1772547801631623000,6.138622802734375,-4.515724443295598,0.6569423982530832,-0.8847937070280313
1772547801641660700,6.14866064453125,-3.2298148644298315,-0.7369727973014116,-1.972418847864866
1772547801651699700,6.15869970703125,-0.6238932383492589,-2.2064187423974273,-3.2177690373271703
1772547801661737700,6.16873779296875,2.442039223869145,-3.2356869713336227,-4.578195220255852
1772547801671775700,6.178775634765625,5.05711212465465,-3.4768063424825666,-5.514241560137272
1772547801681813800,6.188813720703125,7.451092251014709,-2.7300568320542573,-5.984937164157628
1772547801691851500,6.1988515625,9.264851399752498,-1.7460405342519283,-6.471168190962076
1772547801701889800,6.208889892578125,10.329627579921484,-1.3369488612294196,-7.090508880573511
1772547801711927600,6.218927490234375,9.648823244565724,-1.7643202873080968,-7.62630853266716
1772547801721965800,6.2289658203125,6.56649903499484,-3.3025106828063726,-7.658495815044641
1772547801732003600,6.239003662109375,2.893075310912728,-4.578615491494536,-6.093095925581455
1772547801742041900,6.249041748046875,0.2816904509902,-4.282717066931724,-2.6287600653544065
1772547801752079600,6.25907958984375,-0.7970616475611925,-3.8479239664196965,-0.02271685872077942
1772547801762117600,6.26911767578125,-0.6573378273114562,-3.5460809542387723,1.4955194207683205
1772547801772155600,6.27915576171875,-0.4022179878607392,-3.067835665491223,2.5092656709238885
1772547801782193700,6.289193603515625,-0.6803419785410165,-2.789338457584381,3.133070061945915
1772547801792232700,6.299232666015625,-1.7149582905068992,-2.506953594589233,3.2836145514175294
1772547801802270700,6.309270751953125,-2.7931863651841877,-2.3803379699766634,2.7218779095128176
1772547801812308700,6.319308837890625,-3.848588860069215,-2.2011060229420663,2.2837755383223293
1772547801822346800,6.3293466796875,-5.098084771034121,-1.7763672834545372,2.404792904536426
1772547801832384800,6.339384765625,-6.017110418009757,-1.2137193719238042,2.601545895214379
1772547801842422800,6.3494228515625,-5.5444718632280825,-0.3588549392133951,2.3184967230916023
1772547801852460500,6.35946044921875,-4.748654662770033,0.44259880582690236,1.9404373171925544
1772547801862498800,6.369498779296875,-3.7647219515979287,0.3311620456457138,1.6511694166854023
1772547801872536600,6.37953662109375,-3.0097663383603095,-0.22925182322263715,1.9968255593687294
1772547801882574800,6.389574951171875,-2.502844990226626,-0.5419032296657562,2.7013196901306507
1772547801892612600,6.399612548828125,-2.19117674960196,-0.6702741735130548,3.251825912968814
1772547801902651000,6.40965087890625,-3.0809213570356366,-0.004068856874108314,3.8484459444671866
1772547801912688600,6.419688720703125,-5.534762370118498,1.9699615178406238,4.5100501970514655
1772547801922726700,6.4297265625,-8.082762260845303,4.408719528082013,4.45057597155869
1772547801932764700,6.4397646484375,-10.312076725661754,7.2722449193835255,4.462229876734316
1772547801942803700,6.4498037109375,-11.097702202451229,9.112098294320703,5.301256981104612
1772547801952841700,6.459841796875,-6.727932290488481,7.976945094111561,4.327200059519708
1772547801962879700,6.469879638671875,-0.4567901205256581,4.936303725016117,1.9415198517322538
1772547801972917800,6.479917724609375,4.2642943982735275,1.9962007054686546,-0.31975597775131465
1772547801982955800,6.489955810546875,8.006838712593913,-0.8892962791442871,-2.419015783417225
1772547801992993800,6.499993896484375,10.128808070456982,-3.6060084764569997,-4.19851961133182
1772547802003031800,6.51003173828125,9.762968094661831,-5.7656619605481625,-6.333478214627504
1772547802013069600,6.520069580078125,7.058673480373621,-6.443140950873493,-8.243104213970899
1772547802023107800,6.53010791015625,2.320886248576641,-7.076086387467384,-9.622614452075958
1772547802033145600,6.5401455078125,1.1684446444362402,-7.259072718599438,-8.177219244652987
1772547802043183900,6.550183837890625,4.390665400475263,-5.095574834039807,-3.448033836984634
1772547802053221600,6.5602216796875,5.813330889695883,-2.9756103862583636,-0.8566942784860729
1772547802063259600,6.570259765625,5.209324547338485,-1.213505436912179,0.9104767220780253
1772547802073297700,6.580297607421875,3.276897518122196,0.9456313298285007,2.5563193907827135
1772547802083335700,6.590335693359375,1.0958657304376362,3.6017782915413377,3.2088544939875603
1772547802093374700,6.600374755859375,0.07227087096273899,7.160135959029197,3.433682363288104
1772547802103409400,6.610409423828125,-1.2183496620729566,10.535057798051833,2.675474470256269
1772547802113447400,6.620447509765625,-1.1015578045994043,9.341185866892337,1.1735802537590265
1772547802123485400,6.6304853515625,0.04390694626569747,3.921980551755428,0.8233323993712663
1772547802133523500,6.6405234375,1.6238637688696385,0.5238765745878219,0.17169716761559248
1772547802143561500,6.6505615234375,2.7160648393198845,-0.7059890454947948,-0.7958902656942606
1772547802153599500,6.660599609375,2.899148201085627,-1.238397301584482,-1.6885548522278666
1772547802163637500,6.670637451171875,2.758197761650383,-1.041249758630991,-2.246346263638139
1772547802173675500,6.680675537109375,2.7182582577109335,-0.7255453943580389,-2.469086513009667
1772547802183713500,6.690713623046875,2.7492326571673154,-0.30136253518760203,-2.337550090868771
1772547802193751600,6.70075146484375,3.0463568241328,0.563435262516141,-1.8157056066304444
1772547802203789600,6.71078955078125,2.8058316194847226,1.3671335716128348,-1.1604641670763491
1772547802213827300,6.720827392578125,1.8622823566272855,2.036132902884483,-0.22269874831736086
1772547802223865600,6.730865478515625,1.3853718236148356,2.4794243671506644,0.8127142669841647
1772547802233903400,6.7409033203125,1.331336282044649,2.3896850595146417,1.5565341537013648
1772547802243941600,6.750941650390625,1.3568456940934062,1.8103671682119369,2.138648689985275
1772547802253980400,6.76098046875,1.0966931211724877,0.9629524669855832,2.3429364600822327
1772547802264018400,6.771018310546875,0.928950244140625,0.13220423839986323,2.296556986223161
1772547802274056400,6.781056396484375,1.2853686038568615,-0.3744716105401516,2.1589301382526753
1772547802284094500,6.791094482421875,1.7552569831475615,-0.6196382112532853,1.7861244150981306
1772547802294132500,6.801132568359375,1.6959844177067278,-0.7205272739350795,1.1807213576853275
1772547802304170500,6.81117041015625,1.1955848725572227,-0.5781961937963962,0.5144561275526881
1772547802314208500,6.82120849609375,0.6324333954185247,-0.2108510741353035,0.09236556448638439
1772547802324246500,6.83124658203125,0.332787893281877,0.11886077270209788,0.028502748645842072
1772547802334284500,6.841284423828125,0.31377573429793115,0.2998737579345703,0.17288930000960825
1772547802344322600,6.851322509765625,0.3356009048759937,0.26984277680814267,0.3663669222787022
1772547802354360600,6.861360595703125,0.1264449442207813,0.05016016144156456,0.4828884383782744
1772547802364398600,6.871398681640625,-0.05346387916207313,-0.14635083717405795,0.394890713712573
1772547802374436400,6.881436279296875,-0.04581482571363449,-0.2573445297628641,0.08428104223012924
1772547802384474600,6.891474609375,0.22742753040492533,-0.30698212863504887,-0.39344606786221265
1772547802394512400,6.901512451171875,0.4347355251058936,-0.47642450306117534,-0.8360045416787266
1772547802404550700,6.911550537109375,0.43754853670001026,-0.7592594479113817,-1.143247074815631
1772547802414588400,6.92158837890625,0.30357874993234873,-1.006288335365057,-1.3168661504045127
1772547802424627500,6.93162744140625,0.24893676690161226,-1.1659300312668084,-1.3423077579140663
1772547802434665500,6.94166552734375,0.5152817647218704,-1.1675263605475426,-1.1652493555262684
1772547802444703500,6.951703369140625,0.465018727427721,-0.981345617288351,-0.7874415863007307
1772547802454741500,6.961741455078125,0.11545359460711478,-0.5492296270310878,-0.3485208844646811
1772547802464779300,6.971779296875,0.10722118831276893,0.1530675782084465,0.2523220254257321
1772547802474817500,6.981817626953125,0.38002602979689837,0.9240683173179626,1.0425172943487764
1772547802484855300,6.991855224609375,0.2478919340237975,1.87323074388206,2.207676633504033
1772547802494893600,7.0018935546875,-0.22187778732329605,2.9003865107089277,3.3143066268011925
1772547802504931300,7.011931396484375,-0.6433306370079517,3.6987837907880543,3.5991508656471964
1772547802514969300,7.02196923828125,-1.16989951941967,3.9680204183965917,3.1483827818900343
1772547802525007400,7.03200732421875,-2.7593273502022027,3.962462199747562,2.929935261276364
1772547802535045400,7.04204541015625,-3.008881372219324,3.7651591739714143,2.213083168722689
1772547802545083600,7.052083740234375,-1.9001459310755133,3.482307862508297,1.388668527072668
1772547802555121400,7.062121337890625,-1.7381746231824158,3.559835923346877,0.964295698288083
1772547802565159700,7.07215966796875,-2.04817785320431,3.721093237751722,0.9150514826476573
1772547802575197400,7.082197509765625,-2.088748640784621,3.629180093207955,1.0549801778197287
1772547802585235500,7.0922353515625,-1.5532804126024244,3.5928561494171616,1.0482631445243955
1772547802595274500,7.1022744140625,-0.411705654913187,3.52879664196074,0.8146449427857995
1772547802605312300,7.112312255859375,0.38310850598216056,3.103431295007467,0.4166606469720602
1772547802615350500,7.1223505859375,1.1221788600847125,2.3982179100602865,-0.3823340144783258
1772547802625388300,7.13238818359375,2.6050556569010017,1.3832698828995227,-1.4213473923593758
1772547802635426600,7.142426513671875,4.006918596589565,0.053286769029498096,-2.3273443386748434
1772547802645464300,7.15246435546875,4.813621932721138,-1.37167472217381,-3.0978464806124566
1772547802655502600,7.162502685546875,5.28128620622158,-2.8523516708582637,-3.8681291345804927
1772547802665540400,7.172540283203125,5.234582907235622,-4.348102270033955,-4.479971285130083
1772547802675578400,7.182578369140625,4.450404122123122,-5.349220509284734,-4.80929121004045
1772547802685616400,7.192616455078125,3.660398822814226,-5.346646274882555,-5.2092707713246345
1772547802695654400,7.202654296875,3.607359891065955,-4.188470511004328,-5.950255726876854
1772547802705692400,7.2126923828125,3.6004061264052987,-2.4931729065179824,-6.422661057424545
1772547802715730400,7.22273046875,3.473918804347515,-1.1229004523575306,-6.232283446997403
1772547802725768400,7.2327685546875,3.3390538223057984,-0.3195055101215839,-5.525567256271839
1772547802735806500,7.242806396484375,3.2976144351974126,-0.05359247397780418,-4.499207608258724
1772547802745844500,7.252844482421875,2.1947154451221227,-0.23241759377717972,-3.565813244190812
1772547802755882500,7.262882568359375,-3.323531843525171,-1.0577578258395195,-1.9562325599566102
1772547802765920500,7.27292041015625,-6.41550943210423,-2.3519845666736363,0.25447394276261326
1772547802775958500,7.28295849609375,-0.44641573376655574,-2.3967589434236287,1.476280759552121
1772547802785997300,7.292997314453125,5.660318256545066,-0.34676702653467656,1.278579382108152
1772547802796035600,7.30303564453125,4.840990416640043,1.3303133687376976,1.4508569799602031
1772547802806073300,7.3130732421875,-1.0003568994894623,3.6184704831451175,2.7870994464859367
1772547802816111600,7.323111572265625,-9.08811594570875,6.7545479102134705,5.37642006637752
1772547802826149400,7.3331494140625,-11.223465594148635,8.967325666248797,7.215821605893969
1772547802836187400,7.3431875,-6.364888667413592,7.909073919412493,5.095347455024719
1772547802846225400,7.353225341796875,-1.179265605919063,3.6991608074069022,0.38203123213946816
1772547802856263400,7.363263427734375,0.9192033416301012,0.7488976283729076,-2.276523082976043
1772547802866301400,7.373301513671875,1.2025342533037067,-0.7887561760306357,-3.9750507554247974
1772547802876339500,7.38333935546875,0.5461047730088233,-1.5697335347533226,-5.411661475628614
1772547802886377500,7.39337744140625,1.122535710698366,-2.0648791048973796,-6.106164665991067
1772547802896415500,7.40341552734375,2.5023463930547236,-2.601653154981136,-5.922666293683648
1772547802906453200,7.413453369140625,2.7990818529635666,-3.232314280030131,-5.301849101778864
1772547802916491500,7.423491455078125,1.8049618020370601,-3.504202298930287,-3.885322261443734
1772547802926529300,7.433529296875,0.5147615402400494,-2.8651591299831867,-1.2126226627282797
1772547802936567600,7.443567626953125,-0.7536994756966828,-1.612094420620799,1.7117006038852034
1772547802946605600,7.45360546875,-1.246118835747242,0.34532325746715065,3.8342026073202486
1772547802956643600,7.4636435546875,-0.3168669783115387,2.6343361119210718,4.717566866067052
1772547802966681600,7.473681640625,0.5512339525908232,4.0733565236151215,4.265232848167419
1772547802976719400,7.48371923828125,0.34595161849856376,3.6636359050393104,3.2134456211701035
1772547802986757600,7.493757568359375,-0.4322331868961453,1.8339578871577977,2.7087667912662026
1772547802996796400,7.50379638671875,-0.36824645241498943,-0.1512982304483652,2.4076946173273024
1772547803006834400,7.51383447265625,0.4083174737796187,-1.377247553870082,1.9417644741430877
1772547803016872400,7.52387255859375,1.2231456641778349,-1.8698761727571487,1.5732801213189958
1772547803026910500,7.533910400390625,1.7541174577236174,-1.6818518474578856,1.3381642283685504
1772547803036948500,7.543948486328125,2.0328236322060227,-1.1649527106672524,1.1297943035244942
1772547803046986500,7.553986572265625,1.7064298238754272,-0.4110480677872896,0.8964518499873578
1772547803057024500,7.5640244140625,1.0635558445937932,0.48993397297561164,0.5350789366036653
1772547803067062300,7.574062255859375,0.587468610662967,1.2126719086974858,0.14867168133705855
1772547803077100500,7.5841005859375,0.48971024722233414,1.418017955675721,-0.22045476878285405
1772547803087138300,7.59413818359375,0.6204343300670385,0.8521545892298221,-0.4888511461749673
1772547803097176600,7.604176513671875,0.6704204501159489,-0.16025836649537087,-0.4903263332940638
1772547803107218000,7.614218017578125,0.7141995322182774,-1.0579022027462721,-0.4109042754024267
1772547803117256200,7.624256103515625,0.6712354197606444,-1.507003230074048,-0.3345030266366899
1772547803127294000,7.6342939453125,0.28514088370501994,-1.53092712649703,-0.18662673346102238
1772547803137332200,7.644332275390625,-0.1291072952978313,-1.2224883693128823,-0.028703531914949416
1772547803147370000,7.654369873046875,-0.5438178311154246,-0.8624842600643634,0.2023039028033614
1772547803157408000,7.664407958984375,-0.8923132888779044,-0.5411959581792354,0.603934592295438
1772547803167446000,7.674446044921875,-1.0127221678048373,-0.31210195586681366,1.1421940586313604
1772547803177484000,7.684484130859375,-0.9760514564029872,-0.19091127891242504,1.730041293348372
1772547803187522000,7.69452197265625,-0.9699117846041917,-0.13688392064869404,2.152140039721131
1772547803197560000,7.70456005859375,-0.9248682355239987,-0.17308453032076357,2.1891148486360907
1772547803207598000,7.71459814453125,-0.8010565624162554,-0.23415070118010042,1.8392291055589913
1772547803217636000,7.724635986328125,-0.8042927678585052,0.017233458873629568,1.255083647969365
1772547803227675100,7.734675048828125,-0.6103676940828562,0.1972398974120617,0.7173980359986424
1772547803237713200,7.744713134765625,-0.20360577918216585,0.031816695499420164,0.3672993808232248
1772547803247751000,7.7547509765625,0.13799173576012252,-0.18414309995174408,0.04688230881467461
1772547803257789200,7.7647890625,0.3971887615218758,-0.3252718185633421,-0.33068098413050173
1772547803267827000,7.774826904296875,0.448065839061141,-0.29766309614777564,-0.6194011876270175
1772547803277865200,7.784865234375,0.3802688986420631,-0.15893033276200294,-0.7712858396612108
1772547803287903000,7.794903076171875,0.3665051617056131,-0.01784896042346954,-0.7031187507554888
1772547803297941200,7.804941162109375,0.3931974999286234,0.18489187249243258,-0.45598450323119755
1772547803307979000,7.81497900390625,0.43855274530649185,0.4175765927731991,-0.1345640993990004
1772547803318017000,7.82501708984375,0.4082689584627747,0.6392115112513304,0.04840075055360794
1772547803328055000,7.835054931640625,0.2207601814702153,0.6503448996841907,0.023179215535521505
1772547803338093000,7.845093017578125,0.07564794618040323,0.45519057637453075,-0.11621157336756587
1772547803348131000,7.855131103515625,0.08322481117546558,0.11264438240528106,-0.16506474386379122
1772547803358169000,7.865169189453125,0.11696399917006492,-0.1644616634041071,-0.0817667213216424
1772547803368207000,7.87520703125,-0.0028295243375003336,-0.2917570869743824,0.14174538920521734
1772547803378245000,7.8852451171875,-0.36704803641065953,-0.21645547001361845,0.4217787206381559
1772547803388283100,7.895283203125,-0.5780030093118548,-0.03648760991990566,0.3590452010884881
1772547803398321200,7.905321044921875,-0.5713362448990345,0.13022446275949479,0.08294014901518822
1772547803408359200,7.915359130859375,-0.5343412699788809,0.2812906380176544,-0.1649788191460073
1772547803418397200,7.925397216796875,-0.5664683466017246,0.30817572233378887,-0.26970789838209747
1772547803428435200,7.935435302734375,-0.6797837601363659,0.3179173641473055,-0.3237476777359843
1772547803438473000,7.945472900390625,-0.7411489139422774,0.3480453759074211,-0.4502032894812524
1772547803448511200,7.95551123046875,-0.5928242924772202,0.37293899414539333,-0.5546797091305256
1772547803458549000,7.965549072265625,-0.37672903407812114,0.3248743436783552,-0.6471767910420895
1772547803468587300,7.975587158203125,-0.1761813272923231,0.22467852395772933,-0.7780369213566184
1772547803478625000,7.985625,-0.14314400395676494,0.17840601760447025,-0.7973661834657192
1772547803488661000,7.995660888671875,-0.09224047680199146,0.20885726996958254,-0.7066187217004597
1772547803498699300,8.00569921875,0.1635895567446947,0.24437983424961565,-0.5944727903366088
1772547803508737000,8.015737060546876,0.3422653312012553,0.2858575075417757,-0.5417889556363225
1772547803518775000,8.025775146484374,0.3235837193459272,0.3750596395611763,-0.596257335665822
1772547803528813000,8.03581298828125,0.3045763826675713,0.4660848953545093,-0.6462723895482718
1772547803538851000,8.04585107421875,0.24512509965896606,0.5670780029326677,-0.6354845996826887
1772547803548889000,8.05588916015625,0.13552432273328305,0.6459574783802032,-0.5505355950631201
1772547803558927000,8.065927001953124,0.17847236083894966,0.7112251925826072,-0.38767493711486456
1772547803568965000,8.075965087890625,0.31378961669281125,0.7516244229882955,-0.26343334815725683
1772547803579004200,8.086004150390625,0.39842254110053177,0.7166665068536996,-0.2969385812655091
1772547803589042200,8.096042236328126,0.3815226980954408,0.6346235989391803,-0.38156200719252226
1772547803599080200,8.106080078125,0.2609428465157747,0.5427408495336771,-0.39541809858754273
1772547803609118000,8.116117919921875,0.039323710128664965,0.4817781390488147,-0.40528190547600385
1772547803619156200,8.12615625,-0.13593977166637777,0.5074544320970773,-0.48163142405450343
1772547803629194000,8.136194091796876,-0.2429050855219364,0.6263239726275205,-0.6496585248552262
1772547803639232300,8.146232177734374,-0.25634923511520025,0.7421253577589988,-0.8414173605076968
1772547803649270000,8.15627001953125,-0.23784414887055752,0.6946323697000741,-0.9655101886443793
1772547803659308300,8.166308349609375,-0.286650557615608,0.49041503449082374,-1.0137412817195057
1772547803669346000,8.176345947265625,-0.4948427878051996,0.30484336304068566,-1.0316606770306824
1772547803679384000,8.186384033203124,-0.6711952338807284,0.2628752758830786,-1.0282472153253852
1772547803689422000,8.196422119140625,-0.7855337068527937,0.33440146595835685,-0.9289609116651117
1772547803699460000,8.206460205078125,-0.8666448868751525,0.46496261332631106,-0.8493819096460938
1772547803709498000,8.216498046875,-0.796508689853549,0.5086258139640093,-0.7895514180615544
1772547803719536000,8.2265361328125,-0.6396947647236287,0.3918021000474691,-0.7491659239202737
1772547803729574100,8.23657421875,-0.4721839428819716,0.2289151386141777,-0.7703744239047169
1772547803739612200,8.246612060546875,-0.34941198808550833,0.05143734177052974,-0.7965097127668559
1772547803749650000,8.25664990234375,-0.2832422104768455,-0.13026187216043472,-0.7787949001170694
1772547803759688200,8.266688232421876,-0.16363047327697275,-0.26970833677351475,-0.767677439905703
1772547803769726000,8.276725830078124,0.12161635502055286,-0.4310515758961439,-0.6931326326616108
1772547803779764200,8.28676416015625,0.2639427589841187,-0.6182242528021336,-0.5500096714928746
1772547803789802000,8.296802001953125,0.3601835574686527,-0.6581050122916698,-0.310400412645936
1772547803799842000,8.306842041015624,0.4344399031601846,-0.5564344438433647,-0.025115882686525582
1772547803809880000,8.316880126953125,0.49945598068907854,-0.4094406325906515,0.18149638483524322
1772547803819918000,8.32691796875,0.5750508815079927,-0.33658933139145375,0.2676839913390577
1772547803829957000,8.33695703125,0.5067385389126837,-0.3113023299217224,0.32322058512195945
1772547803839995100,8.3469951171875,0.4023129726678133,-0.23970132104456424,0.24801468362063167
1772547803850033200,8.357033203125,0.314852131357789,-0.18664836077094077,0.13577216001451015
1772547803860071200,8.3670712890625,0.3235685948420316,-0.08580489079654216,0.05235664857253432
1772547803870109200,8.377109130859376,0.46350773834288117,0.0784223793298006,-0.05601312525346875
1772547803880147000,8.38714697265625,0.6739905636876821,0.21306115140020845,-0.2037916571430862
1772547803890185200,8.397185302734375,0.7737876664143055,0.3564227436304092,-0.4135628270871937
1772547803900223000,8.407222900390625,0.6517431491095572,0.45966158430874343,-0.6191457515612244
1772547803910261200,8.41726123046875,0.4066296668231487,0.5990910977870225,-0.7945936500124633
1772547803920299000,8.427299072265624,0.16427699101958423,0.7858499331951141,-0.7829511430136858
1772547803930337300,8.437337158203125,0.05169398341272026,1.0113356818825006,-0.6069849197767675
1772547803940375000,8.447375,-0.05533723528590053,1.1641542537659406,-0.416209688334167
1772547803950413000,8.4574130859375,-0.2703676774650812,1.1799965505421162,-0.22334669083207845
1772547803960451000,8.467451171875,-0.5101771715918556,0.8551344818234443,-0.19492723655551672
1772547803970489000,8.477489013671875,-0.44515608909428117,0.3775584706395864,-0.26451149878278374
1772547803980527000,8.487527099609375,-0.24291675769342108,0.41591596608459946,-0.15755276079848407
1772547803990565000,8.497565185546875,-0.2555611717437394,0.016669395250082014,-0.2823734648182988
1772547804000603100,8.50760302734375,-0.1595896734535694,-0.5566834501683712,-0.535214691812545
1772547804010641200,8.51764111328125,0.14102233562767505,-0.7869593557417393,-0.5986550444573163
1772547804020679000,8.527678955078125,0.5464134005665778,-0.8331208029359578,-0.46994252063073216
1772547804030717200,8.53771728515625,0.7822182986944913,-0.7773527384847402,-0.2512334995366633
1772547804040755000,8.5477548828125,0.8323965803146361,-0.3408136710882187,0.12734138160385192
1772547804050793200,8.557793212890624,0.829075326937437,0.01728255871236324,0.5271193559013306
1772547804060831000,8.5678310546875,0.8885901767015456,0.22967677063643932,0.8726900122582912
1772547804070869200,8.577869140625,0.946775823688507,0.3792249425470829,1.2293079861998557
1772547804080907000,8.587906982421876,0.8589151694059372,0.3345873439192772,1.5698118606865405
1772547804090945000,8.597945068359374,0.7449871769309043,0.011039864930510521,1.8297019832789896
1772547804100983000,8.607983154296875,0.4861456866085529,-0.5122814138621091,1.888625881412625
1772547804111018000,8.61801806640625,0.1645429119467735,-0.9097504536300897,1.8221324248075483
1772547804121055700,8.6280556640625,-0.14208218341153114,-1.1214216119766234,1.6927824067950248
1772547804131093800,8.63809375,-0.3613349925260991,-1.2003782443135975,1.6486679552584886
1772547804141131800,8.6481318359375,-0.4541255044262856,-1.0471879165083169,1.692505197288841
1772547804151169800,8.658169677734374,-0.4895276571970433,-0.886038154131174,1.767677634911984
1772547804161207800,8.668207763671875,-0.48057511993460356,-0.910354264742136,1.7764596379131077
1772547804171245800,8.678245849609375,-0.4726666118323803,-1.0105109214961527,1.7004235691979526
1772547804181283800,8.688283935546876,-0.438081474532932,-0.9850158302336931,1.5585684360079466
1772547804191321900,8.69832177734375,-0.3361843307871371,-0.7116951481819153,1.384390119101107
1772547804201361000,8.70836083984375,-0.16781506548523903,-0.29144962846040723,1.1928694761186838
1772547804211399000,8.71839892578125,-0.09404964511580764,0.005199906730651855,1.0184924948345868
1772547804221436700,8.728436767578126,-0.21756028945036232,0.10468611687719821,0.853408096422255
1772547804231475000,8.738474853515624,-0.40302075561098755,0.1345978555381298,0.8372088759671896
1772547804241512700,8.7485126953125,-0.6623509792983532,0.16403145529329777,0.9313025063551962
1772547804251551000,8.758551025390625,-0.8852057218950241,-0.11624269915819167,0.8906416293386369
1772547804261588700,8.768588623046876,-0.870454873617366,-0.3778787886351347,0.7899323071379214
1772547804271627000,8.778626953125,-0.6092449005980044,-0.3666179744303226,0.7537712988238782
1772547804281664800,8.788664794921875,-0.22026081711333242,-0.3814630768626928,0.7187506927166134
1772547804291702800,8.798702880859375,0.19406473797466606,-0.3524146770328283,0.5670691620390862
1772547804301740800,8.80874072265625,0.5244155037701129,-0.23692367302477357,0.38621728565245866
1772547804311778800,8.81877880859375,0.8458803312659263,0.12174246561825275,0.3498147967327386
1772547804321816800,8.82881689453125,1.2037445058763026,0.5129302331596612,0.3080735040683299
1772547804331854800,8.838854736328125,1.576789883005619,0.6382827059686184,0.1787513239108026
1772547804341892900,8.848892822265626,1.7965221827328204,0.33590777886807915,-0.16458711641468107
1772547804351931000,8.858930908203124,1.9911656339108943,-0.13651216472685337,-0.7518859965339303
1772547804361968600,8.86896875,2.3113152871549127,-0.355360082834959,-1.298886403208226
1772547804372007000,8.8790068359375,2.481761870187521,-0.44145781909823417,-1.5959686307281256
1772547804382044700,8.889044677734375,2.597116096073389,-0.4293652302443981,-1.6286840286329387
1772547804392083000,8.8990830078125,2.45921569185853,-0.3633849838584661,-1.3264099315583706
1772547804402120700,8.90912060546875,2.186314112001657,-0.44147067857980726,-0.9035426119659096
1772547804412158700,8.91915869140625,1.8429367279052733,-0.4482750978976488,-0.45701713421456513
1772547804422197000,8.929197021484375,1.4971546207547186,-0.32923370793163775,-0.0785991972014308
1772547804432234800,8.93923486328125,1.2670336134821176,-0.11267886919677257,0.24003676354400813
1772547804442273000,8.94927294921875,1.2443874819099903,0.14303893614709376,0.44547808759026225
1772547804452310800,8.959310791015625,1.3437521115034818,0.420538365188241,0.5662571880690753
1772547804462349000,8.96934912109375,1.5132143596738576,0.624362901687622,0.608721095919609
1772547804472386800,8.97938671875,1.8557289894610642,0.5743558849811553,0.5696649506859481
1772547804482424800,8.9894248046875,2.2680226733952757,0.40312019739747046,0.45038302996233104
1772547804492462800,8.999462890625,2.5500632529973983,0.4736117837280035,0.2274865671157837
1772547804502500900,9.0095009765625,2.597645088383555,0.8813736694514751,0.022454992914199827
1772547804512539000,9.019538818359376,2.4957798741459847,1.32077864767313,-0.22872356156483292
1772547804522577000,9.029576904296874,2.0862048015207053,1.5693290456056594,-0.4515045813381672
1772547804532615000,9.039614990234375,1.2477946600049734,1.6761451602488755,-0.6399266737833619
1772547804542653000,9.04965283203125,-0.012311200040578842,1.6473919439733027,-1.1607434224091469
1772547804552690700,9.059690673828126,-1.750373010498285,1.4820225180745124,-2.155530120550841
1772547804562729000,9.06972900390625,-2.997165215462446,1.4961381371885538,-3.1084117137685414
1772547804572766700,9.0797666015625,-3.1489690573453903,1.7388801411032675,-3.731078625193238
1772547804582805000,9.089804931640625,-2.1512334462702274,1.9241151279449462,-3.9394542491257187
1772547804592842800,9.0998427734375,-0.404251247254014,1.6796768415063619,-3.8246643791243433
1772547804602881800,9.1098818359375,1.2393144164294003,1.5131033005148171,-3.645814124883711
1772547804612919800,9.119919921875,1.9291558985911308,1.6573118649631737,-3.714981476873159
1772547804622957800,9.129957763671875,1.5759347274810074,2.092888809329271,-3.9559851126879453
1772547804632995800,9.139995849609376,0.35856107083335514,2.879259551528096,-4.217593729636073
1772547804643033900,9.150033935546874,-1.2915126595698296,3.3255075275123116,-4.7098652056485415
1772547804653072000,9.16007177734375,-2.333903404929489,3.508424885061383,-4.331219524294138
1772547804663110000,9.17010986328125,-2.2634547809578476,2.3844465743392704,-3.1130338206112382
1772547804673148000,9.18014794921875,-1.6512426280520855,0.07705226002037524,-1.61054426856935
1772547804683186000,9.19018603515625,-1.0497281025104224,-1.485918940991163,-0.4045427775464952
1772547804693224000,9.200223876953125,-0.5693406871676445,-2.5661346823543307,0.5209424208320677
1772547804703262000,9.210261962890625,-0.34741920683309435,-3.325104207408428,1.426813256549835
1772547804713299700,9.2202998046875,-0.7558395564652979,-3.7049440669834612,2.4537337533161043
1772547804723338000,9.230337890625,-1.5785973708190022,-3.6177374926954506,3.5582612213760614
1772547804733375700,9.240375732421874,-3.1978596372425554,-2.8500281963467597,4.918530167916416
1772547804743414000,9.2504140625,-4.825595279109478,-1.7753665819793938,6.153471776089072
1772547804753451800,9.26045166015625,-6.189347391590475,-0.6444669475615025,7.34614660641849
1772547804763489800,9.27048974609375,-6.464655448067188,0.043294951847195624,8.470349958068132
1772547804773527800,9.28052783203125,-5.163638316440582,0.3049538376778364,9.336402139747142
1772547804783565800,9.29056591796875,-1.7968202888965605,0.4530412893861532,9.146573395374416
1772547804793603800,9.300603759765625,2.568055421283841,1.0469646291464567,7.628692212933301
1772547804803641900,9.310641845703126,5.416793577820062,0.8537292912006378,5.115444486635923
1772547804813679900,9.320679931640624,5.854333931213617,-0.032928456133604046,2.3072665962859986
1772547804823718000,9.3307177734375,4.480801306213438,-1.3430050925284622,-0.1286159681169316
1772547804833755600,9.340755615234375,2.587361594778299,-3.046255701845884,-2.268305581989884
1772547804843794000,9.3507939453125,1.227537469395995,-4.336907506802678,-3.932782808537781
1772547804853831700,9.360831787109374,0.7843304685428738,-5.090173851779103,-5.237841616770625
1772547804863870000,9.370869873046875,1.1707665115125476,-5.472237232622504,-6.235020178484916
1772547804873907700,9.38090771484375,2.0505378603339195,-5.355676553556322,-6.597897212821245
1772547804883946000,9.390946044921876,3.474987310361862,-5.3333162531882525,-6.801904704672098
1772547804893983700,9.400983642578124,4.4900656859040255,-4.916460375905037,-6.6647092338562
1772547804904021800,9.411021728515625,4.775933714839816,-4.288316786634922,-6.4184641902565955
1772547804914059800,9.421059814453125,4.756330896486341,-3.7012545648157595,-6.312144334697723
1772547804924097800,9.431097900390625,4.108564615118503,-3.2120296168923375,-6.206114986518025
1772547804934135800,9.4411357421875,3.5028120136156677,-1.9190753802120684,-5.275440402802825
1772547804944173800,9.451173828125,2.2777117082387206,-0.17117255921959876,-3.4664264027655123
1772547804954211800,9.4612119140625,0.07589271472170948,1.2514584432095288,-1.8064130237586795
1772547804964249900,9.471249755859375,-3.4117139848470686,2.467873045566678,-0.07730129374484532
1772547804974288000,9.481287841796876,-7.7804358490616075,3.5207051054418086,2.174302771690488
1772547804984326000,9.491325927734374,-9.757594584929942,3.6410499792218207,3.8768651064828035
1772547804994364000,9.501364013671875,-8.190933881750702,2.793377503842115,4.271529317963123
1772547805004402000,9.51140185546875,-5.566909905007481,3.251350404411554,3.853034733562171
1772547805014440000,9.52143994140625,-3.671665482237935,4.681552134355902,2.8600100766569376
1772547805024478000,9.53147802734375,-3.017967180472612,6.136352883505821,2.6315637245982884
1772547805034516700,9.541516845703125,-3.4787048695802687,6.987008758610487,3.703763917288184
1772547805044555000,9.551554931640625,-4.63218984529376,5.651050661984086,5.18091269184649
1772547805054592800,9.5615927734375,-5.474890962001681,2.843400887161493,5.879647236168384
1772547805064630800,9.571630859375,-5.36332794509232,0.6295926190346479,5.775298972943425
1772547805074668800,9.581668701171875,-4.468315041866898,-0.7626105119049549,5.488068423482775
1772547805084706800,9.591706787109375,-2.9652427215009927,-1.813992372971773,4.881496322290599
1772547805094744800,9.601744873046876,-1.2727525756508111,-2.6835820811271667,3.872905555202067
1772547805104782800,9.611782958984374,0.2214069549411535,-2.920825487625599,2.688044321233034
1772547805114820900,9.62182080078125,1.418316646361351,-2.570438517028093,1.6554226902157068
1772547805124859000,9.63185888671875,2.1546984920322894,-1.6883038000762463,0.8101594679348171
1772547805134896600,9.641896728515626,2.447618339175731,-0.6866805339127778,0.034038828528299925
1772547805144935000,9.651934814453124,2.3179963723540307,0.26376316463351246,-0.4522165289998054
1772547805154972700,9.66197265625,1.921784054648876,0.7911012778520584,-0.8650793180588632
1772547805165011000,9.672010986328125,1.640658836326003,0.6961532956570387,-1.2859914119303226
1772547805175048700,9.682048583984376,1.6213713675320147,0.4339174867212772,-1.586851258292794
1772547805185086700,9.692086669921874,1.764770953685045,0.22547581181526183,-1.740615586593747
1772547805195125000,9.702125,1.8064631465107202,0.031684009030461306,-1.728567713664472
1772547805205162800,9.712162841796875,1.757220099914074,-0.0404115053653717,-1.5509576687432824
1772547805215201000,9.722200927734375,1.6370862385362386,0.07529869435131549,-1.3325466807477175
1772547805225238800,9.73223876953125,1.477344004869461,0.26983693158924577,-1.158410303286463
1772547805235277000,9.742277099609375,1.4179133262574672,0.5617535930395126,-0.8841222375072538
1772547805245314800,9.752314697265625,1.2310182972490786,0.927387232607603,-0.5745186012621969
1772547805255352800,9.762352783203125,0.5374094253778458,1.27933838378191,-0.17148938835011796
1772547805265390800,9.772390869140626,-0.7278022333741188,1.9139953004688024,0.3588352115996182
1772547805275428900,9.782428955078124,-2.5061060378491877,2.7514854045301673,0.8459895637940615
1772547805285467000,9.792466796875,-4.583170670580864,2.9813907232254744,0.8383767507027834
1772547805295505000,9.8025048828125,-5.916119063997268,2.0624849032372237,0.36331173595916477
1772547805305543000,9.81254296875,-5.291701217252016,0.8696464067786931,-0.052312421271740454
1772547805315581000,9.822580810546874,-3.245770558452606,0.2437497196525335,-0.2718140951474197
1772547805325618700,9.83261865234375,-1.1279121430397032,0.0028057050704956054,-0.33691359490975736
1772547805335657000,9.842656982421875,0.1583434362521395,-0.4085065666109323,-0.3665077555214986
1772547805345694700,9.85269482421875,0.7384381936788559,-1.0440233149975537,-0.39551070877443995
1772547805355733000,9.86273291015625,1.0335445910811423,-1.5389052657693623,-0.37123894876185803
1772547805365770800,9.872770751953125,1.4489748194754122,-1.6959727272689342,-0.23532385487901045
1772547805375809000,9.88280908203125,1.9763421587884424,-1.690197066476941,0.036505182109214364
1772547805385846800,9.8928466796875,2.471252166610956,-1.3159534194737672,0.5215732660815119
1772547805395884800,9.902884765625,2.9167981318056584,-0.47749125550985333,1.165386060583219
1772547805405922800,9.9129228515625,3.2996541243314743,0.4635451477438211,1.948404935070872
1772547805415960800,9.9229609375,3.554539570504427,0.8665046016216278,2.829289067439735
1772547805425998800,9.932998779296875,3.605520400679111,0.706579997125268,3.6005174778252838
1772547805436036900,9.943036865234374,3.456448614108562,0.5067851545333862,4.283813045474886
1772547805446074600,9.95307470703125,3.1940356950402258,0.1017851347386837,4.68102635691613
1772547805456113000,9.96311279296875,2.724619024914503,-0.34776305183470246,4.547180781050026
1772547805466150700,9.973150634765625,2.0081857422947884,-0.8927461273372173,3.7805399907156825
1772547805476189000,9.98318896484375,1.2875567615509032,-1.3486170871913432,2.6537825706690548
1772547805486226700,9.993226806640624,0.7668623241305351,-1.4170727837800978,1.5965537371397018
1772547805496265000,10.003264892578125,0.38207273319363594,-1.227436931630969,0.6266637259759008
1772547805506302700,10.013302734375,-0.006364237802289426,-0.935830066782236,-0.26438681295718997
1772547805516340700,10.0233408203125,-0.4665524398010224,-0.533278024661541,-1.0356224202685058
1772547805526378800,10.033378662109374,-0.9221697902202606,-0.060875616723299025,-1.669000403060764
1772547805536416800,10.043416748046875,-1.2739116825580596,0.4163070112287998,-2.0328502279520033
1772547805546454800,10.053454833984375,-1.359725341182947,0.888686622813344,-2.1266262437582015
1772547805556493800,10.063493896484376,-1.1181564727008342,1.2045938161820173,-1.9376772048294544
1772547805566530800,10.07353076171875,-0.651360798728466,1.1508218939840793,-1.4895333320960402
1772547805576569900,10.08356982421875,-0.062056350940465924,0.8649871827960014,-0.8954466915328055
1772547805586607900,10.09360791015625,0.47336336192488665,0.479095768097043,-0.269133130701445
1772547805596646000,10.10364599609375,0.8823036437779664,-0.09955810633897781,0.324385610313341
1772547805606683600,10.11368359375,1.2355302217155695,-0.7582184144258499,0.8846082674585283
1772547805616722000,10.123721923828125,1.681647849318385,-1.2333867799460887,1.4484119248956442
1772547805626759700,10.133759765625,2.2692232813566924,-1.0629442885667084,2.038408738861978
1772547805636798000,10.1437978515625,2.902997569990158,-0.07726561051011085,2.702498670782149
1772547805646835700,10.153835693359374,3.310345029693842,0.9744593649059533,3.2802889141261575
1772547805656874000,10.1638740234375,3.246421715837717,1.6778192309409379,3.7735456017836926
1772547805666911700,10.173911865234375,2.7154011147141457,2.122886472707987,4.147440581479668
1772547805676949800,10.18394970703125,1.6626403665095566,1.9488895037174223,3.895838979282975
1772547805686987800,10.19398779296875,-0.6730594203174114,1.34373691393435,2.6905142184779045
1772547805697025800,10.20402587890625,-4.627411378845572,1.152027178120613,0.8823950483884662
1772547805707063800,10.214063720703125,-8.953900952008366,1.7107506096839904,-0.9471176228635012
1772547805717101800,10.224101806640626,-11.670284648019075,2.4105308636665344,-2.1664948744185266
1772547805727139800,10.234139892578124,-11.548948425114155,3.169799663928151,-2.7109271841704845
1772547805737177900,10.244177734375,-7.78597127135694,3.4794700087338684,-2.4999124439060685
1772547805747216000,10.2542158203125,-2.5430174261391163,3.2342811961889266,-1.7376650662250817
1772547805757254000,10.26425390625,1.622360524699837,2.5423008023023606,-1.008228071255982
1772547805767292000,10.2742919921875,3.91923563696146,1.4610703309386968,-0.6342167717039585
1772547805777330000,10.284329833984375,4.773700256699323,-0.1731885752171278,-0.5656632772965356
1772547805787368000,10.294367919921875,4.738745847696066,-2.093224909415841,-0.6672785718936473
1772547805797406000,10.304406005859375,4.911268067958951,-3.4302865833699703,-0.9507086330927907
1772547805807444000,10.31444384765625,5.289400539094209,-4.341215433129668,-1.2183796918850391
1772547805817481700,10.324481689453124,5.850723924022913,-5.382019201558828,-1.6897062142200767
1772547805827520000,10.33452001953125,6.528127511024475,-6.273773395249247,-2.3448420014426112
1772547805837557800,10.344557861328125,7.028545468613505,-6.744475429010391,-3.0092770935386417
1772547805847596000,10.354595947265626,7.157882042622566,-6.783800892704725,-3.8198245378777385
1772547805857633800,10.3646337890625,6.511963142687082,-6.427776793003082,-4.631495141027868
1772547805867671800,10.374671875,4.988171274897456,-5.8656742403954265,-5.5099073303252455
1772547805877709800,10.384709716796875,2.4867665466070172,-4.833866848370433,-6.0358905218034975
1772547805887747800,10.394747802734376,-0.6455600034952164,-3.0047996558636427,-6.035467912477254
1772547805897785900,10.404785888671874,-3.4270910021990537,0.7655500724881887,-4.692242747457326
1772547805907823900,10.414823974609375,-6.121627023538947,5.98310585707724,-2.0127352222926915
1772547805917862000,10.42486181640625,-16.108860969704388,12.008691257965564,5.295410593163967
1772547805927900000,10.43489990234375,-17.18787668762803,15.26676950932741,9.168709239336847
1772547805937937700,10.444937744140624,-9.643744333866238,15.4944711804986,5.247606639459729
1772547805947976000,10.454975830078125,-5.97639320769608,14.319922373968362,4.854828095595538
1772547805958013700,10.465013671875,-2.65157249340415,9.342924234992266,4.515440073396265
1772547805968052000,10.475052001953125,-0.02409925298988819,3.1214281394690273,3.281509688092768
1772547805978089700,10.48508984375,1.211509952246025,-0.3720926064491272,2.151256096493453
1772547805988128000,10.4951279296875,2.130363092198968,-2.991020136836171,1.0243559800405055
1772547805998165800,10.505165771484375,3.2427930039465425,-5.0654871542900795,0.036391236873343585
1772547806008203800,10.515203857421875,4.029634286266565,-6.05785626989603,-0.629876842803508
1772547806018241800,10.52524169921875,4.304285924661159,-6.258705005455017,-0.9673102238036692
1772547806028279800,10.53527978515625,4.604615025147796,-6.052808338856697,-1.1660455474052578
1772547806038317800,10.54531787109375,4.888202249670028,-5.2128503833770745,-1.3048697154015303
1772547806048355800,10.55535595703125,4.742773203516006,-3.681497724944353,-1.1161495167925952
1772547806058393900,10.565393798828126,4.63569522306621,-2.081381911408901,-0.9226816852651536
1772547806068432000,10.575431884765624,4.663339016795158,-0.5564075558364391,-0.9017609892461448
1772547806078469600,10.5854697265625,4.570736720943451,0.756511610507965,-0.9265226516675203
1772547806088508000,10.5955078125,4.17199926867485,1.9109639699488876,-0.8497147948622703
1772547806098545700,10.605545654296876,3.3628198978185653,2.454696753129363,-0.6610792057968675
1772547806108583000,10.6155830078125,2.4934715972036123,2.1605326050132514,-0.3233966723412275
1772547806118621200,10.62562109375,1.464853941130638,1.4234592699468136,0.23515498285181818
1772547806128659000,10.635658935546875,0.2820534756163135,0.629027386367321,0.9198553757980465
1772547806138697000,10.645697021484375,-0.9924205535322427,0.023496026399731636,1.6725941897690295
1772547806148735000,10.65573486328125,-2.1609107906758784,-0.4510568375706672,2.1450134027116
1772547806158773000,10.66577294921875,-3.9502047757208345,-0.5299971032947302,2.3920064881995318
1772547806168811000,10.67581103515625,-9.088644353497028,0.019421908828616143,2.962629324132204
1772547806178849000,10.68584912109375,-11.906062073618173,0.7104787581294775,2.6916519903361795
1772547806188887000,10.695886962890626,-8.308173190730809,0.07553191858530044,1.6670019227199255
1772547806198925000,10.705925048828124,-3.300691066163778,-0.9500795414090156,1.0913713416278361
1772547806208962800,10.715962890625,-0.3921341084808111,-1.2261316942512988,0.2882131307572126
1772547806219001000,10.7260009765625,1.3900439070791006,-1.450049755230546,-0.6375506653670221
1772547806229038800,10.736038818359376,2.772646265980601,-1.83787009216547,-1.3016450542666018
1772547806239077000,10.7460771484375,3.8596938991904257,-2.183745138296485,-1.898292704424262
1772547806249115000,10.756114990234375,4.722970186415314,-1.964619572290778,-2.5504224416986108
1772547806259153000,10.76615283203125,5.210492422074079,-0.505634815454483,-3.0391137211367485
1772547806269191000,10.77619091796875,5.023989607253671,1.866977528706193,-2.703007204826176
1772547806279229000,10.78622900390625,4.0920974644422525,3.6605268331080674,-1.6401739754185078
1772547806289268000,10.79626806640625,1.9961814162462947,3.486674825546145,-0.1722737619271502
1772547806299305000,10.806304931640625,-1.1434434741705655,2.5688544627070424,1.4860091034926473
1772547806309344000,10.816343994140626,-6.414395333382487,1.2063427056759595,3.9143221459567545
1772547806319382000,10.826382080078124,-11.734875485873221,-0.7306377490609883,5.519121148872375
1772547806329420000,10.836419921875,-12.470450691336392,-1.4948767389506101,4.300468704460561
1772547806339458000,10.8464580078125,-7.434486568650603,-1.6546429380148648,2.9227020951524376
1772547806349495800,10.856495849609376,-0.355092517939955,-1.3236235157102345,1.6598074811711907
1772547806359534000,10.8665341796875,4.300210053524375,-1.3011480645298956,0.4130414700942114
1772547806369571800,10.87657177734375,5.7784980612456796,-1.6976415372639893,-0.5312510854111984
1772547806379610000,10.886610107421875,4.5190310836255545,-1.9919033005356788,-1.119371474513784
1772547806389648000,10.89664794921875,1.6379156750977037,-1.6567694286495447,-1.0409054021727293
1772547806399686100,10.90668603515625,-0.8591254511557519,-1.2623287967920302,-0.8567882403798401
1772547806409724000,10.916723876953125,-2.5772137102514505,-1.1062906783401965,-0.919940789059177
1772547806419762000,10.926761962890625,-2.590068223388493,-0.6647492726117372,-0.704782007792592
1772547806429800000,10.936800048828125,-0.5244771708294749,-0.24042905079722404,-0.10311426445059478
1772547806439838000,10.946837890625,2.2452070304751395,-0.04470949482023716,0.13879801064170896
1772547806449876000,10.9568759765625,3.06619111315459,-0.21465981876850126,-0.05013999543637037
1772547806459914000,10.9669140625,1.8072668641090393,-0.5043985516577959,-0.1703727871440351
1772547806469952000,10.976951904296875,-0.29149229855835435,-0.7665133645623922,0.13038447562679648
1772547806479990000,10.986989990234376,-1.177180616338551,-0.8275158225357532,0.2861047603011131
1772547806490028000,10.997028076171874,-0.21681612001955508,-0.7413760006964206,0.11260682687386869
1772547806500066000,11.007066162109375,0.8996174744114279,-0.734851567363739,-0.3357601870909333
1772547806510104000,11.01710400390625,1.3573089276909827,-1.1735726549744605,-0.7999655523091554
1772547806520142000,11.02714208984375,1.2001973347887396,-1.8290607627660036,-0.9277902604505419
1772547806530180000,11.03718017578125,1.2059171737402676,-2.2719155891805887,-0.5561904059544205
1772547806540218000,11.047218017578125,1.1893950780063867,-2.412857260787487,0.23658245837166905
1772547806550256000,11.057256103515625,1.0061848749905824,-2.3012591725647447,0.9471782670095562
1772547806560294000,11.0672939453125,0.9457380050733685,-1.6625217085659503,1.9218784549340604
1772547806570332200,11.077332275390624,0.3193272309452295,-0.8892734827905893,2.539670161537826
1772547806580370000,11.087369873046875,0.13817834437340498,-0.016335633251070975,2.7558289866924284
1772547806590408200,11.097408203125,0.4166717528879642,1.1232932510673999,2.0898495877638457
1772547806600446000,11.107446044921875,0.4214256694167852,1.8386615348041055,1.0634247655600308
1772547806610484200,11.117484130859374,0.49095980889201163,1.8768331522881985,0.2671130595833063
1772547806620522000,11.12752197265625,0.5046218390196562,1.7738135073184966,-0.048296413396298886
1772547806630560000,11.13756005859375,0.7757476413756609,1.4226181429475544,-0.4548863327309489
1772547806640598000,11.147597900390625,0.14958645809441803,1.0510685573339462,-1.316757429333031
1772547806650636000,11.157635986328126,0.12105039170086383,0.8887181869953871,-1.7506275697812437
1772547806660674000,11.167674072265624,0.38404432552754875,0.4930336925566196,-1.670126046089828
1772547806670712000,11.177712158203125,-0.213634567373991,0.13303250591754912,-1.4041484202772379
1772547806680749800,11.187749755859375,-0.6647510261774062,0.0680395170032978,-1.1949889524906874
1772547806690788000,11.1977880859375,-0.7887403939396143,0.0512561399847269,-0.9399068147018551
1772547806700825900,11.207825927734374,-0.5130523982346058,0.14065233327150345,-0.7840814622178673
1772547806710864100,11.217864013671875,-0.39407179854512214,0.06043254913091659,-0.7250988196343183
1772547806720902000,11.22790185546875,0.10648118360042572,-0.1046434467792511,-0.2613429517492652
1772547806730940200,11.237940185546876,-0.05966448736786842,-0.2813414914220571,0.4182534691214561
1772547806740978000,11.24797802734375,-0.7173071428447961,-0.13096096034049987,0.8679907485261559
1772547806751016000,11.258015869140625,-0.38499066646695135,0.15429916583001613,0.922411490021646
1772547806761054000,11.268053955078125,-0.050347208446264266,0.2283563356876373,0.7826967298611998
1772547806771092000,11.278092041015626,-0.11562485952079296,0.36848318378031253,0.6366913451239467
1772547806781130000,11.2881298828125,0.1615846466630697,0.6166881292760372,0.38335546648055313
1772547806791168000,11.29816796875,0.17825754904448984,0.5794616836875677,0.120561439140141
1772547806801206000,11.3082060546875,0.8995768501400947,0.27578970251381396,0.24141338565945625
1772547806811244000,11.318244140625,1.0561018753260374,0.11465747579336166,0.30202216814011335
1772547806821281800,11.32828173828125,0.9506424359887837,-0.04632335975766182,0.4913268886387348
1772547806831320000,11.338320068359375,1.0751695638895034,-0.14537117848694323,0.7676356465905905
1772547806841357800,11.34835791015625,0.244008078327775,-0.18077976099848747,1.1961223404347896
1772547806851396000,11.35839599609375,-0.008423544952273368,-0.16054536674320696,1.7662980171218514
1772547806861433900,11.368433837890626,0.13683189820051192,0.04324877461791038,1.2642740856409072
1772547806871472000,11.37847216796875,-0.10186112258434295,-0.002573065358400345,0.9806851075530052
1772547806881510100,11.38851025390625,0.5912111581921577,-0.18620938483178615,0.6897589184448123
1772547806891548000,11.3985478515625,-0.07767652939856053,-0.1834574557751417,0.3497480881720781
1772547806901586200,11.408586181640626,0.044485622936487196,0.23229601322412488,-0.033820436537265776
1772547806911624000,11.4186240234375,-0.2774269483268261,0.5757756886512041,-0.5881476789683103
1772547806921662200,11.428662109375,-0.283303731405735,0.7558207056343555,-0.7166223754510284
1772547806931700000,11.438699951171875,-0.2443693128556013,0.9997627329885959,-0.6266384454041719
1772547806941738000,11.448738037109376,-0.22557518053650855,1.189787876716256,-0.4836275663077831
1772547806951776000,11.45877587890625,0.11098901641368865,1.0935393333166836,-0.3481432833239436
1772547806961814000,11.46881396484375,-0.43903439134359357,0.9291630101084709,0.18052783206403256
1772547806971852000,11.47885205078125,-0.5754986252754927,0.6855898160666227,0.18913199428021907
1772547806981890000,11.48889013671875,-0.9497223985344171,1.225403964498639,-0.38412119015604257
1772547806991928000,11.498927978515624,-0.499383353844285,1.323885966038704,-0.6604983371689915
1772547807001966000,11.508966064453125,0.05383388151824474,1.0836553604230283,-0.7066761509761214
1772547807012003800,11.51900390625,0.028525837260484695,0.8370733399540186,-0.48426294160187244
1772547807022042000,11.5290419921875,-0.19557517907023428,0.5347431287780404,-0.036358138321340085
1772547807032080000,11.539079833984376,-0.28405542655587196,0.40155397099405526,0.2325350826770067
1772547807042118100,11.5491181640625,-0.7939303637981414,0.48218613532781596,-0.15349632501453161
1772547807052156000,11.559156005859375,-0.6092904202401638,0.6158414493188261,-0.5773489293172955
1772547807062194200,11.569194091796875,-0.216187758988142,0.868109990991652,-0.5362909427419305
1772547807072232000,11.57923193359375,-0.963689549088478,0.6241545196339487,-0.13180471768826246
1772547807082270000,11.58927001953125,-1.0591589248090982,0.25465514454841615,0.4977329562887549
1772547807092308000,11.599307861328125,-0.6349275503218174,0.9657467738792299,0.6015802842542529
1772547807102346000,11.609345947265625,-1.1842933709532022,1.383998489435017,0.3988403281211853
1772547807112384800,11.619384765625,-0.7696025627493858,1.571144278334081,0.08996493308544158
1772547807122422800,11.6294228515625,-0.44699499495923517,1.5654983814015984,-0.15931699399203061
1772547807132460800,11.639460693359375,-0.33736323837339877,1.473709155498445,-0.4293228524073958
1772547807142498800,11.649498779296875,0.13574176487624645,1.2161609198570251,-0.9111346014648676
1772547807152536800,11.659536865234376,0.6506839223802089,0.7583414562836289,-1.3725719632744788
1772547807162574800,11.669574951171874,0.8621838158130645,0.36013241180330513,-1.3058265777349471
1772547807172612600,11.679612548828125,0.5218856930315494,0.47813802898079155,-1.052454750995338
1772547807182651000,11.68965087890625,0.3391220647394657,0.6405515276834368,-0.6205719849720597
1772547807192688600,11.699688720703126,-0.49200844116210934,0.9593579496249556,-0.3658274085745215
1772547807202727000,11.709726806640624,-0.5955968259304761,1.073293833145499,0.2672171044796705
1772547807212764700,11.7197646484375,-1.1853045938223599,0.9401479299813509,0.20833733774870633
1772547807222802700,11.729802734375,-0.9121306267648934,0.847331991378963,-0.22291794402599333
1772547807232840700,11.7398408203125,-0.5940642095357179,0.575671351493895,-0.6204173789322376
1772547807242878700,11.749878662109374,-0.02492927407324314,0.28679303482621904,-1.1052598739877342
1772547807252916700,11.759916748046875,0.10046060813665389,0.273991713181138,-1.3101412260636687
1772547807262954800,11.769954833984375,0.02548398534655571,0.4880182024821639,-1.068929792717099
1772547807272992800,11.77999267578125,-0.5067863235771656,0.8186316743344068,-0.5965452126964926
1772547807283030800,11.79003076171875,-0.2915957589328289,0.9098205962568521,-0.3481540969789028
1772547807293068500,11.800068603515625,-0.25659400365650653,0.5740127706319094,0.09369301369786262
1772547807303106800,11.81010693359375,-0.26912615297138687,0.4168877337262034,0.4003492713794112
1772547807313144600,11.82014453125,1.4437427640408276,0.17950871814936398,1.0348042357534168
1772547807323182800,11.830182861328124,-0.16037936252653598,0.8791367041796445,1.1595572813645005
1772547807333220600,11.840220703125,-0.004548749345541,1.3294430156439543,2.079339299665391
1772547807343259000,11.8502587890625,-1.2334674439668654,-0.6341004518479109,2.2598566103354094
1772547807353296600,11.860296630859375,0.2723638197183609,-0.4857271689355373,1.0541896119639276
1772547807363334700,11.870334716796876,0.02421557284593582,-0.10753536882847547,0.7582920641839503
1772547807373372700,11.88037255859375,0.5848176577627658,-0.32845132538229227,1.108947330328822
1772547807383410700,11.89041064453125,0.2850812624722719,-0.19177695583105087,1.1091761706486343
1772547807393448700,11.90044873046875,-0.042836686685681344,-0.0579530072748661,1.6549723160997032
1772547807403486700,11.91048681640625,-0.33560324296355243,0.18894231692701577,1.7014064427554607
1772547807413525000,11.92052490234375,-0.5670914469361304,0.604321691916883,1.3558648663625121
1772547807423562800,11.930562744140625,-0.23049334771633148,0.6463926549270749,1.1213333491712807
1772547807433600800,11.940600830078125,-0.11186930637955665,0.13927578422129153,1.0395642897620796
1772547807443638800,11.950638671875,-0.14601590613126753,-0.1320534317523241,1.3077002626523375
1772547807453676800,11.9606767578125,-0.23573124836981296,0.11185586237609386,1.482348096767068
1772547807463714800,11.97071484375,-0.6119394734442234,0.3155988580718636,1.4385311668723821
1772547807473752800,11.9807529296875,-0.6574994476139545,0.32263270223140716,0.9269441650152206
1772547807483790800,11.990790771484376,-0.35210312686562534,0.216329505546391,0.4631169854596257
1772547807493826800,12.000826904296876,-0.16142507218718527,0.08874708172827958,0.5073416193723679
1772547807503864800,12.01086474609375,-0.1245721360862255,0.02829670467972755,0.8457900226339697
1772547807513902600,12.020902587890625,-0.4981032509058714,0.34793753161877394,1.161085513845086
1772547807523940900,12.03094091796875,-0.4273714260786772,0.7206640520572662,1.1786115259245038
1772547807533978600,12.040978515625,-0.5632394476830959,0.6750505941346288,0.9230036106958984
1772547807544017000,12.051016845703124,-0.38835809707343577,0.547390428905189,0.18750790020972488
1772547807554054700,12.0610546875,-0.2121744316935539,0.24232348624169825,-0.30709698718637224
1772547807564093000,12.071093017578125,-0.18425299006700516,0.11594576203823088,-0.6902458251789212
1772547807574130700,12.081130615234375,-0.44026071826815605,0.0011857026532292366,-0.8120093335852027
1772547807584168700,12.091168701171876,-1.0280962625473737,-0.11223024864643812,-0.18606150079369543
1772547807594206700,12.101206787109374,-1.2138923904031513,-0.007201017419993877,0.34214082803875207
1772547807604244700,12.11124462890625,-1.673072328674793,0.08000292651951313,0.6171121999070048
1772547807614282800,12.12128271484375,-1.4371201310306787,0.5907987779989838,0.37533494937121864
1772547807624320800,12.13132080078125,-1.3386603413224218,0.8382873919188976,-0.19805325962156056
1772547807634358500,12.141358642578124,-1.0649047749847174,0.6703416857913136,-0.8304244034588336
1772547807644396800,12.151396728515625,-0.7949024237006902,0.1913438251107931,-0.98747403704077
1772547807654434600,12.1614345703125,-0.5311456888079643,-0.4799336802259087,-0.5524392367273568
1772547807664472800,12.171472900390626,-0.57222121104002,-0.8422767538160085,-0.05205898080021143
1772547807674510600,12.181510498046874,-0.8544675423473119,-0.9254539264574646,0.405801107044518
1772547807684548900,12.191548828125,-0.6107979021936655,-0.6948179554000496,0.5418883243575692
1772547807694587000,12.2015869140625,-0.16371405990719795,-0.30490970627516506,0.4177233077675104
1772547807704624600,12.211624755859376,0.26660920171439645,0.058420332525670526,0.11748451591283082
1772547807714663000,12.221662841796874,0.06883738938272,0.34757103639394044,-0.31223990303277965
1772547807724700700,12.23170068359375,0.1639297484844923,0.19839228231757877,-0.7784510551154613
1772547807734739000,12.241739013671875,0.22868425246775148,-0.17124036375880242,-1.0180062456876038
1772547807744776700,12.251776611328125,0.45419221298694606,-0.3883806011661887,-1.0744947333678603
1772547807754815000,12.26181494140625,0.3294073109328747,-0.6505392532125115,-0.937999227514863
1772547807764852700,12.271852783203125,0.6075415307462215,-0.49611032352298495,-0.8817179528445005
1772547807774890800,12.281890869140625,0.6416466294437646,-0.4212257629305124,-0.9600935704231262
1772547807784928800,12.2919287109375,0.21467267825007438,-0.4108814790487289,-0.8352078383430838
1772547807794966800,12.301966796875,-0.15220131676793097,-0.3452706504970789,-0.4420934866532683
1772547807805006800,12.3120068359375,-0.45151276464462275,-0.23884499647617338,-0.03065525050461292
1772547807815044600,12.322044677734375,-0.2538695471286774,0.08216098133623599,0.33071167152971026
1772547807825083000,12.332082763671876,-0.26211832003593444,0.4160854774326086,0.7129606380730867
1772547807835120600,12.34212060546875,-1.0908844348937272,0.751217011231184,0.7558090151965617
1772547807845159000,12.352158935546875,-0.4829086043834686,0.7309153969585895,0.5939864681243896
1772547807855196700,12.36219677734375,-0.9233698136597871,0.6538526155441999,0.2916965889587998
1772547807865235000,12.37223486328125,-0.6470593021422624,0.4021861314177513,-0.02001665985137224
1772547807875272700,12.382272705078124,-0.28883623109161854,0.038970074385404584,-0.34406682766526936
1772547807885310700,12.392310791015625,0.37034605504274365,-0.27983576303422447,-0.3392775475621223
1772547807895348700,12.4023486328125,0.8460691318362951,-0.5765981109499931,-0.18881430663317442
1772547807905386800,12.41238671875,0.5118325010508299,-0.60909226731956,-0.246292682133615
1772547807915424800,12.4224248046875,-0.002836100208759308,-0.5130190804868936,-0.2433101591914892
1772547807925462800,12.432462890625,-0.3252870161324739,-0.5137567471116781,-0.12594868513643742
1772547807935500800,12.442500732421875,-0.7728887448132038,-0.49078971302211283,-0.006231295605003833
1772547807945538800,12.452538818359375,-0.30936463985741136,-0.38743981318473814,0.1329290455430746
1772547807955576600,12.46257666015625,0.13465338511765002,-0.3137941467374563,-0.010009352838993072
1772547807965614800,12.47261474609375,0.14054302767813204,-0.2460650108575821,-0.29068039765357967
1772547807975652600,12.482652587890625,-0.2589385209560394,-0.10813538054823875,-0.433354592141509
1772547807985691000,12.49269091796875,-0.3921861309289932,-0.006923077261447906,-0.4111123651951551
1772547807995728600,12.502728759765626,-0.1498386792898178,-0.008781856870651245,-0.33315117363631724
1772547808005767000,12.512766845703124,-0.24443361026346683,-0.14520400522649288,-0.19437457110881803
1772547808015804700,12.5228046875,0.06406243006587028,-0.25466157428920266,0.04500584741830826
1772547808025842700,12.5328427734375,0.44586979032158847,-0.37248248254954813,0.2150204687744379
1772547808035880700,12.542880615234376,0.45986908957958217,-0.522000259321928,0.21577830140441656
1772547808045918700,12.552918701171874,0.4658902495652437,-0.647615766981244,0.19698855299949644
1772547808055956700,12.562956787109375,0.45969899370968337,-0.7810463323056698,0.32867344370037316
1772547808065994800,12.572994873046875,0.15020108286142347,-0.6991016240686178,0.5476411887958645
1772547808076032500,12.583032470703126,-0.1808878975480795,-0.48639936910867687,0.5928472349613905
1772547808086070800,12.59307080078125,0.1343880121797323,-0.26206162141263484,0.5477361736029386
1772547808096108800,12.60310888671875,0.4129600388884544,-0.08342705574929714,0.4112763235852122
1772547808106150400,12.613150390625,0.504528900039196,0.09594166940748691,0.3649129240781069
1772547808116188200,12.623188232421874,0.7432751123160123,0.3266466140478849,0.5288195839479566
1772547808126226400,12.633226318359375,0.024604279902577398,0.3528016305238008,0.7271390932902694
