time,seconds_elapsed,z,y,x
1772547795598739700,0.10573974609375,-9.44105201626718,-2.6385329790890215,-0.273975766693335
1772547795608777700,0.11577783203125,-9.433522789806126,-2.6746377271711825,-0.15919018927458672
1772547795618815700,0.125815673828125,-9.418118299925327,-2.7325530327841636,-0.05081997705716639
1772547795628853800,0.135853759765625,-9.397121689125894,-2.804040059892833,0.04301169162613805
1772547795638891800,0.145891845703125,-9.374082174322009,-2.877679881121218,0.12620533591178246
1772547795648929500,0.155929443359375,-9.351758114311098,-2.9445483085185287,0.2112777751147747
1772547795658967800,0.1659677734375,-9.331749345505237,-2.999050883078575,0.30745277835410084
1772547795669005600,0.176005615234375,-9.314576676908136,-3.038493543411791,0.4202454831888899
1772547795679043800,0.1860439453125,-9.298879341560601,-3.0648876293405887,0.5546993271464482
1772547795689081600,0.19608154296875,-9.283263254755735,-3.082211396846175,0.7009850997276603
1772547795699119900,0.206119873046875,-9.267733677190542,-3.0899130572646856,0.8555291071642189
1772547795709157600,0.21615771484375,-9.253498815611005,-3.0833681656658647,1.0178360767524688
1772547795719195600,0.226195556640625,-9.242396406838298,-3.062112319408357,1.1713095323480665
1772547795729233700,0.236233642578125,-9.235496125930547,-3.0304288948997855,1.3009601407423614
1772547795739271700,0.246271728515625,-9.228844266825913,-3.014536036980152,1.382529001404345
1772547795749309700,0.256309814453125,-9.2076483340621,-3.0309888668701053,1.484150616144389
1772547795759347700,0.26634765625,-9.164784759369493,-3.0710373841419814,1.657054821462184
1772547795769385700,0.2763857421875,-9.097748281928896,-3.1214307698175308,1.912596831847727
1772547795779423700,0.286423828125,-9.002536680361628,-3.173872612455487,2.247498794674128
1772547795789461500,0.29646142578125,-8.88565451425612,-3.2200843285322187,2.6165970416128634
1772547795799499800,0.306499755859375,-8.766288130119442,-3.241865075446665,2.9686504841178656
1772547795809537500,0.31653759765625,-8.663842485645413,-3.214674870704114,3.282389978058636
1772547795819575800,0.326575927734375,-8.58001561692357,-3.133329297403991,3.568747251816094
1772547795829613600,0.336613525390625,-8.511613696348666,-3.0033102940887213,3.834442553555965
1772547795839651800,0.34665185546875,-8.468447923839092,-2.8286013774365184,4.0564503969997165
1772547795849689600,0.356689697265625,-8.45931184670329,-2.6201608715742823,4.212503128498793
1772547795859727600,0.3667275390625,-8.483123514923452,-2.3934197159983217,4.298666915735602
1772547795869765600,0.376765625,-8.521480425846576,-2.1710222887150943,4.340669781945645
1772547795879803600,0.3868037109375,-8.534334646722673,-1.974298962523043,4.408815681932866
1772547795889842000,0.396842041015625,-8.536448277875781,-1.8277954190053045,4.467504894527793
1772547795899879700,0.406879638671875,-8.534763101267814,-1.764004937748611,4.496275354199112
1772547795909918000,0.41691796875,-8.526872640278935,-1.7842863860160112,4.503237886688113
1772547795919955700,0.426955810546875,-8.511153677621483,-1.8650556207329034,4.500246303656697
1772547795929993700,0.43699365234375,-8.490089262282847,-1.975313400262594,4.492984495960176
1772547795940031700,0.44703173828125,-8.45683172032535,-2.081811973389238,4.5075975432023405
1772547795950069800,0.45706982421875,-8.409765433245896,-2.143947380915284,4.56614939315319
1772547795960107800,0.467107666015625,-8.349637420019507,-2.120697730492055,4.685784949620068
1772547795970145800,0.477145751953125,-8.259305991709232,-1.9909512605078517,4.897995621670782
1772547795980183600,0.48718359375,-8.125521790641546,-1.746660127454996,5.205329924744367
1772547795990221800,0.497221923828125,-7.947522015750407,-1.3949996297903358,5.573262488904595
1772547796000259600,0.507259521484375,-7.734685905277728,-0.9710494833972304,5.949964634975791
1772547796010297900,0.5172978515625,-7.509394217857718,-0.5127142523214221,6.286215528193116
1772547796020335600,0.527335693359375,-7.290802904859185,-0.05528417165810242,6.5583168975830075
1772547796030374000,0.537373779296875,-7.096466912195086,0.3558601413115859,6.75898676944375
1772547796040411600,0.54741162109375,-6.9558128253579135,0.7199583149407058,6.875224792426824
1772547796050449700,0.55744970703125,-6.887167159155011,1.077550394611433,6.897550606003403
1772547796060487700,0.56748779296875,-6.872835266941785,1.4734760773949325,6.838376532500982
1772547796070525700,0.577525634765625,-6.888966317531466,1.9423096869356928,6.70372782355845
1772547796080563700,0.587563720703125,-6.923123438677191,2.487181557148695,6.484958231383562
1772547796090601700,0.597601806640625,-6.948529682612419,3.0873411609500643,6.1932742096453905
1772547796100643000,0.60764306640625,-6.936934521886706,3.7269746970057485,5.844568908524513
1772547796110681000,0.61768115234375,-6.855222453361749,4.390473385034501,5.468094725990295
1772547796120719000,0.627718994140625,-6.687819475808739,5.050257436454296,5.092970204499363
1772547796130757000,0.637757080078125,-6.444471322694421,5.673703223296999,4.737959081232548
1772547796140795000,0.647794921875,-6.156881292271613,6.238638953503966,4.398021316196024
1772547796150833200,0.657833251953125,-5.866511860263348,6.746595489904284,4.029625226177275
1772547796160871000,0.667870849609375,-5.586370976802707,7.210906361323595,3.6007884037211535
1772547796170909200,0.6779091796875,-5.293190579026938,7.636420176836848,3.136497406046092
1772547796180947000,0.687947021484375,-4.95849217594862,8.02054984256029,2.6934204613134263
1772547796190985200,0.697985107421875,-4.562330711647868,8.368156827050447,2.308563211967796
1772547796201023000,0.70802294921875,-4.098660768480599,8.681063085037469,2.00262460103631
1772547796211061000,0.71806103515625,-3.581266249388456,8.954102612060307,1.7801544007778167
1772547796221099300,0.728099365234375,-3.036244595441222,9.179047093477845,1.6421617882348596
1772547796231137000,0.738136962890625,-2.4869524245679377,9.352229823476076,1.5878380773730576
1772547796241175300,0.74817529296875,-1.9469471374779939,9.47635713840425,1.605749727769196
1772547796251213000,0.758213134765625,-1.4246081477209924,9.556110474076867,1.6797757718361914
1772547796261251000,0.7682509765625,-0.9199717687193304,9.598258593976498,1.7881472992278635
1772547796271289000,0.7782890625,-0.4459067247984931,9.609520577225089,1.9049023318223655
1772547796281327000,0.7883271484375,-0.0028906690945877927,9.596147885432838,2.0209647059775886
1772547796291365000,0.798365234375,0.40419162602126596,9.556862753748893,2.1617963413387535
1772547796301403100,0.808403076171875,0.7254768591664731,9.49670376086235,2.335954199979454
1772547796311441200,0.818441162109375,0.9330682739187032,9.42840763874948,2.5307895204678177
1772547796321479200,0.828479248046875,1.072839440441504,9.351799030843377,2.7501354512259364
1772547796331518200,0.838518310546875,1.161058845033869,9.27396818766594,2.9691444051146507
1772547796341555200,0.84855517578125,1.224579131047055,9.204863087257742,3.1529803388133644
1772547796351594000,0.858593994140625,1.3138644843704999,9.137124599027633,3.3101533065140245
1772547796361632000,0.868632080078125,1.4391997137837111,9.064196725460887,3.4553538046091794
1772547796371670000,0.878669921875,1.571262059494853,8.989297259560226,3.590834288200736
1772547796381708000,0.8887080078125,1.671787549561262,8.917342614939809,3.7224338387057183
1772547796391746000,0.89874609375,1.7070748437806962,8.849303097936511,3.8660207641243933
1772547796401784000,0.9087841796875,1.665825864677876,8.784199049863219,4.029050056637823
1772547796411822000,0.918822021484375,1.5591184711061417,8.707319808322191,4.233452685286104
1772547796421860000,0.928860107421875,1.4156652550697326,8.60681653008759,4.482076732976735
1772547796431898000,0.938898193359375,1.281933222580701,8.474259240466356,4.765917347738147
1772547796441936100,0.94893603515625,1.1907952271278948,8.322624325409532,5.048399825888872
1772547796451974100,0.95897412109375,1.1504548873025924,8.182849944016336,5.280891653946042
1772547796462012200,0.96901220703125,1.159960163076967,8.084829714769125,5.4277469335109
1772547796472050200,0.97905029296875,1.192332738893479,8.01717539769113,5.520292530739307
1772547796482088200,0.989088134765625,1.192784647379443,7.948467187646031,5.618676332601905
1772547796492126000,0.9991259765625,1.1188088721949607,7.864518153849244,5.750478419941663
1772547796502164200,1.009164306640625,0.9834021114267408,7.776798953863978,5.89276624546051
1772547796512202000,1.019201904296875,0.8232252857349812,7.692562919819355,6.026370413786172
1772547796522240300,1.029240234375,0.6485014637745916,7.615316598531604,6.144656016948819
1772547796532278000,1.039278076171875,0.48838772991430013,7.5404142100214955,6.25092209649384
1772547796542316300,1.04931640625,0.36230237625353034,7.457242590337991,6.358353712686896
1772547796552354000,1.05935400390625,0.25641022632112725,7.371950909760594,6.462120376631617
1772547796562392000,1.06939208984375,0.1493518182214815,7.280266313275694,6.568547784218191
1772547796572430000,1.07943017578125,0.02756109301471151,7.177963292142748,6.681801822954416
1772547796582468000,1.089468017578125,-0.10961493331519886,7.079297750729322,6.785418849295377
1772547796592506000,1.099506103515625,-0.2396882788999006,6.9918620438605545,6.87217534172833
1772547796602544000,1.109544189453125,-0.33169322991296646,6.919411140155792,6.941333049106597
1772547796612582100,1.11958203125,-0.3707028325911611,6.858245600575208,6.999816802257299
1772547796622620200,1.1296201171875,-0.3888105900812894,6.7976125604361295,7.057738245350122
1772547796632658000,1.139657958984375,-0.4193834229994565,6.730399557384848,7.12012718924582
1772547796642696200,1.1496962890625,-0.47758923599161207,6.648050944522023,7.193449615088105
1772547796652734000,1.15973388671875,-0.572316889966838,6.56177960525751,7.265389062139391
1772547796662773200,1.169773193359375,-0.6728481156542897,6.481248270949721,7.328785137251019
1772547796672811000,1.17981103515625,-0.7662178156819194,6.399285442534088,7.3913763257205485
1772547796682849300,1.189849365234375,-0.8541234050847589,6.323665261143446,7.446617735949158
1772547796692887000,1.199886962890625,-0.9435243476118892,6.268021115332841,7.482784443351626
1772547796702925300,1.20992529296875,-1.0243458239726722,6.26826661452651,7.4719421468198295
1772547796712963000,1.219963134765625,-1.0389606247805059,6.354239263105392,7.3969310372382395
1772547796723001000,1.2300009765625,-0.982868808267638,6.5042281645208595,7.273196521019935
1772547796733039000,1.2400390625,-0.876751416478306,6.680711689630151,7.12529260918498
1772547796743077000,1.2500771484375,-0.7592086675722152,6.8639096176862715,6.962811890465021
1772547796753115100,1.260115234375,-0.6682146106347441,7.030542779910564,6.804069189229607
1772547796763153200,1.270153076171875,-0.6224074567709118,7.150968317711353,6.681815266957878
1772547796773191000,1.28019091796875,-0.6130258073762059,7.2221291816055775,6.605712855008244
1772547796783229200,1.290229248046875,-0.6242468740925192,7.257742346778511,6.565508854913711
1772547796793267000,1.300266845703125,-0.6446962262727319,7.26436731787622,6.556196252167225
1772547796803305200,1.31030517578125,-0.655136664005369,7.255384969997405,6.5651014431566
1772547796813343000,1.320343017578125,-0.6373828345194459,7.241372811257839,6.58229632358551
1772547796823381200,1.33038134765625,-0.5934523612476885,7.222661096525192,6.606917554622888
1772547796833419000,1.3404189453125,-0.5347291002526879,7.199336335039138,6.637319707149267
1772547796843457000,1.35045703125,-0.4679440402898937,7.1705188213557,6.673460695588588
1772547796853495000,1.3604951171875,-0.39768695683497934,7.134925529927015,6.716029671248793
1772547796863533000,1.370532958984375,-0.3380068335065618,7.085733921256661,6.771154177099466
1772547796873571000,1.380571044921875,-0.30032782184500245,7.018121689754724,6.8429656138569115
1772547796883610000,1.390610107421875,-0.28639391597341746,6.937668681380153,6.925109644058346
1772547796893648100,1.400648193359375,-0.2903714961011894,6.855269215112924,7.0065230218976735
1772547796903686100,1.41068603515625,-0.3102446375623345,6.776501383346319,7.081890689831972
1772547796913724200,1.42072412109375,-0.3626842517105862,6.682217418017983,7.168461304304003
1772547796923762200,1.43076220703125,-0.4525727585589513,6.573225128379463,7.2634899505198
1772547796933800000,1.440800048828125,-0.5493520113017409,6.463246165791154,7.354934308508038
1772547796943838200,1.450838134765625,-0.617216244803369,6.366508377569914,7.433506909963488
1772547796953876000,1.4608759765625,-0.657751595744118,6.297135566136241,7.4889125708431
1772547796963914200,1.470914306640625,-0.6956400854378938,6.265418239358067,7.51205671506524
1772547796973952000,1.480951904296875,-0.7601580041863024,6.277334887123107,7.4958391552358865
1772547796983990300,1.490990234375,-0.8444202686507254,6.326585532504319,7.445242940464615
1772547796994028000,1.501028076171875,-0.8884677924308926,6.396883642089366,7.379763044816255
1772547797004066000,1.511066162109375,-0.8798883993297815,6.46990971533358,7.316860306179523
1772547797014104000,1.52110400390625,-0.8613741799306124,6.535057018026709,7.26095312551856
1772547797024142000,1.53114208984375,-0.8709406113076955,6.590972381994128,7.2090867446810005
1772547797034180000,1.54118017578125,-0.9253197786837816,6.641124360129237,7.156092236596345
1772547797044218000,1.551218017578125,-1.0539442589007317,6.701473907151818,7.081654542988538
1772547797054256000,1.561256103515625,-1.2644247461579738,6.77953972812891,6.972048505365848
1772547797064294100,1.571294189453125,-1.498778714825213,6.877548851460218,6.828130448296665
1772547797074333200,1.581333251953125,-1.717975154110044,6.9892439703166485,6.66103551377952
1772547797084371200,1.59137109375,-1.919875152287632,7.109322302114963,6.476264052796363
1772547797094409000,1.601408935546875,-2.1512470364041625,7.247980831220746,6.245740894463658
1772547797104443600,1.611443603515625,-2.37709489640221,7.451599031493068,5.9155275278449055
1772547797114481400,1.6214814453125,-2.4691788674682376,7.7391767869561905,5.493512075841426
1772547797124519400,1.63151953125,-2.2711289688475427,8.065527048406004,5.095059285733104
1772547797134557400,1.641557373046875,-1.7835796990513801,8.379469079181552,4.772184299178421
1772547797144595500,1.651595458984375,-1.2041495795458554,8.647495746478437,4.46556165150553
1772547797154633500,1.661633544921875,-0.7086250930868089,8.86883022070527,4.124569701240956
1772547797164671500,1.67167138671875,-0.34877420163862405,9.06557035190165,3.7234631817534565
1772547797174709500,1.68170947265625,-0.11526977160596288,9.252692759925127,3.247271318404376
1772547797184747500,1.69174755859375,0.04580243202294223,9.432159100237488,2.6837764346554875
1772547797194785300,1.701785400390625,0.1883360398632474,9.582870470708608,2.074485429893434
1772547797204823600,1.711823486328125,0.3203438241092488,9.691592126712202,1.4631480139955877
1772547797214861300,1.721861328125,0.45931839689426124,9.757881000655889,0.8620883926145732
1772547797224899600,1.731899658203125,0.6154534729145467,9.783397719228267,0.27707159555051475
1772547797234937300,1.741937255859375,0.7879410602554678,9.77078490589261,-0.2851011910154484
1772547797244976600,1.7519765625,0.9753783794470131,9.723492408841848,-0.8201924939103424
1772547797255014400,1.762014404296875,1.165959330426529,9.646527827104926,-1.324920862044394
1772547797265052700,1.772052734375,1.34365727282688,9.548707504343986,-1.7852596149623392
1772547797275090400,1.78209033203125,1.5046176501117645,9.442596907621622,-2.178044442436844
1772547797285128400,1.79212841796875,1.6420491216406226,9.35537338219881,-2.439478433470428
1772547797295166500,1.80216650390625,1.7392828766852617,9.319188554617762,-2.509583650831878
1772547797305204500,1.81220458984375,1.7628385243177414,9.351625427842139,-2.368520544802397
1772547797315242500,1.822242431640625,1.680583142696321,9.434866021108627,-2.08070839606151
1772547797325280500,1.832280517578125,1.5561594751700758,9.517730182278155,-1.7780803709827362
1772547797335318500,1.842318603515625,1.4624746447786687,9.571391629838942,-1.5556269757285712
1772547797345356500,1.8523564453125,1.4034398336164653,9.602903204911946,-1.4088839243665336
1772547797355394300,1.862394287109375,1.3655813737347722,9.623256257110834,-1.3032725093379616
1772547797365432600,1.8724326171875,1.340168700058758,9.639069912314415,-1.2094131991624832
1772547797375470300,1.88247021484375,1.3241867025509475,9.653062197309731,-1.1114359322741627
1772547797385508600,1.892508544921875,1.3248055651016533,9.664459205114841,-1.006727457434684
1772547797395547400,1.90254736328125,1.3755745060913265,9.667972766193747,-0.8991708996877074
1772547797405585400,1.91258544921875,1.4954982318498193,9.660860888361931,-0.7756580633960664
1772547797415623400,1.92262353515625,1.6248032416768372,9.650330141997337,-0.6336684171061963
1772547797425661400,1.932661376953125,1.7168093252010643,9.642717328906059,-0.4908677832270041
1772547797435699500,1.942699462890625,1.7626994081079959,9.640048401957749,-0.36433607403822243
1772547797445737500,1.952737548828125,1.7631205561295151,9.643374331510067,-0.25905893246531486
1772547797455775500,1.962775390625,1.7240611960254608,9.652347911560534,-0.173767416284699
1772547797465813500,1.9728134765625,1.6515964099258182,9.665912911054491,-0.1129693765759468
1772547797475851500,1.9828515625,1.5535732580691575,9.682460725751518,-0.08215767513429746
1772547797485889500,1.9928896484375,1.4390071138210594,9.700133745086193,-0.08396206680829636
1772547797495927600,2.002927490234375,1.3181078210286796,9.716969729074835,-0.1161041492040269
1772547797505965600,2.012965576171875,1.2004055707119405,9.731510880124569,-0.1646615333577618
1772547797516003300,2.02300341796875,1.0949741884253918,9.742927177152037,-0.2163538362700492
1772547797526041600,2.03304150390625,1.007885687559098,9.751062552812694,-0.26708838179977606
1772547797536079400,2.043079345703125,0.9419595825131982,9.756092948195338,-0.3189954782402143
1772547797546118400,2.053118408203125,0.8983560761734842,9.758295426675677,-0.372888286871463
1772547797556156400,2.063156494140625,0.8772554204776882,9.757940037366748,-0.42825770739391444
1772547797566194400,2.0731943359375,0.8772871307902037,9.755307350775599,-0.48449262217190114
1772547797576232400,2.083232421875,0.8968959404930472,9.75068319810629,-0.5386615808634088
1772547797586270500,2.0932705078125,0.9320897842753678,9.74506535822451,-0.5790461616892367
1772547797596308500,2.10330859375,0.9704933108191937,9.74057447654605,-0.5913878664659336
1772547797606346500,2.113346435546875,0.9975829047314823,9.73870751363039,-0.5768828827081248
1772547797616384500,2.123384521484375,1.0007066627752035,9.740343590399622,-0.5428644393807277
1772547797626422500,2.133422607421875,0.9802098181914538,9.7447882948488,-0.49870311649516225
1772547797636460500,2.14346044921875,0.9528598197773098,9.749399003514647,-0.46006234712935984
1772547797646498600,2.15349853515625,0.9318158627048134,9.752550745543838,-0.43572636277414856
1772547797656536600,2.16353662109375,0.9205185158818959,9.75414882839024,-0.42379345799405127
1772547797666574600,2.17357470703125,0.9180220959562808,9.754536950924992,-0.4202827829919755
1772547797676612400,2.1836123046875,0.9228284733247011,9.75403601566553,-0.4213730259140953
1772547797686651400,2.1936513671875,0.9356229999028146,9.752736623504758,-0.42322968663144855
1772547797696689400,2.203689453125,0.9578732640251517,9.750694888544082,-0.4204893749473616
1772547797706727400,2.2137275390625,0.9915340530212968,9.747766433876752,-0.4102341575885191
1772547797716765400,2.223765380859375,1.0369427821520716,9.743707513874769,-0.39406259232535956
1772547797726803500,2.233803466796875,1.0880884474996477,9.73891326533556,-0.374194145305641
1772547797736841500,2.243841552734375,1.134435188132897,9.73445687044859,-0.35187026795782145
1772547797746879500,2.25387939453125,1.165939237486571,9.731592128667234,-0.32721926283668723
1772547797756917500,2.26391748046875,1.1758517058223485,9.73122738700807,-0.30162325021671127
1772547797766955300,2.273955322265625,1.162106892782077,9.733600545880197,-0.2773250040560029
1772547797776993500,2.28399365234375,1.129067523619905,9.73811130130291,-0.2545440123241395
1772547797787031300,2.29403125,1.084221542938426,9.743772395804523,-0.23191804675720631
1772547797797069600,2.304069580078125,1.0352659349810331,9.749608262351154,-0.20919978153062982
1772547797807107300,2.314107421875,0.9885187237881123,9.754909875890611,-0.1868832472390495
1772547797817145300,2.324145263671875,0.9479160797648132,9.75933236850798,-0.16511039137011393
1772547797827184400,2.334184326171875,0.9158023740801959,9.762723179990052,-0.1447181488051545
1772547797837222700,2.34422265625,0.8927595713406801,9.765103353124857,-0.12710625767372546
1772547797847260400,2.354260498046875,0.8791065282370895,9.766519649663566,-0.11254033750891684
1772547797857298400,2.36429833984375,0.8738777607381343,9.767124045297503,-0.10009133643284439
1772547797867336400,2.37433642578125,0.8747128233227879,9.767155609479547,-0.08914657504041679
1772547797877374500,2.38437451171875,0.8801095677997917,9.766754627463222,-0.0794290264885407
1772547797887412500,2.39441259765625,0.888737914609164,9.766038588148355,-0.07090194352997932
1772547797897450500,2.404450439453125,0.9012101504303515,9.764954300042985,-0.062460342331207355
1772547797907488300,2.41448828125,0.9190963741242885,9.763338681539892,-0.053629595684376544
1772547797917526500,2.424526611328125,0.9441012707170099,9.76099533328414,-0.045245944351074284
1772547797927564300,2.434564208984375,0.9771014769125729,9.757778124803304,-0.03784277140550548
1772547797937602600,2.4446025390625,1.0175488573089242,9.75366425974369,-0.03179955941824009
1772547797947640300,2.454640380859375,1.0639202209267764,9.748728556907176,-0.02740153680513613
1772547797957679600,2.4646796875,1.1145819752149284,9.743073892146349,-0.0242506647089147
1772547797967717400,2.47471728515625,1.1670913301311432,9.736929398041964,-0.022406511846685316
1772547797977755600,2.484755615234375,1.2198575093526391,9.7304604942888,-0.021717481553042307
1772547797987793400,2.49479345703125,1.27127168944329,9.72387819328904,-0.021777111918944863
1772547797997831700,2.504831787109375,1.3216605450741945,9.717154437991976,-0.023149366103240754
1772547798007869400,2.514869384765625,1.3717384350597857,9.710205641767383,-0.025142181604984215
1772547798017907500,2.524907470703125,1.421826115787029,9.702995564258098,-0.026550461517309304
1772547798027945500,2.534945556640625,1.4717504226461051,9.695544079208373,-0.02775087539919186
1772547798037983500,2.5449833984375,1.5203876123040914,9.688030050316453,-0.029595704114856198
1772547798048021500,2.555021484375,1.5661904553189874,9.680720604085922,-0.03290846137505723
1772547798058059500,2.5650595703125,1.6071847290083765,9.673985158351064,-0.03654585432960884
1772547798068097300,2.57509716796875,1.640960741882026,9.668310035324096,-0.03759556659522932
1772547798078135600,2.585135498046875,1.6649232167497277,9.664231826099753,-0.031985126851906534
1772547798088174600,2.595174560546875,1.6778284371607004,9.662038115447759,-0.016723976123175815
1772547798098212600,2.605212646484375,1.6794691901050507,9.661764559203386,0.008202912484269471
1772547798108249900,2.615249755859375,1.6709965453140436,9.663153383213281,0.04014825131930411
1772547798118288000,2.625287841796875,1.655699022939056,9.66558090262115,0.07468398738591932
1772547798128326000,2.635325927734375,1.6363265062101184,9.668578330871462,0.10688182769003324
1772547798138364000,2.645364013671875,1.615951826701313,9.671693832543491,0.13210634924964978
1772547798148402000,2.65540185546875,1.5976127446733415,9.674515904226899,0.14762277507232502
1772547798158440000,2.66543994140625,1.583782664502412,9.676626028248668,0.15785477595236153
1772547798168477700,2.675477783203125,1.5753227330625057,9.677803839856386,0.1698199390342459
1772547798178516000,2.685515869140625,1.570974474725127,9.678228202748299,0.18537982040615752
1772547798188553700,2.6955537109375,1.5689927993886172,9.6782054063946,0.20253095302488652
1772547798198592000,2.705592041015625,1.5675819096773862,9.678073304447532,0.21902928429068996
1772547798208629800,2.715629638671875,1.565445920561999,9.678053430703281,0.23460783383045344
1772547798218669000,2.7256689453125,1.5612611822232603,9.678331078600882,0.25056696191933003
1772547798228706800,2.735706787109375,1.5546338730379938,9.678940734931826,0.2676444447799586
1772547798238745000,2.7457451171875,1.545137145896256,9.679933837622404,0.28601180305434387
1772547798248782800,2.755782958984375,1.5333412019014359,9.68122738456428,0.30506785597894337
1772547798258820900,2.76582080078125,1.520296719150245,9.68266530841291,0.32410829120930285
1772547798268859000,2.77585888671875,1.507836758288741,9.683958855354785,0.34313447871860114
1772547798278897000,2.78589697265625,1.497141615142673,9.684894090378284,0.36300299880355597
1772547798288935000,2.795934814453125,1.489593976242095,9.685239542815088,0.3841990411652252
1772547798298973000,2.805972900390625,1.4862018495857714,9.68486194167435,0.40622068416345863
1772547798309011000,2.816010986328125,1.486538534194231,9.683881113943457,0.4278295085771009
1772547798319049000,2.826049072265625,1.489990428213775,9.682443774616718,0.447892564853467
1772547798329086700,2.836086669921875,1.4954248743526637,9.680766196793318,0.4656724055634811
1772547798339125800,2.846125732421875,1.5021382543861865,9.679015553733706,0.4802272563450038
1772547798349163800,2.856163818359375,1.5100081109784542,9.677269002327323,0.4906328419599682
1772547798359201800,2.866201904296875,1.519615312757343,9.675455815425515,0.4966958683259785
1772547798369239800,2.87623974609375,1.5327657401010393,9.673271457123755,0.4987995260743424
1772547798379277800,2.88627783203125,1.5521522853553293,9.670270521742104,0.4970652861602604
1772547798389315800,2.89631591796875,1.5801923849254846,9.666023385691641,0.4912655869055539
1772547798399353900,2.906353759765625,1.6178116292238234,9.660306761610508,0.48116935950070616
1772547798409391900,2.916391845703125,1.6635329314351082,9.653186115950346,0.46801849376559257
1772547798419430000,2.926429931640625,1.7143436657398938,9.645010992801188,0.45298221614267675
1772547798429468000,2.936468017578125,1.765866347706318,9.63648457199633,0.4362206490971148
1772547798439506000,2.946505859375,1.8147626266919075,9.628218263432384,0.41762233161106704
1772547798449544000,2.9565439453125,1.859386927446723,9.620561026677489,0.39731081699896603
1772547798459582000,2.96658203125,1.8994969656474887,9.613598201927543,0.3755514051334932
1772547798469621000,2.97662109375,1.935583447420597,9.607261984643339,0.35274906008634715
1772547798479658800,2.98665869140625,1.9685390838220715,9.601392800348997,0.32936190088856965
1772547798489697000,2.996697021484375,1.9992067554168402,9.595832828134299,0.305870715060737
1772547798499734800,3.00673486328125,2.0283187220022083,9.590417232826352,0.2831778948026709
1772547798509772800,3.016772705078125,2.0562688052013516,9.585059505185484,0.262205852188915
1772547798519810800,3.026810791015625,2.0831945137888193,9.579741525033116,0.24335829091584307
1772547798529848800,3.036848876953125,2.108626476687193,9.574574351528286,0.22718968479475005
1772547798539886800,3.046886962890625,2.132922275162488,9.569472644475102,0.21498797301063313
1772547798549924900,3.0569248046875,2.156767407260835,9.564260462784766,0.20896416441015897
1772547798559963000,3.066962890625,2.181172949720919,9.558692891785501,0.21031861122641712
1772547798570001000,3.0770009765625,2.2076276797957717,9.552430324259399,0.21870292014684528
1772547798580039000,3.087038818359375,2.2399014714129266,9.544645661732554,0.2301523339926265
1772547798590078000,3.097077880859375,2.279836299177259,9.534975916111469,0.23862709767548365
1772547798600115700,3.10711572265625,2.3243793513894078,9.52415875402093,0.24097176110548899
1772547798610154000,3.117154052734375,2.366576863388717,9.513839020058512,0.23784813092593102
1772547798620191700,3.127191650390625,2.3984672086462377,9.50599181368947,0.23204470534417776
1772547798630230000,3.13722998046875,2.4127573075443505,9.502488774004577,0.22736328779598697
1772547798640267800,3.147267822265625,2.4055983757004142,9.504342292916775,0.22566386346695944
1772547798650306000,3.15730615234375,2.3779943294599653,9.511272968962787,0.2263474252843298
1772547798660343800,3.16734375,2.334984478164464,9.521856322297454,0.2291559798990376
1772547798670381800,3.1773818359375,2.2840428109563886,9.534032497781515,0.23616247939392923
1772547798680419800,3.187419921875,2.232463430366665,9.54590355283916,0.24939488593265413
1772547798690457900,3.197457763671875,2.1857316359385845,9.556196983316541,0.26847371694464234
1772547798700496000,3.207495849609375,2.1463953585892916,9.564448678833246,0.2910583275878802
1772547798710535000,3.217534912109375,2.1149613787971435,9.570696048790216,0.3148040909649804
1772547798720573000,3.227572998046875,2.091230666858703,9.575106266447902,0.33837723772153255
1772547798730611000,3.23761083984375,2.074189807947725,9.577963409444688,0.36159466637559234
1772547798740649000,3.24764892578125,2.0627540755674243,9.579577274382114,0.38362620971333233
1772547798750687000,3.25768701171875,2.0562981774263083,9.580136077308655,0.4037594086164608
1772547798760724700,3.267724853515625,2.0531025962553917,9.580074117988348,0.42112358119767157
1772547798770763000,3.277762939453125,2.0518178171418606,9.579747370252013,0.4345762063583359
1772547798780800800,3.28780078125,2.051633838877082,9.579408347555994,0.4428427706506103
1772547798790839000,3.297839111328125,2.0531414669610557,9.578936638391017,0.4460452564863488
1772547798800876800,3.307876708984375,2.0573102770783005,9.578082651910185,0.44520248551927505
1772547798810915000,3.3179150390625,2.0647795900456605,9.576588029438257,0.44279206337668
1772547798820952800,3.327952880859375,2.075545021948963,9.574386720001696,0.44004265507068485
1772547798830990800,3.337990966796875,2.0893572742022575,9.57150853421688,0.4372799488916993
1772547798841030000,3.34802978515625,2.1053160369649526,9.568124152475596,0.43477399395275856
1772547798851068000,3.35806787109375,2.1220881619371474,9.56451706789434,0.43261002085190264
1772547798861106000,3.36810595703125,2.1386182948470114,9.560892447656393,0.4313196157151833
1772547798871144000,3.37814404296875,2.153404214438051,9.55759632872045,0.4308037020822987
1772547798881182000,3.388181884765625,2.165675666990131,9.554819265222548,0.4308531307145953
1772547798891220000,3.398219970703125,2.174953782945126,9.552683422237633,0.4315080874919891
1772547798901258000,3.408258056640625,2.181264427396655,9.551216272294521,0.4321498194616288
1772547798911296000,3.4182958984375,2.184557915984094,9.550425414177775,0.43298700093813236
1772547798921333800,3.428333740234375,2.1854466815173623,9.550157703152298,0.43442514398247
1772547798931372000,3.4383720703125,2.1847261121578514,9.550220246994495,0.4366313853224739
1772547798941409800,3.448409912109375,2.1824786254920063,9.550582650566101,0.4399508120687678
1772547798951448800,3.45844873046875,2.1789086580507457,9.551216272294521,0.4438721136983484
1772547798961486800,3.46848681640625,2.1740027658306063,9.55215033827424,0.447826696543023
1772547798971524900,3.47852490234375,2.1681112235739826,9.553318797531723,0.45141200768388806
1772547798981563000,3.48856298828125,2.161478653691709,9.554678979969024,0.4544678515905514
1772547798991601000,3.498600830078125,2.154346025332808,9.556158404871821,0.4572281100841239
1772547799001639000,3.508638916015625,2.1475404369711875,9.557581715673207,0.45945583260357375
1772547799011676700,3.5186767578125,2.141914413782954,9.558759527280927,0.4612086676202714
1772547799021715000,3.52871484375,2.1377559789292513,9.559635725593566,0.46231947840638454
1772547799031752700,3.538752685546875,2.1350090183086694,9.560247135490178,0.4623940049473196
1772547799041791000,3.548791015625,2.1338144016966223,9.560558101135491,0.4614957409333437
1772547799051828700,3.558828857421875,2.133740167416632,9.56065220915973,0.45984866784606127
1772547799061867000,3.568866943359375,2.1342831882521507,9.560630581849813,0.457754946969822
1772547799071905800,3.57890576171875,2.134762057810277,9.560640518721938,0.45532669690959154
1772547799081944000,3.588944091796875,2.1352974798612294,9.560629412806033,0.4530250689037144
1772547799091981800,3.59898193359375,2.1356160442911087,9.560656300812958,0.45096112211123107
1772547799102020000,3.60902001953125,2.135515652656555,9.560752162402867,0.4494040653949603
1772547799112058000,3.61905810546875,2.134554552539438,9.561036240041256,0.4478941722886637
1772547799122096000,3.62909619140625,2.132755978684872,9.561489244505763,0.44681649658717215
1772547799132134100,3.639134033203125,2.1300207085020837,9.562130465018749,0.44614287164192645
1772547799142172200,3.649172119140625,2.1266540085479617,9.5628926815629,0.44588089623749255
1772547799152210200,3.659210205078125,2.1232591054126617,9.563648468366265,0.44587150735463943
1772547799162248200,3.669248291015625,2.1199419436886906,9.564362754115463,0.44631771675217896
1772547799172286000,3.679285888671875,2.1169171890400347,9.564991115146874,0.44720629962235686
1772547799182324200,3.68932421875,2.113759017270058,9.565640518966317,0.44828901682514694
1772547799192363000,3.699363037109375,2.110623787984252,9.566277647826075,0.4494447261989116
1772547799202401300,3.7094013671875,2.1079050305448472,9.566814238920808,0.45078152776062486
1772547799212439000,3.71943896484375,2.1056354781776667,9.567240939900278,0.4523199528416618
1772547799222477300,3.729477294921875,2.103366364201903,9.56766822540164,0.45382005520630625
1772547799232515000,3.73951513671875,2.1004601213663814,9.568247486594318,0.4550601914605126
1772547799242553300,3.74955322265625,2.0966718349993227,9.56902606975138,0.4561723539534956
1772547799252591000,3.759591064453125,2.0916943388476965,9.570061258018017,0.4573104911379516
1772547799262629000,3.769629150390625,2.0859533109776676,9.571277063548564,0.4581294063054025
1772547799272667100,3.779667236328125,2.0802203202836216,9.572520926129817,0.45814485960286105
1772547799282705200,3.789705078125,2.0750651294775304,9.573688216343522,0.45714971108566965
1772547799292743200,3.7997431640625,2.070725492838025,9.574711129650472,0.4554063014844432
1772547799302781200,3.80978125,2.067234874243289,9.575572714915872,0.4531480011636391
1772547799312820200,3.8198203125,2.0643201558403668,9.57632207197845,0.4505837036335841
1772547799322858000,3.82985791015625,2.061468565801531,9.577050970774888,0.4481553074428811
1772547799332896300,3.839896240234375,2.058637434028834,9.577768179133534,0.44586741570141164
1772547799342934000,3.84993408203125,2.055771523203701,9.578472528010606,0.44390828099027274
1772547799352972000,3.859971923828125,2.0528291861414907,9.579165186449885,0.4425810875071212
1772547799363010000,3.870010009765625,2.0496219145327803,9.579874796023965,0.4421075151786208
1772547799373048000,3.880048095703125,2.0458914958328007,9.580653379181026,0.4425052823245525
1772547799383086000,3.890086181640625,2.041139771261066,9.581628946214913,0.4433255126662552
1772547799393124000,3.9001240234375,2.0356633856765924,9.582724340236187,0.44480117470938707
1772547799403162400,3.910162353515625,2.030217541360855,9.583795184338092,0.44662579632066185
1772547799413200100,3.9202001953125,2.02548028370589,9.584701777788997,0.4486781257405877
1772547799423239200,3.9302392578125,2.0219804588913917,9.585349428042768,0.45064694159552454
1772547799433277200,3.940277099609375,2.019674520036578,9.585763854062556,0.4521144203322008
1772547799443315000,3.95031494140625,2.0182810198515653,9.586022797259687,0.4528566535342484
1772547799453353200,3.960353271484375,2.017616856854409,9.586161328947544,0.45289442826136944
1772547799463391000,3.970390869140625,2.0173190429516135,9.586250176274776,0.45233343337774273
1772547799473429200,3.98042919921875,2.017246123845875,9.586306290376186,0.45147210384067143
1772547799483467000,3.990467041015625,2.017174666044861,9.586358897346258,0.45068928289990867
1772547799493505300,4.00050537109375,2.016916453500092,9.58642787092924,0.4503727642966434
1772547799503543000,4.01054296875,2.016095492506027,9.586581015664338,0.4507856924790889
1772547799513581000,4.0205810546875,2.0141922892332076,9.586925883579253,0.45196916664261366
1772547799523619000,4.030619140625,2.01099846162796,9.587502222162485,0.45397389406114813
1772547799533657000,4.040656982421875,2.007250945662707,9.588190204426645,0.45600810330249364
1772547799543696100,4.050696044921875,2.003246240065992,9.588935469835995,0.4579233258066699
1772547799553734100,4.060734130859375,1.9998649270646274,9.589539865469932,0.4600394046451896
1772547799563772200,4.070772216796875,1.9975774006493388,9.589909283304214,0.4622688441976905
1772547799573810200,4.08081005859375,1.9963684632509946,9.590046061426401,0.46465855234581976
1772547799583848200,4.09084814453125,1.9960025525480507,9.5900121591568,0.4669169987970963
1772547799593886200,4.10088623046875,1.9958315798953175,9.589937924876809,0.46919235985055563
1772547799603924000,4.110924072265625,1.9950110572926698,9.589969489058852,0.4720052253141999
1772547799613962200,4.120962158203125,1.9932798495858906,9.590167057457565,0.4753110619265586
1772547799624000000,4.131,1.9902173932753502,9.59062590714097,0.4788776683669537
1772547799634038300,4.141038330078125,1.9862835609577596,9.591250176519155,0.48269634987227616
1772547799644076000,4.151075927734375,1.9821037910550832,9.591915362429619,0.4866367945937439
1772547799654114300,4.1611142578125,1.9779406800262629,9.592581132861971,0.4904337757239118
1772547799664153000,4.171153076171875,1.974320443702489,9.593132921525836,0.4942108465772122
1772547799674191400,4.18119140625,1.9716662759318946,9.593495325097441,0.49778190999701616
1772547799684229000,4.19122900390625,1.9704067773900924,9.593568390333651,0.5013519870361313
1772547799694267100,4.20126708984375,1.9705086303293704,9.593355039843916,0.505024501536414
1772547799704305200,4.21130517578125,1.9716211216159163,9.592935353127121,0.5086296498889104
1772547799714343200,4.22134326171875,1.973086956384778,9.592423311951755,0.5125807256022468
1772547799724381200,4.231381103515625,1.9743303805746137,9.591918285039066,0.5172122213277965
1772547799734419200,4.241419189453125,1.9751658084854482,9.591447744917868,0.5227010645350441
1772547799744457200,4.251457275390625,1.9751308833025394,9.591104046046734,0.5291152789589018
1772547799754495200,4.2614951171875,1.9742676906019447,9.590892449122666,0.5361462370416149
1772547799764533000,4.271532958984375,1.9727961567446588,9.590768530482054,0.5437217503298074
1772547799774571300,4.2815712890625,1.9709381077878176,9.590702479508519,0.551584629192017
1772547799784610000,4.291610107421875,1.9692926786683498,9.590576222780346,0.5595763951309025
1772547799794648000,4.30164794921875,1.9683359624654053,9.590324878367781,0.5672147445222363
1772547799804688100,4.311688232421875,1.9689622776702045,9.589738018390536,0.574896750392206
1772547799814726100,4.32172607421875,1.971340989500284,9.588764789444207,0.582936191397719
1772547799824764000,4.331763916015625,1.9753483254455029,9.587439678320289,0.5910802252888679
1772547799834802200,4.34180224609375,1.9808720573030412,9.58579308015704,0.5992736512796953
1772547799844840000,4.35183984375,1.9869844027034937,9.583981062299012,0.6079455815024674
1772547799854878200,4.361878173828125,1.993117790891975,9.582110592252015,0.6172490510944276
1772547799864917000,4.3719169921875,1.9982099994644522,9.580416647815703,0.6270463686179369
1772547799874955300,4.381955322265625,2.002067697805911,9.578943652653694,0.6371374083910137
1772547799884993000,4.391992919921875,2.0046531842544675,9.577691022244096,0.6477420967746526
1772547799895031300,4.40203125,2.0060835093185303,9.576635960233212,0.6588279928039759
1772547799905069000,4.412069091796875,2.006431007581949,9.575804185584188,0.6697794487986714
1772547799915107300,4.422107421875,2.00567375947386,9.575285130146145,0.6793813168153167
1772547799925145000,4.43214501953125,2.0041873203083873,9.575001052507758,0.6877177680060267
1772547799935183000,4.44218310546875,2.00305364010334,9.574704115387798,0.6951322089809924
1772547799945221000,4.45222119140625,2.0027681011602283,9.57428910484612,0.7016271239582449
1772547799955259100,4.462259033203125,2.003483409822732,9.573772972017526,0.7066183563742786
1772547799965297200,4.472297119140625,2.005599232932925,9.573118307501078,0.7094858746346085
1772547799975336200,4.482336181640625,2.009286689274013,9.572248538929223,0.7107934501018375
1772547799985374200,4.492374267578125,2.014198718973994,9.571141454470157,0.7117878679666668
1772547799995412200,4.502412109375,2.0188065050303936,9.570085807937383,0.7129213289760052
1772547800005450200,4.5124501953125,2.021560187652707,9.569379705494642,0.714598614538461
1772547800015488300,4.52248828125,2.02190432491526,9.569112578991055,0.7172083586454391
1772547800025526000,4.532526123046875,2.019690740519017,9.569286181992291,0.7210970366470515
1772547800035564300,4.542564208984375,2.014824303526431,9.569905775195359,0.7264757340107113
1772547800045602000,4.55260205078125,2.006982065593451,9.57104208574891,0.7332156367249787
1772547800055640300,4.562640380859375,1.9966056330077349,9.5726296472013,0.7407660521045327
1772547800065678000,4.572677978515625,1.9843398795440792,9.574554477784037,0.7488047624576837
1772547800075716000,4.582716064453125,1.9711036736130714,9.576590367525815,0.7576620226521045
1772547800085754000,4.592754150390625,1.9576845123305915,9.578523965936899,0.7679395249079912
1772547800095793200,4.602793212890625,1.9443902926020322,9.580234276986122,0.7802612463425844
1772547800105831700,4.612831787109375,1.93142837356776,9.581707856670022,0.7942510471198707
1772547800115869400,4.622869384765625,1.9183229544095695,9.583112462770938,0.8089362097501754
1772547800125907500,4.632907470703125,1.9051435932323335,9.58456616871059,0.8227209164094179
1772547800135945500,4.642945556640625,1.8924293653488158,9.586075988751649,0.8344117925945669
1772547800145983500,4.6529833984375,1.8808565625853835,9.587516250687838,0.8439816580377518
1772547800156021500,4.663021484375,1.8709939247407017,9.588762451356649,0.8517009271781891
1772547800166059500,4.6730595703125,1.8634142832666634,9.589651509150862,0.8582755563281476
1772547800176097300,4.68309716796875,1.8578303456544876,9.590266426178813,0.8634997937824577
1772547800186135600,4.693135498046875,1.8543427957996725,9.590634674969316,0.8669115019220859
1772547800196173300,4.70317333984375,1.8524844545818864,9.59086614563763,0.8683191036976874
1772547800206212600,4.713212646484375,1.851687166724354,9.591012276110053,0.8683830357793718
1772547800216250400,4.72325048828125,1.851128509928286,9.5911285959661,0.8683066095422953
1772547800226288600,4.73328857421875,1.8497182047389447,9.591394553425907,0.8683717837329954
1772547800236326400,4.743326416015625,1.8460439001403748,9.592018238282202,0.8693110373444854
1772547800246364700,4.75336474609375,1.8393970094718037,9.593060440811515,0.8718826413981616
1772547800256402400,4.76340234375,1.8295565834589302,9.59452408362329,0.876477275712043
1772547800266440400,4.7734404296875,1.8172202489770948,9.596301030167936,0.88265837549977
1772547800276478500,4.783478515625,1.8032577745981513,9.598339257997274,0.8891367046684027
1772547800286516500,4.7935166015625,1.78869017393291,9.600557518568634,0.894588028876856
1772547800296554500,4.803554443359375,1.7747852749601005,9.60276818035543,0.8985520371370017
1772547800306592500,4.813592529296875,1.7627629748634992,9.60476198452115,0.9008874212820083
1772547800316631600,4.823631591796875,1.752702914750576,9.606581601163745,0.9011253947563469
1772547800326669600,4.833669677734375,1.7439108287468552,9.608341012051701,0.8994264088187366
1772547800336707600,4.84370751953125,1.735270718434453,9.610259412893653,0.8956334462765604
1772547800346745600,4.85374560546875,1.7257558711141348,9.61255950652957,0.8893114767134189
1772547800356783400,4.863783447265625,1.7152778778500855,9.615146015891431,0.8815882620502262
1772547800366821600,4.873821533203125,1.704227345395088,9.617813189274072,0.8738791489776223
1772547800376859400,4.883859375,1.693362252509594,9.620392099851369,0.8665824891634285
1772547800386897700,4.893897705078125,1.6827556644298136,9.622830140653251,0.8601452957227825
1772547800396935400,4.903935302734375,1.6726405131287871,9.62510743793547,0.8543876089788973
1772547800406973700,4.9139736328125,1.6633951303996144,9.627187751340866,0.848961930668354
1772547800417011500,4.924011474609375,1.6557659506954252,9.6290050298959,0.8432422378472983
1772547800427049500,4.934049560546875,1.6502933645032345,9.630440031135082,0.83756251171045
1772547800437088500,4.944088623046875,1.6468137056939303,9.631568158382176,0.8314385489374398
1772547800447126300,4.954126220703125,1.644855849624425,9.63255132420063,0.8239003354523331
1772547800457164500,4.96416455078125,1.6437715615190565,9.63355670185089,0.8142487830750643
1772547800467202300,4.974202392578125,1.6430027691036462,9.63467664579153,0.8024673790622502
1772547800477240600,4.984240478515625,1.6415842806078493,9.6359421356827,0.7900834060464054
1772547800487278300,4.9942783203125,1.6389521785385905,9.637337389433384,0.778411453757435
1772547800497316600,5.004316650390625,1.6347474203251302,9.638860653477906,0.7683576772548257
1772547800507354600,5.014354736328125,1.628799179445207,9.640525956341623,0.7600360583070666
1772547800517392400,5.024392333984375,1.6205645811937748,9.642413377523422,0.7536679115146399
1772547800527430700,5.0344306640625,1.6094688944227993,9.644620532178878,0.7492116627581417
1772547800537469700,5.0444697265625,1.5945390363164245,9.647364277929068,0.7457724820896983
1772547800547507500,5.054507568359375,1.5754155259124933,9.65071475740075,0.7430823662228881
1772547800557545500,5.06454541015625,1.5521310964368282,9.654647420674562,0.7410146931033581
1772547800567583500,5.07458349609375,1.5247387932509182,9.659149408268927,0.739172280107066
1772547800577621500,5.08462158203125,1.4939160772249103,9.664045363616943,0.7381037740927189
1772547800587659500,5.094659423828125,1.4603073837421834,9.669153500410914,0.7384750185579061
1772547800597697500,5.104697509765625,1.4245610937088726,9.674368020188808,0.7400169142376631
1772547800607735300,5.1147353515625,1.3877641255788504,9.679534609171748,0.742375313932076
1772547800617773600,5.124773681640625,1.350765059005469,9.684546884375811,0.7452508693683892
1772547800627811300,5.134811279296875,1.3145396071530877,9.689241179671884,0.7489938552889972
1772547800637849600,5.144849609375,1.279619831071794,9.69357365591824,0.7533850759852677
1772547800647887400,5.154887451171875,1.2465085657171904,9.69747183240056,0.758708536030352
1772547800657926700,5.1649267578125,1.216057970939204,9.700853291532397,0.7648688852909952
1772547800667964400,5.17496435546875,1.1885989591926336,9.703709850007295,0.7717795414622872
1772547800678002700,5.185002685546875,1.1650756794597952,9.705984809201956,0.778999555843696
1772547800688040400,5.19504052734375,1.1465434129472822,9.707620301449298,0.7860764354273676
1772547800698078500,5.205078369140625,1.1334617399908602,9.70864263023436,0.7923981127295643
1772547800708116500,5.215116455078125,1.126247497763112,9.709066408604382,0.7974769503638148
1772547800718154500,5.225154541015625,1.1246878472309558,9.708945412573218,0.8011500859186053
1772547800728192500,5.235192626953125,1.127658022148162,9.70839888460636,0.8035835236106067
1772547800738230500,5.24523046875,1.1339320609163492,9.707534376731514,0.8052118554648011
1772547800748268500,5.2552685546875,1.1419059624049812,9.706505033683776,0.8063545957591384
1772547800758306600,5.265306640625,1.1502359838549048,9.705445295497775,0.8072749985396862
1772547800768344300,5.27534423828125,1.1585628634996712,9.704346394345164,0.8085632847845554
1772547800778383600,5.285383544921875,1.1667854790523648,9.70319663978815,0.8105520474489778
1772547800788421400,5.29542138671875,1.175992867858708,9.701822428825498,0.8136725906223058
1772547800798459600,5.305459716796875,1.1872494442798196,9.700116793951391,0.8176637791503221
1772547800808497400,5.315497314453125,1.1998558278746903,9.698223527550697,0.8216985876243561
1772547800818535700,5.32553564453125,1.211604863987863,9.69657634486556,0.823899970126152
1772547800828573400,5.335573486328125,1.2190703044977038,9.69564286340773,0.8238752740763128
1772547800838611700,5.34561181640625,1.2195946206327528,9.695692547768354,0.8225135572690516
1772547800848649500,5.3556494140625,1.2117366736739874,9.69680197031498,0.8210357398014515
1772547800858687500,5.3656875,1.1962443593792618,9.698820908921956,0.8198967988993973
1772547800868725500,5.3757255859375,1.1745990754127502,9.701510294136405,0.8193873880725353
1772547800878763500,5.385763427734375,1.1494205758187919,9.704490186730027,0.8198334513396024
1772547800888801500,5.395801513671875,1.122777191304043,9.707469494801758,0.8214513348650186
1772547800898840300,5.40584033203125,1.0957001646123825,9.710262340390681,0.8250065431285649
1772547800908878600,5.415878662109375,1.0676292315125464,9.712889181762932,0.8308760196838527
1772547800918916400,5.425916259765625,1.0378741447180508,9.715434190070628,0.838769622477889
1772547800928954600,5.43595458984375,1.0054034422893077,9.71804466482997,0.8480351712122559
1772547800938992400,5.445992431640625,0.9702954501595348,9.72073054291308,0.8580755037114024
1772547800949030400,5.456030517578125,0.9334274626199156,9.723405315080285,0.8686056655541062
1772547800959068400,5.466068359375,0.8951280540376901,9.725996500617265,0.879850113146007
1772547800969106400,5.4761064453125,0.8560260238356888,9.728431618809699,0.8917618655402213
1772547800979144400,5.48614453125,0.816621284360066,9.730773798021673,0.9030862465005367
1772547800989182500,5.496182373046875,0.7775449000559747,9.733101948708295,0.9124301942333578
1772547800999220700,5.506220703125,0.7393449332602322,9.735431268438695,0.9193076787874102
1772547801009259500,5.516259521484375,0.7027421725280583,9.737717333549261,0.9237883313328027
1772547801019297500,5.526297607421875,0.6683055037885904,9.739896431154012,0.9263898921333252
1772547801029335600,5.53633544921875,0.6367782196898013,9.74187620679438,0.9277609612908214
1772547801039373300,5.546373291015625,0.6086605248387903,9.743664843776822,0.9278647139262407
1772547801049411600,5.55641162109375,0.5848378968331962,9.745245975488423,0.9265708016581833
1772547801059449300,5.566449462890625,0.5656362431591376,9.746619017407298,0.9240488819651305
1772547801069487600,5.576487548828125,0.5501094420729205,9.747865802598,0.9202546773139387
1772547801079525400,5.586525390625,0.5381388721635565,9.74892904791534,0.9160743959546088
1772547801089563600,5.596563720703125,0.5296819729309529,9.749718152466416,0.9126005823642015
1772547801099604500,5.6066044921875,0.5250052863568068,9.750202136591076,0.910115487550199
1772547801109642800,5.616642822265625,0.524496277388744,9.750386260986328,0.9084225660271942
1772547801119680800,5.6266806640625,0.5282611828802153,9.750336576625704,0.9067853202141821
1772547801129719800,5.6367197265625,0.5360908535925671,9.750129071354866,0.9044148647557944
1772547801139757600,5.646757568359375,0.5465695775089785,9.749828042581678,0.901369432645291
1772547801149795800,5.6567958984375,0.5577699302308261,9.749482005622982,0.89826379478015
1772547801159833600,5.66683349609375,0.5680602554356678,9.74916753284633,0.8952223812576383
1772547801169872000,5.676871826171875,0.5751993866005912,9.749040107074379,0.892047696744278
1772547801179909600,5.68690966796875,0.577463459075056,9.749241767126321,0.8883774107336998
1772547801189947600,5.69694775390625,0.5730417701752856,9.749864282938837,0.8843869528580457
1772547801199985700,5.706985595703125,0.560193467583321,9.750877259373665,0.8814433736868202
1772547801210023700,5.717023681640625,0.5387661372164264,9.752139242133497,0.8808541756220162
1772547801220061700,5.727061767578125,0.509547276190482,9.75344038785994,0.8838287344533949
1772547801230099700,5.737099609375,0.4747156533166766,9.754493696305156,0.8915635664891451
1772547801240137700,5.7471376953125,0.43601102493442595,9.755142515602707,0.9041395549457519
1772547801250175700,5.75717578125,0.39456338145434855,9.755400289756059,0.9202513893783092
1772547801260214800,5.76721484375,0.3508532364023849,9.755306766253709,0.9387553796444088
1772547801270252800,5.777252685546875,0.3051175220732577,9.754853177267313,0.9592312545053661
1772547801280290600,5.78729052734375,0.2576387817353941,9.754096221420168,0.9806288473211229
1772547801290328800,5.797328857421875,0.2101584887612611,9.753161570918559,1.0010166785724461
1772547801300366600,5.80736669921875,0.16432559766797347,9.752317521309852,1.0176941840637475
1772547801310404900,5.81740478515625,0.12217412590063176,9.75176164099276,1.0288840519241989
1772547801320442600,5.827442626953125,0.08403896796940825,9.751520817974209,1.0349627873159943
1772547801330481000,5.83748095703125,0.04922715034119319,9.751472302657366,1.037657871618867
1772547801340518700,5.8475185546875,0.016073108715721172,9.751434893256425,1.039049106781557
1772547801350556700,5.857556640625,-0.01725509988327976,9.7513343554914,1.039986168435961
1772547801360594700,5.8675947265625,-0.05324845087968278,9.751242585554719,1.0396320943012833
1772547801370632700,5.8776328125,-0.09380629221345298,9.751250184339284,1.0366794550407676
1772547801380671700,5.887671630859375,-0.1378012820887845,9.751455936044454,1.0298008745081721
1772547801390709800,5.897709716796875,-0.18241276902779935,9.751914785727857,1.0184596154782921
1772547801400747800,5.907747802734375,-0.22424586816150693,9.752671741575002,1.0027362689066677
1772547801410785800,5.917785888671875,-0.25935449961209667,9.753586518332362,0.9852161751113832
1772547801420823800,5.92782373046875,-0.28467436217181386,9.754569099628926,0.9683622170746325
1772547801430861800,5.93786181640625,-0.29830840831398964,9.755552849969268,0.9542370264146477
1772547801440899600,5.947899658203125,-0.30137512067453937,9.756454182723164,0.9440029249090701
1772547801450937900,5.957937744140625,-0.29777205468127504,9.756899588403105,0.9405451126053929
1772547801460975600,5.9679755859375,-0.2932094960060902,9.756185887175798,0.9493310611292719
1772547801471014000,5.978013916015625,-0.2975844779536128,9.753332251310347,0.9769026664048432
1772547801481051600,5.9880517578125,-0.321809549280256,9.74743384092152,1.0268224432192743
1772547801491090000,5.99808984375,-0.3687329938229173,9.737731946596503,1.1004635796219109
1772547801501127700,6.008127685546875,-0.4345748181188479,9.72404945820272,1.193472994969785
1772547801511166700,6.018166748046875,-0.5161822937581688,9.706620769017935,1.2982469362609088
1772547801521204700,6.028204833984375,-0.6138895845986903,9.685504915753006,1.4087266879782079
1772547801531242500,6.038242431640625,-0.7286850075580179,9.660709497192501,1.5199001210480927
1772547801541280800,6.04828076171875,-0.8579332456964999,9.632295888134836,1.6288682991586625
1772547801551318500,6.058318603515625,-0.9982463370762765,9.599898177877067,1.7366167262159287
1772547801561356800,6.068356689453125,-1.1458753774926065,9.562539045819639,1.8480217760846018
1772547801571394600,6.07839453125,-1.2957310079172253,9.519580194059014,1.9669947769895195
1772547801581432800,6.088432861328125,-1.44223250560835,9.472432073915003,2.088873436208069
1772547801591470600,6.098470703125,-1.5903043213561177,9.421275887173413,2.2092706246972083
1772547801601508600,6.108508544921875,-1.7418813687458634,9.366587434652446,2.324493040896952
1772547801611547000,6.118546875,-1.8907887585349379,9.312494025415182,2.4233748554095627
1772547801621584600,6.128584716796875,-2.0401871467113493,9.26197496753335,2.494760467970371
1772547801631623000,6.138622802734375,-2.198664475008845,9.214500099653005,2.5355954594448207
1772547801641660700,6.14866064453125,-2.368576658903807,9.168752493956685,2.548373984736204
1772547801651699700,6.15869970703125,-2.5416902691885825,9.122219290840626,2.5485893810525533
1772547801661737700,6.16873779296875,-2.7086931415081024,9.07274944975078,2.5531492363139985
1772547801671775700,6.178775634765625,-2.863125578328967,9.019832098555565,2.572067287273705
1772547801681813800,6.188813720703125,-2.997128390583396,8.966801934635638,2.6046234029635786
1772547801691851500,6.1988515625,-3.0955922719448803,8.920415446513891,2.648376035450399
1772547801701889800,6.208889892578125,-3.1369965877398847,8.88960763579607,2.7026857177868484
1772547801711927600,6.218927490234375,-3.1102585106790066,8.88033594958186,2.7633856856822967
1772547801721965800,6.2289658203125,-3.025325142019987,8.892073149126768,2.8193647625356912
1772547801732003600,6.239003662109375,-2.9071412456661463,8.91765708771646,2.862569113489985
1772547801742041900,6.249041748046875,-2.785576766963303,8.943628564319013,2.9021479674234985
1772547801752079600,6.25907958984375,-2.6758777903601527,8.959993423664569,2.9544170838430523
1772547801762117600,6.26911767578125,-2.5727391951858998,8.96804871982634,3.0208424436479806
1772547801772155600,6.27915576171875,-2.466783496764302,8.973732026159762,3.0915199079394338
1772547801782193700,6.289193603515625,-2.3584981863513588,8.979696487522125,3.157994075322151
1772547801792232700,6.299232666015625,-2.2610629173852503,8.985065321078896,3.2135011507496234
1772547801802270700,6.309270751953125,-2.1833115691848097,8.986987813574075,3.26153131442517
1772547801812308700,6.319308837890625,-2.126141236720234,8.984027794724703,3.3071339586928485
1772547801822346800,6.3293466796875,-2.0885605708666146,8.977976239600777,3.347276876249909
1772547801832384800,6.339384765625,-2.063768513306975,8.971081219390035,3.3809652108401056
1772547801842422800,6.3494228515625,-2.0497857267923654,8.965709463223815,3.40364495242089
1772547801852460500,6.35946044921875,-2.0444437812425194,8.9601787171036,3.4213770084664223
1772547801862498800,6.369498779296875,-2.0382243222057816,8.952354891610145,3.4454873673722144
1772547801872536600,6.37953662109375,-2.024342073456198,8.942649490153789,3.478713637408614
1772547801882574800,6.389574951171875,-2.0034914469987153,8.932532585287094,3.516571366637945
1772547801892612600,6.399612548828125,-1.9840116705030202,8.920393819203973,3.558181434138119
1772547801902651000,6.40965087890625,-1.988351745533943,8.899575487580895,3.6075469380706546
1772547801912688600,6.419688720703125,-2.042137842387706,8.858413456109165,3.6781191884219644
1772547801922726700,6.4297265625,-2.15080396881178,8.79290725697577,3.7721594081223007
1772547801932764700,6.4397646484375,-2.321826159775257,8.721469914227724,3.8360724928453562
1772547801942803700,6.4498037109375,-2.5440090675249696,8.664699394735694,3.8237934415087103
1772547801952841700,6.459841796875,-2.7815377207055687,8.619062263676524,3.7610116989031432
1772547801962879700,6.469879638671875,-3.009565555091202,8.578516902798414,3.6772228241041303
1772547801972917800,6.479917724609375,-3.211892546509206,8.54172709506154,3.5906840660750863
1772547801982955800,6.489955810546875,-3.3733103121727703,8.508843062591552,3.52004927188158
1772547801992993800,6.499993896484375,-3.4634997016638516,8.485391459855437,3.4889380943030117
1772547802003031800,6.51003173828125,-3.460980704580247,8.475448742511867,3.515502860623598
1772547802013069600,6.520069580078125,-3.400333635915816,8.473273736560344,3.5793484330683945
1772547802023107800,6.53010791015625,-3.3439585454821583,8.472205230545997,3.6345661701604723
1772547802033145600,6.5401455078125,-3.309010858480632,8.473830785921216,3.6626527392208574
1772547802043183900,6.550183837890625,-3.271974382506311,8.478432142236828,3.6852094389438625
1772547802053221600,6.5602216796875,-3.214724262803793,8.4809274661839,3.729586633069813
1772547802063259600,6.570259765625,-3.1431290991455314,8.474372053191065,3.8047546867787836
1772547802073297700,6.580297607421875,-3.06351429516077,8.45789496564269,3.9050323395639657
1772547802083335700,6.590335693359375,-2.9720220063775775,8.43387286954224,4.025824372589588
1772547802093374700,6.600374755859375,-2.8984760009124875,8.415492578721047,4.1168814848259085
1772547802103409400,6.610409423828125,-2.8758848143979905,8.41804109416008,4.1275004939958455
1772547802113447400,6.620447509765625,-2.8969088977262376,8.43351689571142,4.080944202265143
1772547802123485400,6.6304853515625,-2.938646683259308,8.448410513460635,4.0198382839173075
1772547802133523500,6.6405234375,-2.982872193954885,8.460065879940986,3.962340911455452
1772547802143561500,6.6505615234375,-3.0180332314461467,8.469935532048344,3.9143376357868314
1772547802153599500,6.660599609375,-3.039058776079118,8.481156014242767,3.873562850067019
1772547802163637500,6.670637451171875,-3.050439709532261,8.494698217383027,3.834749135287106
1772547802173675500,6.680675537109375,-3.048508156947791,8.510741005167365,3.8005619112640616
1772547802183713500,6.690713623046875,-3.0278581676289438,8.528886902710795,3.7763156510189173
1772547802193751600,6.70075146484375,-2.990093085119128,8.548297705623508,3.7624905392840504
1772547802203789600,6.71078955078125,-2.9434976304218172,8.568054545494913,3.7542820983871814
1772547802213827300,6.720827392578125,-2.8979239199876785,8.587687466725706,3.7448683733537793
1772547802223865600,6.730865478515625,-2.86049902921766,8.60662714499533,3.7301337455585597
1772547802233903400,6.7409033203125,-2.8316028973400593,8.624690040430426,3.7104102234348653
1772547802243941600,6.750941650390625,-2.8138667496412992,8.641968507489562,3.6836005424425005
1772547802253980400,6.76098046875,-2.8058538313165307,8.657846460101007,3.6522938422918316
1772547802264018400,6.771018310546875,-2.8007670295715332,8.672622004428506,3.62101169206053
1772547802274056400,6.781056396484375,-2.794014632701874,8.686690277269483,3.5923908699929714
1772547802284094500,6.791094482421875,-2.7843150764644142,8.700069398802519,3.567460426875949
1772547802294132500,6.801132568359375,-2.7735245101198553,8.71312060355544,3.543936343425512
1772547802304170500,6.81117041015625,-2.7643858026355503,8.726413800370693,3.51827758603394
1772547802314208500,6.82120849609375,-2.7565394730493424,8.740793038856983,3.4886119310885664
1772547802324246500,6.83124658203125,-2.748836643587053,8.75629455937147,3.455658925035596
1772547802334284500,6.841284423828125,-2.741645855300128,8.772802626579999,3.4193107235863804
1772547802344322600,6.851322509765625,-2.736386911858618,8.789217754808067,3.381157226280868
1772547802354360600,6.861360595703125,-2.735974823926389,8.804196128231286,3.342297626532614
1772547802364398600,6.871398681640625,-2.741467283862829,8.817101787033677,3.303552008552849
1772547802374436400,6.881436279296875,-2.751659884314239,8.82753900989592,3.2670027315735815
1772547802384474600,6.891474609375,-2.7624384679600595,8.835876630130409,3.2352138008639213
1772547802394512400,6.901512451171875,-2.7707281573995948,8.84236482310593,3.2103046927958725
1772547802404550700,6.911550537109375,-2.7763842834651467,8.847022293522954,3.192533766044676
1772547802414588400,6.92158837890625,-2.781427246068418,8.849842027118802,3.1803029377639294
1772547802424627500,6.93162744140625,-2.7872391472175715,8.850269897142052,3.174021665537357
1772547802434665500,6.94166552734375,-2.793364936621487,8.847975648725033,3.1750320116236805
1772547802444703500,6.951703369140625,-2.7984672281965612,8.844203144448995,3.181044988302886
1772547802454741500,6.961741455078125,-2.8059380024686456,8.839152875322103,3.188492966221273
1772547802464779300,6.971779296875,-2.8176068129524587,8.832969802772999,3.1953283651992677
1772547802474817500,6.981817626953125,-2.8382725843623278,8.82362329775691,3.2028508696585893
1772547802484855300,6.991855224609375,-2.8725357962310314,8.808799822634459,3.2130957848191257
1772547802494893600,7.0018935546875,-2.9202129086852073,8.787209337595105,3.229196440270543
1772547802504931300,7.011931396484375,-2.978049011582136,8.758397084608674,3.2545506617575883
1772547802514969300,7.02196923828125,-3.0516768501117824,8.726336058959365,3.2724174500986933
1772547802525007400,7.03200732421875,-3.1507594478935,8.691342486989498,3.2716458812043068
1772547802535045400,7.04204541015625,-3.265423645688593,8.6496742595613,3.269638633035123
1772547802545083600,7.052083740234375,-3.385353508926928,8.601825882193445,3.273889276216924
1772547802555121400,7.062121337890625,-3.511711067125201,8.548838388371466,3.2795763819426296
1772547802565159700,7.07215966796875,-3.6470293458923697,8.49083102056086,3.282582285760343
1772547802575197400,7.082197509765625,-3.789166072502732,8.429067515087127,3.2807693911194797
1772547802585235500,7.0922353515625,-3.9328830540418624,8.366030920937657,3.272971576850116
1772547802595274500,7.1022744140625,-4.072484709216654,8.303198324927687,3.2622315716490147
1772547802605312300,7.112312255859375,-4.205451456421613,8.24328892288804,3.2454204298406837
1772547802615350500,7.1223505859375,-4.328014298512041,8.190736897873878,3.2172181254461405
1772547802625388300,7.13238818359375,-4.436320067191124,8.14789611953497,3.1782419135808944
1772547802635426600,7.142426513671875,-4.528105785962939,8.115728126379848,3.13074834100008
1772547802645464300,7.15246435546875,-4.597993853442371,8.096837547948956,3.0773461288973687
1772547802655502600,7.162502685546875,-4.641734210969507,8.092360694795847,3.022975656284392
1772547802665540400,7.172540283203125,-4.663415296901762,8.09951641176939,2.9699779333293437
1772547802675578400,7.182578369140625,-4.669622919370234,8.114972339576482,2.917572331048548
1772547802685616400,7.192616455078125,-4.656386713439226,8.140829249888657,2.8662448793932795
1772547802695654400,7.202654296875,-4.617712991651892,8.179903953692316,2.817143579354882
1772547802705692400,7.2126923828125,-4.555692588807642,8.231475150975584,2.76746331038475
1772547802715730400,7.22273046875,-4.477537920503318,8.291888410884141,2.7141537450015543
1772547802725768400,7.2327685546875,-4.38801313240081,8.358037584096193,2.656865046854317
1772547802735806500,7.242806396484375,-4.28866428489834,8.426414370229839,2.60255068834275
1772547802745844500,7.252844482421875,-4.197315203978121,8.48059253514111,2.575361944904923
1772547802755882500,7.262882568359375,-4.11300873504579,8.523179046458006,2.5707944908589124
1772547802765920500,7.27292041015625,-4.0061508270874615,8.582296421337126,2.5427020765796304
1772547802775958500,7.28295849609375,-3.879158185856044,8.648019478091596,2.5167986967772245
1772547802785997300,7.292997314453125,-3.718471072554588,8.709264512649177,2.5479534212365746
1772547802796035600,7.30303564453125,-3.5298657324969764,8.754363299047947,2.659239082509279
1772547802806073300,7.3130732421875,-3.346615489731729,8.777209337106347,2.816229971641302
1772547802816111600,7.323111572265625,-3.1998247998356817,8.798335711765288,2.919039773252606
1772547802826149400,7.3331494140625,-3.1320176302835345,8.825931574699283,2.9092566303849217
1772547802836187400,7.3431875,-3.1267741766721007,8.851534802511335,2.8361940245226025
1772547802846225400,7.353225341796875,-3.1412206351757046,8.872791525551676,2.752576999159157
1772547802856263400,7.363263427734375,-3.151796389725804,8.894048833113908,2.6706682390183207
1772547802866301400,7.373301513671875,-3.148721220064163,8.918568357342481,2.5913521257191894
1772547802876339500,7.38333935546875,-3.1321415489241478,8.946268265172838,2.514826812182367
1772547802886377500,7.39337744140625,-3.1047847554430366,8.976340747353435,2.440492578949034
1772547802896415500,7.40341552734375,-3.066480451489985,9.0083871599555,2.3698205214850603
1772547802906453200,7.413453369140625,-3.011268267355859,9.04214388360679,2.3113415906399486
1772547802916491500,7.423491455078125,-2.9341271600082517,9.075358755466342,2.280159685912728
1772547802926529300,7.433529296875,-2.8458155470877884,9.101753425917028,2.2868705817282198
1772547802936567600,7.443567626953125,-2.7612878366202116,9.118365538021921,2.3240254233852027
1772547802946605600,7.45360546875,-2.683514276587963,9.12883198697865,2.3735133846536276
1772547802956643600,7.4636435546875,-2.6191721527978777,9.135709471532701,2.4185006735019385
1772547802966681600,7.473681640625,-2.5740350802153347,9.1406913515985,2.447958677046001
1772547802976719400,7.48371923828125,-2.544576638279855,9.147737178456783,2.452432899850607
1772547802986757600,7.493757568359375,-2.524755793261528,9.158272016474603,2.4335297541990877
1772547802996796400,7.50379638671875,-2.516467565126717,9.16950769623816,2.3995630410589275
1772547803006834400,7.51383447265625,-2.5189555825501677,9.17935162938237,2.358969603255391
1772547803016872400,7.52387255859375,-2.5214012221366167,9.188950063332914,2.3186441687382757
1772547803026910500,7.533910400390625,-2.514725397634506,9.19964506034851,2.2832152740910647
1772547803036948500,7.543948486328125,-2.4977476670876144,9.21081819626987,2.2566545994237064
1772547803046986500,7.553986572265625,-2.473471888487041,9.22111162674725,2.2412990632511676
1772547803057024500,7.5640244140625,-2.447553895637393,9.229476719510554,2.235311513274163
1772547803067062300,7.574062255859375,-2.422174831970036,9.236521377325058,2.2338579534649847
1772547803077100500,7.5841005859375,-2.396841214879602,9.24306217727065,2.234127710317075
1772547803087138300,7.59413818359375,-2.369996900965273,9.248982214969397,2.2382645178608596
1772547803097176600,7.604176513671875,-2.3397771192684766,9.253884600058198,2.2497651321709156
1772547803107218000,7.614218017578125,-2.3051465353921055,9.257742444530129,2.2695526594415307
1772547803117256200,7.624256103515625,-2.2668216270424426,9.260327200326323,2.29744940501824
1772547803127294000,7.6342939453125,-2.2263896634109317,9.261654065015911,2.3313826542802154
1772547803137332200,7.644332275390625,-2.187282957033813,9.26206732199192,2.3664915231928227
1772547803147370000,7.654369873046875,-2.1531005553163585,9.261791427659988,2.3986964873574674
1772547803157408000,7.664407958984375,-2.1258770328260956,9.261026873028278,2.425777824898064
1772547803167446000,7.674446044921875,-2.106623466301709,9.259682472681998,2.4476120555654166
1772547803177484000,7.684484130859375,-2.0964573154658077,9.257602743798493,2.4641508101731535
1772547803187522000,7.69452197265625,-2.0952650369413197,9.255350580957531,2.4736074975654483
1772547803197560000,7.70456005859375,-2.1057421534225345,9.252496945092082,2.475388828024268
1772547803207598000,7.71459814453125,-2.1275014191575345,9.24906930873096,2.4695859869644043
1772547803217636000,7.724635986328125,-2.155538888379186,9.24653131468594,2.454731824442744
1772547803227675100,7.734675048828125,-2.1863591201871633,9.245491450244188,2.4312765684448183
1772547803237713200,7.744713134765625,-2.216183618956059,9.245564515480398,2.40383911094293
1772547803247751000,7.7547509765625,-2.2411482566036285,9.24634543672502,2.377545855040103
1772547803257789200,7.7647890625,-2.260775332615524,9.247113498488067,2.3558758750237523
1772547803267827000,7.774826904296875,-2.2742431553453204,9.248086727434396,2.3390365300342437
1772547803277865200,7.784865234375,-2.2808162501253184,9.249714036375284,2.326170180328935
1772547803287903000,7.794903076171875,-2.2805198975272476,9.251985488438606,2.3174092201158403
1772547803297941200,7.804941162109375,-2.2736935586385427,9.254546863359213,2.313884845381975
1772547803307979000,7.81497900390625,-2.2600914420045912,9.257541953521967,2.3152328989900646
1772547803318017000,7.82501708984375,-2.240581416501105,9.261112797746062,2.3199138964131474
1772547803328055000,7.835054931640625,-2.2166259558960792,9.265539966538547,2.3252330456092953
1772547803338093000,7.845093017578125,-2.190925551319867,9.270655702117084,2.3292023876316845
1772547803348131000,7.855131103515625,-2.165881126434356,9.275768515086174,2.3322661591164766
1772547803358169000,7.865169189453125,-2.143506213019043,9.279935571637749,2.336356497170031
1772547803368207000,7.87520703125,-2.12292227467373,9.28288156196177,2.343435641776025
1772547803378245000,7.8852451171875,-2.1036182931363583,9.284792948541044,2.353250348825753
1772547803388283100,7.895283203125,-2.0864440171040592,9.286036226600409,2.3636107070595025
1772547803398321200,7.905321044921875,-2.0714133289717136,9.287068492257594,2.372762712416798
1772547803408359200,7.915359130859375,-2.059027748520672,9.288183760023117,2.3791665881097317
1772547803418397200,7.925397216796875,-2.0499453012682496,9.289430545213818,2.3821418045282363
1772547803428435200,7.935435302734375,-2.04406968723312,9.290911723682283,2.381414367036521
1772547803438473000,7.945472900390625,-2.0413624741010366,9.292807328170538,2.3763388173379
1772547803448511200,7.95551123046875,-2.042293909732252,9.294846725043653,2.367539278680086
1772547803458549000,7.965549072265625,-2.0447065238319335,9.296973215678333,2.3570858353354036
1772547803468587300,7.975587158203125,-2.04503940904811,9.299605317747593,2.3463885002322495
1772547803478625000,7.985625,-2.0430609485819935,9.302631972092389,2.336089370666444
1772547803488661000,7.995660888671875,-2.040095376774669,9.305700127491354,2.3264457823999223
1772547803498699300,8.00569921875,-2.034957283233851,9.308634427377582,2.31919595740214
1772547803508737000,8.015737060546876,-2.025987210314721,9.311597953358293,2.3151437594018875
1772547803518775000,8.025775146484374,-2.0132918332621452,9.314723391902445,2.313648114016652
1772547803528813000,8.03581298828125,-1.9960800016984341,9.318418154767155,2.3136840621128676
1772547803538851000,8.04585107421875,-1.9747860153876244,9.322920142361522,2.31381996345222
1772547803548889000,8.05588916015625,-1.951376352097094,9.327837725019455,2.313865117768198
1772547803558927000,8.065927001953124,-1.9265382634386419,9.333048153144121,2.3136600967153904
1772547803568965000,8.075965087890625,-1.9000978541500866,9.33873788921833,2.312570547913015
1772547803579004200,8.086004150390625,-1.8722033005304632,9.34496538543105,2.310162756118923
1772547803589042200,8.096042236328126,-1.8430330278865992,9.351740578654407,2.3062008667506277
1772547803599080200,8.106080078125,-1.8131334180548786,9.358629753646253,2.3019508080907163
1772547803609118000,8.116117919921875,-1.782751723794639,9.365423651570081,2.2980481015637517
1772547803619156200,8.12615625,-1.751738453632593,9.372218134015798,2.294191572266072
1772547803629194000,8.136194091796876,-1.7201907843329012,9.379344040372967,2.288938620173931
1772547803639232300,8.146232177734374,-1.688789976157993,9.387144484990834,2.28033299665302
1772547803649270000,8.15627001953125,-1.657615524084866,9.39573052702844,2.2678059619046746
1772547803659308300,8.166308349609375,-1.6263165688492356,9.404819842413067,2.252740494719893
1772547803669346000,8.176345947265625,-1.595444752984494,9.413968779030442,2.2365426625043154
1772547803679384000,8.186384033203124,-1.5655873748593032,9.42286695575714,2.220110583141446
1772547803689422000,8.196422119140625,-1.5368419034987688,9.431547105818986,2.2032747452832755
1772547803699460000,8.206460205078125,-1.5097497523032128,9.440298567551373,2.184448756521195
1772547803709498000,8.216498046875,-1.4854646213524043,9.449307218915223,2.1620275197461245
1772547803719536000,8.2265361328125,-1.4633118262551723,9.458540911206603,2.1366053475894033
1772547803729574100,8.23657421875,-1.4407830374523996,9.468051666873693,2.1096314159460365
1772547803739612200,8.246612060546875,-1.4166113037481902,9.477634903255105,2.082794554685801
1772547803749650000,8.25664990234375,-1.3915017046719789,9.48695042861104,2.0571485106453298
1772547803759688200,8.266688232421876,-1.366264095301926,9.495914071789384,2.032564104487002
1772547803769726000,8.276725830078124,-1.338768477872014,9.50492564576268,2.0085966611832378
1772547803779764200,8.28676416015625,-1.3054201888911425,9.51447790248394,1.9851834907613692
1772547803789802000,8.296802001953125,-1.2648928020611405,9.524581363347172,1.9628484709650278
1772547803799842000,8.306842041015624,-1.218989932737872,9.53484147607684,1.9419737329795956
1772547803809880000,8.316880126953125,-1.1714786053046584,9.544815757602453,1.9221089026890694
1772547803819918000,8.32691796875,-1.1237721936907619,9.554265722993016,1.9035576392151414
1772547803829957000,8.33695703125,-1.074613172115758,9.563244563740492,1.8867767464146017
1772547803839995100,8.3469951171875,-1.022710331725329,9.572149754729866,1.870405165067315
1772547803850033200,8.357033203125,-0.9678704880349337,9.581046762412786,1.8539590571790932
1772547803860071200,8.3670712890625,-0.9116440853569656,9.589887071472406,1.8366683151602743
1772547803870109200,8.377109130859376,-0.8551095665778964,9.598791093418,1.81724772150591
1772547803880147000,8.38714697265625,-0.7980401372045278,9.608103696164488,1.7938409808248281
1772547803890185200,8.397185302734375,-0.7369770350851118,9.617972179228067,1.7668856077514588
1772547803900223000,8.407222900390625,-0.6680538671150803,9.628156888633965,1.7385845191575586
1772547803910261200,8.41726123046875,-0.5921804416157305,9.638515201041102,1.7084306423038242
1772547803920299000,8.427299072265624,-0.5165235449438914,9.649127195948362,1.67269618883878
1772547803930337300,8.437337158203125,-0.44643787253312767,9.660218498805165,1.6282614193066953
1772547803940375000,8.447375,-0.3816046772904694,9.671551793724298,1.5766491593606768
1772547803950413000,8.4574130859375,-0.31860560213979333,9.68219710637927,1.524445509392768
1772547803960451000,8.467451171875,-0.2601570116340183,9.691474637812375,1.4758255631305277
1772547803970489000,8.477489013671875,-0.20950820815898477,9.699936761209369,1.4274951013341546
1772547803980527000,8.487527099609375,-0.1640978350603953,9.707815531760454,1.3790443741589784
1772547803990565000,8.497565185546875,-0.12197459387369453,9.715013334310054,1.3319317637197672
1772547804000603100,8.50760302734375,-0.0840206194619648,9.721686820724607,1.2853477071993051
1772547804010641200,8.51764111328125,-0.05228676167409867,9.728255093199014,1.236410365550965
1772547804020679000,8.527678955078125,-0.02627316524615744,9.734912213000655,1.1837137444343417
1772547804030717200,8.53771728515625,-0.00021212620107426117,9.741841135481,1.1255658721745014
1772547804040755000,8.5477548828125,0.03475288366534514,9.749128369879722,1.0600329311646521
1772547804050793200,8.557793212890624,0.08176881281402892,9.756595637020467,0.9861655117254704
1772547804060831000,8.5678310546875,0.1388218664413318,9.763870011937618,0.9044060238622128
1772547804070869200,8.577869140625,0.20633233633553608,9.7703944452703,0.816836826806888
1772547804080907000,8.587906982421876,0.2850640373428352,9.775377494379878,0.7287712245367467
1772547804090945000,8.597945068359374,0.3696636988017708,9.778253342077136,0.6476983306981623
1772547804100983000,8.607983154296875,0.4538777402102947,9.779038939496875,0.5785987467152998
1772547804111018000,8.61801806640625,0.5300746985755861,9.778322315660118,0.5232875957187265
1772547804121055700,8.6280556640625,0.589948006388545,9.776908357208967,0.4841454527020454
1772547804131093800,8.63809375,0.6302342779390514,9.775511934414505,0.46107269321568306
1772547804141131800,8.6481318359375,0.6534423542428761,9.774503049632907,0.45000604987610127
1772547804151169800,8.658169677734374,0.6662500325635076,9.773764798486232,0.44725828553792085
1772547804161207800,8.668207763671875,0.6754032069645821,9.772941791665554,0.45149475406389683
1772547804171245800,8.678245849609375,0.6845533126257359,9.77179262163043,0.4624385382087901
1772547804181283800,8.688283935546876,0.6953085153959692,9.7702413005352,0.4788973959807306
1772547804191321900,8.69832177734375,0.7072855881113559,9.76836089361608,0.4992479639615863
1772547804201361000,8.70836083984375,0.7186308657292276,9.766353060925006,0.5218278253644705
1772547804211399000,8.71839892578125,0.7286623573347926,9.764339383015036,0.5450706807207316
1772547804221436700,8.728436767578126,0.7354561821933835,9.762566528123617,0.5672513136729598
1772547804231475000,8.738474853515624,0.7380599349509924,9.76123732534647,0.5864435053989291
1772547804241512700,8.7485126953125,0.7350744893994182,9.760383338865637,0.6041287996932864
1772547804251551000,8.758551025390625,0.7201557372089475,9.760237792915106,0.6241399065867066
1772547804261588700,8.768588623046876,0.6874474996972829,9.760904147869349,0.6500303538423031
1772547804271627000,8.778626953125,0.6369275650326163,9.762212307858466,0.6811036105632782
1772547804281664800,8.788664794921875,0.5714605288658291,9.763888716638087,0.7143284923601895
1772547804291702800,8.798702880859375,0.49606370790228244,9.765516610100864,0.7476468245942145
1772547804301740800,8.80874072265625,0.4177028129687533,9.766744106069206,0.7788612433515488
1772547804311778800,8.81877880859375,0.34104510522391646,9.767657129260897,0.804340187196806
1772547804321816800,8.82881689453125,0.26913928644759577,9.768371415010094,0.822737940609455
1772547804331854800,8.838854736328125,0.20329941664673387,9.768712191271781,0.8374375701565295
1772547804341892900,8.848892822265626,0.1433793836152181,9.768370830488204,0.8536681355979293
1772547804351931000,8.858930908203124,0.08819772248351945,9.767187758183479,0.8744391209479421
1772547804361968600,8.86896875,0.037546268110384695,9.76532079526782,0.8986058131508529
1772547804372007000,8.8790068359375,-0.007354303148164763,9.762983876752854,0.924395284250006
1772547804382044700,8.889044677734375,-0.047291565469000485,9.760317287892102,0.9509753942701965
1772547804392083000,8.8990830078125,-0.08401756898835301,9.757333888167143,0.9786519212249666
1772547804402120700,8.90912060546875,-0.1183221723133698,9.7538676733613,1.0091866871550679
1772547804412158700,8.91915869140625,-0.1518818572889082,9.74974854760468,1.0438957430951297
1772547804422197000,8.929197021484375,-0.189321890829131,9.74487948026359,1.0825176616299896
1772547804432234800,8.93923486328125,-0.23378586818939073,9.739314831873774,1.1231618797726928
1772547804442273000,8.94927294921875,-0.28476107234088704,9.733193718644976,1.163724995503202
1772547804452310800,8.959310791015625,-0.34118023937828834,9.726686820968984,1.2023095777023582
1772547804462349000,8.96934912109375,-0.4063447124019265,9.719785371017455,1.237357875534147
1772547804472386800,8.97938671875,-0.48160734905917196,9.712331547880172,1.2684833738990127
1772547804482424800,8.9894248046875,-0.5564679442541673,9.704451023763419,1.2978332408934832
1772547804492462800,8.999462890625,-0.6131543291267008,9.696806646490096,1.329043641062826
1772547804502500900,9.0095009765625,-0.6409840008165687,9.690223760968447,1.3634883469782768
1772547804512539000,9.019538818359376,-0.645211920709908,9.684917471253872,1.3987401314929127
1772547804522577000,9.029576904296874,-0.6414537372201681,9.680427174097298,1.4311822654142976
1772547804532615000,9.039614990234375,-0.6461018552869559,9.675663905218244,1.4609883517436681
1772547804542653000,9.04965283203125,-0.6688396106652915,9.66970002837777,1.4899461506806313
1772547804552690700,9.059690673828126,-0.7131106410030276,9.662087799808383,1.5185226952150463
1772547804562729000,9.06972900390625,-0.7783407996740191,9.653808047240972,1.5390125255361198
1772547804572766700,9.0797666015625,-0.8578770585298537,9.6462969409585,1.5438256249062716
1772547804582805000,9.089804931640625,-0.9431228541389107,9.64032780342102,1.5313364379502832
1772547804592842800,9.0998427734375,-1.0253867113277315,9.636218030014634,1.504084420017898
1772547804602881800,9.1098818359375,-1.096410431773588,9.633850131839512,1.4687366277828813
1772547804612919800,9.119919921875,-1.1513399995740503,9.632846507754921,1.4328585280634463
1772547804622957800,9.129957763671875,-1.1921142007719725,9.632713821285963,1.4000253489978611
1772547804632995800,9.139995849609376,-1.2270575769245624,9.632239189511537,1.3728328061677515
1772547804643033900,9.150033935546874,-1.2669910895146428,9.630414896693825,1.3491541166774927
1772547804653072000,9.16007177734375,-1.3203960780963302,9.627660629549622,1.3172187632344663
1772547804663110000,9.17010986328125,-1.3853086952507494,9.625169397255778,1.2678525286495685
1772547804673148000,9.18014794921875,-1.4507448978878557,9.623953591725229,1.2021831017784774
1772547804683186000,9.19018603515625,-1.5074290542706845,9.624707624962925,1.1238507388196886
1772547804693224000,9.200223876953125,-1.550276116219908,9.627383566173911,1.0394785842400043
1772547804703262000,9.210261962890625,-1.581409359499812,9.63113152053058,0.9543697859488427
1772547804713299700,9.2202998046875,-1.6075369034469127,9.634484338089823,0.8734583662822842
1772547804723338000,9.230337890625,-1.6405563988648355,9.635564534541963,0.7967916715133935
1772547804733375700,9.240375732421874,-1.6899029058359563,9.632802668613195,0.7237056117102504
1772547804743414000,9.2504140625,-1.7632479819014668,9.6246070871979,0.6544406445652247
1772547804753451800,9.26045166015625,-1.8668419196277857,9.60940542641282,0.5870404849113896
1772547804763489800,9.27048974609375,-1.9970516232095659,9.58723158852756,0.5168845602760092
1772547804773527800,9.28052783203125,-2.1382276880942284,9.56035410299599,0.44495895908698435
1772547804783565800,9.29056591796875,-2.273472170972824,9.531676874566077,0.3857908038686961
1772547804793603800,9.300603759765625,-2.3887898642405867,9.504730999973416,0.35237894813232123
1772547804803641900,9.310641845703126,-2.4835972689211365,9.480692537260055,0.34438283481188114
1772547804813679900,9.320679931640624,-2.555423318725824,9.461144956225157,0.3562828967683017
1772547804823718000,9.3307177734375,-2.5920751792967316,9.450219657585023,0.3806056563157588
1772547804833755600,9.340755615234375,-2.5837702922880648,9.451493330782652,0.40471882823314514
1772547804843794000,9.3507939453125,-2.5314792562976476,9.464838550046085,0.422882919020392
1772547804853831700,9.360831787109374,-2.452191200049221,9.48517932728529,0.43417504167892035
1772547804863870000,9.370869873046875,-2.372955166248977,9.505119707030058,0.43835846484340724
1772547804873907700,9.38090771484375,-2.316892356634885,9.519043602964281,0.43611981907114383
1772547804883946000,9.390946044921876,-2.288360966416448,9.526460601222514,0.4246491980405524
1772547804893983700,9.400983642578124,-2.271389373349398,9.531732988667487,0.3965397960938513
1772547804904021800,9.411021728515625,-2.2376314806543287,9.541494504225254,0.3511081975441426
1772547804914059800,9.421059814453125,-2.1625126729145645,9.56061538428068,0.2976104709113948
1772547804924097800,9.431097900390625,-2.033689455255121,9.590332477152346,0.24500172900762407
1772547804934135800,9.4411357421875,-1.8545542465932665,9.627956982147692,0.18297341685155405
1772547804944173800,9.451173828125,-1.6422009512014686,9.667623806625604,0.10302193739148788
1772547804954211800,9.4612119140625,-1.4307115791626275,9.701714292275906,0.01360492165403557
1772547804964249900,9.471249755859375,-1.2792755476787685,9.722653035408257,-0.06201121945737395
1772547804974288000,9.481287841796876,-1.2329856517992912,9.72835680000782,-0.09583639153526163
1772547804984326000,9.491325927734374,-1.2552844312384723,9.725627667304872,-0.08250436968011782
1772547804994364000,9.501364013671875,-1.2702030372984707,9.72395651922226,-0.04022682384769432
1772547805004402000,9.51140185546875,-1.2413016447238623,9.727765848377347,0.010458293049735948
1772547805014440000,9.52143994140625,-1.1759944752939044,9.735731712689995,0.054331766304094344
1772547805024478000,9.53147802734375,-1.0982641698814928,9.744686003518105,0.07283649178913329
1772547805034516700,9.541516845703125,-1.032719246172905,9.751902510768174,0.065457455487689
1772547805044555000,9.551554931640625,-0.9829617472480981,9.757133397158979,0.05026803769625257
1772547805054592800,9.5615927734375,-0.9393247039649635,9.761472303146123,0.04151284050366375
1772547805064630800,9.571630859375,-0.9003525106877088,9.76513316374123,0.04395804169869516
1772547805074668800,9.581668701171875,-0.876740310562402,9.76720237123072,0.05884806098502594
1772547805084706800,9.591706787109375,-0.8758052947346121,9.767081375199556,0.08647234172932804
1772547805094744800,9.601744873046876,-0.8923536939535289,9.765181679058074,0.12376523101697676
1772547805104782800,9.611782958984374,-0.9122834792390465,9.762705644333362,0.1664426994198002
1772547805114820900,9.62182080078125,-0.9200238642327487,9.761122759056091,0.2107077018755488
1772547805124859000,9.63185888671875,-0.9059721772003918,9.761402160519362,0.25421271627685055
1772547805134896600,9.641896728515626,-0.8710363998323678,9.763396549206972,0.2962113264368847
1772547805144935000,9.651934814453124,-0.824912654300034,9.766296946823596,0.33071090434473005
1772547805154972700,9.66197265625,-0.7770563858866691,9.76942238536775,0.35346831427160647
1772547805165011000,9.672010986328125,-0.7302632166601717,9.772642516458033,0.3640740986337885
1772547805175048700,9.682048583984376,-0.6825453338041901,9.776154323971271,0.36236660059615966
1772547805185086700,9.692086669921874,-0.6302181305218487,9.780191616663336,0.3479385545320809
1772547805195125000,9.702125,-0.5685112140735611,9.784842072817682,0.3225730079334229
1772547805205162800,9.712162841796875,-0.4920342331904918,9.79005074737668,0.28846526062106714
1772547805215201000,9.722200927734375,-0.39584216921851034,9.795547006705403,0.2469259020032361
1772547805225238800,9.73223876953125,-0.27784937498997897,9.80062357931733,0.20237557980008422
1772547805235277000,9.742277099609375,-0.140158147413237,9.804391407418251,0.1570330843059346
1772547805245314800,9.752314697265625,0.018606000752293038,9.805969616520404,0.11408384062387049
1772547805255352800,9.762352783203125,0.19955608366625383,9.80431775766015,0.07676869383864104
1772547805265390800,9.772390869140626,0.3870777018740773,9.798887549304961,0.048478222536877724
1772547805275428900,9.782428955078124,0.542561985835433,9.791587455424667,0.02879186321895104
1772547805285467000,9.792466796875,0.6291462635066359,9.786438986620306,0.014108675633312667
1772547805295505000,9.8025048828125,0.6410936717361211,9.785670924857259,0.005245719204578199
1772547805305543000,9.81254296875,0.6022077319702133,9.788141114363073,0.0017347453771028084
1772547805315581000,9.822580810546874,0.5413700361045077,9.791696176496147,-0.00037662942304286844
1772547805325618700,9.83261865234375,0.4744450196817517,9.795165313911438,-0.005158022654816159
1772547805335657000,9.842656982421875,0.408783374258317,9.798115980410575,-0.013721536054316674
1772547805345694700,9.85269482421875,0.3500250419499352,9.800366974207758,-0.025868810812523586
1772547805355733000,9.86273291015625,0.3022704072801396,9.80189257633984,-0.04355643406128511
1772547805365770800,9.872770751953125,0.26781755459085105,9.802739548557996,-0.07038568740379997
1772547805375809000,9.88280908203125,0.24697350400462745,9.802950560960173,-0.10758285209885798
1772547805385846800,9.8928466796875,0.24048118284326045,9.802500479105115,-0.1534646147020161
1772547805395884800,9.902884765625,0.24654097607256842,9.801410345780848,-0.20486239164713768
1772547805405922800,9.9129228515625,0.2612725716604851,9.799798818930983,-0.25705109977424145
1772547805415960800,9.9229609375,0.28127131226267665,9.797867558607459,-0.30505238441517574
1772547805425998800,9.932998779296875,0.3067555898701772,9.795735222753882,-0.3461990173883736
1772547805436036900,9.943036865234374,0.3380619612272829,9.7935181312263,-0.3782717700080946
1772547805446074600,9.95307470703125,0.3725767367042601,9.79150503783822,-0.3975003116890788
1772547805456113000,9.96311279296875,0.40355482595507053,9.790195124283432,-0.3995256800368428
1772547805466150700,9.973150634765625,0.4264177786156535,9.79004840928912,-0.37882845404278487
1772547805476189000,9.98318896484375,0.4403089047914371,9.79102222275734,-0.3352976476131007
1772547805486226700,9.993226806640624,0.4472975215697661,9.7925887414217,-0.2748048927275464
1772547805496265000,10.003264892578125,0.45245559845268724,9.794040693795681,-0.20603223914410917
1772547805506302700,10.013302734375,0.4584197675541043,9.794975928819179,-0.13679170318744144
1772547805516340700,10.0233408203125,0.46086595512982453,9.795547591227292,-0.07244409493806306
1772547805526378800,10.033378662109374,0.4533558717606589,9.796147895208001,-0.018163675228715873
1772547805536416800,10.043416748046875,0.42980555789042263,9.797209386959672,0.01947655249214731
1772547805546454800,10.053454833984375,0.3849857710961252,9.799029003602266,0.034542777728755025
1772547805556493800,10.063493896484376,0.31968992677778,9.801400993430613,0.026655410595971624
1772547805566530800,10.07353076171875,0.24060522934803738,9.803697579935193,0.0009385393702650617
1772547805576569900,10.08356982421875,0.15408360511688515,9.805371066105366,-0.03664594457006314
1772547805586607900,10.09360791015625,0.06593084971967618,9.806094119682907,-0.08086916056056506
1772547805596646000,10.10364599609375,-0.01709901998064597,9.805801274216174,-0.12791150964200496
1772547805606683600,10.11368359375,-0.08586464902660809,9.80470880280435,-0.17517635150086133
1772547805616722000,10.123721923828125,-0.13229981686198153,9.803281400349736,-0.2203361108392477
1772547805626759700,10.133759765625,-0.15454486595308406,9.801929985740781,-0.2620606715645641
1772547805636798000,10.1437978515625,-0.15714734006905928,9.80086674042344,-0.29782236009640617
1772547805646835700,10.153835693359374,-0.14805378690073265,9.800195124772191,-0.3234499368984252
1772547805656874000,10.1638740234375,-0.1336600632313639,9.799984696891903,-0.3359208210127428
1772547805666911700,10.173911865234375,-0.11125770468669943,9.800388601517676,-0.33228030908592043
1772547805676949800,10.18394970703125,-0.08037221648963168,9.801401577952504,-0.3105219931989908
1772547805686987800,10.19398779296875,-0.0703402453934541,9.80261855252683,-0.2722211598446593
1772547805697025800,10.20402587890625,-0.1304658611667808,9.803242237383127,-0.22324147689193485
1772547805707063800,10.214063720703125,-0.28562287680199366,9.801019885158539,-0.1697774881320074
1772547805717101800,10.224101806640626,-0.5046795240236446,9.79286463575363,-0.12445670214616693
1772547805727139800,10.234139892578124,-0.7410868084914982,9.778044083240628,-0.10510284445192664
1772547805737177900,10.244177734375,-0.9696243459649383,9.757920163622497,-0.11485504419207572
1772547805747216000,10.2542158203125,-1.184306084304303,9.73391151152551,-0.13699484281041657
1772547805757254000,10.26425390625,-1.3848856475330888,9.707181910032034,-0.15191217022878117
1772547805767292000,10.2742919921875,-1.5664840314380823,9.679598322057723,-0.14793897401518188
1772547805777330000,10.284329833984375,-1.7179510425820945,9.654226564913987,-0.12222093331757933
1772547805787368000,10.294367919921875,-1.8348780707426369,9.633164487662912,-0.07582193734070751
1772547805797406000,10.304406005859375,-1.9212091773703692,9.61660381348431,-0.01610001384731149
1772547805807444000,10.31444384765625,-1.979715873005241,9.604567338731885,0.05808977169732097
1772547805817481700,10.324481689453124,-2.0063839535698293,9.598058687490225,0.14858858789717777
1772547805827520000,10.33452001953125,-1.9965026110246777,9.597972762772441,0.25156158071355894
1772547805837557800,10.344557861328125,-1.9441591141946613,9.60539677529335,0.35635223567746577
1772547805847596000,10.354595947265626,-1.8409591442219913,9.621828854656219,0.44908798518311227
1772547805857633800,10.3646337890625,-1.6819602762684225,9.647529113101958,0.516311290432699
1772547805867671800,10.374671875,-1.4668994754835962,9.680536479690671,0.5530121412444859
1772547805877709800,10.384709716796875,-1.1947951834842563,9.717590491321682,0.5579574156269431
1772547805887747800,10.394747802734376,-0.856801026796177,9.755101599070429,0.5237160867964848
1772547805897785900,10.404785888671874,-0.43355884600933636,9.7879412078768,0.4226328897820785
1772547805907823900,10.414823974609375,-0.010072895619965857,9.803212426766752,0.2594314373058267
1772547805917862000,10.42486181640625,0.12127999007250181,9.805330734094976,0.10575900680571794
1772547805927900000,10.43489990234375,0.04599165728499647,9.806359492620825,-0.060118921171058895
1772547805937937700,10.444937744140624,-0.05262319968738593,9.803412333253025,-0.2464189023291692
1772547805947976000,10.454975830078125,-0.12313439490068703,9.797619136804341,-0.40236119572371243
1772547805958013700,10.465013671875,-0.17612914044735953,9.792882171410321,-0.4886921562209725
1772547805968052000,10.475052001953125,-0.22609489356167614,9.78990286333859,-0.5263821642005816
1772547805978089700,10.48508984375,-0.2758259428709745,9.78773779425919,-0.5426518926085904
1772547805988128000,10.4951279296875,-0.32244116171468046,9.786214530214666,-0.5444681482503191
1772547805998165800,10.505165771484375,-0.3730428929112851,9.785207983520626,-0.5300457647420466
1772547806008203800,10.515203857421875,-0.4392298043178394,9.784131878721713,-0.4982410884739831
1772547806018241800,10.52524169921875,-0.5268342918822542,9.782072023582458,-0.45155346198119223
1772547806028279800,10.53527978515625,-0.6297914295423775,9.778335759663582,-0.3973682097420096
1772547806038317800,10.54531787109375,-0.7339631671566516,9.773057526999711,-0.3450345401862636
1772547806048355800,10.55535595703125,-0.8275049358155578,9.76710943225026,-0.2986739354244433
1772547806058393900,10.565393798828126,-0.9010399084299803,9.76168156198263,-0.2609516874093562
1772547806068432000,10.575431884765624,-0.9449940548382699,9.758221776917576,-0.23338985460912806
1772547806078469600,10.5854697265625,-0.9535469983238726,9.757775786715746,-0.21670856799185276
1772547806088508000,10.5955078125,-0.9286039149209856,9.76032137954533,-0.210317880574055
1772547806098545700,10.605545654296876,-0.875693358792737,9.765158882704377,-0.21265461642593145
1772547806108583000,10.6155830078125,-0.7941868227772414,9.771868609476089,-0.22412733808206392
1772547806118621200,10.62562109375,-0.672971595903486,9.780355867314338,-0.24922097240416333
1772547806128659000,10.635658935546875,-0.49199499715864653,9.78978946609199,-0.29721339788520706
1772547806138697000,10.645697021484375,-0.24283731751535087,9.796769826498627,-0.3670059873672202
1772547806148735000,10.65573486328125,0.05476180088496767,9.796673380386828,-0.4388454811753705
1772547806158773000,10.66577294921875,0.3258328499795869,9.789123111137748,-0.4871198288703337
1772547806168811000,10.67581103515625,0.3969442852415144,9.786479903152584,-0.487473793407157
1772547806178849000,10.68584912109375,0.2491434684548527,9.79333283778727,-0.4460404341807589
1772547806188887000,10.695886962890626,0.0019392164427612442,9.798903331395984,-0.3896953004939481
1772547806198925000,10.705925048828124,-0.264274895281624,9.797552501308918,-0.32941659021787345
1772547806208962800,10.715962890625,-0.5139215092193335,9.789592482215166,-0.264869591505453
1772547806219001000,10.7260009765625,-0.7322372201468795,9.777233351379632,-0.19982152966940775
1772547806229038800,10.736038818359376,-0.9090592564955353,9.763426944345236,-0.13966427208222448
1772547806239077000,10.7460771484375,-1.030645435573533,9.75196739269793,-0.08545291728740557
1772547806249115000,10.756114990234375,-1.082437070674449,9.746673962464929,-0.032921302590321284
1772547806259153000,10.76615283203125,-1.0611912343543022,9.749050043946504,0.017332017027412074
1772547806269191000,10.77619091796875,-0.9779380738671869,9.757619134849309,0.05367342569294851
1772547806279229000,10.78622900390625,-0.8525929075818508,9.769298466727138,0.06553739798925817
1772547806289268000,10.79626806640625,-0.6973275270681828,9.781691499832272,0.05136660092214588
1772547806299305000,10.806304931640625,-0.5413263796258717,9.791660520660876,0.027425607233890332
1772547806309344000,10.816343994140626,-0.4940735569983721,9.79411609711945,0.03970200082256924
1772547806319382000,10.826382080078124,-0.6227963099580258,9.786257784834504,0.10815091604408808
1772547806329420000,10.836419921875,-0.8565735016506165,9.767141580954194,0.1989843299265951
1772547806339458000,10.8464580078125,-1.1053316971149294,9.74016121957004,0.27909356636479493
1772547806349495800,10.856495849609376,-1.3187534254558384,9.711560563507675,0.3418948173884302
1772547806359534000,10.8665341796875,-1.478793034633994,9.686240828812121,0.4003885439438745
1772547806369571800,10.87657177734375,-1.585352982559055,9.666294019326568,0.4688522046433761
1772547806379610000,10.886610107421875,-1.6579599536083638,9.649906948149203,0.5485040161702781
1772547806389648000,10.89664794921875,-1.7309899723753333,9.631855158630012,0.6335918447386473
1772547806399686100,10.90668603515625,-1.831956922598928,9.60701882353723,0.720767585496977
1772547806409724000,10.916723876953125,-1.962791333950311,9.574282675105334,0.8068146875515579
1772547806419762000,10.926761962890625,-2.1130421011723577,9.534818679723143,0.8903327825851738
1772547806429800000,10.936800048828125,-2.272548918648064,9.489680145835877,0.9756512781042606
1772547806439838000,10.946837890625,-2.4238743293642995,9.442100064015388,1.068627887161076
1772547806449876000,10.9568759765625,-2.5520360143750906,9.39567441292703,1.1742176748797297
1772547806459914000,10.9669140625,-2.6657375046178697,9.347980933859944,1.2959466964945197
1772547806469952000,10.976951904296875,-2.7929873354807495,9.291816563567519,1.4253976906634866
1772547806479990000,10.986989990234376,-2.93695595369339,9.226077140200138,1.5569817513383923
1772547806490028000,10.997028076171874,-3.082094492468238,9.154899909693002,1.6908255736388265
1772547806500066000,11.007066162109375,-3.218850695084035,9.081039723712205,1.8286948520630597
1772547806510104000,11.01710400390625,-3.342700946636498,9.006502661383152,1.9696827008992432
1772547806520142000,11.02714208984375,-3.459575221696496,8.929963027060031,2.1112739224560557
1772547806530180000,11.03718017578125,-3.578271159225702,8.849684206208586,2.2470948900483547
1772547806540218000,11.047218017578125,-3.6943288572058077,8.767966292464733,2.3759403195396063
1772547806550256000,11.057256103515625,-3.805904733596742,8.685698343622684,2.498826402235031
1772547806560294000,11.0672939453125,-3.9132013252332802,8.602115220528841,2.6193232517063616
1772547806570332200,11.077332275390624,-4.020912635150552,8.515703596010804,2.7359534888774153
1772547806580370000,11.087369873046875,-4.141432865497469,8.423574762889743,2.8394200008317827
1772547806590408200,11.097408203125,-4.268493311268091,8.329314178436993,2.9279481791123745
1772547806600446000,11.107446044921875,-4.391460934767127,8.238832528001069,3.0011814653664826
1772547806610484200,11.117484130859374,-4.5055867879018185,8.152477602106332,3.0671120273917913
1772547806620522000,11.12752197265625,-4.611276236602664,8.067103503942489,3.135020903752744
1772547806630560000,11.13756005859375,-4.710019519427418,7.981057790127396,3.2076199837565422
1772547806640598000,11.147597900390625,-4.801968904328346,7.894715723714232,3.2840427137017247
1772547806650636000,11.157635986328126,-4.88655915863812,7.80866825633347,3.3640202135190367
1772547806660674000,11.167674072265624,-4.964151516884565,7.722967994955182,3.4472222283408045
1772547806670712000,11.177712158203125,-5.040440391317009,7.634954195937514,3.531545940668881
1772547806680749800,11.187749755859375,-5.118143808722496,7.544623936671018,3.61298299164474
1772547806690788000,11.1977880859375,-5.197960857281089,7.451573312529921,3.6912934350326654
1772547806700825900,11.207825927734374,-5.281214894551039,7.35828654154539,3.7596252129808065
1772547806710864100,11.217864013671875,-5.362337765011191,7.269117142751813,3.8178091064020987
1772547806720902000,11.22790185546875,-5.439266690912842,7.183699205446243,3.8703026792272923
1772547806730940200,11.237940185546876,-5.516431179136037,7.09778325549066,3.9192920433238148
1772547806740978000,11.24797802734375,-5.596950823006034,7.010998706007004,3.961114000009
1772547806751016000,11.258015869140625,-5.680120689123869,6.925654418459534,3.99273517293632
1772547806761054000,11.268053955078125,-5.766964859840273,6.84067370352745,4.014684846676886
1772547806771092000,11.278092041015626,-5.8568608193427325,6.755164580807089,4.029308415313065
1772547806781130000,11.2881298828125,-5.943731293544173,6.671710637050866,4.0411292014881965
1772547806791168000,11.29816796875,-6.023250820460915,6.589974603128433,4.057469510914385
1772547806801206000,11.3082060546875,-6.0964914132386445,6.505786499878764,4.083861843277513
1772547806811244000,11.318244140625,-6.165328218099474,6.422859794867039,4.111688592357933
1772547806821281800,11.32828173828125,-6.228509773677587,6.339631476560235,4.145493246804177
1772547806831320000,11.338320068359375,-6.28719635592401,6.2522314255267375,4.189409253159165
1772547806841357800,11.34835791015625,-6.349970499745011,6.165386085766554,4.223303047193586
1772547806851396000,11.35839599609375,-6.414470736706257,6.077664547693729,4.252874301853776
1772547806861433900,11.368433837890626,-6.481615935218334,5.991336509805917,4.273514354300499
1772547806871472000,11.37847216796875,-6.547734128770232,5.906524721699952,4.290748397696018
1772547806881510100,11.38851025390625,-6.612179420673847,5.8224593680471175,4.306790308697521
1772547806891548000,11.3985478515625,-6.673822514638304,5.740100233790278,4.322237176415324
1772547806901586200,11.408586181640626,-6.732837598186731,5.658487533986568,4.338295746290684
1772547806911624000,11.4186240234375,-6.788909614020586,5.577172940346598,4.356172471503913
1772547806921662200,11.428662109375,-6.842738234841823,5.494542003411055,4.37690750875771
1772547806931700000,11.438699951171875,-6.893194164359569,5.41310582921803,4.399151781530678
1772547806941738000,11.448738037109376,-6.93847415254414,5.332914686650038,4.4258302373588085
1772547806951776000,11.45877587890625,-6.978606256446242,5.254985643795132,4.45584514413327
1772547806961814000,11.46881396484375,-7.02234486040771,5.178744700157642,4.476344034543633
1772547806971852000,11.47885205078125,-7.069485966289043,5.101793562424183,4.490484495837986
1772547806981890000,11.48889013671875,-7.118437920984626,5.0289983753263945,4.495264423590898
1772547806991928000,11.498927978515624,-7.166700724372268,4.959845928645134,4.495410846324265
1772547807001966000,11.508966064453125,-7.214442134234309,4.8921223457232115,4.49325571411699
1772547807012003800,11.51900390625,-7.262007603007555,4.824764673504233,4.489463043835759
1772547807022042000,11.5290419921875,-7.309947750312089,4.755245439337194,4.4858322861179705
1772547807032080000,11.539079833984376,-7.358984460681676,4.68358071757406,4.48104943575561
1772547807042118100,11.5491181640625,-7.407557060670852,4.6120764470696445,4.4751799592003225
1772547807052156000,11.559156005859375,-7.450789468675851,4.53887472499758,4.478251621730625
1772547807062194200,11.569194091796875,-7.490148834639787,4.4642260189875955,4.487621507622301
1772547807072232000,11.57923193359375,-7.530937941145896,4.390800132770836,4.4917955784365535
1772547807082270000,11.58927001953125,-7.569394220790267,4.314678723859787,4.500911197306215
1772547807092308000,11.599307861328125,-7.609805141633749,4.235207419998943,4.508244608934223
1772547807102346000,11.609345947265625,-7.652554734557866,4.154238571056723,4.511218071787059
1772547807112384800,11.619384765625,-7.696593198248744,4.073036497880518,4.510343919301032
1772547807122422800,11.6294228515625,-7.741623595586419,3.9920422222360967,4.505690540537238
1772547807132460800,11.639460693359375,-7.7858631348073475,3.914291750818491,4.497669731166958
1772547807142498800,11.649498779296875,-7.828162061354518,3.8402436410501597,4.488071881738305
1772547807152536800,11.659536865234376,-7.865460403135418,3.7704403292447326,4.482041077141464
1772547807162574800,11.669574951171874,-7.897844669389724,3.702678167878091,4.481585442328453
1772547807172612600,11.679612548828125,-7.925954327064752,3.6364471616014837,4.486189136731625
1772547807182651000,11.68965087890625,-7.953880444866418,3.570101004512608,4.490050780595839
1772547807192688600,11.699688720703126,-7.982417972564697,3.504182132925093,4.491336144231259
1772547807202727000,11.709726806640624,-8.015598357632756,3.4376813697963953,4.483627177289128
1772547807212764700,11.7197646484375,-8.053620337513088,3.371061071941256,4.466042128498852
1772547807222802700,11.729802734375,-8.091863266667723,3.3073560770109296,4.444494021296501
1772547807232840700,11.7398408203125,-8.128461351224779,3.247270149360597,4.421960702449083
1772547807242878700,11.749878662109374,-8.162641853246093,3.190485601343214,4.400279908777773
1772547807252916700,11.759916748046875,-8.194358595502376,3.1356507260888815,4.380704855214059
1772547807262954800,11.769954833984375,-8.224876483362912,3.0811379223957656,4.36215417626202
1772547807272992800,11.77999267578125,-8.253896826142071,3.028850101275742,4.343919723652303
1772547807283030800,11.79003076171875,-8.280992922860383,2.9810563767045735,4.325371967309713
1772547807293068500,11.800068603515625,-8.307614972326158,2.9369343263834713,4.304455436009168
1772547807303106800,11.81010693359375,-8.330546935102342,2.893843957197666,4.289293230451643
1772547807313144600,11.82014453125,-8.347572888705134,2.849305727291107,4.286009386475384
1772547807323182800,11.830182861328124,-8.361631809195876,2.803594361951947,4.288747871528566
1772547807333220600,11.840220703125,-8.381142565351723,2.761649071148038,4.277864658464491
1772547807343259000,11.8502587890625,-8.401099311709403,2.723041400334239,4.2634450879678125
1772547807353296600,11.860296630859375,-8.418634968400001,2.68659704503417,4.251959817357361
1772547807363334700,11.870334716796876,-8.431903030773997,2.653918472008407,4.246187955957651
1772547807373372700,11.88037255859375,-8.44198895598054,2.6234432542458177,4.245086132195592
1772547807383410700,11.89041064453125,-8.448860010793805,2.597201728530228,4.247550768743455
1772547807393448700,11.90044873046875,-8.45373609239757,2.572762283800542,4.2527202803358435
1772547807403486700,11.91048681640625,-8.458598729997872,2.549575469480455,4.257013301354647
1772547807413525000,11.92052490234375,-8.462341423657536,2.530286831642687,4.26108186596781
1772547807423562800,11.930562744140625,-8.463301793122291,2.515599550120532,4.267864950236678
1772547807433600800,11.940600830078125,-8.460719375413655,2.506616325458884,4.278256872652471
1772547807443638800,11.950638671875,-8.455751523873209,2.501864454756677,4.290841044415533
1772547807453676800,11.9606767578125,-8.449384911450743,2.501564887288213,4.3035394902080295
1772547807463714800,11.97071484375,-8.442182432726025,2.5058181608185173,4.315184335294366
1772547807473752800,11.9807529296875,-8.432536067980527,2.515094815468788,4.328627754235267
1772547807483790800,11.990790771484376,-8.419353930324316,2.5311665370866656,4.344888860945403
1772547807493826800,12.000826904296876,-8.40278390379548,2.554600896427035,4.363212745404243
1772547807503864800,12.01086474609375,-8.385168752127885,2.5833283937394618,4.380153651072084
1772547807513902600,12.020902587890625,-8.367924771860242,2.6166823818087575,4.393312407852709
1772547807523940900,12.03094091796875,-8.350369825947284,2.6536639127254484,4.404516815695167
1772547807533978600,12.040978515625,-8.331967907816171,2.694488967327773,4.414569715414941
1772547807544017000,12.051016845703124,-8.3102254470855,2.7398481582283973,4.427614782688021
1772547807554054700,12.0610546875,-8.28335088416338,2.7915789299875495,4.44562419437021
1772547807564093000,12.071093017578125,-8.251866197097302,2.848524806046486,4.467996769697964
1772547807574130700,12.081130615234375,-8.218369585686922,2.9097143110245463,4.490251271604001
1772547807584168700,12.091168701171876,-8.185091000941394,2.9734508701369164,4.509241511017084
1772547807594206700,12.101206787109374,-8.154618705788254,3.0387092319890856,4.5209316565498705
1772547807604244700,12.11124462890625,-8.12579593140781,3.103985714019835,4.528475788319111
1772547807614282800,12.12128271484375,-8.097638342937827,3.170791305314004,4.532628816345333
1772547807624320800,12.13132080078125,-8.068456672117113,3.2393373105347156,4.536196737959981
1772547807634358500,12.141358642578124,-8.036952111306785,3.3101682118222113,4.540988063889742
1772547807644396800,12.151396728515625,-8.003639039769768,3.384396354332566,4.545108066429197
1772547807654434600,12.1614345703125,-7.9694667210549115,3.4604148873910305,4.547912602455914
1772547807664472800,12.171472900390626,-7.93781895238161,3.538746373566985,4.542982744838297
1772547807674510600,12.181510498046874,-7.909208359447121,3.6189307941332456,4.529695977763831
1772547807684548900,12.191548828125,-7.882632487210631,3.702384153367579,4.50853044013828
1772547807694587000,12.2015869140625,-7.854916212767362,3.7883234841987488,4.4854520546287295
1772547807704624600,12.211624755859376,-7.827049131676554,3.8760014753907917,4.459181595079601
1772547807714663000,12.221662841796874,-7.798068536385894,3.966181804792583,4.430565741448104
1772547807724700700,12.23170068359375,-7.7661185698956245,4.058198994232714,4.403272368592024
1772547807734739000,12.241739013671875,-7.73106479217112,4.151750553633272,4.377669725301861
1772547807744776700,12.251776611328125,-7.692312744450569,4.246337301300466,4.355149265936017
1772547807754815000,12.26181494140625,-7.64922938952744,4.343595314003527,4.335072108069062
1772547807764852700,12.271852783203125,-7.602800231307745,4.441754659460485,4.31724769756496
1772547807774890800,12.281890869140625,-7.5547542855411765,4.539102980795502,4.300304161548614
1772547807784928800,12.2919287109375,-7.5050167334258555,4.63649777162075,4.283456779383123
1772547807794966800,12.301966796875,-7.453578807133436,4.733243743148446,4.267429189167917
1772547807805006800,12.3120068359375,-7.402366506290435,4.8270332029581065,4.2514831397563215
1772547807815044600,12.322044677734375,-7.349217684426903,4.918427876585722,4.238921472086012
1772547807825083000,12.332082763671876,-7.298171387800574,5.006332370010018,4.22418246037662
1772547807835120600,12.34212060546875,-7.24871849784553,5.091981193462014,4.206922113496065
1772547807845159000,12.352158935546875,-7.200234160661697,5.173634809798002,4.190526274490356
1772547807855196700,12.36219677734375,-7.152721298858523,5.253540705683827,4.172442044006288
1772547807865235000,12.37223486328125,-7.105963639336824,5.331926260134577,4.152857345831394
1772547807875272700,12.382272705078124,-7.058519166594743,5.410232319608331,4.132441749790311
1772547807885310700,12.392310791015625,-7.007970882618427,5.4891696627229445,4.11433501521349
1772547807895348700,12.4023486328125,-6.955024305328727,5.567759799835086,4.098545325407385
1772547807905386800,12.41238671875,-6.900908684259653,5.646940888577699,4.081653811839223
1772547807915424800,12.4224248046875,-6.846675574290752,5.726842108288407,4.0616128943294285
1772547807925462800,12.432462890625,-6.793273069927096,5.806738067302107,4.03777492262423
1772547807935500800,12.442500732421875,-6.739967011675239,5.886871342203021,4.010982485027611
1772547807945538800,12.452538818359375,-6.684696375352144,5.967126197656989,3.984798242457211
1772547807955576600,12.46257666015625,-6.627877925065159,6.045512921151518,3.9614895553231237
1772547807965614800,12.47261474609375,-6.569722673216462,6.122034435296058,3.9407904661655424
1772547807975652600,12.482652587890625,-6.510068707242608,6.1986851287782185,3.919910759744048
1772547807985691000,12.49269091796875,-6.447000548911094,6.277187587606907,3.8991649088352918
1772547807995728600,12.502728759765626,-6.3831888787359,6.3558104579448695,3.876719268271327
1772547808005767000,12.512766845703124,-6.320017844551801,6.4334244435012335,3.852115865151584
1772547808015804700,12.5228046875,-6.255767198437452,6.512056666189432,3.82477222341299
1772547808025842700,12.5328427734375,-6.189708626118302,6.592468758031726,3.7943697786256667
1772547808035880700,12.542880615234376,-6.122305653452873,6.674200700300932,3.7606916731685396
1772547808045918700,12.552918701171874,-6.052609601414203,6.756271080744266,3.7268084005281326
1772547808055956700,12.562956787109375,-5.9828229484826325,6.836281606048345,3.693435707758367
1772547808065994800,12.572994873046875,-5.914091942083835,6.913700945815443,3.659868953721225
1772547808076032500,12.583032470703126,-5.844868768253922,6.991295642149448,3.623491526177525
1772547808086070800,12.59307080078125,-5.77363074747026,7.068926578840613,3.586900455883145
1772547808096108800,12.60310888671875,-5.699057444784045,7.147219778832793,3.550828148765862
1772547808106150400,12.613150390625,-5.6209372632712125,7.225826282557844,3.5160879670351743
1772547808116188200,12.623188232421874,-5.53990733179152,7.303523854744434,3.4840117438167333
1772547808126226400,12.633226318359375,-5.458394000709056,7.379870596843958,3.4516400447830557
1772547808136264400,12.643264404296875,-5.380048778268694,7.453875159731507,3.415435927979648
1772547808146302200,12.65330224609375,-5.305689995115995,7.5262459839373825,3.3727833656892177
1772547808156340500,12.663340576171874,-5.231583140897751,7.599931397873163,3.3229432299822568
1772547808166378200,12.673378173828125,-5.153879723492264,7.676455250105262,3.2680192151397467
1772547808176416500,12.68341650390625,-5.071095057299733,7.754477816462517,3.212857007627189
1772547808186454300,12.693454345703126,-4.987134333065152,7.831003422260284,3.158205087724328
1772547808196492500,12.703492431640624,-4.904373047748208,7.90566615679562,3.1012820080190897
1772547808206530300,12.7135302734375,-4.822015082535147,7.979630387672781,3.040401715120673
1772547808216568300,12.723568359375,-4.7416398155719035,8.052100580599904,2.9750471994176504
1772547808226606300,12.7336064453125,-4.661970066529512,8.122876829090714,2.9077988327920434
1772547808236644400,12.743644287109374,-4.5793207171544426,8.19358761112988,2.8399519157513975
1772547808246682400,12.753682373046875,-4.494968070992827,8.26358060028851,2.7710791627943516
1772547808256720400,12.763720458984375,-4.40913453862369,8.333896245530248,2.69742385173589
1772547808266758400,12.77375830078125,-4.320491501791775,8.405906419730186,2.616193429248035
1772547808276796400,12.78379638671875,-4.229894700543582,8.478124683722854,2.529778005337715
1772547808286834200,12.793834228515625,-4.136359507755935,8.549309513014554,2.4433998446978626
1772547808296872400,12.80387255859375,-4.039188296553492,8.619339327052234,2.3584603385590017
1772547808306910200,12.81391015625,-3.9408939265400167,8.687154387649894,2.2744423311792312
1772547808316948500,12.823948486328124,-3.840487678939104,8.752539590752125,2.1941035968340934
1772547808326986200,12.833986328125,-3.734387019088864,8.816985467177629,2.1179003548584876
1772547808337024500,12.8440244140625,-3.6209365809977054,8.880648668792844,2.0477483757458628
1772547808347062300,12.854062255859375,-3.4971070799723267,8.94512727844417,1.9812443977467715
1772547808357100300,12.864100341796876,-3.368165642760694,9.00874547187388,1.9152973229780792
1772547808367138300,12.87413818359375,-3.2421947457924483,9.069512367525697,1.8445885867655276
1772547808377176300,12.88417626953125,-3.1206068862140177,9.128260324570537,1.762689032844454
1772547808387214300,12.89421435546875,-3.0025881172940134,9.185782539212703,1.6662103339508174
1772547808397252400,12.90425244140625,-2.885266682988405,9.242426801976562,1.5566618717342615
1772547808407290400,12.914290283203124,-2.7655583535462616,9.298180837902427,1.4373323124766348
1772547808417328400,12.924328369140625,-2.6430130471125244,9.352132792842388,1.3124404429167509
1772547808427366100,12.9343662109375,-2.5167519350260497,9.403748413789272,1.1856950544446707
1772547808437404400,12.944404296875,-2.383738279939443,9.4537688744992,1.0556627532564102
1772547808447442200,12.954442138671874,-2.239920322243869,9.502703878059982,0.9229136673901229
1772547808457480400,12.96448046875,-2.0855724949665366,9.549747953307628,0.7893670744705945
1772547808467518200,12.974518310546875,-1.9265017308205366,9.5933106161803,0.6537411179937422
1772547808477556200,12.98455615234375,-1.7702210357844828,9.631575172644853,0.5190874406151473
1772547808487594200,12.99459423828125,-1.617957029043883,9.664279172372817,0.39282720531150694
