time,seconds_elapsed,z,y,x
1772547795574901800,0.08190185546875,0.22396491467952728,0.6358105540275574,-0.3065527379512787
1772547795584939800,0.091939697265625,0.24108318984508514,0.8897343873977661,-0.1043011024594307
1772547795594977500,0.1019775390625,0.22850428521633148,1.1669590473175049,0.14552630484104156
1772547795605015800,0.112015869140625,0.2279929518699646,1.2878514528274536,0.4198249578475952
1772547795615053600,0.122053466796875,0.2598411738872528,1.2040034532546997,0.643024206161499
1772547795625091800,0.132091796875,0.3050459325313568,1.059110403060913,0.7734445333480835
1772547795635129600,0.142129638671875,0.30756181478500366,0.9555182456970215,0.7784345149993896
1772547795645167900,0.15216796875,0.27895867824554443,0.9937031865119934,0.69329833984375
1772547795655205600,0.16220556640625,0.2555904984474182,1.1178631782531738,0.5568890571594238
1772547795665243600,0.17224365234375,0.26368996500968933,1.310034990310669,0.38712987303733826
1772547795675281700,0.18228173828125,0.35978588461875916,1.5870085954666138,0.24717357754707336
1772547795685319700,0.192319580078125,0.5492884516716003,1.7598724365234375,0.1345202624797821
1772547795695357700,0.202357666015625,0.7225565910339355,1.9054909944534302,0.00854342058300972
1772547795705395700,0.212395751953125,0.7885183095932007,2.025198459625244,-0.17318589985370636
1772547795715433500,0.22243359375,0.7645392417907715,1.8828452825546265,-0.3417479991912842
1772547795725471700,0.2324716796875,0.6469244360923767,1.5775601863861084,-0.44794929027557373
1772547795735509800,0.242509765625,0.8220927715301514,0.9654233455657959,-0.23615500330924988
1772547795745547800,0.2525478515625,1.049723505973816,1.5202386379241943,0.05624596029520035
1772547795755585800,0.262585693359375,1.0867379903793335,2.3236501216888428,0.27963510155677795
1772547795765623800,0.272623779296875,0.889661431312561,3.222567081451416,0.37785834074020386
1772547795775661800,0.282661865234375,0.5898824334144592,4.003993034362793,0.4437606632709503
1772547795785699600,0.292699462890625,0.3231586217880249,4.267821311950684,0.4220130145549774
1772547795795737900,0.30273779296875,0.13659405708312988,3.9800004959106445,0.1673237532377243
1772547795805775600,0.312775634765625,-0.08448772132396698,3.488356590270996,-0.3605145215988159
1772547795815814000,0.32281396484375,-0.31860700249671936,3.160487174987793,-0.8857915997505188
1772547795825851600,0.3328515625,-0.5612308382987976,2.8720815181732178,-1.3376810550689697
1772547795835890000,0.342889892578125,-0.8160524964332581,2.2542898654937744,-1.7320603132247925
1772547795845927700,0.352927734375,-0.9880436658859253,1.4137768745422363,-2.0151429176330566
1772547795855965700,0.362965576171875,-0.9717224836349487,0.6144447922706604,-2.20035719871521
1772547795866003700,0.373003662109375,-0.8282071352005005,0.19022028148174286,-2.170710325241089
1772547795876041700,0.383041748046875,-0.7195709347724915,0.7889172434806824,-1.8894459009170532
1772547795886079700,0.393079833984375,-0.5847817063331604,0.4475522041320801,-1.3190155029296875
1772547795896117800,0.40311767578125,-0.08895011246204376,0.27743425965309143,-0.5588545203208923
1772547795906155800,0.41315576171875,0.44098299741744995,0.1408388763666153,0.13503532111644745
1772547795916193800,0.42319384765625,0.7197677493095398,0.09770871698856354,0.6565853357315063
1772547795926231600,0.4332314453125,0.849242627620697,0.08424164354801178,0.887189507484436
1772547795936269800,0.443269775390625,0.9584993720054626,0.44163253903388977,0.7446027994155884
1772547795946307600,0.4533076171875,0.7986695170402527,0.9475843906402588,0.23898595571517944
1772547795956345900,0.463345947265625,-0.0462026484310627,1.48381769657135,-0.38539350032806396
1772547795966383600,0.473383544921875,-1.2829078435897827,2.391129732131958,-0.9708300828933716
1772547795976422000,0.483421875,-2.470118999481201,3.3246376514434814,-1.6196296215057373
1772547795986459600,0.493459716796875,-3.4417335987091064,4.005016326904297,-2.205876588821411
1772547795996497700,0.50349755859375,-4.084754467010498,4.207744598388672,-2.4715824127197266
1772547796006535700,0.51353564453125,-4.502195358276367,3.924408435821533,-2.4076573848724365
1772547796016573700,0.52357373046875,-4.79502534866333,3.42110013961792,-1.9670965671539307
1772547796026611700,0.53361181640625,-4.999551773071289,2.8119561672210693,-0.9323529601097107
1772547796036649700,0.543649658203125,-5.261786460876465,1.9452327489852905,0.06209612637758255
1772547796046687500,0.5536875,-5.535421848297119,0.8964860439300537,0.3890326917171478
1772547796056725800,0.563725830078125,-5.848993301391602,0.12686367332935333,0.039212916046381
1772547796066763500,0.573763427734375,-6.267712116241455,-0.4846348464488983,-0.7676268815994263
1772547796076801800,0.5838017578125,-6.518557548522949,-1.165508508682251,-1.7822870016098022
1772547796086839600,0.593839599609375,-6.531862735748291,-1.6232331991195679,-2.757361650466919
1772547796096881200,0.603881103515625,-6.5490193367004395,-1.8174865245819092,-3.594008207321167
1772547796106919200,0.613919189453125,-6.563753604888916,-1.5358151197433472,-4.283137798309326
1772547796116957200,0.623957275390625,-6.459558486938477,-0.9224984645843506,-4.7044677734375
1772547796126995200,0.6339951171875,-6.173325538635254,-0.20054401457309723,-4.8123779296875
1772547796137033000,0.644032958984375,-5.781689643859863,0.21663883328437805,-4.670013904571533
1772547796147071200,0.6540712890625,-5.518215656280518,-0.14662165939807892,-4.488670825958252
1772547796157109000,0.66410888671875,-5.354465007781982,-1.0330337285995483,-4.489221572875977
1772547796167147300,0.674147216796875,-5.012412071228027,-1.6795142889022827,-4.679533958435059
1772547796177185000,0.68418505859375,-4.466507911682129,-1.6618125438690186,-4.899930477142334
1772547796187223300,0.694223388671875,-4.027765274047852,-0.9108668565750122,-5.1567535400390625
1772547796197261000,0.704260986328125,-3.665619373321533,0.46926283836364746,-5.377485752105713
1772547796207299000,0.714299072265625,-3.191049814224243,1.910652995109558,-5.496020793914795
1772547796217337000,0.724337158203125,-2.4495842456817627,2.990370273590088,-5.4445600509643555
1772547796227375000,0.734375,-1.458052396774292,3.4667861461639404,-5.292401313781738
1772547796237413000,0.7444130859375,-0.46454769372940063,3.3649518489837646,-5.10207462310791
1772547796247451100,0.754451171875,0.3565048575401306,2.9704411029815674,-4.926614761352539
1772547796257489200,0.7644892578125,0.8788479566574097,2.564974069595337,-4.769552230834961
1772547796267527200,0.774527099609375,1.0394176244735718,2.8336100578308105,-4.315622806549072
1772547796277565000,0.78456494140625,1.1532334089279175,2.9734904766082764,-3.9468705654144287
1772547796287603200,0.794603271484375,1.5991911888122559,2.7012243270874023,-3.612696409225464
1772547796297641000,0.804640869140625,2.068917751312256,2.9217162132263184,-2.530945062637329
1772547796307679200,0.81467919921875,2.3463470935821533,2.7776291370391846,-1.3051308393478394
1772547796317717000,0.824717041015625,2.7135262489318848,3.0873095989227295,-0.5297301411628723
1772547796327756300,0.83475634765625,2.8271877765655518,3.905773401260376,0.3433528244495392
1772547796337793000,0.84479296875,2.522852897644043,4.559310436248779,0.8850619196891785
1772547796347832300,0.854832275390625,2.4025070667266846,5.109224319458008,0.7734813094139099
1772547796357870000,0.8648701171875,2.350719451904297,4.922266483306885,0.4171665906906128
1772547796367908000,0.874908203125,2.192121982574463,4.114990711212158,0.14554041624069214
1772547796377946000,0.884946044921875,2.007866382598877,2.9613194465637207,0.14669543504714966
1772547796387984100,0.894984130859375,1.9592266082763672,1.6227543354034424,0.4003292918205261
1772547796398022100,0.905022216796875,1.972090482711792,0.5403878688812256,0.8212350010871887
1772547796408060200,0.91506005859375,2.411548614501953,-0.059543222188949585,1.2887417078018188
1772547796418098000,0.925097900390625,2.8518848419189453,-0.36041542887687683,1.5272523164749146
1772547796428136200,0.93513623046875,3.251941204071045,-0.8554589748382568,1.0685914754867554
1772547796438174000,0.945174072265625,3.2242422103881836,-0.977455198764801,0.4369618892669678
1772547796448212200,0.955212158203125,2.671736717224121,-0.5402097105979919,0.06145643815398216
1772547796458250000,0.96525,1.6674336194992065,0.12080897390842438,-0.1205594390630722
1772547796468288300,0.975288330078125,1.1329319477081299,0.3232784569263458,-0.22515003383159637
1772547796478326000,0.985325927734375,1.2337990999221802,-0.17148227989673615,-0.06053311750292778
1772547796488364000,0.995364013671875,1.5930155515670776,-0.9889246225357056,0.3661534786224365
1772547796498402000,1.005402099609375,1.631616234779358,-1.5832916498184204,0.6433243751525879
1772547796508440000,1.015440185546875,1.5035110712051392,-1.8084943294525146,0.6880388259887695
1772547796518478000,1.02547802734375,1.3336604833602905,-1.875690221786499,0.8635643124580383
1772547796528516000,1.03551611328125,1.290000319480896,-1.479416012763977,0.810082197189331
1772547796538554000,1.04555419921875,1.3832650184631348,-1.203169584274292,0.615818440914154
1772547796548592000,1.055592041015625,1.350598692893982,-1.0791701078414917,0.45507538318634033
1772547796558630000,1.0656298828125,1.4458930492401123,-1.1988496780395508,0.3952309489250183
1772547796568668200,1.075668212890625,1.5734999179840088,-1.478792667388916,0.35149890184402466
1772547796578706000,1.085705810546875,1.45341956615448,-1.6411751508712769,0.3924676477909088
1772547796588744200,1.095744140625,1.2495253086090088,-1.3166189193725586,0.5445365309715271
1772547796598782000,1.105781982421875,1.0102115869522095,-0.9692729115486145,0.26240578293800354
1772547796608820200,1.1158203125,0.8550805449485779,-0.3665066361427307,0.07804393768310547
1772547796618858000,1.12585791015625,0.8738182783126831,-0.2114081233739853,0.017255419865250587
1772547796628896000,1.13589599609375,0.9692769050598145,-0.5184127688407898,-0.056064069271087646
1772547796638934000,1.14593408203125,1.2004624605178833,-0.949138879776001,-0.09031418710947037
1772547796648972000,1.155971923828125,1.1827048063278198,-1.4551218748092651,0.0015257250051945448
1772547796659011000,1.166010986328125,1.1074246168136597,-1.268770694732666,0.039625439792871475
1772547796669049000,1.176049072265625,1.115687608718872,-1.2783719301223755,0.012369051575660706
1772547796679087000,1.186087158203125,1.0146068334579468,-1.1526914834976196,0.020478643476963043
1772547796689125000,1.196125,0.7083348035812378,-0.9938898682594299,0.23646047711372375
1772547796699163100,1.2061630859375,-0.16095399856567383,-0.6656509637832642,0.4891875386238098
1772547796709201200,1.216201171875,-1.358803391456604,0.22134223580360413,0.32553601264953613
1772547796719239000,1.226239013671875,-2.121342182159424,0.8339481353759766,-0.06473612040281296
1772547796729277200,1.236277099609375,-2.4177067279815674,1.2193211317062378,-0.37413153052330017
1772547796739315000,1.24631494140625,-2.565605640411377,1.2959580421447754,-0.37709856033325195
1772547796749353200,1.256353271484375,-2.3664231300354004,1.182096242904663,-0.07258099317550659
1772547796759391000,1.266390869140625,-1.707653284072876,1.0443202257156372,0.4470214247703552
1772547796769429200,1.27642919921875,-1.033200740814209,0.8819555640220642,0.7441157102584839
1772547796779467000,1.286467041015625,-0.5271293520927429,0.4654608964920044,0.6092678904533386
1772547796789505000,1.296505126953125,-0.047573644667863846,-0.09713267534971237,0.21422813832759857
1772547796799543000,1.30654296875,0.1893875002861023,-0.40263667702674866,-0.23652705550193787
1772547796809581000,1.3165810546875,0.2777639627456665,-0.1764163076877594,-0.46919384598731995
1772547796819619000,1.326619140625,0.3332487940788269,0.3226659297943115,-0.3566422760486603
1772547796829657000,1.336656982421875,0.37709856033325195,0.8042070269584656,-0.0933067798614502
1772547796839695000,1.346695068359375,0.44583845138549805,1.1580939292907715,0.1414298266172409
1772547796849733000,1.356733154296875,0.5397135615348816,1.2411677837371826,0.16621586680412292
1772547796859771100,1.366771240234375,0.7585143446922302,0.996651828289032,0.12010669708251953
1772547796869809200,1.37680908203125,1.0302401781082153,0.6497827768325806,0.14007028937339783
1772547796879848000,1.386847900390625,1.1895946264266968,0.3383128046989441,0.1724442094564438
1772547796889886200,1.39688623046875,1.1794363260269165,0.1891440898180008,0.2810628414154053
1772547796899924000,1.406924072265625,1.0844719409942627,0.11423389613628387,0.42951008677482605
1772547796909962200,1.416962158203125,1.3480911254882812,-0.13342836499214172,0.7120001316070557
1772547796920000000,1.427,1.4684739112854004,-0.29901254177093506,1.1022852659225464
1772547796930038000,1.4370380859375,1.4251067638397217,-0.15753023326396942,1.3060588836669922
1772547796940076000,1.447075927734375,1.1773626804351807,0.29991135001182556,1.3252211809158325
1772547796950114000,1.457114013671875,0.7859883308410645,0.5332450270652771,1.2053853273391724
1772547796960152000,1.467152099609375,0.26899898052215576,0.3773334324359894,1.0592120885849
1772547796970190000,1.477190185546875,-0.32586970925331116,-0.042627088725566864,1.0329562425613403
1772547796980228000,1.48722802734375,-0.8236683011054993,-0.3015348017215729,1.0410592555999756
1772547796990266000,1.49726611328125,-1.065332293510437,0.17828930914402008,0.7770946621894836
1772547797000303900,1.507303955078125,-1.0307501554489136,0.5561673641204834,0.3833082318305969
1772547797010342100,1.517342041015625,-0.8777132034301758,0.35620206594467163,0.10037799924612045
1772547797020380000,1.5273798828125,-0.7353181838989258,-0.26367318630218506,-0.07207552343606949
1772547797030418200,1.537418212890625,-0.6696997880935669,-0.8067591190338135,0.01654249057173729
1772547797040456000,1.5474560546875,-0.8932723999023438,-1.7213048934936523,0.2261417955160141
1772547797050494200,1.557494140625,-1.210347056388855,-2.7591686248779297,0.4409502446651459
1772547797060532000,1.567531982421875,-1.4985332489013672,-3.1920793056488037,0.21594534814357758
1772547797070571300,1.5775712890625,-1.5725558996200562,-3.573385238647461,-0.3880175054073334
1772547797080609000,1.587609130859375,-1.5582554340362549,-4.037153720855713,-0.9395320415496826
1772547797090647000,1.59764697265625,-1.7541027069091797,-5.278407573699951,-1.3412712812423706
1772547797100681500,1.607681396484375,-2.7092792987823486,-6.3131232261657715,-2.1237010955810547
1772547797110719500,1.617719482421875,-3.7542059421539307,-5.9549665451049805,-3.4205713272094727
1772547797120757500,1.627757568359375,-4.047845840454102,-2.6904561519622803,-4.88009786605835
1772547797130795500,1.63779541015625,-4.102684020996094,1.37256920337677,-5.486225605010986
1772547797140833300,1.647833251953125,-4.181332588195801,3.879132032394409,-4.752955436706543
1772547797150871600,1.65787158203125,-4.344846248626709,4.301017761230469,-3.3792436122894287
1772547797160909300,1.667909423828125,-4.703599452972412,3.565814971923828,-2.245866537094116
1772547797170947600,1.677947509765625,-5.283864974975586,1.880643606185913,-1.6659315824508667
1772547797180985300,1.6879853515625,-6.116856098175049,-0.5841910243034363,-1.8298710584640503
1772547797191023400,1.6980234375,-6.422058582305908,-1.6175267696380615,-1.8631935119628906
1772547797201061400,1.708061279296875,-6.327665328979492,-1.3856909275054932,-1.5826992988586426
1772547797211099400,1.718099365234375,-6.176146507263184,-1.3167190551757812,-1.588942050933838
1772547797221137400,1.728137451171875,-6.0128703117370605,-1.5138787031173706,-1.6946969032287598
1772547797231175400,1.738175537109375,-5.8272905349731445,-1.923603892326355,-1.7649396657943726
1772547797241214500,1.74821435546875,-5.625181198120117,-2.213959217071533,-1.8047869205474854
1772547797251252500,1.75825244140625,-5.4258952140808105,-2.497737169265747,-1.6684863567352295
1772547797261290500,1.76829052734375,-5.083404541015625,-2.7990448474884033,-1.357999324798584
1772547797271328500,1.77832861328125,-4.542090892791748,-3.27942156791687,-0.9809940457344055
1772547797281366300,1.7883662109375,-3.2397782802581787,-3.9346563816070557,-0.4281252324581146
1772547797291404500,1.798404541015625,-1.3077441453933716,-4.506068229675293,0.2121324986219406
1772547797301442300,1.8084423828125,1.0477160215377808,-4.136947154998779,0.9327607154846191
1772547797311480600,1.81848046875,2.8502063751220703,-2.323880434036255,1.5838854312896729
1772547797321518300,1.828518310546875,3.3709492683410645,1.1821508407592773,1.090585708618164
1772547797331556600,1.838556640625,2.8900368213653564,4.417947292327881,0.1578918993473053
1772547797341594400,1.848594482421875,2.3696908950805664,6.270297050476074,-0.38746169209480286
1772547797351632400,1.85863232421875,2.0631325244903564,7.014034271240234,-0.6115784049034119
1772547797361670400,1.86867041015625,1.9570708274841309,7.028048992156982,-0.6605244278907776
1772547797371708400,1.87870849609375,1.9540011882781982,6.697876930236816,-0.6452628970146179
1772547797381746400,1.888746337890625,1.9632445573806763,6.286962509155273,-0.7014380097389221
1772547797391785500,1.898785400390625,1.903784155845642,5.627340793609619,-1.1447861194610596
1772547797401823500,1.908823486328125,1.8741843700408936,3.57944655418396,-1.653726577758789
1772547797411861500,1.918861572265625,1.6473547220230103,0.9000808000564575,-1.3913884162902832
1772547797421899500,1.9288994140625,1.3056930303573608,-1.0379036664962769,-0.8382464647293091
1772547797431937500,1.9389375,0.9118676781654358,-2.084725856781006,-0.32925114035606384
1772547797441975300,1.948975341796875,0.6084076762199402,-2.538487672805786,0.1303209811449051
1772547797452013600,1.959013671875,0.38338732719421387,-2.661586046218872,0.5066120624542236
1772547797462051300,1.96905126953125,0.14680755138397217,-2.642388343811035,0.8248971104621887
1772547797472089600,1.979089599609375,-0.13341425359249115,-2.557959794998169,1.0614219903945923
1772547797482127400,1.98912744140625,-0.42107027769088745,-2.428662061691284,1.2165511846542358
1772547797492165600,1.99916552734375,-0.6849639415740967,-2.2958343029022217,1.269726276397705
1772547797502203400,2.009203369140625,-0.7810782194137573,-2.1795132160186768,1.230383038520813
1772547797512241400,2.019241455078125,-0.7607873678207397,-2.0931029319763184,1.101616621017456
1772547797522279400,2.029279541015625,-0.7151697874069214,-1.9814202785491943,0.9133515954017639
1772547797532317400,2.0393173828125,-0.7014497518539429,-1.8558661937713623,0.6982342004776001
1772547797542356500,2.0493564453125,-0.7034436464309692,-1.749940276145935,0.47714686393737793
1772547797552394500,2.05939453125,-0.7041515111923218,-1.6317869424819946,0.2541923224925995
1772547797562432500,2.0694326171875,-0.7000235915184021,-1.506008505821228,0.04459090530872345
1772547797572470500,2.079470458984375,-0.6673790812492371,-1.3822407722473145,-0.15284360945224762
1772547797582508500,2.089508544921875,-0.504340648651123,-1.2825504541397095,-0.30918580293655396
1772547797592546600,2.099546630859375,-0.1777566820383072,-1.037588357925415,-0.3335113823413849
1772547797602584300,2.109584228515625,0.13813896477222443,-0.5437831282615662,-0.22853784263134003
1772547797612622600,2.11962255859375,0.4133968949317932,0.269540399312973,-0.015799736604094505
1772547797622660400,2.129660400390625,0.5934609174728394,1.1356650590896606,0.18289977312088013
1772547797632698600,2.13969873046875,0.5561708211898804,1.6351087093353271,0.20382024347782135
1772547797642736400,2.149736328125,0.42879530787467957,1.9547910690307617,0.10893899947404861
1772547797652774700,2.159774658203125,0.32340681552886963,2.1766843795776367,0.007526625879108906
1772547797662812400,2.1698125,0.2472369521856308,2.2651729583740234,-0.0856294184923172
1772547797672850400,2.179850341796875,0.20478616654872894,2.250067949295044,-0.15761706233024597
1772547797682889500,2.189889404296875,0.19907741248607635,2.1637685298919678,-0.23517602682113647
1772547797692927500,2.199927490234375,0.24241982400417328,1.9968112707138062,-0.3286215662956238
1772547797702965500,2.209965576171875,0.30665847659111023,1.7803438901901245,-0.437468945980072
1772547797713003500,2.22000341796875,0.3443225026130676,1.537539005279541,-0.5454452037811279
1772547797723041500,2.23004150390625,0.3551085591316223,1.2212239503860474,-0.5802263617515564
1772547797733079600,2.24007958984375,0.3405304253101349,0.8518778681755066,-0.5008809566497803
1772547797743117600,2.25011767578125,0.32234129309654236,0.45280689001083374,-0.3211449980735779
1772547797753155600,2.260155517578125,0.2848634123802185,0.07481059432029724,-0.0775027796626091
1772547797763193300,2.270193359375,0.2329895794391632,-0.1904146820306778,0.17831407487392426
1772547797773231600,2.280231689453125,0.20008036494255066,-0.35528886318206787,0.36952877044677734
1772547797783269400,2.290269287109375,0.19376946985721588,-0.4430519938468933,0.4823453426361084
1772547797793307600,2.3003076171875,0.19034305214881897,-0.48945146799087524,0.5134049654006958
1772547797803345400,2.310345458984375,0.1837887465953827,-0.5186862945556641,0.48172882199287415
1772547797813383700,2.3203837890625,0.1796259582042694,-0.5427570343017578,0.4141111671924591
1772547797823422500,2.33042236328125,0.16531571745872498,-0.5541143417358398,0.32448992133140564
1772547797833460500,2.34046044921875,0.13826146721839905,-0.5387724041938782,0.22950562834739685
1772547797843498500,2.35049853515625,0.11150042712688446,-0.4935194253921509,0.12985838949680328
1772547797853536300,2.360536376953125,0.10032819956541061,-0.4026228189468384,0.04502047225832939
1772547797863574500,2.370574462890625,0.09682747721672058,-0.2782100439071655,-0.017710819840431213
1772547797873612300,2.3806123046875,0.09538031369447708,-0.14767920970916748,-0.06182049214839935
1772547797883650600,2.390650634765625,0.09602560102939606,-0.017891382798552513,-0.09358188509941101
1772547797893688300,2.400688232421875,0.10948441922664642,0.0994458943605423,-0.13495223224163055
1772547797903726600,2.4107265625,0.12022414803504944,0.18412217497825623,-0.1910674273967743
1772547797913764400,2.420764404296875,0.1195458397269249,0.22705765068531036,-0.26779842376708984
1772547797923802400,2.43080224609375,0.10787986218929291,0.2224666327238083,-0.35103046894073486
1772547797933840600,2.440840576171875,0.09218558669090271,0.18986395001411438,-0.4254263937473297
1772547797943878400,2.45087841796875,0.06958547234535217,0.13352717459201813,-0.4844018220901489
1772547797953917400,2.46091748046875,0.050880491733551025,0.07466065883636475,-0.5245530009269714
1772547797963955500,2.47095556640625,0.03335289657115936,0.038244858384132385,-0.5418614149093628
1772547797973993500,2.480993408203125,0.016567790880799294,0.021616611629724503,-0.5416755080223083
1772547797984031500,2.491031494140625,0.011692342348396778,0.013231649063527584,-0.5273737907409668
1772547797994069500,2.501069580078125,-0.0001512675517005846,0.0189001876860857,-0.5162345767021179
1772547798004107500,2.511107421875,-0.005461877211928368,0.026938939467072487,-0.5151693224906921
1772547798014145300,2.521145263671875,0.005218730308115482,0.052801962941884995,-0.5217249989509583
1772547798024183600,2.53118359375,0.009077384136617184,0.07353600114583969,-0.5150460004806519
1772547798034221300,2.54122119140625,0.004604072775691748,0.09390119463205338,-0.5021581649780273
1772547798044259600,2.551259521484375,-0.0070192934945225716,0.09958624839782715,-0.4699893295764923
1772547798054297300,2.56129736328125,-0.015153919346630573,0.0672200471162796,-0.41832640767097473
1772547798064335400,2.57133544921875,0.0009337042574770749,-0.014282532967627048,-0.3386475741863251
1772547798074373400,2.581373291015625,0.051847752183675766,-0.154890775680542,-0.2363281100988388
1772547798084412700,2.59141259765625,0.12470438331365585,-0.326959490776062,-0.11936154961585999
1772547798094450400,2.601450439453125,0.1920860856771469,-0.5123794078826904,-0.006377205718308687
1772547798104488000,2.611488037109375,0.23824532330036163,-0.6595395803451538,0.09329133480787277
1772547798114525700,2.621525634765625,0.24035800993442535,-0.7608786821365356,0.15867432951927185
1772547798124564000,2.63156396484375,0.20257148146629333,-0.8101972341537476,0.19253642857074738
1772547798134601700,2.641601806640625,0.12747566401958466,-0.8067132830619812,0.1991807520389557
1772547798144640000,2.651639892578125,0.030714768916368484,-0.7508111596107483,0.17109903693199158
1772547798154677800,2.661677734375,0.0008085357258096337,-0.6651197075843811,0.12236106395721436
1772547798164715800,2.6717158203125,0.04526122286915779,-0.5809877514839172,0.06906988471746445
1772547798174753800,2.68175390625,0.09389027953147888,-0.5058999061584473,0.029447104781866074
1772547798184791800,2.691791748046875,0.11607973277568817,-0.454696923494339,0.005979862064123154
1772547798194829800,2.701829833984375,0.11086899042129517,-0.4273254871368408,0.001916144392453134
1772547798204867800,2.711867919921875,0.1022680476307869,-0.42246896028518677,0.010599114932119846
1772547798214907000,2.721906982421875,0.1064193844795227,-0.4293665587902069,0.035410989075899124
1772547798224945000,2.73194482421875,0.11720997840166092,-0.44680118560791016,0.0567367821931839
1772547798234983000,2.74198291015625,0.12893347442150116,-0.4641905725002289,0.08634340763092041
1772547798245021000,2.75202099609375,0.13433995842933655,-0.4735608994960785,0.10759836435317993
1772547798255058700,2.76205859375,0.13208507001399994,-0.47824886441230774,0.11737748980522156
1772547798265097000,2.772096923828125,0.13430587947368622,-0.48180845379829407,0.10878373682498932
1772547798275134700,2.782134765625,0.14248524606227875,-0.49261075258255005,0.08866222202777863
1772547798285173000,2.792173095703125,0.15006379783153534,-0.5317480564117432,0.05072496086359024
1772547798295210800,2.802210693359375,0.14961771667003632,-0.5836495757102966,0.003525492735207081
1772547798305249000,2.8122490234375,0.1366124451160431,-0.6189319491386414,-0.037878405302762985
1772547798315286800,2.822286865234375,0.12238343805074692,-0.607448399066925,-0.06900011003017426
1772547798325324800,2.83232470703125,0.10703803598880768,-0.5590041875839233,-0.08730800449848175
1772547798335363800,2.84236376953125,0.08411381393671036,-0.45328813791275024,-0.09481359273195267
1772547798345401900,2.85240185546875,0.0681188628077507,-0.28509512543678284,-0.09704133123159409
1772547798355439900,2.86243994140625,0.05288904905319214,-0.0920199379324913,-0.10509712249040604
1772547798365478000,2.872477783203125,0.04793583229184151,0.11201202124357224,-0.13721963763237
1772547798375516000,2.882515869140625,0.03389831259846687,0.27790433168411255,-0.19522808492183685
1772547798385554000,2.892553955078125,0.008257663808763027,0.3897815942764282,-0.2844029664993286
1772547798395592000,2.902592041015625,-0.02851526439189911,0.42386019229888916,-0.3818328380584717
1772547798405630000,2.9126298828125,-0.059593554586172104,0.39264848828315735,-0.4651698172092438
1772547798415667700,2.922667724609375,-0.08834637701511383,0.32597464323043823,-0.5170702934265137
1772547798425706000,2.9327060546875,-0.1162877306342125,0.26155784726142883,-0.5227864980697632
1772547798435743700,2.94274365234375,-0.1452815681695938,0.19271112978458405,-0.4962798058986664
1772547798445782000,2.952781982421875,-0.17814816534519196,0.12028086930513382,-0.45379120111465454
1772547798455819800,2.96281982421875,-0.2055896371603012,0.05998743698000908,-0.4086194634437561
1772547798465858800,2.97285888671875,-0.22663740813732147,0.0024564997293055058,-0.37026461958885193
1772547798475896800,2.982896728515625,-0.24098065495491028,-0.04477199912071228,-0.34185081720352173
1772547798485934800,2.992934814453125,-0.2512444853782654,-0.09411850571632385,-0.32109972834587097
1772547798495972900,3.002972900390625,-0.25089988112449646,-0.14115259051322937,-0.3061801791191101
1772547798506011000,3.013010986328125,-0.23873454332351685,-0.17404769361019135,-0.29800692200660706
1772547798516049000,3.023048828125,-0.2253233939409256,-0.19803398847579956,-0.2846546471118927
1772547798526087000,3.0330869140625,-0.19456548988819122,-0.18742582201957703,-0.269500195980072
1772547798536125000,3.043125,-0.14051316678524017,-0.13991954922676086,-0.25557130575180054
1772547798546163000,3.053162841796875,-0.06052432954311371,-0.07756110280752182,-0.25141385197639465
1772547798556201000,3.063200927734375,0.04152454063296318,0.015103851445019245,-0.2555673122406006
1772547798566239000,3.073239013671875,0.14196646213531494,0.1392870545387268,-0.27622494101524353
1772547798576276700,3.08327685546875,0.21855764091014862,0.3503817021846771,-0.34127768874168396
1772547798586315800,3.093315673828125,0.24408110976219177,0.6195162534713745,-0.4163103997707367
1772547798596353800,3.103353759765625,0.2366066873073578,0.8625243902206421,-0.4509333670139313
1772547798606391800,3.113391845703125,0.2194996029138565,1.0064594745635986,-0.4141841232776642
1772547798616429800,3.123429931640625,0.20746025443077087,1.0316095352172852,-0.2982250452041626
1772547798626467800,3.1334677734375,0.19643422961235046,0.906019389629364,-0.10240653157234192
1772547798636505900,3.143505859375,0.17470842599868774,0.6937111020088196,0.11937033385038376
1772547798646544000,3.1535439453125,0.1229269877076149,0.40429049730300903,0.3244449198246002
1772547798656582000,3.163581787109375,0.061340589076280594,0.06621390581130981,0.47083035111427307
1772547798666620000,3.173619873046875,0.019765716046094894,-0.29936832189559937,0.5312074422836304
1772547798676658000,3.183657958984375,0.004171309061348438,-0.6599140167236328,0.5187014937400818
1772547798686696000,3.193696044921875,-0.009979663416743279,-0.9904093742370605,0.4503277540206909
1772547798696734000,3.20373388671875,-0.03531138598918915,-1.2636041641235352,0.3612104058265686
1772547798706772700,3.213772705078125,-0.0656498521566391,-1.4650746583938599,0.26607003808021545
1772547798716811000,3.22381103515625,-0.09013228863477707,-1.5867079496383667,0.1815551519393921
1772547798726848800,3.233848876953125,-0.09965468943119049,-1.624125361442566,0.10513307899236679
1772547798736887000,3.243886962890625,-0.09930048882961273,-1.572940468788147,0.04908338934183121
1772547798746924800,3.2539248046875,-0.09392169862985611,-1.4476211071014404,-0.0006554039428010583
1772547798756962800,3.263962890625,-0.08061788231134415,-1.2447314262390137,-0.025493642315268517
1772547798767000800,3.274000732421875,-0.06512094289064407,-0.9801620244979858,-0.03561951220035553
1772547798777038800,3.284038818359375,-0.05664250627160072,-0.6874180436134338,-0.033075928688049316
1772547798787076900,3.294076904296875,-0.04710652679204941,-0.3990728259086609,-0.0378272719681263
1772547798797115000,3.304114990234375,-0.032101478427648544,-0.13869662582874298,-0.05288318917155266
1772547798807153000,3.31415283203125,0.003993143793195486,0.08025728911161423,-0.07850013673305511
1772547798817191000,3.32419091796875,0.03388339653611183,0.2447381168603897,-0.1067458838224411
1772547798827228700,3.334228759765625,0.06154751777648926,0.35954779386520386,-0.13128532469272614
1772547798837268000,3.34426806640625,0.08218435198068619,0.42957985401153564,-0.15097379684448242
1772547798847305700,3.3543056640625,0.09310757368803024,0.4594448208808899,-0.15808416903018951
1772547798857344000,3.364343994140625,0.09893776476383209,0.4553488790988922,-0.15353895723819733
1772547798867381800,3.3743818359375,0.10251519083976746,0.4183921813964844,-0.1331537961959839
1772547798877420000,3.384419921875,0.09492597728967667,0.362570196390152,-0.10984713584184647
1772547798887457800,3.394457763671875,0.08540011942386627,0.29020971059799194,-0.08370048552751541
1772547798897496000,3.40449609375,0.06675080209970474,0.20288094878196716,-0.054066695272922516
1772547798907533800,3.414533935546875,0.047694817185401917,0.10972622781991959,-0.027469974011182785
1772547798917571800,3.42457177734375,0.028714468702673912,0.007539941463619471,-0.006070409435778856
1772547798927609900,3.43460986328125,0.014635401777923107,-0.091939777135849,0.0025545042008161545
1772547798937647900,3.44464794921875,0.006872020661830902,-0.18388807773590088,0.01594274677336216
1772547798947687000,3.45468701171875,-0.005772934295237064,-0.25881823897361755,0.024327177554368973
1772547798957725000,3.464724853515625,-0.01811961457133293,-0.30987662076950073,0.03563575819134712
1772547798967763000,3.474762939453125,-0.029680663719773293,-0.34549880027770996,0.04579997807741165
1772547798977801000,3.484801025390625,-0.03509566932916641,-0.34255096316337585,0.05374312400817871
1772547798987839000,3.4948388671875,-0.031074829399585724,-0.31368017196655273,0.05772588029503822
1772547798997877000,3.504876953125,-0.023816382512450218,-0.2559486925601959,0.055927980691194534
1772547799007914800,3.514914794921875,-0.014669756405055523,-0.19011402130126953,0.04680159315466881
1772547799017953000,3.524953125,-0.003795803524553776,-0.12148594856262207,0.03329137712717056
1772547799027990800,3.53499072265625,-0.000028495824153651483,-0.04757657274603844,0.02268746867775917
1772547799038029000,3.545029052734375,0.006404635962098837,0.017358217388391495,0.009212139993906021
1772547799048066800,3.55506689453125,0.00951041467487812,0.070066437125206,0.0008474178612232208
1772547799058105000,3.56510498046875,0.014697186648845673,0.11351431161165237,-0.0026021746452897787
1772547799068143900,3.575143798828125,0.01732546091079712,0.14256593585014343,-0.0011981561547145247
1772547799078182000,3.585181884765625,0.022042717784643173,0.15262949466705322,-0.0003888215287588537
1772547799088220000,3.595219970703125,0.022648587822914124,0.15000201761722565,0.0018282600212842226
1772547799098258000,3.6052578125,0.02570190094411373,0.1439260095357895,0.007472297176718712
1772547799108296200,3.615296142578125,0.02733015827834606,0.13329361379146576,0.017176324501633644
1772547799118334000,3.625333984375,0.030363498255610466,0.12372087687253952,0.023679496720433235
1772547799128372200,3.635372314453125,0.029257221147418022,0.11304906010627747,0.031749941408634186
1772547799138410000,3.645409912109375,0.031256191432476044,0.09552732110023499,0.03846936300396919
1772547799148448300,3.6554482421875,0.027041736990213394,0.0758470967411995,0.03646320104598999
1772547799158486000,3.665486083984375,0.029929403215646744,0.05488668382167816,0.033545710146427155
1772547799168524000,3.67552392578125,0.03214062750339508,0.04255757853388786,0.03260481357574463
1772547799178562000,3.68556201171875,0.03283544257283211,0.03834392502903938,0.032952889800071716
1772547799188601000,3.69560107421875,0.03130066394805908,0.042704321444034576,0.03208576515316963
1772547799198639000,3.70563916015625,0.03127856180071831,0.037756167352199554,0.027840418741106987
1772547799208677000,3.715677001953125,0.032391227781772614,0.021439511328935623,0.024106401950120926
1772547799218715100,3.725715087890625,0.030056435614824295,0.002929743379354477,0.021822208538651466
1772547799228753200,3.735753173828125,0.021191837266087532,-0.017302557826042175,0.029644444584846497
1772547799238791200,3.745791259765625,0.013462545350193977,-0.03140639141201973,0.03850558027625084
1772547799248829200,3.7558291015625,0.017348896712064743,-0.03425117954611778,0.05078434944152832
1772547799258867000,3.765866943359375,0.013696370646357536,-0.025981266051530838,0.055998288094997406
1772547799268905200,3.7759052734375,0.008718390017747879,-0.011373295448720455,0.05513595789670944
1772547799278943000,3.78594287109375,0.00020426444825716317,0.0016735304379835725,0.05032309144735336
1772547799288981200,3.795981201171875,-0.003020557342097163,0.01822987012565136,0.04212348535656929
1772547799299019000,3.80601904296875,-0.006884004920721054,0.028072647750377655,0.03682565689086914
1772547799309058300,3.816058349609375,-0.007238738238811493,0.03512043505907059,0.028371186926960945
1772547799319096000,3.826095947265625,-0.0073599121533334255,0.036562804132699966,0.028267323970794678
1772547799329134300,3.83613427734375,-0.006167082116007805,0.02635544165968895,0.028558140620589256
1772547799339172000,3.846172119140625,-0.004347078036516905,0.017581922933459282,0.027888622134923935
1772547799349210000,3.856210205078125,-0.0014937670202925801,-0.00999164767563343,0.03123701550066471
1772547799359248100,3.866248046875,-0.0005781722720712423,-0.03543549031019211,0.03380563482642174
1772547799369286100,3.8762861328125,0.00577879324555397,-0.057248640805482864,0.03646400198340416
1772547799379324200,3.88632421875,0.0069489860907197,-0.06548872590065002,0.044562142342329025
1772547799389362200,3.896362060546875,0.01152695994824171,-0.058045726269483566,0.0531790666282177
1772547799399400200,3.906400146484375,0.023694144561886787,-0.04372217878699303,0.055317848920822144
1772547799409438200,3.916438232421875,0.030118754133582115,-0.013849768787622452,0.04560397192835808
1772547799419477200,3.926477294921875,0.035651735961437225,0.017049556598067284,0.03404931351542473
1772547799429515000,3.936514892578125,0.03864433243870735,0.058999136090278625,0.02177746780216694
1772547799439553000,3.946552978515625,0.04048324376344681,0.09714705497026443,0.018553709611296654
1772547799449591000,3.956591064453125,0.03772474080324173,0.12974414229393005,0.012058527208864689
1772547799459629000,3.966629150390625,0.0399751141667366,0.1567818969488144,0.00884808599948883
1772547799469667000,3.9766669921875,0.0370648093521595,0.16436471045017242,0.00675191218033433
1772547799479705000,3.986705078125,0.0364735871553421,0.15444843471050262,0.004966262727975845
1772547799489741000,3.996740966796875,0.03592817485332489,0.12962563335895538,0.004830707795917988
1772547799499779300,4.006779296875,0.03786242753267288,0.09825918823480606,0.013051886111497879
1772547799509817000,4.016817138671875,0.03990533947944641,0.06919717788696289,0.022045647725462914
1772547799519855000,4.026855224609375,0.0415935143828392,0.044854022562503815,0.031675372272729874
1772547799529893000,4.03689306640625,0.04043211042881012,0.03586345911026001,0.03868214786052704
1772547799539931100,4.04693115234375,0.03774551302194595,0.030343525111675262,0.04151628538966179
1772547799549969200,4.05696923828125,0.036854952573776245,0.02503344789147377,0.03111877106130123
1772547799560007200,4.067007080078125,0.03813513368368149,0.01968235895037651,0.02293061651289463
1772547799570046200,4.077046142578125,0.03883181884884834,0.01008299458771944,0.008465656079351902
1772547799580084000,4.087083984375,0.03581152856349945,0.005041896365582943,0.0016082830261439085
1772547799590122200,4.097122314453125,0.034514833241701126,-0.0017925737192854285,0.0005113269435241818
1772547799600160000,4.107159912109375,0.03983290120959282,-0.004619519226253033,0.007873902097344398
1772547799610198000,4.117197998046875,0.044737376272678375,-0.0023118900135159492,0.017460215836763382
1772547799620236000,4.127236083984375,0.049243178218603134,0.003162503708153963,0.03002074919641018
1772547799630274000,4.137274169921875,0.0553162507712841,0.011506454087793827,0.04129018262028694
1772547799640312300,4.147312255859375,0.06030728295445442,0.025598837062716484,0.04415414482355118
1772547799650350000,4.15735009765625,0.058883823454380035,0.04114850237965584,0.04459409788250923
1772547799660388400,4.167388427734375,0.06198880076408386,0.05534874275326729,0.035534556955099106
1772547799670426000,4.177426025390625,0.058459315448999405,0.05570933595299721,0.026217222213745117
1772547799680464100,4.187464111328125,0.05829206854104996,0.04374987632036209,0.010499246418476105
1772547799690503200,4.197503173828125,0.05330982804298401,0.015393603593111038,-0.0029020465444773436
1772547799700541000,4.207541015625,0.04608706757426262,-0.023694144561886787,-0.015415707603096962
1772547799710579200,4.2175791015625,0.037452567368745804,-0.07436078041791916,-0.021264808252453804
1772547799720617000,4.227616943359375,0.03518301993608475,-0.12497895210981369,-0.0205106008797884
1772547799730655200,4.2376552734375,0.03652738407254219,-0.17118772864341736,-0.020494356751441956
1772547799740693000,4.24769287109375,0.037755634635686874,-0.20118796825408936,-0.01197889819741249
1772547799750731300,4.257731201171875,0.041320543736219406,-0.21131330728530884,-0.004358529578894377
1772547799760769000,4.26776904296875,0.05144215002655983,-0.19781933724880219,0.0021371867042034864
1772547799770807000,4.27780712890625,0.05995095148682594,-0.164940744638443,0.008638229221105576
1772547799780845000,4.287844970703125,0.06802139431238174,-0.12945039570331573,0.0067697553895413876
1772547799790883000,4.297883056640625,0.07309098541736603,-0.08484485000371933,0.004941495135426521
1772547799800923100,4.307923095703125,0.08263762295246124,-0.0480751171708107,-0.014398113824427128
1772547799810961200,4.317961181640625,0.09127026051282883,-0.021855231374502182,-0.03020903468132019
1772547799820999200,4.327999267578125,0.09766823798418045,-0.002394980750977993,-0.044442299753427505
1772547799831037000,4.338036865234375,0.10083606839179993,0.00717721926048398,-0.06028943881392479
1772547799841075200,4.3480751953125,0.10240600258111954,0.003093261504545808,-0.06677103787660599
1772547799851113000,4.358113037109375,0.10570645332336426,-0.01095438003540039,-0.0663212314248085
1772547799861152300,4.36815234375,0.10805855691432953,-0.028730981051921844,-0.05402062460780144
1772547799871190000,4.37818994140625,0.10570698976516724,-0.05620628222823143,-0.04484310373663902
1772547799881228300,4.388228271484375,0.10438819229602814,-0.09087824076414108,-0.031155256554484367
1772547799891266000,4.39826611328125,0.098057322204113,-0.1301867663860321,-0.02424914762377739
1772547799901304300,4.40830419921875,0.09443435817956924,-0.14646586775779724,-0.014374944381415844
1772547799911342000,4.418342041015625,0.08208101987838745,-0.13186295330524445,-0.00344533147290349
1772547799921380000,4.428380126953125,0.074268639087677,-0.10747905820608139,0.005684517323970795
1772547799931418000,4.438418212890625,0.06919771432876587,-0.09688393771648407,0.0014450311427935958
1772547799941456100,4.4484560546875,0.053771618753671646,-0.112029068171978,-0.008403604850172997
1772547799951494100,4.458494140625,0.03289536386728287,-0.12765996158123016,-0.02051353082060814
1772547799961532200,4.4685322265625,0.008900018408894539,-0.146015003323555,-0.03705788776278496
1772547799971571200,4.4785712890625,-0.017792845144867897,-0.19479797780513763,-0.05727633833885193
1772547799981609200,4.488609130859375,-0.035890623927116394,-0.2713944911956787,-0.07567612081766129
1772547799991647200,4.498647216796875,-0.05468987673521042,-0.3773467540740967,-0.07429500669240952
1772547800001685200,4.508685302734375,-0.07120360434055328,-0.47991040349006653,-0.06414169818162918
1772547800011723000,4.518722900390625,-0.08116276562213898,-0.5906068086624146,-0.04555097222328186
1772547800021761300,4.52876123046875,-0.0892622321844101,-0.684406042098999,-0.02785240299999714
1772547800031799000,4.538799072265625,-0.0887109637260437,-0.7545041441917419,-0.004190217703580856
1772547800041837300,4.54883740234375,-0.07877790182828903,-0.7938832640647888,0.023553529754281044
1772547800051875000,4.558875,-0.07244810461997986,-0.7787133455276489,0.05001682788133621
1772547800061913000,4.5689130859375,-0.06389349699020386,-0.7629570364952087,0.06783177703619003
1772547800071951000,4.578951171875,-0.04818350821733475,-0.7394471764564514,0.08027806133031845
1772547800081989000,4.588989013671875,-0.021522335708141327,-0.6956810355186462,0.0811246782541275
1772547800092028200,4.599028076171875,0.013404754921793938,-0.6350626945495605,0.08613035827875137
1772547800102066400,4.60906640625,0.049602705985307693,-0.5379348397254944,0.08705048263072968
1772547800112104400,4.6191044921875,0.08381260931491852,-0.40629610419273376,0.09838435798883438
1772547800122142500,4.629142578125,0.10619860887527466,-0.2410094141960144,0.1142868921160698
1772547800132180500,4.639180419921875,0.12331341207027435,-0.03465837985277176,0.1279640942811966
1772547800142218500,4.649218505859375,0.14509114623069763,0.19133320450782776,0.13307149708271027
1772547800152256500,4.659256591796875,0.1695733219385147,0.40488144755363464,0.13417644798755646
1772547800162294300,4.669294189453125,0.19083546102046967,0.578618586063385,0.1250641793012619
1772547800172332500,4.67933251953125,0.1969439536333084,0.6897424459457397,0.11425387114286423
1772547800182370300,4.689370361328125,0.18919575214385986,0.7376290559768677,0.09612467139959335
1772547800192408600,4.69940869140625,0.1612011343240738,0.7083179950714111,0.0796908363699913
1772547800202447400,4.709447265625,0.1283465176820755,0.6098537445068359,0.05929102003574371
1772547800212485600,4.719485595703125,0.09574943035840988,0.45298531651496887,0.04716804623603821
1772547800222523400,4.7295234375,0.05806862935423851,0.2376602292060852,0.03766055777668953
1772547800232561700,4.739561767578125,0.02099130116403103,-0.00009986854274757206,0.038964711129665375
1772547800242599400,4.749599365234375,-0.006192648317664862,-0.2397630661725998,0.04884690046310425
1772547800252637700,4.7596376953125,-0.02142885886132717,-0.4439297616481781,0.06524345278739929
1772547800262675500,4.769675537109375,-0.03229748457670212,-0.5820522308349609,0.07628198713064194
1772547800272713500,4.77971337890625,-0.041731733828783035,-0.641683042049408,0.08263149857521057
1772547800282751500,4.78975146484375,-0.05341795086860657,-0.6426308751106262,0.09401411563158035
1772547800292789500,4.79978955078125,-0.06388630717992783,-0.6090785264968872,0.08366986364126205
1772547800302827500,4.80982763671875,-0.06926562637090683,-0.5597802400588989,0.06763789802789688
1772547800312865500,4.819865478515625,-0.07939362525939941,-0.49495062232017517,0.051248807460069656
1772547800322904600,4.829904541015625,-0.08809816837310791,-0.4360257685184479,0.04849083721637726
1772547800332942600,4.839942626953125,-0.09991354495286942,-0.3737988770008087,0.05212604999542236
1772547800342980600,4.849980712890625,-0.11478863656520844,-0.3146551549434662,0.06748050451278687
1772547800353018600,4.8600185546875,-0.11758814752101898,-0.2715095281600952,0.08465709537267685
1772547800363056400,4.870056396484375,-0.11255397647619247,-0.245990589261055,0.09097384661436081
1772547800373094700,4.8800947265625,-0.10282597690820694,-0.23122656345367432,0.09031258523464203
1772547800383132400,4.89013232421875,-0.08847340941429138,-0.20118530094623566,0.09077757596969604
1772547800393170700,4.900170654296875,-0.07184995710849762,-0.14826670289039612,0.08799324184656143
1772547800403208400,4.91020849609375,-0.057561829686164856,-0.07003980129957199,0.0866273045539856
1772547800413246500,4.92024658203125,-0.0421660952270031,0.027033481746912003,0.0776178315281868
1772547800423284500,4.930284423828125,-0.02406725287437439,0.12841469049453735,0.06416620314121246
1772547800433323500,4.940323486328125,-0.01386734563857317,0.22256410121917725,0.05031243711709976
1772547800443361500,4.950361572265625,-0.017601097002625465,0.3005068302154541,0.044075582176446915
1772547800453399300,4.9603994140625,-0.03225620836019516,0.35892778635025024,0.03706427663564682
1772547800463437600,4.9704375,-0.047680169343948364,0.3854121267795563,0.04096634313464165
1772547800473475600,4.9804755859375,-0.05251460522413254,0.3818962275981903,0.043534960597753525
1772547800483513600,4.990513671875,-0.04414988309144974,0.37446653842926025,0.05541159212589264
1772547800493551600,5.000551513671875,-0.032773926854133606,0.3416271209716797,0.0708366259932518
1772547800503589400,5.01058935546875,-0.022974291816353798,0.2949376404285431,0.08327092230319977
1772547800513627600,5.020627685546875,-0.012491556815803051,0.22825661301612854,0.10490990430116653
1772547800523665400,5.03066552734375,-0.004156661685556173,0.1607033908367157,0.12673130631446838
1772547800533703700,5.04070361328125,-0.008298942819237709,0.08360754698514938,0.1628219336271286
1772547800543742500,5.050742431640625,-0.014679876156151295,0.009369267150759697,0.20239171385765076
1772547800553780500,5.060780517578125,-0.022757509723305702,-0.07233971357345581,0.23895852267742157
1772547800563818500,5.070818603515625,-0.031631696969270706,-0.16048714518547058,0.2726198136806488
1772547800573856500,5.0808564453125,-0.030951524153351784,-0.22432763874530792,0.3030046224594116
1772547800583894500,5.09089453125,-0.022818762809038162,-0.2555404305458069,0.3298604488372803
1772547800593932300,5.100932373046875,-0.009738913737237453,-0.2521076202392578,0.35005441308021545
1772547800603970600,5.110970458984375,0.005057342816144228,-0.2235124558210373,0.36314117908477783
1772547800614008300,5.12100830078125,0.019293537363409996,-0.1616078019142151,0.3640812933444977
1772547800624046600,5.131046630859375,0.034926559776067734,-0.10055723041296005,0.36345624923706055
1772547800634084400,5.14108447265625,0.05149621516466141,-0.02793016843497753,0.3511766791343689
1772547800644122600,5.15112255859375,0.07692354172468185,0.061217017471790314,0.34144681692123413
1772547800654161400,5.161161376953125,0.09685704112052917,0.17681153118610382,0.32338500022888184
1772547800664199700,5.17119970703125,0.12070271372795105,0.31178611516952515,0.29979178309440613
1772547800674237400,5.181237548828125,0.14115925133228302,0.46999919414520264,0.2701665163040161
1772547800684275500,5.191275390625,0.16076251864433289,0.647278368473053,0.23191899061203003
1772547800694313500,5.2013134765625,0.1736346334218979,0.8318982720375061,0.19166530668735504
1772547800704351500,5.2113515625,0.179508775472641,1.0033116340637207,0.1490267664194107
1772547800714389500,5.221389404296875,0.18044380843639374,1.1540526151657104,0.10229627788066864
1772547800724427500,5.231427490234375,0.17971090972423553,1.260111689567566,0.06526555866003036
1772547800734465500,5.241465576171875,0.17948932945728302,1.3068469762802124,0.03814924880862236
1772547800744503600,5.251503662109375,0.175680473446846,1.3044873476028442,0.024202806875109673
1772547800754541300,5.261541259765625,0.16798260807991028,1.2578359842300415,0.017297230660915375
1772547800764579600,5.27157958984375,0.16564302146434784,1.1738452911376953,0.01022760383784771
1772547800774618400,5.281618408203125,0.16264218091964722,1.072206974029541,0.0044232443906366825
1772547800784656600,5.29165673828125,0.1625036895275116,0.9631668329238892,-0.015863385051488876
1772547800794694400,5.3016943359375,0.15936942398548126,0.859024703502655,-0.04779442027211189
1772547800804732700,5.311732666015625,0.14461709558963776,0.7573894262313843,-0.07010931521654129
1772547800814770400,5.3217705078125,0.11214278638362885,0.6587960124015808,-0.06306418776512146
1772547800824808700,5.33180859375,0.07523536682128906,0.5552741289138794,-0.027099793776869774
1772547800834846500,5.341846435546875,0.05013773590326309,0.44277769327163696,0.0424174964427948
1772547800844884500,5.351884521484375,0.03979082033038139,0.3455571234226227,0.120305635035038
1772547800854922500,5.361922607421875,0.03159600868821144,0.26362818479537964,0.19088180363178253
1772547800864960500,5.37196044921875,0.03490791469812393,0.21867269277572632,0.2468888759613037
1772547800874998500,5.38199853515625,0.038536205887794495,0.19248822331428528,0.2789008617401123
1772547800885036500,5.39203662109375,0.05191832408308983,0.19390395283699036,0.2895926535129547
1772547800895075600,5.40207568359375,0.07396344095468521,0.20840699970722198,0.2933027148246765
1772547800905113300,5.41211328125,0.100186787545681,0.22868165373802185,0.30685022473335266
1772547800915151600,5.422151611328125,0.12078393995761871,0.24963060021400452,0.3274950385093689
1772547800925189400,5.432189453125,0.13677676022052765,0.27351677417755127,0.3575272560119629
1772547800935227400,5.442227294921875,0.14498941600322723,0.2927842140197754,0.3872704803943634
1772547800945265400,5.452265380859375,0.15189339220523834,0.30441901087760925,0.4055546820163727
1772547800955303400,5.462303466796875,0.15694354474544525,0.29357489943504333,0.41719749569892883
1772547800965341400,5.472341552734375,0.15641650557518005,0.2638998329639435,0.423941433429718
1772547800975379500,5.48237939453125,0.14296860992908478,0.22484908998012543,0.42312222719192505
1772547800985417700,5.492417724609375,0.1178230419754982,0.18561406433582306,0.415393203496933
1772547800995455500,5.50245556640625,0.09052537381649017,0.1539003551006317,0.4012235999107361
1772547801005493500,5.512493408203125,0.06391187012195587,0.13142725825309753,0.3828032910823822
1772547801015532500,5.522532470703125,0.04482446238398552,0.11354014277458191,0.359573096036911
1772547801025570300,5.5325703125,0.031742747873067856,0.10806921124458313,0.3273448348045349
1772547801035608600,5.542608642578125,0.018186993896961212,0.10260014235973358,0.29448941349983215
1772547801045646300,5.552646240234375,0.003308178624138236,0.10602390766143799,0.2474345564842224
1772547801055684600,5.5626845703125,-0.009335178881883621,0.11841985583305359,0.2004513442516327
1772547801065722400,5.572722412109375,-0.022876819595694542,0.12595872581005096,0.16155347228050232
1772547801075760600,5.5827607421875,-0.024154072627425194,0.12187424302101135,0.12753719091415405
1772547801085798400,5.59279833984375,-0.016936372965574265,0.125970721244812,0.09014693647623062
1772547801095836400,5.60283642578125,-0.006642456166446209,0.12822428345680237,0.05667446553707123
1772547801105877800,5.612877685546875,0.003296460723504424,0.13974058628082275,0.011869975365698338
1772547801115915800,5.622915771484375,0.0013709953054785728,0.16657353937625885,-0.030702251940965652
1772547801125954600,5.63295458984375,-0.002868490759283304,0.2079598605632782,-0.06610045582056046
1772547801135992800,5.642992919921875,-0.008280034177005291,0.23798567056655884,-0.09083802998065948
1772547801146030600,5.653030517578125,-0.0076155755668878555,0.2524937689304352,-0.09242207556962967
1772547801156068900,5.66306884765625,-0.007537278346717358,0.2326124757528305,-0.08192496001720428
1772547801166106600,5.673106689453125,-0.009252887219190598,0.17710021138191223,-0.05375270918011665
1772547801176144600,5.68314453125,-0.02028476446866989,0.1064196527004242,-0.009133044630289078
1772547801186182700,5.6931826171875,-0.026978088542819023,0.013585050590336323,0.05300169810652733
1772547801196220700,5.703220703125,-0.02093937061727047,-0.07690836489200592,0.13383743166923523
1772547801206258700,5.7132587890625,0.0016112125013023615,-0.14109693467617035,0.21302466094493866
1772547801216296700,5.723296630859375,0.0382017157971859,-0.1539331078529358,0.2937008738517761
1772547801226334700,5.733334716796875,0.09173417836427689,-0.11038509756326675,0.35067757964134216
1772547801236372700,5.743372802734375,0.1459854394197464,-0.018796058371663094,0.3966810405254364
1772547801246410500,5.753410400390625,0.1855008900165558,0.11536627262830734,0.4345008432865143
1772547801256449800,5.76344970703125,0.21492508053779602,0.2724885046482086,0.47315478324890137
1772547801266487600,5.773487548828125,0.23767566680908203,0.4277060627937317,0.5122331976890564
1772547801276525800,5.78352587890625,0.2459101676940918,0.5563359260559082,0.5413612723350525
1772547801286563600,5.7935634765625,0.23423273861408234,0.653030276298523,0.5517065525054932
1772547801296601900,5.803601806640625,0.18959230184555054,0.7229451537132263,0.5383979678153992
1772547801306639600,5.8136396484375,0.12761175632476807,0.7712964415550232,0.5042021870613098
1772547801316678000,5.823677978515625,0.07452084124088287,0.7954939603805542,0.4663570523262024
1772547801326715600,5.833715576171875,0.04006406292319298,0.7728850245475769,0.43112289905548096
1772547801336753700,5.843753662109375,0.025361815467476845,0.7086895108222961,0.409223735332489
1772547801346791700,5.853791748046875,0.021950040012598038,0.603934109210968,0.40120336413383484
1772547801356829700,5.86382958984375,0.0034991272259503603,0.48931509256362915,0.42336538434028625
1772547801366867700,5.87386767578125,-0.024895496666431427,0.40262094140052795,0.4611857235431671
1772547801376905700,5.88390576171875,-0.06784376502037048,0.34780269861221313,0.4888996481895447
1772547801386944800,5.89394482421875,-0.11644937843084335,0.35123926401138306,0.49151167273521423
1772547801396982800,5.903982666015625,-0.16405124962329865,0.3965606689453125,0.4626099765300751
1772547801407020800,5.914020751953125,-0.18264225125312805,0.4355200529098511,0.39136722683906555
1772547801417058800,5.924058837890625,-0.17483945190906525,0.4259797930717468,0.2868165969848633
1772547801427096600,5.9340966796875,-0.14279817044734955,0.42539602518081665,0.16647446155548096
1772547801437134800,5.944134765625,-0.10233303159475327,0.48426201939582825,0.06307271122932434
1772547801447172600,5.954172607421875,-0.03855804353952408,0.672233521938324,0.016655143350362778
1772547801457211000,5.9642109375,0.08931123465299606,0.9605761170387268,0.04249446466565132
1772547801467248600,5.97424853515625,0.2789086103439331,1.3274520635604858,0.18021158874034882
1772547801477287000,5.984286865234375,0.5004212856292725,1.5761311054229736,0.43984130024909973
1772547801487324700,5.99432470703125,0.7399489283561707,1.5668772459030151,0.6821830868721008
1772547801497362700,6.00436279296875,0.9377791881561279,1.1837804317474365,0.8347271084785461
1772547801507400700,6.014400634765625,1.0754814147949219,0.4738661050796509,0.9168347716331482
1772547801517439500,6.024439453125,1.1701258420944214,-0.27798500657081604,0.9811631441116333
1772547801527477800,6.034477783203125,1.2190369367599487,-0.9092404842376709,1.068071961402893
1772547801537515500,6.044515625,1.2347195148468018,-1.220009207725525,1.1499940156936646
1772547801547553800,6.0545537109375,1.2461249828338623,-1.2356148958206177,1.2475836277008057
1772547801557591600,6.064591552734375,1.2949570417404175,-1.0225087404251099,1.348359227180481
1772547801567629800,6.0746298828125,1.3677194118499756,-0.7332904934883118,1.415736198425293
1772547801577667800,6.084667724609375,1.359258770942688,-0.48689454793930054,1.4238479137420654
1772547801587705600,6.09470556640625,1.290887713432312,-0.05609389394521713,1.5548166036605835
1772547801597743900,6.104743896484375,1.1823129653930664,0.25625601410865784,1.6733695268630981
1772547801607781600,6.11478173828125,1.0360854864120483,0.03434785455465317,1.58632230758667
1772547801617820000,6.12481982421875,0.8861729502677917,-0.7228919267654419,1.4172669649124146
1772547801627857700,6.134857666015625,0.7667336463928223,-1.5561883449554443,1.2998708486557007
1772547801637896000,6.14489599609375,0.646151065826416,-2.1433138847351074,1.2633745670318604
1772547801647934700,6.154934814453125,0.6192267537117004,-2.2900290489196777,1.2486255168914795
1772547801657972700,6.16497265625,0.7274786829948425,-2.254502296447754,1.1863436698913574
1772547801668010800,6.1750107421875,0.9078723788261414,-2.137406587600708,1.0753023624420166
1772547801678048500,6.185048583984375,1.000531792640686,-1.863685965538025,0.9201812744140625
1772547801688086800,6.195086669921875,0.9357452988624573,-1.2318310737609863,0.683221161365509
1772547801698124500,6.20512451171875,0.7165767550468445,-0.23127210140228271,0.3032214045524597
1772547801708162800,6.215162841796875,0.44170069694519043,0.7398636937141418,-0.17586849629878998
1772547801718200600,6.22520068359375,0.18269871175289154,1.2845797538757324,-0.6339923739433289
1772547801728238800,6.23523876953125,0.05273005738854408,1.25002920627594,-0.9689120650291443
1772547801738276600,6.245276611328125,0.12897954881191254,1.0131951570510864,-1.022377371788025
1772547801748314600,6.255314697265625,0.3237740695476532,0.9599769115447998,-0.8846514821052551
1772547801758352600,6.2653525390625,0.48114025592803955,1.0036159753799438,-0.8060813546180725
1772547801768390700,6.275390625,0.5511715412139893,0.8874843120574951,-0.8798990845680237
1772547801778428700,6.2854287109375,0.5765104293823242,0.613128662109375,-0.9950403571128845
1772547801788467700,6.2954677734375,0.5488516688346863,0.23246945440769196,-0.9785407185554504
1772547801798505700,6.305505615234375,0.5444047451019287,-0.06065402552485466,-0.8533154129981995
1772547801808543700,6.315543701171875,0.5815579295158386,-0.2708834409713745,-0.705782949924469
1772547801818581800,6.325581787109375,0.5584486126899719,-0.5092930793762207,-0.5712642669677734
1772547801828619800,6.335619873046875,0.5085716247558594,-0.5452963709831238,-0.47057124972343445
1772547801838657500,6.345657470703125,0.3522842824459076,-0.4856734871864319,-0.3224092125892639
1772547801848695800,6.35569580078125,0.24205391108989716,-0.17540164291858673,-0.11676869541406631
1772547801858733600,6.365733642578125,0.2340918630361557,0.2689845860004425,0.020370785146951675
1772547801868771800,6.375771728515625,0.25948190689086914,0.5951815843582153,0.06157121807336807
1772547801878809600,6.3858095703125,0.25639182329177856,0.800370454788208,0.06859716773033142
1772547801888848000,6.395847900390625,0.26017433404922485,0.9748027324676514,0.16187945008277893
1772547801898885600,6.4058857421875,0.35039156675338745,0.9893262386322021,0.4812318682670593
1772547801908923600,6.415923583984375,0.64458829164505,0.8408046960830688,1.0404901504516602
1772547801918961700,6.425961669921875,1.0182154178619385,0.4177245497703552,1.4772727489471436
1772547801928999700,6.435999755859375,0.9179157018661499,-0.9766296148300171,1.6059678792953491
1772547801939038700,6.446038818359375,0.37333551049232483,-2.2443645000457764,1.6307752132415771
1772547801949076700,6.45607666015625,0.013523265719413757,-2.527076005935669,1.640783667564392
1772547801959114800,6.46611474609375,-0.1517152190208435,-2.459162473678589,1.5637139081954956
1772547801969152800,6.47615283203125,-0.16780631244182587,-2.2721989154815674,1.3537840843200684
1772547801979190800,6.486190673828125,-0.03087136335670948,-1.9589192867279053,1.0191140174865723
1772547801989228800,6.496228759765625,0.21387313306331635,-1.2454121112823486,0.43017855286598206
1772547801999266600,6.5062666015625,0.46973472833633423,-0.0958932414650917,-0.2311599850654602
1772547802009304800,6.516304931640625,0.49681562185287476,0.7886946201324463,-0.4665280282497406
1772547802019342600,6.526342529296875,0.27176281809806824,0.8993601202964783,-0.25284770131111145
1772547802029380900,6.536380859375,0.014825551770627499,0.6912569999694824,-0.0762242004275322
1772547802039418600,6.546418701171875,-0.02147866040468216,0.7515587210655212,-0.12278903275728226
1772547802049456600,6.55645654296875,0.10790516436100006,1.23006272315979,-0.17958946526050568
1772547802059494700,6.56649462890625,0.33855995535850525,1.6157875061035156,-0.13885802030563354
1772547802069532700,6.57653271484375,0.6005443930625916,1.6805273294448853,-0.17970238626003265
1772547802079570700,6.58657080078125,0.9017194509506226,1.6354671716690063,-0.34407055377960205
1772547802089609700,6.596609619140625,0.7142078876495361,0.9360353350639343,-0.3870587646961212
1772547802099647700,6.606647705078125,0.00024154871061909944,-0.04782770946621895,-0.20070913434028625
1772547802109682400,6.616682373046875,-0.37564659118652344,-0.7111188769340515,-0.03125033155083656
1772547802119720400,6.626720458984375,-0.38297560811042786,-0.9783854484558105,0.04117273539304733
1772547802129758500,6.636758544921875,-0.340375691652298,-0.9082937240600586,0.09215069562196732
1772547802139796500,6.64679638671875,-0.3098611831665039,-0.6423062682151794,0.09718247503042221
1772547802149834500,6.65683447265625,-0.329242080450058,-0.3698646128177643,0.054674163460731506
1772547802159872500,6.66687255859375,-0.3902391195297241,-0.17173074185848236,0.038661375641822815
1772547802169910500,6.67691064453125,-0.40701621770858765,0.04983999580144882,-0.02610643580555916
1772547802179948500,6.686948486328125,-0.36686456203460693,0.3063705861568451,-0.13790780305862427
1772547802189986600,6.696986572265625,-0.31555476784706116,0.5154963731765747,-0.24179904162883759
1772547802200024300,6.7070244140625,-0.28260454535484314,0.5959605574607849,-0.2933650314807892
1772547802210062600,6.7170625,-0.2682200074195862,0.4876261353492737,-0.31330251693725586
1772547802220100400,6.727100341796875,-0.27232125401496887,0.3084891140460968,-0.2894270122051239
1772547802230138600,6.737138671875,-0.2757492959499359,0.15189392864704132,-0.26103904843330383
1772547802240176400,6.74717626953125,-0.28956523537635803,-0.07467636466026306,-0.22206315398216248
1772547802250214700,6.757214599609375,-0.2828303575515747,-0.23828420042991638,-0.18297088146209717
1772547802260253400,6.76725341796875,-0.25653403997421265,-0.29610517621040344,-0.1805569976568222
1772547802270291500,6.77729150390625,-0.24257855117321014,-0.2207627296447754,-0.17609326541423798
1772547802280329500,6.78732958984375,-0.2345951944589615,-0.11743048578500748,-0.1678270846605301
1772547802290367500,6.797367431640625,-0.23189954459667206,-0.08335614204406738,-0.1576295793056488
1772547802300405500,6.807405517578125,-0.2519494295120239,-0.12071602791547775,-0.15371845662593842
1772547802310443500,6.817443603515625,-0.2896097004413605,-0.15955716371536255,-0.15370407700538635
1772547802320481500,6.8274814453125,-0.3233298659324646,-0.16698765754699707,-0.15500450134277344
1772547802330519600,6.83751953125,-0.3606782853603363,-0.16738472878932953,-0.14813700318336487
1772547802340557600,6.8475576171875,-0.3915315568447113,-0.12274535745382309,-0.10611099004745483
1772547802350595600,6.857595703125,-0.3988538980484009,-0.12087049335241318,-0.04295013099908829
1772547802360633300,6.86763330078125,-0.38860687613487244,-0.13811925053596497,0.02034548483788967
1772547802370671600,6.877671630859375,-0.370150089263916,-0.09849727898836136,0.08519718796014786
1772547802380709400,6.88770947265625,-0.3492610454559326,0.0111045828089118,0.12469479441642761
1772547802390747600,6.89774755859375,-0.32645589113235474,0.1974281221628189,0.15948686003684998
1772547802400785400,6.907785400390625,-0.3006114959716797,0.37911057472229004,0.19702358543872833
1772547802410823700,6.91782373046875,-0.2827209234237671,0.5028548836708069,0.2374085634946823
1772547802420862500,6.927862548828125,-0.26178181171417236,0.6739222407341003,0.3073362410068512
1772547802430900500,6.937900390625,-0.23095092177391052,0.8301001191139221,0.36421844363212585
1772547802440938500,6.9479384765625,-0.19842121005058289,0.8987593650817871,0.37709030508995056
1772547802450976300,6.957976318359375,-0.18390299379825592,0.881894052028656,0.4017048180103302
1772547802461014500,6.9680146484375,-0.1722540557384491,0.8084627389907837,0.42537766695022583
1772547802471052300,6.97805224609375,-0.13436180353164673,0.7173058986663818,0.5058152675628662
1772547802481090600,6.988090576171875,-0.06434383243322372,0.5940614938735962,0.622774600982666
1772547802491128300,6.99812841796875,0.04122626781463623,0.4846753478050232,0.7323970198631287
1772547802501166600,7.00816650390625,0.17100690305233002,0.4539552330970764,0.831532895565033
1772547802511204600,7.01820458984375,0.14584162831306458,0.12236825376749039,0.9104394316673279
1772547802521242400,7.028242431640625,0.07101985067129135,-0.2753892242908478,1.0731878280639648
1772547802531280600,7.03828076171875,0.12252085655927658,-0.35081902146339417,1.2034296989440918
1772547802541318400,7.048318359375,0.18855233490467072,-0.30546778440475464,1.2726738452911377
1772547802551356700,7.058356689453125,0.21174393594264984,-0.33390021324157715,1.3502024412155151
1772547802561394400,7.06839453125,0.22386611998081207,-0.4247227907180786,1.4311898946762085
1772547802571432400,7.078432373046875,0.23515206575393677,-0.5762651562690735,1.4633796215057373
1772547802581470500,7.088470458984375,0.22604778409004211,-0.6861274838447571,1.4373887777328491
1772547802591508500,7.098508544921875,0.21656985580921173,-0.6954064965248108,1.3888760805130005
1772547802601547500,7.108547607421875,0.20257946848869324,-0.8012897968292236,1.2733737230300903
1772547802611585300,7.118585205078125,0.1520145684480667,-0.9591355919837952,1.0933279991149902
1772547802621623600,7.12862353515625,0.08399397134780884,-1.052907943725586,0.8888220191001892
1772547802631661300,7.138661376953125,0.008329568430781364,-1.070310354232788,0.6829221248626709
1772547802641699600,7.148699462890625,-0.065965436398983,-1.0454363822937012,0.424053817987442
1772547802651737300,7.1587373046875,-0.15429796278476715,-0.8835555911064148,0.16195933520793915
1772547802661775400,7.168775390625,-0.23627698421478271,-0.6992169618606567,-0.025889920070767403
1772547802671813400,7.1788134765625,-0.3173111081123352,-0.5493456721305847,-0.1435568928718567
1772547802681851400,7.188851318359375,-0.4143820106983185,-0.353191077709198,-0.3186168670654297
1772547802691889400,7.198889404296875,-0.5099276900291443,-0.1305265873670578,-0.5588422417640686
1772547802701927400,7.208927490234375,-0.5925738215446472,-0.0038831550627946854,-0.7916595339775085
1772547802711965400,7.21896533203125,-0.6909355521202087,0.09500294178724289,-0.9309324622154236
1772547802722003500,7.22900341796875,-0.7833752036094666,0.19246211647987366,-1.027281641960144
1772547802732041500,7.23904150390625,-0.8569357395172119,0.4260261356830597,-1.069119930267334
1772547802742079500,7.24907958984375,-0.8123053908348083,1.1245893239974976,-0.70480877161026
1772547802752117500,7.259117431640625,-0.6992589831352234,1.4137840270996094,-0.5526381731033325
1772547802762155500,7.269155517578125,-0.6095272898674011,0.454397052526474,-1.1523327827453613
1772547802772193500,7.279193603515625,-0.5378192663192749,0.5751772522926331,-1.316748023033142
1772547802782231600,7.2892314453125,-0.30444031953811646,1.7558484077453613,-1.397679090499878
1772547802792270300,7.299270263671875,0.11306876689195633,3.160855293273926,-1.2511097192764282
1772547802802308600,7.30930859375,0.6240742206573486,3.224802255630493,-1.057018518447876
1772547802812346400,7.319346435546875,0.5987926125526428,1.2729425430297852,-1.198627233505249
1772547802822384400,7.32938427734375,-0.07290882617235184,-0.6499063968658447,-0.8306463360786438
1772547802832422400,7.33942236328125,-0.5144281983375549,-1.0253039598464966,-0.3166477084159851
1772547802842460400,7.34946044921875,-0.5554685592651367,-1.066519856452942,-0.1547517627477646
1772547802852498400,7.35949853515625,-0.5209822058677673,-1.0761809349060059,-0.21928361058235168
1772547802862536400,7.369536376953125,-0.5535252690315247,-0.9055562615394592,-0.32574933767318726
1772547802872574500,7.379574462890625,-0.6032565832138062,-0.6655399203300476,-0.3960581123828888
1772547802882612500,7.389612548828125,-0.6549767851829529,-0.4511434733867645,-0.44408318400382996
1772547802892650200,7.399650146484375,-0.7116174101829529,-0.16135001182556152,-0.4819552004337311
1772547802902688500,7.4096884765625,-0.6955441832542419,0.2286566197872162,-0.5773254036903381
1772547802912726500,7.4197265625,-0.5304641127586365,0.7317661046981812,-0.7006915211677551
1772547802922764500,7.4297646484375,-0.24546915292739868,1.2381139993667603,-0.6695677042007446
1772547802932802600,7.439802490234375,0.06064523756504059,1.3082941770553589,-0.584673285484314
1772547802942840600,7.449840576171875,0.2533169388771057,1.0594637393951416,-0.5703654885292053
1772547802952878600,7.459878662109375,0.2614041864871979,0.7985988855361938,-0.47074514627456665
1772547802962916400,7.469916259765625,0.1470096856355667,0.5864693522453308,-0.30700841546058655
1772547802972954600,7.47995458984375,-0.06833777576684952,0.32394957542419434,-0.21686573326587677
1772547802982992400,7.489992431640625,-0.22884009778499603,0.012495817616581917,-0.20399227738380432
1772547802993030700,7.50003076171875,-0.29990044236183167,-0.29156607389450073,-0.15031945705413818
1772547803003069400,7.5100693359375,-0.3102976679801941,-0.45822110772132874,-0.07638531923294067
1772547803013107500,7.520107421875,-0.29096606373786926,-0.4769628345966339,-0.09906080365180969
1772547803023145500,7.5301455078125,-0.2665776312351227,-0.3674810826778412,-0.18106140196323395
1772547803033183500,7.54018359375,-0.20880168676376343,-0.19686326384544373,-0.25028812885284424
1772547803043221500,7.550221435546875,-0.12272325903177261,-0.051368650048971176,-0.28661951422691345
1772547803053259300,7.56025927734375,-0.04012132063508034,-0.0020479708909988403,-0.28330308198928833
1772547803063297500,7.570297607421875,0.016349412500858307,-0.06131182610988617,-0.2891860008239746
1772547803073335300,7.580335205078125,0.03166871517896652,-0.06516887992620468,-0.28859105706214905
1772547803083373600,7.59037353515625,0.047274570912122726,0.05642199516296387,-0.27933469414711
1772547803093411300,7.600411376953125,0.08682677149772644,0.23089313507080078,-0.27167171239852905
1772547803103453200,7.610453125,0.12698325514793396,0.43696242570877075,-0.2740432620048523
1772547803113491000,7.620490966796875,0.1690143197774887,0.6262191534042358,-0.26418957114219666
1772547803123529200,7.630529296875,0.20956946909427643,0.7364564538002014,-0.25269296765327454
1772547803133567000,7.64056689453125,0.21728092432022095,0.7352066040039062,-0.23283058404922485
1772547803143605000,7.65060498046875,0.20669831335544586,0.6252985000610352,-0.19918660819530487
1772547803153643000,7.66064306640625,0.18137085437774658,0.49265098571777344,-0.1548795998096466
1772547803163681000,7.670680908203125,0.15429982542991638,0.3670560419559479,-0.10138574242591858
1772547803173719000,7.680718994140625,0.12807807326316833,0.2397172600030899,-0.03212730959057808
1772547803183757000,7.690757080078125,0.08331672847270966,0.08309382200241089,0.01660507544875145
1772547803193795300,7.70079541015625,0.042998600751161575,-0.08847660571336746,0.10723431408405304
1772547803203833000,7.7108330078125,-0.0019113506423309445,-0.25529995560646057,0.1803833544254303
1772547803213871000,7.72087109375,-0.06751113384962082,-0.40590807795524597,0.19852215051651
1772547803223910100,7.73091015625,-0.14710849523544312,-0.4613457918167114,0.2159770429134369
1772547803233948000,7.740947998046875,-0.19023892283439636,-0.41703423857688904,0.20955349504947662
1772547803243986200,7.750986083984375,-0.19004610180854797,-0.32737600803375244,0.17637476325035095
1772547803254024000,7.76102392578125,-0.16004985570907593,-0.22393350303173065,0.14781875908374786
1772547803264062200,7.771062255859375,-0.13385313749313354,-0.12105638533830643,0.10281585901975632
1772547803274100000,7.781099853515625,-0.11592739820480347,-0.026195917278528214,0.05687100440263748
1772547803284138200,7.79113818359375,-0.09295204281806946,0.0704355537891388,0.006891462020576
1772547803294176000,7.801176025390625,-0.06031474098563194,0.16303366422653198,-0.04284866526722908
1772547803304214000,7.811214111328125,-0.03184394910931587,0.2553800940513611,-0.09248092770576477
1772547803314252000,7.821251953125,-0.01506763231009245,0.34089794754981995,-0.13288135826587677
1772547803324290000,7.8312900390625,-0.019303657114505768,0.36775457859039307,-0.1712665557861328
1772547803334328000,7.841328125,-0.034622691571712494,0.36403149366378784,-0.18762661516666412
1772547803344366000,7.851365966796875,-0.03726827725768089,0.3375228941440582,-0.1820816546678543
1772547803354404000,7.861404052734375,-0.019870378077030182,0.32250773906707764,-0.15671052038669586
1772547803364442000,7.871442138671875,0.018157165497541428,0.32180678844451904,-0.1380891650915146
1772547803374480100,7.881480224609375,0.05161286145448685,0.28148573637008667,-0.13382704555988312
1772547803384518100,7.89151806640625,0.07057163864374161,0.23343245685100555,-0.12270993739366531
1772547803394556200,7.90155615234375,0.06434783339500427,0.19093799591064453,-0.10947216302156448
1772547803404594200,7.91159423828125,0.04145050421357155,0.14890532195568085,-0.09194030612707138
1772547803414632200,7.921632080078125,0.012256133370101452,0.11461605876684189,-0.0630740374326706
1772547803424670000,7.931669921875,-0.017072459682822227,0.062188804149627686,-0.04319833591580391
1772547803434708200,7.941708251953125,-0.04782158508896828,-0.006105296779423952,-0.028003139421343803
1772547803444746000,7.95174609375,-0.07186726480722427,-0.07360631227493286,-0.002388855442404747
1772547803454784300,7.9617841796875,-0.07991454005241394,-0.10382626205682755,0.0008535431115888059
1772547803464822000,7.971822021484375,-0.08782785385847092,-0.0717809796333313,-0.02010287158191204
1772547803474860300,7.9818603515625,-0.09335551410913467,-0.037875741720199585,-0.03490578755736351
1772547803484898000,7.99189794921875,-0.08930724114179611,-0.01954547129571438,-0.03881184384226799
1772547803494935000,8.00193505859375,-0.06435661762952805,0.010260893031954765,-0.05744704604148865
1772547803504973000,8.01197314453125,-0.03991838917136192,0.05748007073998451,-0.08870510011911392
1772547803515011000,8.022010986328125,-0.022761505097150803,0.0921991690993309,-0.11805446445941925
1772547803525049000,8.032049072265625,-0.018986741080880165,0.13674239814281464,-0.1591861993074417
1772547803535087000,8.042087158203126,-0.024083232507109642,0.17554865777492523,-0.19084106385707855
1772547803545125000,8.052125,-0.02869902178645134,0.1877933293581009,-0.2060421109199524
1772547803555163100,8.0621630859375,-0.0328437015414238,0.20146360993385315,-0.22070947289466858
1772547803565201200,8.072201171875,-0.04086993634700775,0.19489651918411255,-0.23818807303905487
1772547803575239200,8.0822392578125,-0.05278997868299484,0.18498024344444275,-0.25596359372138977
1772547803585277200,8.092277099609374,-0.06473478674888611,0.1711302101612091,-0.271860271692276
1772547803595315000,8.10231494140625,-0.06144525110721588,0.15619519352912903,-0.28341519832611084
1772547803605353200,8.112353271484375,-0.053163085132837296,0.13121554255485535,-0.29321643710136414
1772547803615391000,8.122390869140625,-0.044560544192790985,0.08551783114671707,-0.31352224946022034
1772547803625429200,8.13242919921875,-0.050993941724300385,0.03334277495741844,-0.3277464509010315
1772547803635467000,8.142467041015625,-0.08410955220460892,0.0007286408799700439,-0.3320639729499817
1772547803645505300,8.15250537109375,-0.1267680674791336,0.0010527475969865918,-0.33182746171951294
1772547803655544000,8.1625439453125,-0.1530875563621521,0.017955297604203224,-0.32943516969680786
1772547803665582000,8.17258203125,-0.16814745962619781,0.03550419956445694,-0.31839022040367126
1772547803675620000,8.1826201171875,-0.17446660995483398,0.053101036697626114,-0.3012349307537079
1772547803685657900,8.192657958984375,-0.1759505271911621,0.046373624354600906,-0.2915639281272888
1772547803695696100,8.202696044921876,-0.19344696402549744,0.021164141595363617,-0.28071901202201843
1772547803705734000,8.21273388671875,-0.22699400782585144,-0.009781524538993835,-0.254898339509964
1772547803715772200,8.222772216796875,-0.2555236518383026,-0.026497919112443924,-0.2381952553987503
1772547803725810200,8.23281005859375,-0.27257826924324036,-0.014337394386529922,-0.24196602404117584
1772547803735848200,8.24284814453125,-0.27369678020477295,0.023662984371185303,-0.2528149485588074
1772547803745886200,8.25288623046875,-0.2684503495693207,0.07299911230802536,-0.2518303692340851
1772547803755924000,8.262924072265625,-0.2572632133960724,0.10465530306100845,-0.2407313883304596
1772547803765962200,8.272962158203125,-0.25665149092674255,0.11999537795782089,-0.26642554998397827
1772547803776000000,8.283,-0.25389325618743896,0.146183580160141,-0.3271070122718811
1772547803786038300,8.293038330078126,-0.24492906033992767,0.18446038663387299,-0.3961462676525116
1772547803796077000,8.3030771484375,-0.23177677392959595,0.21592137217521667,-0.44374868273735046
1772547803806115000,8.313114990234375,-0.22545762360095978,0.23884053528308868,-0.45160073041915894
1772547803816153000,8.323153076171875,-0.2056511640548706,0.21656052768230438,-0.4574700891971588
1772547803826192100,8.333192138671874,-0.18248698115348816,0.17187589406967163,-0.4813961982727051
1772547803836230100,8.343230224609375,-0.17002205550670624,0.11620836704969406,-0.5225234031677246
1772547803846268200,8.35326806640625,-0.16330130398273468,0.048223722726106644,-0.5681697130203247
1772547803856306200,8.36330615234375,-0.16580015420913696,-0.03275341913104057,-0.594673752784729
1772547803866344000,8.373343994140624,-0.1849173903465271,-0.09001058340072632,-0.6043596863746643
1772547803876382200,8.38338232421875,-0.2263239473104477,-0.11714925616979599,-0.6167428493499756
1772547803886420000,8.393419921875,-0.26203641295433044,-0.11401205509901047,-0.6619452238082886
1772547803896458200,8.403458251953126,-0.27426138520240784,-0.10744097083806992,-0.7467309236526489
1772547803906496000,8.41349609375,-0.29559701681137085,-0.11016804724931717,-0.8147003650665283
1772547803916534300,8.4235341796875,-0.3592708110809326,-0.12477602064609528,-0.8046714663505554
1772547803926572000,8.433572021484375,-0.4527837336063385,-0.1854548156261444,-0.7489064335823059
1772547803936610000,8.443610107421875,-0.5168676376342773,-0.28053605556488037,-0.7116363048553467
1772547803946648000,8.45364794921875,-0.5104829668998718,-0.4209546744823456,-0.7177791595458984
1772547803956686000,8.46368603515625,-0.46629634499549866,-0.5652178525924683,-0.6836757659912109
1772547803966724000,8.47372412109375,-0.47096937894821167,-0.6335870623588562,-0.6035599112510681
1772547803976762000,8.48376220703125,-0.4711502194404602,-0.6853658556938171,-0.5597900748252869
1772547803986800000,8.493800048828126,-0.45798540115356445,-0.7902688384056091,-0.5406768321990967
1772547803996838100,8.503838134765624,-0.45472463965415955,-0.9284354448318481,-0.5092384815216064
1772547804006876000,8.5138759765625,-0.48557549715042114,-1.0437567234039307,-0.4519466757774353
1772547804016914200,8.5239140625,-0.5247713327407837,-1.1816281080245972,-0.40437063574790955
1772547804026952000,8.533951904296876,-0.5895386338233948,-1.3263099193572998,-0.42711111903190613
1772547804036990200,8.543990234375,-0.6724721193313599,-1.4485127925872803,-0.533856213092804
1772547804047028000,8.554028076171875,-0.7614603042602539,-1.5250277519226074,-0.6559687852859497
1772547804057066200,8.564066162109375,-0.8502165675163269,-1.5254395008087158,-0.7410213947296143
1772547804067104000,8.57410400390625,-0.9137129783630371,-1.4399054050445557,-0.8304948210716248
1772547804077142000,8.58414208984375,-0.9183668494224548,-1.2413593530654907,-0.9153484106063843
1772547804087180000,8.594179931640625,-0.8382898569107056,-0.9800211787223816,-0.9394633769989014
1772547804097218000,8.604218017578125,-0.704283595085144,-0.6650366187095642,-0.8999998569488525
1772547804107252700,8.614252685546875,-0.5518378615379333,-0.34026169776916504,-0.7845712304115295
1772547804117290800,8.624290771484375,-0.3685295581817627,-0.07332321256399155,-0.5915850400924683
1772547804127328800,8.634328857421876,-0.19529758393764496,0.10899598896503448,-0.3804943561553955
1772547804137366800,8.64436669921875,-0.07339645177125931,0.22766511142253876,-0.2041667103767395
1772547804147404800,8.65440478515625,0.013353622518479824,0.308547705411911,-0.1074066162109375
1772547804157442800,8.66444287109375,0.08791494369506836,0.37176182866096497,-0.07517704367637634
1772547804167480800,8.674480712890626,0.16087757050991058,0.41789552569389343,-0.07619597017765045
1772547804177518800,8.684518798828124,0.2196628451347351,0.4626544713973999,-0.09117332100868225
1772547804187558000,8.694557861328125,0.2631243169307709,0.558131992816925,-0.09585995227098465
1772547804197596000,8.704595947265625,0.29610541462898254,0.7014100551605225,-0.07936885952949524
1772547804207633700,8.714633544921876,0.3125501871109009,0.8489590287208557,-0.05595194920897484
1772547804217672000,8.724671875,0.30992111563682556,0.9731664657592773,-0.010863300412893295
1772547804227709700,8.734709716796875,0.28360533714294434,1.0451741218566895,0.0424870066344738
1772547804237748000,8.744748046875,0.27070552110671997,1.060457706451416,0.0988999456167221
1772547804247785700,8.75478564453125,0.2914038896560669,0.9622094035148621,0.22809548676013947
1772547804257824000,8.764823974609374,0.3378573954105377,0.7691571116447449,0.4094434380531311
1772547804267861800,8.77486181640625,0.3715943396091461,0.551943302154541,0.5749948620796204
1772547804277899800,8.784899658203125,0.37269553542137146,0.32843273878097534,0.709804892539978
1772547804287937800,8.794937744140626,0.3578449487686157,0.11382643133401871,0.7874717116355896
1772547804297975800,8.804975830078124,0.32706573605537415,-0.07315277308225632,0.7935351729393005
1772547804308013800,8.815013916015625,0.2531372010707855,-0.2261282056570053,0.7574432492256165
1772547804318051800,8.8250517578125,0.18109895288944244,-0.3199678957462311,0.699349582195282
1772547804328089900,8.83508984375,0.14665281772613525,-0.3777174651622772,0.6280085444450378
1772547804338128000,8.8451279296875,0.17361892759799957,-0.38354605436325073,0.5674506425857544
1772547804348165600,8.85516552734375,0.22798682749271393,-0.2458246797323227,0.5326806902885437
1772547804358204000,8.865203857421875,0.259753555059433,0.01254881452769041,0.5122694373130798
1772547804368241700,8.87524169921875,0.27691468596458435,0.37373605370521545,0.48211604356765747
1772547804378280000,8.885280029296876,0.28159546852111816,0.7176249623298645,0.46863511204719543
1772547804388317700,8.895317626953124,0.28864485025405884,0.9619039297103882,0.46676531434059143
1772547804398355700,8.905355712890625,0.31871354579925537,1.085870385169983,0.45593130588531494
1772547804408394000,8.91539404296875,0.3555426597595215,1.0718495845794678,0.4535541832447052
1772547804418431700,8.925431640625,0.39524585008621216,0.9255829453468323,0.4893966019153595
1772547804428470000,8.935469970703124,0.41174015402793884,0.7085793018341064,0.5453546643257141
1772547804438507800,8.9455078125,0.41270899772644043,0.4889260232448578,0.5862762928009033
1772547804448546000,8.955546142578125,0.3952852785587311,0.27683931589126587,0.6175242066383362
1772547804458583800,8.965583740234376,0.3642179071903229,0.022009162232279778,0.6821072101593018
1772547804468621800,8.975621826171874,0.33371031284332275,-0.2408754676580429,0.7562407851219177
1772547804478659800,8.985659912109375,0.3298679292201996,-0.4057339131832123,0.7114174365997314
1772547804488697900,8.99569775390625,0.3626972436904907,-0.40606069564819336,0.4987437427043915
1772547804498735900,9.00573583984375,0.388458251953125,-0.24570749700069427,0.20943285524845123
1772547804508774000,9.01577392578125,0.37277358770370483,0.004437625408172607,0.012529640458524227
1772547804518812000,9.02581201171875,0.3218962848186493,0.2585356831550598,-0.006446181330829859
1772547804528850000,9.035849853515625,0.2849244177341461,0.44894930720329285,0.12775610387325287
1772547804538887700,9.0458876953125,0.27764174342155457,0.43169814348220825,0.32648569345474243
1772547804548926000,9.055926025390624,0.29268327355384827,0.18573151528835297,0.5126811265945435
1772547804558963700,9.065963623046875,0.23127342760562897,-0.27969688177108765,0.6545533537864685
1772547804569002000,9.076001953125,0.10316366702318192,-0.7396024465560913,0.7178230881690979
1772547804579039700,9.086039794921875,-0.04262096434831619,-1.026989221572876,0.7209177017211914
1772547804589078800,9.096078857421874,-0.18401990830898285,-1.0000159740447998,0.6871546506881714
1772547804599116800,9.10611669921875,-0.28657209873199463,-0.6663450002670288,0.6135542392730713
1772547804609154800,9.11615478515625,-0.3425062298774719,-0.1622064858675003,0.51988285779953
1772547804619192800,9.12619287109375,-0.3696078658103943,0.33509570360183716,0.4506252408027649
1772547804629230800,9.13623095703125,-0.33926835656166077,0.6536363959312439,0.44681212306022644
1772547804639268900,9.146268798828125,-0.317137748003006,0.6762034893035889,0.5129554271697998
1772547804649307000,9.156306884765625,-0.4081488847732544,0.5625988841056824,0.6521173119544983
1772547804659345000,9.166344970703125,-0.5811017155647278,0.38614824414253235,0.7393635511398315
1772547804669383000,9.1763828125,-0.7217084169387817,0.20554250478744507,0.7016380429267883
1772547804679421000,9.1864208984375,-0.8368264436721802,0.13105948269367218,0.589225172996521
1772547804689459000,9.196458984375,-0.9121071100234985,0.2799221873283386,0.45148783922195435
1772547804699496700,9.20649658203125,-0.9618070125579834,0.56778484582901,0.3647926151752472
1772547804709535000,9.216534912109376,-0.9715152978897095,0.942176342010498,0.3506014347076416
1772547804719572700,9.22657275390625,-0.9687506556510925,1.119778037071228,0.4461505711078644
1772547804729611000,9.236611083984375,-0.9240739941596985,1.072474718093872,0.6137291789054871
1772547804739648800,9.246648681640625,-0.8469027876853943,0.8244501948356628,0.8504346609115601
1772547804749687000,9.25668701171875,-0.7373446226119995,0.2775200307369232,1.128758430480957
1772547804759724800,9.266724853515624,-0.5950825214385986,-0.6209367513656616,1.3507754802703857
1772547804769762800,9.2767626953125,-0.38067731261253357,-1.6740460395812988,1.3917994499206543
1772547804779800800,9.28680078125,-0.10233356058597565,-2.083113670349121,1.3175477981567383
1772547804789838800,9.2968388671875,0.11482458561658859,-1.6799771785736084,1.1081181764602661
1772547804799876900,9.306876953125,0.22505734860897064,-1.02387273311615,0.9336981177330017
1772547804809915000,9.316914794921875,0.27601534128189087,-0.41565313935279846,0.7091734409332275
1772547804819952600,9.32695263671875,0.3137664496898651,-0.11706696450710297,0.3293435275554657
1772547804829991000,9.336990966796876,0.3284183740615845,-0.24346378445625305,-0.16176412999629974
1772547804840028700,9.347028564453124,0.3374776244163513,-0.5284635424613953,-0.6365170478820801
1772547804850067000,9.35706689453125,0.2998700737953186,-0.6808539032936096,-0.901546061038971
1772547804860104700,9.367104736328125,0.2079840898513794,-0.6508062481880188,-0.858809232711792
1772547804870143000,9.37714306640625,0.10959147661924362,-0.5183307528495789,-0.5721343755722046
1772547804880180700,9.3871806640625,-0.03785097599029541,-0.3354427218437195,-0.27899089455604553
1772547804890218800,9.39721875,-0.21626466512680054,-0.37186944484710693,-0.18044540286064148
1772547804900256800,9.4072568359375,-0.3888454735279083,-0.41371434926986694,-0.39793193340301514
1772547804910294800,9.417294677734375,-0.45629775524139404,-0.4337668716907501,-0.8585548996925354
1772547804920332800,9.427332763671876,-0.4662843346595764,-0.28579339385032654,-1.4242726564407349
1772547804930370800,9.437370849609374,-0.6392025947570801,-0.03729277849197388,-1.9267991781234741
1772547804940408800,9.447408935546875,-0.8733370900154114,0.17275473475456238,-2.235435724258423
1772547804950446800,9.45744677734375,-0.9695211052894592,0.30822014808654785,-2.176065683364868
1772547804960484900,9.46748486328125,-0.812775194644928,0.5140944719314575,-1.4640594720840454
1772547804970523000,9.47752294921875,-0.38457828760147095,0.8887370824813843,-0.32171890139579773
1772547804980561000,9.487560791015625,0.07859334349632263,1.0572261810302734,0.30274176597595215
1772547804990599000,9.497598876953125,0.3685213029384613,0.8538334369659424,0.11669332534074783
1772547805000637000,9.507636962890626,0.4454496502876282,0.7420807480812073,-0.362569659948349
1772547805010675000,9.517675048828124,0.316650927066803,1.0666444301605225,-0.7171050906181335
1772547805020713000,9.527712890625,-0.02612427808344364,1.6213356256484985,-0.7983613610267639
1772547805030752000,9.537751953125,-0.3192749321460724,2.024531602859497,-0.6324357986450195
1772547805040789800,9.547789794921876,-0.3430452346801758,1.905363917350769,-0.4792312979698181
1772547805050827800,9.557827880859374,-0.20014961063861847,1.384592890739441,-0.43479833006858826
1772547805060865800,9.56786572265625,-0.015836220234632492,0.7235973477363586,-0.39051875472068787
1772547805070903800,9.57790380859375,0.17218855023384094,0.09545275568962097,-0.2194545865058899
1772547805080941800,9.58794189453125,0.3493529260158539,-0.4117729067802429,0.017356619238853455
1772547805090979800,9.597979736328124,0.4724980294704437,-0.7618318200111389,0.17947308719158173
1772547805101017900,9.608017822265625,0.53490149974823,-0.8916454911231995,0.1905052363872528
1772547805111056000,9.618055908203125,0.5317914485931396,-0.7402655482292175,0.04363642632961273
1772547805121093600,9.62809375,0.49288612604141235,-0.4156952202320099,-0.18793287873268127
1772547805131132000,9.6381318359375,0.4500654339790344,-0.11923877894878387,-0.39248043298721313
1772547805141169700,9.648169677734375,0.3554212152957916,-0.0425325483083725,-0.4882122874259949
1772547805151208000,9.6582080078125,0.24490003287792206,-0.19726726412773132,-0.49790751934051514
1772547805161245700,9.66824560546875,0.14015232026576996,-0.4738072454929352,-0.49547234177589417
1772547805171283700,9.67828369140625,0.028436169028282166,-0.7473123073577881,-0.5168007612228394
1772547805181322000,9.688322021484375,-0.08748537302017212,-0.9863222241401672,-0.5774782299995422
1772547805191359700,9.69835986328125,-0.18722021579742432,-1.2041817903518677,-0.684404194355011
1772547805201398000,9.70839794921875,-0.2723151445388794,-1.4054664373397827,-0.843849241733551
1772547805211435800,9.718435791015626,-0.35125070810317993,-1.5489957332611084,-1.0477783679962158
1772547805221474000,9.72847412109375,-0.3920138478279114,-1.5865612030029297,-1.2655400037765503
1772547805231511800,9.73851171875,-0.4209328591823578,-1.4958711862564087,-1.4483997821807861
1772547805241549800,9.7485498046875,-0.415877103805542,-1.2893604040145874,-1.6612106561660767
1772547805251587800,9.758587890625,-0.37170377373695374,-0.9559906721115112,-1.8820340633392334
1772547805261625900,9.7686259765625,-0.2771141529083252,-0.5067793130874634,-1.9241325855255127
1772547805271663900,9.778663818359375,-0.1839788854122162,-0.10851529240608215,-1.5374280214309692
1772547805281702000,9.788701904296875,-0.13519616425037384,-0.019054651260375977,-0.7833174467086792
1772547805291740000,9.798739990234376,-0.0936250239610672,-0.3602133095264435,-0.023693878203630447
1772547805301778000,9.80877783203125,-0.06811939924955368,-0.8128446936607361,0.45551079511642456
1772547805311815700,9.818815673828125,-0.07162944227457047,-1.1129674911499023,0.6401528120040894
1772547805321854000,9.82885400390625,-0.10888547450304031,-1.28753662109375,0.6866108775138855
1772547805331891700,9.8388916015625,-0.14059999585151672,-1.4171985387802124,0.6654238104820251
1772547805341930000,9.848929931640624,-0.1730966866016388,-1.5638891458511353,0.587579607963562
1772547805351967700,9.8589677734375,-0.2308121770620346,-1.703934907913208,0.4750823676586151
1772547805362006000,9.869006103515625,-0.3262643814086914,-1.7781527042388916,0.34119805693626404
1772547805372043800,9.879043701171875,-0.4247068166732788,-1.7466789484024048,0.20960435271263123
1772547805382081800,9.889081787109374,-0.5064197778701782,-1.6268856525421143,0.06752365082502365
1772547805392119800,9.899119873046875,-0.5513811111450195,-1.423757553100586,-0.05242219567298889
1772547805402157800,9.90915771484375,-0.5502732396125793,-1.166922926902771,-0.1346651315689087
1772547805412195800,9.91919580078125,-0.49317827820777893,-0.855809211730957,-0.1839360147714615
1772547805422233900,9.92923388671875,-0.41298410296440125,-0.47680196166038513,-0.252432256937027
1772547805432272000,9.93927197265625,-0.3034994304180145,-0.018096445128321648,-0.32802820205688477
1772547805442310000,9.949309814453125,-0.15017405152320862,0.4789354205131531,-0.3766298294067383
1772547805452347600,9.95934765625,0.0498754158616066,0.9301215410232544,-0.34939634799957275
1772547805462386000,9.969385986328126,0.30708083510398865,1.257646918296814,-0.2725348472595215
1772547805472423700,9.979423583984374,0.5514311790466309,1.4804043769836426,-0.1840185672044754
1772547805482462000,9.9894619140625,0.7223387360572815,1.6295195817947388,-0.11143997311592102
1772547805492499700,9.999499755859375,0.7988705635070801,1.7467803955078125,-0.09417949616909027
1772547805502537700,10.009537841796876,0.795961856842041,1.7944611310958862,-0.09434647858142853
1772547805512575700,10.01957568359375,0.7394655346870422,1.735234022140503,-0.03879693150520325
1772547805522613800,10.02961376953125,0.6226105690002441,1.575485110282898,0.08423817902803421
1772547805532651800,10.03965185546875,0.4331927001476288,1.34224271774292,0.26143214106559753
1772547805542689800,10.049689697265626,0.17594332993030548,1.0574166774749756,0.48824822902679443
1772547805552728000,10.05972802734375,-0.07425665110349655,0.7315517067909241,0.6908796429634094
1772547805562765800,10.069765869140625,-0.2613876461982727,0.3982104957103729,0.8193968534469604
1772547805572804900,10.079804931640625,-0.3860190808773041,0.057139985263347626,0.8860680460929871
1772547805582843000,10.0898427734375,-0.4489607512950897,-0.31028249859809875,0.8975909948348999
1772547805592880600,10.099880615234374,-0.46984606981277466,-0.6784037947654724,0.8431794047355652
1772547805602919000,10.1099189453125,-0.46320840716362,-0.9710873365402222,0.6928349137306213
1772547805612956700,10.119956787109375,-0.4312877357006073,-1.1016818284988403,0.4639809727668762
1772547805622995000,10.129994873046876,-0.39408019185066223,-0.9822518229484558,0.21871688961982727
1772547805633032700,10.14003271484375,-0.3340749144554138,-0.636216402053833,0.022587867453694344
1772547805643071000,10.150071044921875,-0.23291820287704468,-0.1783636212348938,-0.10205978900194168
1772547805653108700,10.160108642578125,-0.1032899022102356,0.29569315910339355,-0.1607087254524231
1772547805663146800,10.170146728515626,0.058832425624132156,0.8410813808441162,-0.27239876985549927
1772547805673184800,10.180184814453124,0.24276630580425262,1.5078668594360352,-0.38529548048973083
1772547805683222800,10.190222900390625,0.40616375207901,1.9905070066452026,-0.14040851593017578
1772547805693260800,10.2002607421875,0.503957986831665,1.88735830783844,0.6700395941734314
1772547805703298800,10.210298828125,0.5442867279052734,0.8721373081207275,1.6934231519699097
1772547805713336800,10.2203369140625,0.4945167899131775,-0.8670054078102112,2.3147149085998535
1772547805723374800,10.230374755859375,0.32407209277153015,-2.3325271606445312,2.4453983306884766
1772547805733412900,10.240412841796875,0.10890597850084305,-2.6615402698516846,2.3431177139282227
1772547805743451000,10.250450927734375,-0.002195776207372546,-1.9768003225326538,2.201327085494995
1772547805753489000,10.260489013671876,0.005590774118900299,-0.9823653101921082,2.054863452911377
1772547805763527000,10.27052685546875,0.10541456937789917,-0.17143353819847107,1.8440619707107544
1772547805773565000,10.28056494140625,0.2674633860588074,0.22075900435447693,1.5124515295028687
1772547805783603000,10.29060302734375,0.45264896750450134,0.3683585822582245,1.155722737312317
1772547805793641000,10.300640869140626,0.5599333643913269,0.4203656017780304,0.8512674570083618
1772547805803678700,10.3106787109375,0.7014550566673279,0.4981623888015747,0.5693766474723816
1772547805813717000,10.320717041015625,0.8275056481361389,0.6980763077735901,0.24184538424015045
1772547805823754800,10.330754638671875,0.8890491724014282,0.9871581792831421,-0.1308126002550125
1772547805833793000,10.34079296875,0.8307584524154663,1.3231908082962036,-0.5552499294281006
1772547805843830800,10.350830810546874,0.6451784372329712,1.5835899114608765,-1.0687233209609985
1772547805853868800,10.360868896484375,0.3638961911201477,1.6850382089614868,-1.6351521015167236
1772547805863906800,10.37090673828125,0.09350597858428955,1.5959067344665527,-2.1977758407592773
1772547805873944800,10.38094482421875,-0.1283521056175232,1.0958819389343262,-2.803487539291382
1772547805883982800,10.39098291015625,-0.396117240190506,0.17855270206928253,-3.532764434814453
1772547805894020900,10.401020751953125,-1.0652031898498535,-0.7687193155288696,-4.478386402130127
1772547805904059000,10.411058837890625,-1.7430436611175537,-0.9917526841163635,-4.417023181915283
1772547805914097000,10.421096923828125,-1.484208106994629,1.059566855430603,-0.7591053247451782
1772547805924134700,10.431134765625,-1.7022379636764526,0.8688544631004333,0.9688513278961182
1772547805934173000,10.4411728515625,-1.9172991514205933,-0.8651385307312012,1.0074434280395508
1772547805944210700,10.451210693359375,-1.489398717880249,-2.7377209663391113,0.7681933641433716
1772547805954249000,10.4612490234375,-0.6993370652198792,-3.857539653778076,0.7015655636787415
1772547805964286700,10.47128662109375,-0.2332305908203125,-4.135359287261963,0.7275739908218384
1772547805974325000,10.481324951171874,-0.03435797244310379,-3.799612283706665,0.7119356393814087
1772547805984362800,10.49136279296875,0.10243210196495056,-2.94931697845459,0.6290522217750549
1772547805994400800,10.50140087890625,0.24937787652015686,-1.8787480592727661,0.6228086948394775
1772547806004438800,10.511438720703126,0.3952306807041168,-0.8319163918495178,0.7357816100120544
1772547806014476800,10.521476806640624,0.5027475357055664,0.09821818023920059,0.9185585975646973
1772547806024514800,10.531514892578125,0.518307626247406,0.8828232288360596,1.031308889389038
1772547806034552800,10.541552734375,0.43637144565582275,1.4710348844528198,1.0033842325210571
1772547806044590800,10.5515908203125,0.33054035902023315,1.805922269821167,0.8786122798919678
1772547806054628900,10.56162890625,0.20800459384918213,1.9418175220489502,0.6672462224960327
1772547806064666600,10.57166650390625,0.09255310148000717,1.9370030164718628,0.3621070683002472
1772547806074705000,10.581704833984375,-0.009432650171220303,1.8214147090911865,-0.0027856663800776005
1772547806084743000,10.591742919921876,-0.08948780596256256,1.5734578371047974,-0.3304908275604248
1772547806094781000,10.601781005859374,-0.13871873915195465,1.2712242603302002,-0.6019532084465027
1772547806104818200,10.611818115234374,-0.1966310292482376,0.9538772106170654,-0.884798526763916
1772547806114856000,10.62185595703125,-0.30820950865745544,0.6466091275215149,-1.3025747537612915
1772547806124894000,10.63189404296875,-0.532280683517456,0.3462674021720886,-1.9385852813720703
1772547806134932000,10.641931884765626,-0.7316164374351501,-0.002864762442186475,-2.627065420150757
1772547806144970000,10.651969970703124,-0.7185443043708801,-0.4617210328578949,-3.075242519378662
1772547806155008000,10.662008056640625,-0.4679946303367615,-0.680444061756134,-2.731811046600342
1772547806165046000,10.6720458984375,0.0926806703209877,0.19863879680633545,-0.3853495419025421
1772547806175084000,10.682083984375,0.49505528807640076,0.3451760411262512,1.7713291645050049
1772547806185122000,10.6921220703125,0.5907106995582581,-0.3166583776473999,2.6242129802703857
1772547806195159800,10.702159912109375,0.6407229900360107,-0.9220463037490845,2.7471630573272705
1772547806205198000,10.712197998046875,0.7295532822608948,-1.3169472217559814,2.5496985912323
1772547806215235800,10.72223583984375,0.7700080275535583,-1.4691157341003418,2.2156879901885986
1772547806225274000,10.732274169921874,0.7341243028640747,-1.39384126663208,1.7688971757888794
1772547806235311900,10.742311767578125,0.6656270027160645,-1.0888930559158325,1.1789305210113525
1772547806245350100,10.75235009765625,0.6037679314613342,-0.503975510597229,0.43498262763023376
1772547806255388000,10.762387939453125,0.4908003509044647,0.3086172342300415,-0.3149898946285248
1772547806265426000,10.772426025390626,0.25772953033447266,1.0005674362182617,-0.9283995032310486
1772547806275464000,10.7824638671875,-0.01775342971086502,1.281538963317871,-1.3228248357772827
1772547806285502000,10.792501953125,-0.2534935176372528,1.0799133777618408,-1.613085150718689
1772547806295540000,10.8025400390625,-0.3040062189102173,0.8197917938232422,-1.611034870147705
1772547806305579000,10.8125791015625,0.14452388882637024,1.1772223711013794,-0.2827044129371643
1772547806315616000,10.822615966796874,0.7479104399681091,0.6842137575149536,1.5634737014770508
1772547806325655000,10.832655029296875,1.0413705110549927,-1.1191856861114502,2.4852232933044434
1772547806335693000,10.842693115234376,1.0419995784759521,-2.26947283744812,2.482466697692871
1772547806345731000,10.85273095703125,0.9171476364135742,-2.2589848041534424,2.053434371948242
1772547806355768800,10.862768798828125,0.8252512812614441,-1.4710537195205688,1.5086668729782104
1772547806365807000,10.87280712890625,0.8033452033996582,-0.44143038988113403,1.0017720460891724
1772547806375844900,10.882844970703125,0.8007557988166809,0.2621613144874573,0.7123100757598877
1772547806385883100,10.892883056640626,0.8240693807601929,0.4148528575897217,0.7882413268089294
1772547806395921000,10.9029208984375,0.8871405124664307,0.1610080599784851,1.1002259254455566
1772547806405959000,10.912958984375,0.9434346556663513,-0.1936027556657791,1.3804594278335571
1772547806415997000,10.922996826171875,0.9659282565116882,-0.41176703572273254,1.5522277355194092
1772547806426035000,10.933034912109376,0.9815468788146973,-0.3205612301826477,1.650818943977356
1772547806436073000,10.943072998046874,1.005456805229187,-0.012938967905938625,1.5756717920303345
1772547806446111000,10.953111083984375,1.0144603252410889,0.47753486037254333,1.375769019126892
1772547806456149000,10.96314892578125,1.0607013702392578,0.959895670413971,1.3136414289474487
1772547806466187000,10.97318701171875,1.1479861736297607,0.87284916639328,1.5194807052612305
1772547806476225000,10.98322509765625,1.264196753501892,0.5229856967926025,1.6600327491760254
1772547806486263000,10.993262939453125,1.3353835344314575,0.39574095606803894,1.6410396099090576
1772547806496301000,11.003301025390625,1.3351819515228271,0.5595080256462097,1.5889787673950195
1772547806506339000,11.013339111328126,1.2749710083007812,0.8119938373565674,1.51353919506073
1772547806516377000,11.023377197265624,1.2096186876296997,0.9872335195541382,1.5160694122314453
1772547806526415000,11.0334150390625,1.1449214220046997,0.9473138451576233,1.5733939409255981
1772547806536453000,11.043453125,1.1678060293197632,0.7311674356460571,1.4891695976257324
1772547806546491000,11.053490966796875,1.1820733547210693,0.5117948651313782,1.4128657579421997
1772547806556529200,11.063529052734374,1.1729040145874023,0.4756099283695221,1.3804692029953003
1772547806566567000,11.07356689453125,1.2097842693328857,0.3128298223018646,1.3570014238357544
1772547806576605200,11.083605224609375,1.1628860235214233,0.10475650429725647,1.4763883352279663
1772547806586643000,11.093642822265625,1.0964926481246948,-0.10866150259971619,1.480230689048767
1772547806596681200,11.10368115234375,1.0285948514938354,-0.3032544255256653,1.362402081489563
1772547806606719000,11.113718994140624,0.9594788551330566,-0.2899213135242462,1.2645647525787354
1772547806616757000,11.123757080078125,0.9356033802032471,-0.14809225499629974,1.2287417650222778
1772547806626795000,11.133794921875,0.9574146866798401,-0.07191360741853714,1.1878409385681152
1772547806636833000,11.1438330078125,0.9719776511192322,0.009887784719467163,1.1490658521652222
1772547806646871000,11.15387109375,0.955255925655365,0.12894733250141144,1.1161662340164185
1772547806656909000,11.163908935546875,0.9305452108383179,0.24009115993976593,1.0902174711227417
1772547806666946800,11.17394677734375,0.8865295648574829,0.33103758096694946,1.1406420469284058
1772547806676985000,11.183985107421876,0.8653353452682495,0.31163379549980164,1.1743632555007935
1772547806687022800,11.19402294921875,0.817700982093811,0.33610185980796814,1.2281025648117065
1772547806697061000,11.20406103515625,0.7520087957382202,0.22192521393299103,1.2423752546310425
1772547806707099000,11.214098876953125,0.6747382283210754,0.15426360070705414,1.1764400005340576
1772547806717137200,11.22413720703125,0.6403898596763611,0.11702702194452286,1.114345908164978
1772547806727175000,11.2341748046875,0.6367186903953552,0.07140707224607468,1.1197513341903687
1772547806737213000,11.244212890625,0.5993241667747498,-0.01793532446026802,1.1357988119125366
1772547806747251000,11.2542509765625,0.529525876045227,-0.11028682440519333,1.1321361064910889
1772547806757289000,11.2642890625,0.48236849904060364,-0.20837664604187012,1.1474597454071045
1772547806767327000,11.274326904296874,0.441246896982193,-0.27525821328163147,1.1623960733413696
1772547806777365000,11.284364990234375,0.4254301190376282,-0.280415415763855,1.1131168603897095
1772547806787403000,11.294403076171875,0.443523108959198,-0.1918059140443802,1.0606653690338135
1772547806797441000,11.30444091796875,0.501508891582489,-0.057128265500068665,1.0614798069000244
1772547806807478800,11.314478759765626,0.5211060643196106,-0.08719348907470703,1.002463936805725
1772547806817517000,11.32451708984375,0.540134072303772,0.024160463362932205,0.9879035949707031
1772547806827554800,11.334554931640625,0.621645450592041,0.16709578037261963,0.9979676604270935
1772547806837593000,11.344593017578125,0.5854291319847107,-0.05187464877963066,0.9927396178245544
1772547806847631000,11.354631103515626,0.5963736176490784,-0.10635600239038467,0.9772258996963501
1772547806857669000,11.364669189453124,0.5895754098892212,-0.24999065697193146,0.9438256025314331
1772547806867707100,11.37470703125,0.5670381188392639,-0.24283021688461304,0.9275766015052795
1772547806877745000,11.384744873046875,0.5576763153076172,-0.2515336871147156,0.9115398526191711
1772547806887783200,11.394783203125,0.5362653136253357,-0.21935711801052094,0.8891804814338684
1772547806897821000,11.404821044921874,0.5113793611526489,-0.18734219670295715,0.8864190578460693
1772547806907859200,11.414859130859375,0.5004058480262756,-0.14183010160923004,0.8785731196403503
1772547806917897000,11.42489697265625,0.49468615651130676,-0.08367226272821426,0.9023830890655518
1772547806927935200,11.434935302734376,0.4848971962928772,-0.05181179940700531,0.8670834302902222
1772547806937973000,11.444972900390624,0.5188202857971191,-0.01824238710105419,0.8246685862541199
1772547806948011000,11.455010986328125,0.5580800771713257,-0.012685434892773628,0.7446059584617615
1772547806958049000,11.465049072265625,0.5002582669258118,-0.08109938353300095,0.7716532945632935
1772547806968087000,11.475087158203126,0.48480531573295593,-0.1636696308851242,0.7871052622795105
1772547806978125000,11.485125,0.3994946777820587,-0.22886434197425842,0.7638803720474243
1772547806988163000,11.4951630859375,0.3247045874595642,-0.22295717895030975,0.761369526386261
1772547806998200800,11.505200927734375,0.2793133854866028,-0.21700768172740936,0.7687989473342896
1772547807008239000,11.515239013671875,0.26943254470825195,-0.23210327327251434,0.7657485604286194
1772547807018276900,11.52527685546875,0.27958691120147705,-0.21945326030254364,0.7893481850624084
1772547807028315100,11.535315185546875,0.3030967712402344,-0.25811702013015747,0.7963778376579285
1772547807038353000,11.545352783203125,0.32116764783859253,-0.2804087698459625,0.7705938816070557
1772547807048391200,11.55539111328125,0.38208770751953125,-0.11472231894731522,0.783555269241333
1772547807058429000,11.565428955078126,0.37939712405204773,-0.06355820596218109,0.7932496666908264
1772547807068467000,11.575467041015624,0.3300476670265198,-0.15298421680927277,0.781466007232666
1772547807078505000,11.5855048828125,0.35164326429367065,-0.0610380545258522,0.801950216293335
1772547807088543000,11.59554296875,0.3564808964729309,-0.10833526402711868,0.8432209491729736
1772547807098581000,11.6055810546875,0.33104318380355835,-0.14498381316661835,0.8681934475898743
1772547807108619800,11.615619873046874,0.2953333854675293,-0.1723824143409729,0.8881687521934509
1772547807118657800,11.62565771484375,0.2741207778453827,-0.20709246397018433,0.8898385167121887
1772547807128695800,11.63569580078125,0.2300529032945633,-0.2241971492767334,0.8596904873847961
1772547807138733800,11.64573388671875,0.2020481675863266,-0.22352176904678345,0.8252121210098267
1772547807148771800,11.655771728515624,0.17274194955825806,-0.14661048352718353,0.7833347320556641
1772547807158809600,11.6658095703125,0.1876002550125122,-0.08829284459352493,0.751207172870636
1772547807168848000,11.675847900390625,0.20365911722183228,-0.019579825922846794,0.7164486646652222
1772547807178885600,11.6858857421875,0.2105950564146042,-0.050452522933483124,0.7206225991249084
1772547807188924000,11.695923828125,0.17331479489803314,-0.05421024188399315,0.7274807691574097
1772547807198961700,11.705961669921875,0.11967207491397858,-0.16902311146259308,0.7722765207290649
1772547807209000000,11.716,0.07381563633680344,-0.2628428041934967,0.7888475060462952
1772547807219037700,11.72603759765625,0.009860353544354439,-0.275108277797699,0.7830886840820312
1772547807229075700,11.73607568359375,-0.0774599015712738,-0.2398831695318222,0.7793780565261841
1772547807239113700,11.74611376953125,-0.13899622857570648,-0.21542096138000488,0.7676261067390442
1772547807249151700,11.75615185546875,-0.17358483374118805,-0.15200631320476532,0.7614653706550598
1772547807259189800,11.766189697265625,-0.16507017612457275,-0.1642238199710846,0.7588256597518921
1772547807269227800,11.776227783203124,-0.17392891645431519,-0.1508648842573166,0.7212899923324585
1772547807279265500,11.786265625,-0.20310518145561218,-0.14752553403377533,0.6799761056900024
1772547807289303800,11.7963037109375,-0.2585252821445465,-0.11020160466432571,0.6839184165000916
1772547807299341600,11.806341552734375,-0.2047419548034668,-0.03922037407755852,0.626436710357666
1772547807309379800,11.8163798828125,-0.1620437651872635,-0.02466193586587906,0.6031010746955872
1772547807319417600,11.82641748046875,-0.004142014309763908,0.07224969565868378,0.5587154626846313
1772547807329455900,11.836455810546875,-0.05792934447526932,-0.15363803505897522,0.5375502705574036
1772547807339493600,11.84649365234375,-0.12866877019405365,-0.11063836514949799,0.527061402797699
1772547807349531600,11.85653173828125,-0.09951140731573105,-0.10286059975624084,0.482674241065979
1772547807359569700,11.866569580078124,-0.06759501993656158,-0.033250629901885986,0.41636765003204346
1772547807369607700,11.876607666015625,-0.0283456202596426,0.0009305084822699428,0.3796168267726898
1772547807379646000,11.88664599609375,0.02015187405049801,0.03147989511489868,0.29330405592918396
1772547807389683700,11.89668359375,0.07676801830530167,0.03996339440345764,0.2523459494113922
1772547807399722000,11.906721923828124,0.09878090769052505,0.01775369606912136,0.22596149146556854
1772547807409759700,11.916759765625,0.11355426162481308,0.015360847115516663,0.16705583035945892
1772547807419797800,11.9267978515625,0.14653190970420837,0.042039062827825546,0.09933750331401825
1772547807429835800,11.936835693359376,0.18556587398052216,0.07715816795825958,0.005441104527562857
1772547807439873800,11.946873779296874,0.21784204244613647,0.0911291092634201,-0.05528455972671509
1772547807449911800,11.956911865234375,0.22359101474285126,0.07970868051052094,-0.11723048239946365
1772547807459949800,11.96694970703125,0.22815141081809998,0.0685012936592102,-0.1674015074968338
1772547807469987800,11.97698779296875,0.23399092257022858,0.09560881555080414,-0.23347826302051544
1772547807480025900,11.98702587890625,0.2490292638540268,0.12386122345924377,-0.3230283856391907
1772547807490062600,11.9970625,0.24074949324131012,0.15319541096687317,-0.40650010108947754
1772547807500100900,12.007100830078125,0.22931121289730072,0.12726500630378723,-0.46346166729927063
1772547807510138600,12.017138671875,0.21186432242393494,0.0866725742816925,-0.5105999112129211
1772547807520176600,12.0271767578125,0.19766727089881897,0.06928133964538574,-0.5439727306365967
1772547807530215000,12.03721484375,0.18172799050807953,0.05879487469792366,-0.5859785079956055
1772547807540252700,12.047252685546875,0.1957404762506485,0.10194207727909088,-0.649296224117279
1772547807550291000,12.057291015625,0.19601264595985413,0.16305150091648102,-0.7310987114906311
1772547807560328700,12.06732861328125,0.1728000044822693,0.2262890636920929,-0.7777026891708374
1772547807570367000,12.077366943359374,0.13584358990192413,0.22444403171539307,-0.8147861361503601
1772547807580404700,12.08740478515625,0.09058289974927902,0.20451292395591736,-0.8193151354789734
1772547807590442800,12.09744287109375,0.055996425449848175,0.1103864312171936,-0.8246936202049255
1772547807600480800,12.107480712890625,0.044981323182582855,0.08539851754903793,-0.8148580193519592
1772547807610518800,12.117518798828126,0.01375336293131113,0.03702140226960182,-0.8270265460014343
1772547807620556800,12.127556884765625,-0.020733507350087166,0.04959418252110481,-0.83622807264328
1772547807630594800,12.1375947265625,-0.06018770486116409,0.1016605794429779,-0.8347840905189514
1772547807640632800,12.1476328125,-0.09468789398670197,0.0821734294295311,-0.8690800070762634
1772547807650670800,12.1576708984375,-0.11623073369264603,0.08119898289442062,-0.8830965161323547
1772547807660708600,12.16770849609375,-0.15996968746185303,-0.0019113506423309445,-0.8917254209518433
1772547807670747000,12.177746826171875,-0.2055310606956482,-0.07971426844596863,-0.8869085311889648
1772547807680784600,12.18778466796875,-0.2608848512172699,-0.1617494821548462,-0.9099664688110352
1772547807690823000,12.197822998046876,-0.28939133882522583,-0.15047313272953033,-0.9235741496086121
1772547807700860700,12.207860595703124,-0.3229183852672577,-0.18593497574329376,-0.9298166036605835
1772547807710898700,12.217898681640625,-0.3701290488243103,-0.1809854954481125,-0.9376071095466614
1772547807720936700,12.227936767578125,-0.3999452590942383,-0.1304301768541336,-0.9478573799133301
1772547807730974700,12.237974609375,-0.4449215233325958,-0.0787544697523117,-0.9449039101600647
1772547807741012700,12.2480126953125,-0.4404620826244354,-0.04783143848180771,-0.970658540725708
1772547807751050800,12.25805078125,-0.44277051091194153,-0.0023153522051870823,-1.0139809846878052
1772547807761088800,12.2680888671875,-0.4557696580886841,0.037884797900915146,-1.019360899925232
1772547807771126800,12.278126708984376,-0.474528431892395,0.06783044338226318,-1.006308913230896
1772547807781164500,12.28816455078125,-0.5167595148086548,0.10013352334499359,-0.9879286289215088
1772547807791202800,12.298202880859375,-0.5412904024124146,0.13345526158809662,-0.9785958528518677
1772547807801241900,12.308241943359375,-0.5364184379577637,0.13653548061847687,-0.9380148649215698
1772547807811280000,12.31827978515625,-0.5253985524177551,0.19384297728538513,-0.9326658844947815
1772547807821317600,12.328317626953124,-0.5374501347541809,0.16086319088935852,-0.867698073387146
1772547807831356000,12.33835595703125,-0.529533863067627,0.14326927065849304,-0.8577637076377869
1772547807841393700,12.3483935546875,-0.5198687314987183,0.14642512798309326,-0.8099032044410706
1772547807851432000,12.358431884765626,-0.5230792164802551,0.1368023157119751,-0.8005344867706299
1772547807861469700,12.3684697265625,-0.5308905243873596,0.12240554392337799,-0.7747841477394104
1772547807871507700,12.3785078125,-0.5494370460510254,0.13590936362743378,-0.780207633972168
1772547807881545700,12.388545654296875,-0.558954119682312,0.1930336356163025,-0.7836905121803284
1772547807891583700,12.398583740234375,-0.5518717169761658,0.22348181903362274,-0.7915855050086975
1772547807901621800,12.408621826171874,-0.576140284538269,0.2299913913011551,-0.7976002097129822
1772547807911659800,12.41865966796875,-0.6163100600242615,0.22342883050441742,-0.7887654304504395
1772547807921697800,12.42869775390625,-0.6396009922027588,0.1954166293144226,-0.7815219163894653
1772547807931735800,12.43873583984375,-0.662071943283081,0.17844058573246002,-0.7816212773323059
1772547807941773600,12.448773681640626,-0.6734495162963867,0.21698477864265442,-0.789914608001709
1772547807951811800,12.458811767578124,-0.6531080007553101,0.25765442848205566,-0.7747729420661926
1772547807961849600,12.468849609375,-0.6301550269126892,0.28256431221961975,-0.7717332243919373
1772547807971887900,12.478887939453125,-0.6344427466392517,0.2861119210720062,-0.781463086605072
1772547807981925600,12.488925537109376,-0.6673330068588257,0.3381226658821106,-0.802916407585144
1772547807991964000,12.4989638671875,-0.6897086501121521,0.3394097685813904,-0.7974004745483398
