time,seconds_elapsed,roll,rotationRateZ,quaternionY,rotationRateY,quaternionZ,quaternionW,yaw,devicelocation,accelerationZ,pitch,gravityX,gravityZ,quaternionX,rotationRateX,accelerationX,gravityY,accelerationY
1772547796124374300,0.631374267578125,0.45014157582023945,0.07887756824493408,0.2184980403294978,0.03218019753694534,3.351526821001555e-17,0.9684503166482017,0.05386749579670463,left,-0.05939459800720215,-0.23426036374286324,4.150263237684965,-8.588591137567162,-0.11984281022499746,0.6076717376708984,-0.22676372528076172,2.2763554713241754,-0.01713968813419342
1772547796164374500,0.67137451171875,0.3215676432998197,0.06612157076597214,0.15948304108020994,0.028633207082748413,-0.023706649823529054,0.97989174907288,-0.009234499353816353,left,-0.019681155681610107,-0.240214447706876,3.0104397075772282,-9.036826487976311,-0.11753813886264365,0.5969433784484863,-0.1212000846862793,2.3331096242032943,-0.01897120475769043
1772547796204374500,0.71137451171875,0.2480532044361109,0.06539781391620636,0.12535835496232142,0.04350084811449051,-0.03557561788550746,0.9857290051037498,-0.04451118323165905,left,-0.008769035339355469,-0.22081464013810148,2.349241405445337,-9.275666223755477,-0.10657348665576485,0.638141930103302,-0.06806600093841553,2.147897579845786,-0.022068843245506287
1772547796244374500,0.75137451171875,0.2172074591118946,0.032742731273174286,0.11085094774734659,0.04114557057619095,-0.04101680904490551,0.9881005543941352,-0.06054130522053845,left,-0.0015643835067749023,-0.20502906296983786,2.069103882985562,-9.375650446552038,-0.09842222487443399,0.6863930821418762,-0.06625597178936005,1.99659145835191,-0.0017709285020828247
1772547796284374500,0.79137451171875,0.19774910166973778,-0.03136902302503586,0.10153353117036913,0.03870365396142006,-0.04500075611087143,0.9899923959800749,-0.07269084718862676,left,-0.012687742710113525,-0.18254367193827978,1.8946314054377376,-9.455769692927598,-0.08706804036541956,0.7124713063240051,-0.05232630670070648,1.7802169446200131,0.0019559264183044434
1772547796324374500,0.83137451171875,0.18614630174460228,-0.11928486078977585,0.09593593708615719,0.08581290394067764,-0.049266576057821504,0.9912284292398295,-0.08420740714208011,left,-0.02367985248565674,-0.16159038079719704,1.7913041558235883,-9.511689733070135,-0.07638764034319966,0.7042402625083923,-0.022352367639541626,1.5777734872154892,0.012362316250801086
1772547796364374300,0.871374267578125,0.17741388208812428,-0.1947742998600006,0.09172854080765161,0.07415377348661423,-0.05527258059165485,0.9920698164900776,-0.09873991153556845,left,0.001001894474029541,-0.14114033803139325,1.7135136446565389,-9.556734158933162,-0.06578773798578327,0.6709175109863281,-0.008789390325546265,1.3795233898475765,0.02197253704071045
1772547796404374500,0.91137451171875,0.17504023571166216,-0.20979879796504974,0.09058228448928536,0.0711720660328865,-0.05943759205480273,0.99232693907375,-0.10828492942196326,left,-0.011583924293518066,-0.12936143221689625,1.6935368784241378,-9.576112228620051,-0.05957358726786925,0.6359686255455017,0.009569808840751648,1.2650674279756844,0.012945666909217834
1772547796444374500,0.95137451171875,0.17523969371560782,-0.22394436597824097,0.09068172724616201,0.08093579113483429,-0.06293341924481134,0.992375750774453,-0.1160634021903621,left,-0.00360184907913208,-0.12053164339573989,1.6973282335311173,-9.586399813878536,-0.05483114037114939,0.6004207730293274,0.010185420513153076,1.1791520625419913,0.009591102600097656
1772547796484374500,0.99137451171875,0.1755080488120684,-0.23808994889259338,0.09077802591501889,0.09069952368736267,-0.06642702266050557,0.9923900147052626,-0.12383555078066523,left,0.0042917728424072266,-0.111703653689645,1.7016520880796013,-9.595819968652725,-0.05008679462575904,0.5648729205131531,0.010746732354164124,1.093162316697836,0.0062441155314445496
1772547796524374500,1.03137451171875,0.17974772430194777,-0.3850839138031006,0.09284864363376308,0.009152144193649292,-0.0807808618907294,0.9916808424641526,-0.15444881182318748,left,0.014576137065887451,-0.08992651728377075,1.7461624070659278,-9.60966612317562,-0.037716054159745015,0.42532023787498474,0.001467183232307434,0.8806900711014867,-0.006577536463737488
1772547796564374500,1.07137451171875,0.17808396400991205,-0.3770175874233246,0.09194089374675761,-0.05548574775457382,-0.09019172818111103,0.9911737333699088,-0.17443896865884273,left,-0.004075288772583008,-0.07893638748167964,1.7317818534053862,-9.621503275963663,-0.031412163126323216,0.31677737832069397,0.0018770843744277954,0.7732982023969293,0.0011480450630187988
1772547796604374500,1.11137451171875,0.1762815853427846,-0.2904514670372009,0.0909530267555588,-0.07444648444652557,-0.09475779971914831,0.9909333760281064,-0.18418624600092218,left,-0.011772632598876953,-0.0733357460337797,1.7151700335614382,-9.628722121301292,-0.028272844973486887,0.29572054743766785,-0.00901089608669281,0.7185338350955397,0.0033638477325439453
1772547796644374500,1.15137451171875,0.17205826116182357,-0.09433721005916595,0.08849898863956568,-0.07430236041545868,-0.1018805738579719,0.9906117780640232,-0.19968199764467698,left,-0.026715874671936035,-0.06131462733826119,1.6758474924765527,-9.643693480461835,-0.021826694101951045,0.3059879243373871,-0.02482748031616211,0.6009146964849904,-0.016311828047037125
1772547796684374500,1.19137451171875,0.16935792541532546,-0.06666843593120575,0.08685430726212495,-0.050158578902482986,-0.1030830676586611,0.9907025374198097,-0.20273691775203664,left,-0.03535431623458862,-0.054389707326938555,1.650461999068409,-9.652053897050022,-0.018399305921068393,0.3165665864944458,-0.014196470379829407,0.5331181579247116,-0.039713673293590546
1772547796724374500,1.23137451171875,0.16504274169083377,0.033545732498168945,0.08413503832590583,-0.050511594861745834,-0.10370889134728087,0.9909633222795194,-0.20504863398647485,left,-0.038496196269989014,-0.0423278022879456,1.6097358747959136,-9.664726331618427,-0.012545399199263169,0.3069331645965576,-0.017483249306678772,0.4149702461997047,-0.060116831213235855
1772547796764374500,1.27137451171875,0.16295147933475224,-0.022456489503383636,0.08241367346669673,0.00731450691819191,-0.1040671182881211,0.9911330164476939,-0.20689457381482323,left,0.0028061866760253906,-0.028593900579432785,1.5902955535277723,-9.672783381345868,-0.005769607656002252,0.30528494715690613,-0.03141450881958008,0.28037240892788395,-0.09300045669078827
1772547796804374500,1.31137451171875,0.1603071897086147,-0.08482862263917923,0.08059519508945405,-0.001937677152454853,-0.10529395977254039,0.9911694302558535,-0.21017584755080687,left,0.015349984169006348,-0.018603299623172986,1.5650813250333069,-9.679237087529897,-0.0008221864425500656,0.24854262173175812,-0.037219785153865814,0.18242575637353584,-0.10162436217069626
1772547796844374500,1.35137451171875,0.15790699486419005,-0.17758086323738098,0.07873133960680725,0.011724325828254223,-0.10797856226735106,0.9910150680643051,-0.2165855680505263,left,0.01213163137435913,-0.005981028012998707,1.5420840419359505,-9.684467973920702,0.005560763763309624,0.16506019234657288,-0.03132764995098114,0.05865370745670516,-0.09849339723587036
1772547796884374500,1.39137451171875,0.1556858966203344,-0.19467979669570923,0.07698097818445099,0.06290785223245621,-0.11235542701207038,0.9906171422191865,-0.22627034738875124,left,0.008156120777130127,0.005081996155383832,1.5205777280487118,-9.687917237591742,0.011296208533970774,0.06532511115074158,-0.007585883140563965,-0.04983694823603146,-0.06845877319574356
1772547796924374500,1.43137451171875,0.15792488363233836,-0.24374930560588837,0.07770707044263711,0.15311101078987122,-0.11675398747800671,0.9900091033000491,-0.23562472099175702,left,0.012773454189300537,0.010675576370868476,1.5421970007911323,-9.68406173120737,0.014555721839267774,-0.015985749661922455,0.00957632064819336,-0.10468945961175485,-0.07519057393074036
1772547796964374500,1.47137451171875,0.16164688338269403,-0.3136098086833954,0.0794277894383284,0.14627069234848022,-0.12070591906910004,0.9893826655662091,-0.24374838575875504,left,0.02737438678741455,0.011676858392354625,1.578212609285116,-9.678146369683741,0.0155912382340786,-0.018320750445127487,0.005595609545707703,-0.11450807565161958,-0.0729975551366806
1772547797004374500,1.51137451171875,0.16458745035010758,-0.36550578474998474,0.08077820455012233,0.0425347238779068,-0.12768801948167535,0.9883855020345861,-0.2579047224706492,left,-0.014757812023162842,0.011529627813388147,1.6066677193969487,-9.673480131438374,0.01626804026268724,-0.09436091780662537,0.02509443461894989,-0.11306432485040277,-0.030756806954741478
1772547797044374500,1.55137451171875,0.16619616337150786,-0.3990330398082733,0.08155768763006978,0.059736378490924835,-0.13193029176486848,0.9877635052276843,-0.26644871794452796,left,-0.01903444528579712,0.010698807879753925,1.6222424512781202,-9.670972532531618,0.016308793883462906,-0.0839306116104126,0.035660237073898315,-0.10491726788510568,-0.028981659561395645
1772547797084374500,1.59137451171875,0.16779768426812644,-0.4325602948665619,0.0823356128298495,0.07693803310394287,-0.13617006623032832,0.987122729189087,-0.27499130367733715,left,-0.02331298589706421,0.009854273153014367,1.6377429488793014,-9.668445644402503,0.01634923622852084,-0.07350029796361923,0.046233609318733215,-0.09663565215417183,-0.027220234274864197
1772547797124374300,1.631374267578125,0.17215052624691152,-0.49460282921791077,0.08410657026113717,-0.05554736405611038,-0.15372100955071424,0.9843529748739416,-0.31075069579907205,left,0.019407987594604492,0.01070985108760509,1.6797976914070545,-9.6611402898252,0.018574404235413712,0.12713304162025452,0.028134316205978394,-0.10502555969832464,0.0036415960639715195
1772547797164374500,1.67137451171875,0.17157315777365698,-0.6360406279563904,0.08337343155298697,-0.03380860388278961,-0.1642990867899568,0.9826588930888194,-0.3325052977199401,left,-0.014133572578430176,0.013641784720418482,1.6741595393896103,-9.661763974681495,0.020880958401526126,0.1748180091381073,0.04206022620201111,-0.1337758624976035,-0.032414328306913376
1772547797204374500,1.71137451171875,0.17209413938497614,-0.8023303747177124,0.08278151341032942,-0.1122056171298027,-0.18037746873965313,0.9797902280605404,-0.3657590952367049,left,0.026628732681274414,0.01901311197733047,1.6790457039959727,-9.660043142238258,0.0249419746992972,0.34289658069610596,0.01380513608455658,-0.18644350411491467,-0.05810797959566116
1772547797244374500,1.75137451171875,0.17043864300136122,-0.8567682504653931,0.08121575103087178,-0.13654814660549164,-0.18978502861773996,0.9780547684171285,-0.3853993782125412,left,0.01723349094390869,0.024305525000258815,1.6628605851314961,-9.6617014308393,0.02818359513306111,0.3875720798969269,0.020210042595863342,-0.23833211505059151,-0.047828491777181625
1772547797284374500,1.79137451171875,0.16888723210676368,-0.911206066608429,0.0796415102863653,-0.16089068353176117,-0.19917286130609899,0.976217127893203,-0.40503389479848756,left,0.007789433002471924,0.02962940372247868,1.6476326208613812,-9.662882165056466,0.03142227371425346,0.4322475790977478,0.026517361402511597,-0.2905225036781281,-0.03751824051141739
1772547797324374500,1.83137451171875,0.15859195629041112,-0.891718864440918,0.07045830954862473,-0.17374493181705475,-0.23507498436017685,0.9683672328615311,-0.4806166701297123,left,0.003261566162109375,0.054378339580769895,1.546455535018444,-9.669269235745071,0.045167532064123044,0.4492497444152832,0.02581232786178589,-0.5330064046459272,-0.014848485589027405
1772547797364374300,1.871374267578125,0.15630413344423477,-0.853767991065979,0.06790965024058927,-0.15842345356941223,-0.24594761527250167,0.9656468309004473,-0.5036244692112105,left,0.007424473762512207,0.06172238630092479,1.5236794934563338,-9.668654318717122,0.04923520361608811,0.4272090196609497,0.02278466522693634,-0.6049054466215893,-0.008528627455234528
1772547797404374500,1.91137451171875,0.15164241276264073,-0.6568930149078369,0.06222716002063626,-0.16427338123321533,-0.2689068454835515,0.9594013423976258,-0.552471210838461,left,0.0035359859466552734,0.07793331293840329,1.476914965802431,-9.664687753173709,0.05801590078642151,0.36925363540649414,0.0018378794193267822,-0.7634911671970039,0.0313694104552269
1772547797444374500,1.95137451171875,0.14894236686923995,-0.6824964880943298,0.0592220503084676,-0.16058364510536194,-0.278094475581248,0.9567143895320322,-0.572179363481892,left,-0.0028523802757263184,0.08594979863460749,1.4498596394859253,-9.662276600378751,0.06207843493580615,0.41911837458610535,0.01064029335975647,-0.8418420887257904,-0.02680204063653946
1772547797484374500,1.99137451171875,0.14463779133244878,-0.931939959526062,0.05313799234012552,-0.20197731256484985,-0.29862245757811645,0.9502454471662511,-0.6164617207521748,left,0.019153475761413574,0.10329636880069254,1.405937787912041,-9.652523852649331,0.07095491229447799,0.5195167064666748,-0.021225862205028534,-1.0111907204538584,-0.04057559370994568
1772547797524374500,2.03137451171875,0.14127576825988727,-0.9187668561935425,0.04872479262506331,-0.2255333662033081,-0.3124119121563646,0.9456148349397362,-0.6462757856253549,left,0.004287540912628174,0.11429794874710059,1.371828305300325,-9.645597852778435,0.07640196200819242,0.5102932453155518,-0.024583108723163605,-1.1184409887306392,0.003466308116912842
1772547797564374500,2.07137451171875,0.137553691992622,-0.8101804256439209,0.04252381590099589,-0.15938666462898254,-0.3312666232948919,0.938767113224987,-0.6875158717219048,left,-0.019946575164794922,0.13118881369784643,1.3331364633344114,-9.630548752206563,0.08467822991749134,0.489203542470932,-0.013821668922901154,-1.2828355782479046,0.0206073597073555
1772547797604374500,2.11137451171875,0.13807415319307384,-0.7361003756523132,0.03924590655074851,-0.0600830540060997,-0.34450623663766344,0.933504717371082,-0.7170555608998178,left,-0.014947772026062012,0.14400084199717292,1.3357767487101255,-9.61278396293521,0.09134640723856273,0.4865700602531433,-0.008429929614067078,-1.4072903715647755,0.006190389394760132
1772547797644374500,2.15137451171875,0.13964706354119885,-0.7007120251655579,0.03771148456938499,-0.037400756031274796,-0.3519609459907411,0.9303382015056905,-0.7340152420310168,left,-0.022989332675933838,0.15223905845675884,1.3492355113506316,-9.598864743176103,0.09577034005030143,0.48328930139541626,-0.017436489462852478,-1.4871948061458766,0.0076465904712677
1772547797684374500,2.19137451171875,0.14136335347441195,-0.6653236150741577,0.03617376621566031,-0.014718456193804741,-0.3593849284840483,0.9270903831148163,-0.75101028303842,left,-0.031114816665649414,0.16044970210180673,1.3639414975732564,-9.584122516596317,0.10018589601731466,0.4800085127353668,-0.026570230722427368,-1.5667314303278923,0.009065285325050354
1772547797724374500,2.23137451171875,0.14743223326356605,-0.46456971764564514,0.032007550356987484,0.006764600053429604,-0.379015824115513,0.9179077582112332,-0.7968190245091185,left,-0.01706033945083618,0.18421416983283012,1.4162104678623377,-9.536139114671945,0.11299435599630102,0.3767496347427368,-0.03165563941001892,-1.7963238836817443,0.032082512974739075
1772547797764374500,2.27137451171875,0.15142216002884554,-0.4182843863964081,0.030554152960395205,0.04425831139087677,-0.38830844002231213,0.9133405078084551,-0.8187864316621176,left,-0.016766846179962158,0.19433688064919974,1.4514302498035132,-9.511949260789155,0.11870973082042202,0.29906684160232544,-0.03789745271205902,-1.8938205274462698,0.0411260724067688
1772547797804374500,2.31137451171875,0.15625965570633538,-0.266998827457428,0.030171334883323835,0.10364335775375366,-0.3953357210764192,0.9097103182642511,-0.8357723158285311,left,-0.018239498138427734,0.20202382428759166,1.495117269708216,-9.490155946654081,0.12339533447073897,0.24903224408626556,-0.026147201657295227,-1.9677279135696588,0.047165706753730774
1772547797844374500,2.35137451171875,0.16243863437611744,-0.0798160582780838,0.03086978683499039,0.13663116097450256,-0.39935524809230305,0.9072999494530032,-0.8463545038706675,left,-0.006402909755706787,0.20902650180603363,1.5514613804817199,-9.466906003969907,0.12794209499781764,0.1958416998386383,-0.022113636136054993,-2.0349553835377097,0.02553156018257141
1772547797884374500,2.39137451171875,0.16483694057668313,-0.04112683981657028,0.03133987773717913,0.16060695052146912,-0.3996247719176483,0.9069293592434118,-0.8476225520068349,left,-0.010629057884216309,0.21160897956866787,1.5732938575834035,-9.457942360791563,0.1296030620708009,0.19974102079868317,-0.012790828943252563,-2.0597227450475097,0.01479068398475647
1772547797924374500,2.43137451171875,0.16723993853789648,-0.0024376213550567627,0.03180987639215539,0.18458275496959686,-0.39989296003789315,0.9065558840102852,-0.8488975011203155,left,-0.014866948127746582,0.21418848365081752,1.5951269192069768,-9.44886415132284,0.13126362162320285,0.20364032685756683,-0.003468066453933716,-2.0844478748507798,0.004045501351356506
1772547797964374500,2.47137451171875,0.1782477826967278,0.13367728888988495,0.034795356012917784,0.23372285068035126,-0.39742327855083465,0.9065167887308705,-0.8464975081972411,left,0.030523300170898438,0.2246031438401766,1.6950987209133803,-9.408857135105132,0.1380980824455697,0.18037833273410797,0.0036690086126327515,-2.1841322379179298,0.0031089186668395996
1772547798004374500,2.51137451171875,0.1864390031137397,0.2389153391122818,0.037230248274476345,0.19933000206947327,-0.3918160317974854,0.9079712590561636,-0.8367625427515845,left,0.024816453456878662,0.23411348093252396,1.7681806159980593,-9.373820308515429,0.14381267870516032,0.14361464977264404,0.025958433747291565,-2.274954080093652,-0.05085490643978119
1772547798044374500,2.55137451171875,0.19083981802259561,0.2642606198787689,0.03867167856828428,0.20674213767051697,-0.3880505211856158,0.9090410234025081,-0.829929929506564,left,0.01863276958465576,0.2392523389486472,1.8071743635199964,-9.35434579271674,0.1468522606017969,0.11836136877536774,0.03499937057495117,-2.323944028712064,-0.04454374313354492
1772547798084374500,2.59137451171875,0.1964684386539776,0.303169310092926,0.040530240923927485,0.190274178981781,-0.38177296810245354,0.9109043657905571,-0.8182154177966912,left,0.018637537956237793,0.24700464482493834,1.8562249562844633,-9.326075976043938,0.15119442170938405,0.12009889632463455,0.0554395467042923,-2.3977320262394843,-0.06398242712020874
1772547798124374300,2.631374267578125,0.20431298284727223,0.23005561530590057,0.04294339981346793,0.23093652725219727,-0.3754443660079852,0.9124469306753826,-0.8072018213233539,left,0.017404139041900635,0.2570178237266407,1.924357996790111,-9.287252032130956,0.15696429740113677,0.1656641662120819,0.0701742172241211,-2.4928257005155086,-0.0870097279548645
1772547798164374500,2.67137451171875,0.21212611899978867,0.1842668056488037,0.045271106919889316,0.23588770627975464,-0.3717578383618937,0.9129496730133057,-0.8018229071733769,left,0.027849674224853516,0.26538317325707467,1.9924007286638021,-9.251223271894455,0.16207838887286183,0.15801970660686493,0.071280837059021,-2.5720789777114987,-0.060153812170028687
1772547798204374500,2.71137451171875,0.22470577043023862,0.13773831725120544,0.04935737516766996,0.2727850675582886,-0.36730961472846924,0.9132640098141664,-0.7961429494792028,left,0.055021703243255615,0.2761097002196634,2.1023485654614866,-9.198001969316602,0.16910424947685668,0.16208390891551971,0.07197646796703339,-2.673437703731656,-0.05985736846923828
1772547798244374500,2.75137451171875,0.2317978382693383,0.0818166434764862,0.05166336726843912,0.2738669514656067,-0.3658365621744908,0.9130553693933399,-0.7951314165998429,left,0.04723924398422241,0.2812572542970084,2.1643378425151107,-9.169345783674716,0.17269731323218956,0.14690902829170227,0.07288195192813873,-2.721970556232333,-0.05002391338348389
1772547798284374500,2.79137451171875,0.23889509420632105,0.025894969701766968,0.05396829788677555,0.2749488353729248,-0.36435600182564626,0.9128279566235484,-0.7941563055886152,left,0.0393865704536438,0.2864115210741201,2.22601060096547,-9.140001031246781,0.1762868334365872,0.13173413276672363,0.07381974160671234,-2.770494056382775,-0.0401914119720459
1772547798324374500,2.83137451171875,0.2602012211236136,-0.019703956320881844,0.061348317201124554,0.16091442108154297,-0.36283108172914375,0.9112536970183467,-0.796978943603708,left,0.035233378410339355,0.29689708257780983,2.4126218445964156,-9.061931118616462,0.18494992789724474,0.0879940539598465,0.05062301456928253,-2.8689792727932333,-0.006803065538406372
1772547798364374300,2.871374267578125,0.2665652109655912,0.08233056217432022,0.06387207154301257,0.08640893548727036,-0.36216608094100755,0.910943976538416,-0.7971664662906335,left,0.012778162956237793,0.29869387255755875,2.4688807613044976,-9.041406216982006,0.1869142165555978,-0.03389549255371094,0.049812108278274536,-2.885824316871166,0.04048857092857361
1772547798404374500,2.91137451171875,0.2704949739200205,0.2264912724494934,0.0665035353964504,0.12725943326950073,-0.35851200462285804,0.9121746711340061,-0.789804871980394,left,0.0034606456756591797,0.2979275595620427,2.504982294516265,-9.033763008752464,0.18703891801262942,-0.11304761469364166,0.07291406393051147,-2.8786411273688075,0.022545605897903442
1772547798444374500,2.95137451171875,0.2721380661367661,0.4142962098121643,0.06852577465500204,0.1381584107875824,-0.3542216283693368,0.9138871517935016,-0.7803521112972467,left,0.004551947116851807,0.2959430762017353,2.5213527068197727,-9.035119099536537,0.18612182058181168,-0.16200917959213257,0.06865820288658142,-2.8600317039668557,0.061354801058769226
1772547798484374500,2.99137451171875,0.27196651658842624,1.140265941619873,0.07237396756581178,0.23621492087841034,-0.33761064007380487,0.9203739439466032,-0.743559311218588,left,-0.035363614559173584,0.29319346780632044,2.521905664527416,-9.043092562633753,0.18355546026645658,-0.33862030506134033,0.11789023876190186,-2.834228861929476,0.18829791247844696
1772547798524374500,3.03137451171875,0.26943273899419173,1.9545612335205078,0.07452514431221458,0.53456711769104,-0.3212542027105383,0.9264000398747757,-0.7075938879937659,left,-0.10530203580856323,0.2929934581896818,2.4991353220537302,-9.04999985780418,0.1817262628253145,-0.533921480178833,0.13445809483528137,-2.832351085358858,0.29511523246765137
1772547798564374500,3.07137451171875,0.2669083732019387,2.7688565254211426,0.07665308741195612,0.8329192996025085,-0.3047976815920889,0.932137357688041,-0.6716320212422213,left,-0.17522454261779785,0.2927064233120541,2.4764962047442793,-9.05706322031915,0.1798404238048261,-0.7292227149009705,0.15101265907287598,-2.8296558549255133,0.4018491506576538
1772547798604374500,3.11137451171875,0.2703713501994863,4.457342147827148,0.08996630379486426,1.4925190210342407,-0.23846693510521885,0.9506841864855359,-0.532295685484442,left,-0.1119641661643982,0.29752060658630086,2.5041782846570015,-9.035200932601093,0.1767456680068245,-1.0035308599472046,0.008158892393112183,-2.8748259529948235,0.3459293246269226
1772547798644374500,3.15137451171875,0.2728087114021582,6.117278575897217,0.11736535674653503,1.9517468214035034,-0.08124005560922504,0.9753809834056038,-0.2096448824328926,left,0.012099504470825195,0.3139852899326965,2.5130977964326737,-8.982266045749187,0.16809896390883883,-1.3858050107955933,-0.1910535991191864,-3.0287989556103945,0.050425708293914795
1772547798684374500,3.19137451171875,0.2636104083492601,4.830155372619629,0.14403672669288126,1.5072191953659058,0.11132626199098515,0.9717828803356239,0.1840446486775938,left,0.10904639959335327,0.3295211079946338,2.4178173674128947,-8.958487110754847,0.1499922484200183,-1.1139668226242065,-0.16266560554504395,-3.173333683273196,-0.2782357335090637
1772547798724374500,3.23137451171875,0.2542513456287454,3.4814515113830566,0.15134511317004223,0.9434281587600708,0.18775708961440127,0.9601584599445636,0.3431155334763014,left,0.08209550380706787,0.33416686972383525,2.3301364536114035,-8.966357697999477,0.1412006530181672,-0.8285535573959351,-0.11720669269561768,-3.216407393585145,-0.28095731139183044
1772547798764374500,3.27137451171875,0.23441488549890238,1.4547568559646606,0.15444771238178012,0.2285677194595337,0.27328077372412807,0.940474691889412,0.5256795917673085,left,0.02637636661529541,0.3357208276201818,2.150665290993452,-9.005940351325274,0.1302717993752857,-0.3705558776855469,-0.04714667797088623,-3.230799783813953,-0.22404363751411438
1772547798804374500,3.31137451171875,0.2254115975351657,1.0434176921844482,0.15282079652079553,0.15146610140800476,0.29104161365693565,0.935602805193023,0.5647530083982744,left,0.0019327998161315918,0.33625476304683677,2.0691103127263486,-9.023255058741569,0.1287937029107504,-0.2438368946313858,-0.030514568090438843,-3.2357430854350326,-0.1165330708026886
1772547798844374500,3.35137451171875,0.21878672398965404,0.860558032989502,0.15201214986550413,0.16227450966835022,0.3066721291735575,0.9309132124540994,0.5991206981680384,left,0.00958549976348877,0.33687158002024187,2.0088538508147,-9.034814563632011,0.12745568008200894,-0.17309655249118805,-0.01596301794052124,-3.241452695253491,-0.07978102564811707
1772547798884374500,3.39137451171875,0.21405959624900078,0.7002651691436768,0.1519780923568953,0.1533936858177185,0.3206237705936507,0.9263234553159461,0.6297296267832441,left,0.009021461009979248,0.33842515730818395,1.965050657184422,-9.039277972781658,0.12660070817036534,-0.11525814235210419,-0.012244746088981628,-3.2558278420865534,-0.07567915320396423
1772547798924374500,3.43137451171875,0.21106111159690646,0.5524762272834778,0.15243528756684882,0.14464455842971802,0.33222436649044657,0.9222449226757697,0.6551594267333107,left,0.007419764995574951,0.3400500110750055,1.9368268716104327,-9.03994491225779,0.12591492807508836,-0.09665367007255554,-0.01701977849006653,-3.2708541463047265,-0.05977219343185425
1772547798964374500,3.47137451171875,0.2099755338775509,0.4418357014656067,0.1535613932904637,0.16027173399925232,0.3416984067710123,0.9186420297343818,0.6757927049199846,left,0.004369795322418213,0.3422176444299535,1.92552981704846,-9.035086366310715,0.12552963543010107,-0.08087386935949326,-0.017874836921691895,-3.2908862959861755,-0.04583233594894409
1772547799004374500,3.51137451171875,0.2098270593841669,0.41116049885749817,0.1549695523403884,0.16173388063907623,0.3501021473625676,0.9152888996972092,0.6940490674979004,left,0.006021320819854736,0.3443455351593176,1.9227254271522163,-9.028502896267176,0.12513554902834179,-0.07366883754730225,-0.022857412695884705,-3.3105361683517693,-0.03500202298164368
1772547799044374500,3.55137451171875,0.209348828093313,0.3813469111919403,0.15622131515395657,0.14462606608867645,0.3580100146930407,0.9120294548750074,0.7113237843538126,left,0.0070958733558654785,0.34678070035875336,1.9167263328678905,-9.021508507335186,0.1250038152164174,-0.04638676345348358,-0.02330593764781952,-3.3330054820522665,-0.036926716566085815
1772547799084374500,3.59137451171875,0.20865243622547694,0.31161707639694214,0.15726446315928588,0.11728712916374207,0.364928312781696,0.9090910107763605,0.7265171686919578,left,0.012231647968292236,0.34928476744914483,1.908708592237532,-9.014647973915935,0.12509492271209596,-0.030299514532089233,-0.024114057421684265,-3.356089712780714,-0.037273913621902466
1772547799124374300,3.631374267578125,0.20747505404264377,0.2660238444805145,0.15791302015973702,0.07299698889255524,0.3705463376687128,0.9066549105276431,0.7389671241631518,left,0.012001991271972656,0.3516997718098559,1.8964185811154544,-9.008931934356688,0.12544235153121489,-0.02224506437778473,-0.024316877126693726,-3.3783328165099022,-0.026871562004089355
1772547799164374500,3.67137451171875,0.2054344810767318,0.2161526381969452,0.15812189559214845,0.04272086173295975,0.3752841367402016,0.9045574717026358,0.7496205858303359,left,0.010064542293548584,0.35442700527114923,1.87614473163262,-9.003729689538478,0.1262339711288379,-0.004696093499660492,-0.01844225823879242,-3.4034280947998163,-0.032601356506347656
1772547799204374500,3.71137451171875,0.20321437282576066,0.14344149827957153,0.1580748528347328,0.016596360132098198,0.37870473856199677,0.902993483471867,0.7574164104072834,left,0.005547761917114258,0.3571181696252104,1.8542955956570804,-8.998868805503845,0.12727018017346514,0.009221787564456463,-0.015354350209236145,-3.428166814737022,-0.028231292963027954
1772547799244374500,3.75137451171875,0.20135573212469593,0.07113569974899292,0.15791155180211106,0.0008730534464120865,0.380755988998236,0.902022768526787,0.7621619252521813,left,0.0036621689796447754,0.3592681842433655,1.8360884694457054,-8.995057722783088,0.12823273695163825,-0.0015975171700119972,-0.013377159833908081,-3.447913133214414,-0.022896945476531982
1772547799284374500,3.79137451171875,0.2001281055439781,-0.004922501742839813,0.15764180952063256,-0.010181059129536152,0.3813847838072349,0.9017188656168472,0.7637015463930891,left,0.002836763858795166,0.3603313730923452,1.8243147372826933,-8.993706892696023,0.12883171181505187,-0.007421649526804686,-0.01240469515323639,-3.4576717261627317,-0.02186492085456848
1772547799324374500,3.83137451171875,0.19953392580020643,-0.09819372743368149,0.15729044080832558,-0.03936602920293808,0.38048602166104317,0.902107016412618,0.7617872413112053,left,0.004816889762878418,0.36056187473981305,1.818812486604601,-8.994007921469212,0.12920108260254248,-0.004185299389064312,-0.018203601241111755,-3.4597868186205623,-0.022690117359161377
1772547799364374300,3.871374267578125,0.19897058117741817,-0.24319511651992798,0.15643797815709187,-0.09160784631967545,0.3773975203752345,0.903522261122664,0.7550519888149719,left,-0.00022089481353759766,0.35962090237678307,1.8143882404215632,-8.998218817162513,0.1294051135608152,-0.014592782594263554,-0.021338939666748047,-3.4511510922223327,-0.02069300413131714
1772547799404374500,3.91137451171875,0.1988649897850648,-0.4928136467933655,0.15497768473470339,-0.15737658739089966,0.3706361426800899,0.9065734699839445,0.7402024270815943,left,-0.002276301383972168,0.3569714208592625,1.8152381352491676,-9.007342034816741,0.12936487204469538,-0.007954545319080353,-0.029861479997634888,-3.426818322737515,-0.03403112292289734
1772547799444374500,3.95137451171875,0.19932007734437657,-0.8045167922973633,0.15276892486907107,-0.2526642382144928,0.35835200876382406,0.911853900725583,0.7132456661593137,left,-0.007203876972198486,0.3529248418599385,1.822067835138738,-9.020033758607505,0.1294910023869389,0.026099514216184616,-0.03422988951206207,-3.3896088282838464,-0.03505626320838928
1772547799484374500,3.99137451171875,0.20179895853120453,-1.109131097793579,0.15039712979112188,-0.301546573638916,0.3398685241993046,0.9192872825867604,0.6727269365970269,left,-0.019019126892089844,0.34734423951992477,1.848184419300407,-9.033881082174181,0.12954130642374134,0.05912604182958603,-0.04381395876407623,-3.338202173912525,-0.022067159414291382
1772547799524374500,4.03137451171875,0.20599996020650724,-1.318532109260559,0.1480741323394312,-0.34859010577201843,0.3161341180708087,0.928051106527336,0.6210218729010916,left,-0.021703720092773438,0.3411702560615189,1.8902990753218532,-9.046039137479662,0.12982450843948684,0.12544667720794678,-0.050764188170433044,-3.2812086593195793,-0.003307342529296875
1772547799564374500,4.07137451171875,0.21116301350001,-1.4546869993209839,0.14596512549274218,-0.37817829847335815,0.28886926307139155,0.9370616327221426,0.5620956292245559,left,-0.01581859588623047,0.3361581339460627,1.940401515226811,-9.052125763916969,0.1310122075959514,0.20322227478027344,-0.05382612347602844,-3.234848474682867,0.015086263418197632
1772547799604374500,4.11137451171875,0.21727703406700621,-1.589409351348877,0.14401563891446345,-0.38472607731819153,0.258449784869853,0.945952565621465,0.49690021069776324,left,-0.023461759090423584,0.33174645566474587,1.9987669026948511,-9.053940704384445,0.1328042978699841,0.22691847383975983,-0.050956353545188904,-3.1939749047636985,0.036500006914138794
1772547799644374500,4.15137451171875,0.22413660520231948,-1.6222538948059082,0.14214777939680717,-0.3806217610836029,0.22612616894541315,0.9542568202976147,0.4282779494271966,left,-0.028513669967651367,0.3265010114024668,2.064520939109474,-9.0562273540169,0.1343685416488263,0.22774191200733185,-0.046246275305747986,-3.1452956295296546,0.06268808245658875
1772547799684374500,4.19137451171875,0.2315671717127612,-1.581726312637329,0.14064648827947118,-0.3399279713630676,0.1937602817606504,0.9613564310412123,0.3600796751509254,left,-0.026877760887145996,0.3213021038556413,2.1354801429517565,-9.05643018311262,0.13590115063595265,0.25413814187049866,-0.04556974768638611,-3.0969629757761954,0.07585352659225464
1772547799724374500,4.23137451171875,0.23897032482793967,-1.504037857055664,0.13942367443472045,-0.30938759446144104,0.16225681871708925,0.967050635076774,0.2940396742400995,left,-0.03719782829284668,0.3174760729123765,2.205255836097896,-9.051818889924883,0.13800977261774997,0.27679863572120667,-0.04093669354915619,-3.061339873731136,0.08606086671352386
1772547799764374500,4.27137451171875,0.24733086592826622,-1.3969019651412964,0.13896898324865023,-0.24485768377780914,0.13246047221141438,0.9713261649389892,0.23166852755623485,left,-0.03212052583694458,0.3144075564556715,2.28314498533383,-9.042131024125219,0.14023987989768386,0.2806414067745209,-0.0362277626991272,-3.0327374641031026,0.08565621078014374
1772547799804374500,4.31137451171875,0.25622097419746565,-1.2440567016601562,0.13917685410257194,-0.21628189086914062,0.10530689646956365,0.9742957702529706,0.17483408971532638,left,-0.01785266399383545,0.3118934538250331,2.365363980467617,-9.028823798784613,0.14243555781817308,0.28061893582344055,-0.033689796924591064,-3.0092814774528143,0.07443062961101532
1772547799844374500,4.35137451171875,0.26309678586979596,-1.0423606634140015,0.13895466214385066,-0.202005535364151,0.08162132198334981,0.9761672897303347,0.1252984276437726,left,-0.01188361644744873,0.3114682307159257,2.4277206295289098,-9.013581805989146,0.14535071451283194,0.29891592264175415,-0.012139663100242615,-3.0053125738218425,0.06294064223766327
1772547799884374500,4.39137451171875,0.26784670404420374,-0.8287624716758728,0.13827868882460959,-0.18708381056785583,0.06201344929824015,0.9772046990912806,0.08426630652778433,left,-0.0004975795745849609,0.312797680586507,2.4694474552765486,-8.998087884259224,0.1486748311856973,0.2809266746044159,0.0030066072940826416,-3.0177199277132747,0.046717315912246704
1772547799924374500,4.43137451171875,0.269884090280587,-0.6097593307495117,0.13690907179662212,-0.17832085490226746,0.04680195800767197,0.9777960686987991,0.05261957250689881,left,-0.0005875229835510254,0.3144232415315445,2.4864634720072147,-8.988297727128863,0.15159235350615108,0.21745964884757996,0.029942065477371216,-3.0328835945755244,0.044709235429763794
1772547799964374500,4.47137451171875,0.27149457591956194,-0.4180101156234741,0.13593158014278353,-0.10921117663383484,0.03569322463764346,0.9780745522817396,0.029501010746608276,left,-0.0063315629959106445,0.3155413929780437,2.500024964369833,-8.981009323686362,0.1536833295216911,0.1701263040304184,0.04663094878196716,-3.043309419260919,0.02444857358932495
1772547800004374500,4.51137451171875,0.2730665319383267,-0.22099822759628296,0.1355448456947573,-0.06959132850170135,0.028605054346231378,0.9781216071610969,0.014611933257239279,left,-0.017021656036376953,0.31662931372087255,2.513245095948875,-8.973874649500846,0.15520088060691772,0.1326543241739273,0.061418354511260986,-3.0534499972641465,-0.0014899969100952148
1772547800044374500,4.55137451171875,0.2745853914548927,-0.051896944642066956,0.13570169000573057,-0.0496082603931427,0.025303977274039345,0.9779466942972194,0.007323441753545219,left,0.006270170211791992,0.31879018054576636,2.5250772803008554,-8.963675327047705,0.1567316214875602,0.11624620109796524,0.052427321672439575,-3.073580346623063,-0.018833279609680176
1772547800084374500,4.59137451171875,0.2751164400511996,0.03550172597169876,0.13577884586824673,-0.03696098551154137,0.02466388283114166,0.9776501938001192,0.005434801566889782,left,0.021816134452819824,0.32237350424566263,2.5268288001433015,-8.951675677174329,0.15860530771281267,0.10835014283657074,0.05182716250419617,-3.106930243039131,-0.03636831045150757
1772547800124374300,4.631374267578125,0.27592998761959564,0.06009310483932495,0.13615600158657026,-0.005581986159086227,0.025166628933128047,0.9772361235140524,0.005718601237950685,left,0.03537344932556152,0.32680211354766364,2.5303371005252,-8.93629047651589,0.1607405098687845,0.10091224312782288,0.05482998490333557,-3.1480922745108604,-0.039951592683792114
1772547800164374500,4.67137451171875,0.27648145201549285,0.06422177702188492,0.1364678192763184,-0.02117425575852394,0.02613611578558226,0.9767528545803715,0.006879179302845085,left,0.037717998027801514,0.33209272978168897,2.53068284522295,-8.918746051996946,0.1632391701822635,0.08836034685373306,0.06535914540290833,-3.197185098981857,-0.03757700324058533
1772547800204374500,4.71137451171875,0.2778047578608604,0.05052110180258751,0.13712706879250966,0.003829389810562134,0.02691388426721957,0.9762639421183852,0.007596094545477768,left,0.03838956356048584,0.3367974337436048,2.5383298528447744,-8.900825779902934,0.16547006130844444,0.06572581827640533,0.06325766444206238,-3.240766174294054,-0.02764800190925598
1772547800244374500,4.75137451171875,0.2795406146961082,0.01254722848534584,0.13791983105497244,-0.013399830088019371,0.027270462433675504,0.9757939187090725,0.007442697361409956,left,0.021589994430541992,0.3410087840876258,2.5499881419345733,-8.88320887466967,0.16751266675655266,0.06641387194395065,0.0655372142791748,-3.2797163749352096,-0.03778770565986633
1772547800284374500,4.79137451171875,0.28217097439304384,-0.03438974916934967,0.13901859442571743,-0.0074081458151340485,0.02673370313861127,0.9754326345903741,0.005547859221332619,left,0.022856414318084717,0.3434314715013191,2.571125330248475,-8.868813269570468,0.16879033098314355,0.021622825413942337,0.05084651708602905,-3.3020971335694194,-0.027325183153152466
1772547800324374500,4.83137451171875,0.28401571562331396,-0.06608034670352936,0.13966617903500292,-0.05677061155438423,0.02551966593187037,0.9752881768125007,0.0026485576676972718,left,0.03563326597213745,0.34406592548829185,2.58689397726655,-8.86204275252223,0.1692776733239517,-0.009584836661815643,0.03414270281791687,-3.3079549196869134,-0.014202862977981567
1772547800364374300,4.871374267578125,0.28380109847884,-0.10204514861106873,0.13925114410031356,-0.09839458763599396,0.023544201270359368,0.9754525709718326,-0.0011921893016812219,left,0.00959467887878418,0.34285675957672174,2.5861101334124803,-8.866430758348107,0.16895841323942612,-0.06145508959889412,0.01933521032333374,-3.296789674811065,-0.0025640130043029785
1772547800404374500,4.91137451171875,0.2819989835902099,-0.11608073860406876,0.13806423842740395,-0.12457350641489029,0.021159649663391372,0.9758862063319185,-0.005322983235298201,left,-0.006594717502593994,0.3397287437612146,2.572984694379568,-8.880938591650128,0.16773911129891284,-0.07097692042589188,0.009783178567886353,-3.267883606061339,-0.012219518423080444
1772547800444374500,4.95137451171875,0.28068057374766303,-0.13057276606559753,0.13701233377078592,-0.09602721035480499,0.018345603979312567,0.9762075363946066,-0.01055688386818285,left,-0.006121814250946045,0.33757662701522473,2.5632161645591256,-8.89106017269194,0.16706197645339146,0.004869721829891205,-0.003671973943710327,-3.247977128586173,-0.016597270965576172
1772547800484374500,4.99137451171875,0.27990396396911876,-0.10844141244888306,0.13614704534319833,-0.06325513124465942,0.015547526160467886,0.9762549814594016,-0.016248565214511953,left,-0.015534281730651855,0.3382269170268298,2.5557263933256267,-8.891016333550214,0.16777455341188852,0.08806678652763367,-0.01570799946784973,-3.253993612396717,-0.022482842206954956
1772547800524374500,5.03137451171875,0.280364399443929,-0.10342089831829071,0.13581912559009082,-0.01716279238462448,0.013082427691213365,0.9759173936785352,-0.021974631403862032,left,-0.006614089012145996,0.34240206416987906,2.5560382357537743,-8.876706068646907,0.1701972930514099,0.15240274369716644,-0.026045173406600952,-3.292589885033667,-0.028716444969177246
1772547800564374500,5.07137451171875,0.28163773069220527,-0.1365797221660614,0.13577724557850115,-0.00485445000231266,0.010424986866394164,0.9753841798315326,-0.02847361568014819,left,0.014832913875579834,0.34816314427746425,2.5620246166869998,-8.855075251597166,0.1734397547139203,0.19172613322734833,-0.02606755495071411,-3.345752150900662,-0.035302549600601196
1772547800604374500,5.11137451171875,0.2836738386443937,-0.1873103529214859,0.13589059868944872,0.0039001526311039925,0.006855284932145147,0.9747510787413999,-0.037065903874511946,left,0.01857203245162964,0.3543950040933665,2.574163382770121,-8.829651472005247,0.17705027434732612,0.17807601392269135,-0.02819424867630005,-3.4031337880283594,-0.025833845138549805
1772547800644374500,5.15137451171875,0.2850333019394487,-0.18137916922569275,0.13562529582387084,-0.04418018460273743,0.002820895612679726,0.9742797628207424,-0.04627729773168036,left,0.01786118745803833,0.3590444652670098,2.5816876407951117,-8.810864353948832,0.17993528883800863,0.11558966338634491,-0.0367722362279892,-3.4458588310331106,-0.008258253335952759
1772547800684374500,5.19137451171875,0.28401539898850253,-0.14217659831047058,0.13438421638521572,-0.08592793345451355,-0.0007226869655868935,0.9741147750286404,-0.053766872984983144,left,0.010079681873321533,0.36177770016568883,2.5700688069328663,-8.80441357037425,0.1817710110897892,0.07286062091588974,-0.043099284172058105,-3.470940665319562,-0.008314251899719238
1772547800724374500,5.23137451171875,0.28154530813681855,-0.1255296915769577,0.1326387370514099,-0.08372200280427933,-0.003593257431422362,0.9741699216064433,-0.0593735803792284,left,0.00019943714141845703,0.36296682125201307,2.5471646089464426,-8.806763932892679,0.18272096057601572,0.024721022695302963,-0.052913352847099304,-3.48184462891072,-0.0075852274894714355
1772547800764374500,5.27137451171875,0.2797247867700062,-0.14834927022457123,0.1312753179055563,-0.05931170657277107,-0.006442972594464241,0.9743330487617634,-0.06478677308698383,left,-0.00046318769454956055,0.3623171238526451,2.5317516434982417,-8.813558999860286,0.1827575701661982,-0.005984317511320114,-0.05697748064994812,-3.475887766332924,-0.009339720010757446
1772547800804374500,5.31137451171875,0.2782730002905397,-0.15562844276428223,0.13011383245068028,-0.042877405881881714,-0.009455232522686964,0.9745797587407398,-0.07040289127879784,left,-0.005500137805938721,0.3603063674299764,2.520868430434167,-8.823927833661436,0.1821407919357956,-0.04572577774524689,-0.054144859313964844,-3.4574420090600846,-0.0013608932495117188
1772547800844374500,5.35137451171875,0.2771376782451009,-0.13572192192077637,0.1292248433064352,-0.004083096981048584,-0.012133332130078597,0.9749119763085334,-0.07520137463513706,left,-0.005827724933624268,0.3569886826244914,2.513973410223424,-8.837768142965436,0.18083181990103267,-0.07484132051467896,-0.05416013300418854,-3.4269770204305647,-0.008550792932510376
1772547800884374500,5.39137451171875,0.2772424774616164,-0.14335574209690094,0.1289783722262343,0.04799006134271622,-0.014514601483943963,0.9751522668688484,-0.07962827975016169,left,0.011533796787261963,0.3537286259319583,2.517944067420065,-8.84820361226201,0.17953202614964814,-0.06544240564107895,-0.03911961615085602,-3.397004199232161,-0.015612900257110596
1772547800924374500,5.43137451171875,0.2772178519818301,-0.1341990828514099,0.12872811840336085,-0.007140293717384338,-0.016714333763795886,0.9754289106407286,-0.08359943938017565,left,0.022284328937530518,0.3500780447937495,2.5211031159728763,-8.860134288552404,0.17801109093852688,-0.09633783251047134,-0.04358150064945221,-3.3633979899674653,-0.02927786111831665
1772547800964374500,5.47137451171875,0.2762041189398459,-0.11165298521518707,0.1281058499636312,-0.04098968580365181,-0.018696660833181753,0.9758561590658705,-0.0867872541315936,left,0.05383569002151489,0.345357372035192,2.5164219724193213,-8.877862252944707,0.17590874933746406,-0.12641184031963348,-0.05074116587638855,-3.319874782322347,-0.04065215587615967
1772547801004374500,5.51137451171875,0.2728965837910286,-0.05861368402838707,0.12651525771445343,-0.09283902496099472,-0.02020813196175044,0.9764814903674459,-0.08852050160583633,left,0.07564431428909302,0.34005651819763655,2.491752518326044,-8.9029587002784,0.1734050526248932,-0.15364477038383484,-0.07237325608730316,-3.2709140597984194,-0.050958454608917236
1772547801044374500,5.55137451171875,0.2683167248062362,-0.008170157670974731,0.12460197011797958,-0.07205735146999359,-0.020551463777411457,0.9773392602664751,-0.08741598340175932,left,0.10522693395614624,0.3330672392900937,2.4569530076235533,-8.9361028449893,0.16988202410968115,-0.2250063568353653,-0.07165975868701935,-3.2062183002650735,-0.07800152897834778
1772547801084374500,5.59137451171875,0.26817565400890936,0.017149291932582855,0.12511797859497797,0.08579722046852112,-0.019912895942830782,0.9782204698788365,-0.08454942558497609,left,0.21426177024841309,0.32224137649489204,2.46474556119591,-8.969394289216398,0.1644191136436516,-0.3704962432384491,-0.11369211971759796,-3.105701285766065,-0.09021347761154175
1772547801124374300,5.631374267578125,0.26541252666276327,-0.13059046864509583,0.12488190452075934,-0.005585998296737671,-0.018556469937220193,0.9799932498763625,-0.07841247423606303,left,0.24026143550872803,0.3014764640476867,2.456341597726941,-9.036462330839038,0.15386082438395923,-0.8135601282119751,-0.10924401879310608,-2.9118928241074085,-0.2059001624584198
1772547801164374500,5.67137451171875,0.2671580254646074,-0.46131694316864014,0.12718818077574784,0.16550488770008087,-0.0209324493422958,0.9830338006886924,-0.07688935255037697,left,0.28692835569381714,0.25396110535673355,2.5058327738657593,-9.155368111726641,0.130496373877818,-1.5135772228240967,-0.12148045003414154,-2.4638226011320947,-0.26875534653663635
1772547801204374500,5.71137451171875,0.27930765605793223,-0.6886488795280457,0.1350932351275251,0.41944169998168945,-0.027045212660884905,0.9861453613761928,-0.07961284076662271,left,0.3469822406768799,0.17581169268509703,2.661921453461051,-9.28129575407505,0.09238730574719606,-2.1947014331817627,-0.14847806096076965,-1.7152555198878048,-0.2419956624507904
1772547801244374500,5.75137451171875,0.29841755716607915,-0.7465881109237671,0.1468743046865845,0.4438788592815399,-0.034096502725072024,0.9875719922656412,-0.08070289805438277,left,0.39653217792510986,0.07765401933404975,2.8745459670096634,-9.344977660390734,0.044347044883422795,-2.380281925201416,-0.14727994799613953,-0.760760573189333,-0.23703458905220032
1772547801284374500,5.79137451171875,0.3154835504799578,-0.7251848578453064,0.1573750758512608,0.39770764112472534,-0.04187078266524168,0.9866424192432806,-0.08145631345181827,left,0.3140924572944641,-0.021173578279269523,3.0420886452943083,-9.320566857233644,-0.004050687904658791,-2.272634506225586,-0.0931844413280487,0.20762657739715648,-0.1318667083978653
1772547801324374500,5.83137451171875,0.32350687229475333,-0.6411073207855225,0.16284070657653485,0.14875543117523193,-0.04827746100097128,0.9843263374561134,-0.08014508628789425,left,0.1188960075378418,-0.10939750928657348,3.098834322606027,-9.242361335524915,-0.04747224388490496,-1.9997820854187012,-0.02992004156112671,1.0706848196908831,-0.04362012445926666
1772547801364374300,5.871374267578125,0.3262892117848231,-0.6006529331207275,0.16527706762839128,0.05679506063461304,-0.05467492558396499,0.981093498135226,-0.08079790335148576,left,-0.0027920007705688477,-0.18504129215997436,3.089667558071017,-9.130654526230693,-0.0845557016231557,-1.582832932472229,0.019445329904556274,1.804297785170376,-0.008300185203552246
1772547801404374500,5.91137451171875,0.3286782613114757,-0.47468072175979614,0.16725686234049436,0.0685257613658905,-0.06075623893634166,0.97733046848372,-0.08299733755201945,left,-0.039632439613342285,-0.24705332159634372,3.0693983847633004,-8.999880028373003,-0.11471248847332098,-1.2669754028320312,0.017613768577575684,2.3981954059675337,0.03782844543457031
1772547801444374500,5.95137451171875,0.3307820571510002,-0.40018582344055176,0.16884566248279106,0.07714208215475082,-0.06553305464001236,0.9736500948405601,-0.08460093392733474,left,-0.08182525634765625,-0.296286009719858,3.046251902453601,-8.87088189253807,-0.13857140445174385,-1.0006729364395142,0.027259021997451782,2.8632489124476908,0.03494691848754883
1772547801484374500,5.99137451171875,0.3333557474507262,-0.3295830488204956,0.17052410004928845,0.10675425827503204,-0.06959374015212427,0.9701896892551171,-0.08623140559443447,left,-0.10752511024475098,-0.3356347465627735,3.029840573617816,-8.749716350024938,-0.15751236503972216,-0.7929906249046326,0.02995482087135315,3.2300027882173654,0.040654003620147705
1772547801524374500,6.03137451171875,0.33656140683794106,-0.17831024527549744,0.1723318638215141,0.056719884276390076,-0.07252375109927212,0.9672803314273507,-0.08702242220644126,left,-0.10596191883087158,-0.3648027460119689,3.025464258229732,-8.647326819652319,-0.1714956412948605,-0.5733208060264587,0.01259949803352356,3.498670383766293,0.06609255075454712
1772547801564374500,6.07137451171875,0.3409322898140359,0.007144376635551453,0.1742110649804999,0.019001834094524384,-0.07268849942501943,0.9651088940074046,-0.08326172763321435,left,-0.08961999416351318,-0.3850489627056824,3.038920536652207,-8.565497262227534,-0.1814708346580498,-0.37101829051971436,-0.008093804121017456,3.6834228477880355,0.010219156742095947
1772547801604374500,6.11137451171875,0.34240670079928365,0.06941437721252441,0.1744039490065436,-0.04211190715432167,-0.0707615888629168,0.9641893867256458,-0.07730921158053838,left,-0.13026589155197144,-0.3952183829088037,3.0388121078416703,-8.525281571695208,-0.18685517087962467,-0.2236485481262207,-0.01636388897895813,3.775656602588296,-0.028463304042816162
1772547801644374500,6.15137451171875,0.3417363068930873,0.1276187151670456,0.17352832669527057,-0.06890050321817398,-0.06800386297636996,0.9642563245228288,-0.07139432301866246,left,-0.1379549503326416,-0.39718378681374705,3.030603374683857,-8.520308459457755,-0.18834292035875747,0.029512733221054077,-0.013903260231018066,3.793437466211617,-0.07553479075431824
1772547801684374500,6.19137451171875,0.34194780666593144,0.10251966118812561,0.1732996944524974,-0.06452296674251556,-0.06594684349448726,0.9648263298479094,-0.06787217171252093,left,-0.0734739899635315,-0.3924549854999393,3.0383865759059785,-8.536472243273257,-0.1863551805669973,0.1658974587917328,-0.01882833242416382,3.750631466925144,-0.08381834626197815
1772547801724374500,6.23137451171875,0.3385496482682101,0.048455461859703064,0.17168901090807337,-0.08620542287826538,-0.06505970317606845,0.966010692520055,-0.06820852322236497,left,-0.08132022619247437,-0.38322314269466085,3.0207322612717746,-8.579042972499131,-0.18197090711960495,0.24486742913722992,0.004560530185699463,3.6668224261209366,-0.046605974435806274
1772547801764374500,6.27137451171875,0.3320623259419475,-0.011650215834379196,0.16887046699495314,-0.1421661376953125,-0.06545839657611507,0.9674110093157424,-0.07188772517827151,left,-0.08569228649139404,-0.37308282272652393,2.9769825513944026,-8.63316736139655,-0.17695680826948215,0.2912604808807373,0.03666922450065613,3.5744060082301496,0.017263263463974
1772547801804374500,6.31137451171875,0.32349464412987805,0.041532453149557114,0.16496510370093728,-0.23841790854930878,-0.0653172247170114,0.9691679895474602,-0.07509542094055131,left,-0.11152851581573486,-0.3607349486883405,2.916716298741102,-8.69954157553613,-0.1709775045669416,0.3183339834213257,0.033887773752212524,3.461375256855786,0.07598388195037842
1772547801844374500,6.35137451171875,0.31002987854968234,0.15789182484149933,0.15845172243775174,-0.34310436248779297,-0.06358481212779668,0.9715607499720987,-0.07613448048339844,left,-0.20942050218582153,-0.3458125821552234,2.814764283002913,-8.786239615780115,-0.16407158308594916,0.3923465609550476,0.05901101231575012,3.324075156621635,0.1330685019493103
1772547801884374500,6.39137451171875,0.29910853202458376,0.2969297766685486,0.1526257178061676,-0.3554171621799469,-0.05887519901224913,0.9740940316565307,-0.07087270349055672,left,-0.14323216676712036,-0.32801263419930465,2.735644276797771,-8.871597931852936,-0.15614022291644286,0.45658695697784424,0.043227165937423706,3.159333214971423,0.152757465839386
1772547801924374500,6.43137451171875,0.28525509959886136,0.4267040491104126,0.14509728388543194,-0.35626158118247986,-0.05189162389179583,0.9773703686743175,-0.06225377817580644,left,-0.22885829210281372,-0.302947145771002,2.6339450667768713,-8.981827069810032,-0.14491730913793643,0.5652122497558594,0.07240575551986694,2.92566211400181,0.21478107571601868
1772547801964374500,6.47137451171875,0.2739478281033617,0.4948427081108093,0.1386900927335919,-0.4142817258834839,-0.04372591756561886,0.9806685057866572,-0.051357968413122596,left,-0.16620749235153198,-0.2722754145618081,2.5553002768680453,-9.09317206005454,-0.1309285543416166,0.8069197535514832,0.05969575047492981,2.637241477973759,0.22730612754821777
1772547802004374500,6.51137451171875,0.2607057070387614,0.5041564106941223,0.13145865170834264,-0.40444377064704895,-0.03544410113459657,0.9843106789089914,-0.04139345886066432,left,-0.17110657691955566,-0.23233454331871892,2.4598691873311993,-9.220680249592661,-0.11222630407256273,0.9832806587219238,0.08165717124938965,2.2579813179828223,0.2288149893283844
1772547802044374500,6.55137451171875,0.2474754219803026,0.520619809627533,0.12435153454023667,-0.3829842507839203,-0.02729294217139393,0.9877794354638243,-0.032114509181450784,left,-0.1376006007194519,-0.18546866807176482,2.3610107536941767,-9.344818670436739,-0.08990840428908947,1.1530091762542725,0.08559279143810272,1.8084172031879424,0.21777132153511047
1772547802084374500,6.59137451171875,0.2350868609054324,0.5000630617141724,0.11778218794196785,-0.30000823736190796,-0.019502053715639546,0.990687891160455,-0.023436261354585368,left,-0.12599033117294312,-0.13469325520012798,2.263549181243032,-9.450529454186558,-0.06545571157921617,1.1656571626663208,0.07287712395191193,1.3168996142826974,0.1848318725824356
1772547802124374300,6.631374267578125,0.22555878514636502,0.48268598318099976,0.11275034823700507,-0.2928984761238098,-0.012207920442382085,0.9926630538335625,-0.014836602144853057,left,-0.062071144580841064,-0.0861072233281325,2.1851418533518907,-9.522827797678113,-0.041931631052899855,1.1322983503341675,0.0344037264585495,0.8433806234046817,0.1553783416748047
1772547802164374500,6.67137451171875,0.21511170653502434,0.4382334053516388,0.107390620284411,-0.2559075355529785,-0.005352792999859539,0.9940088483884614,-0.006432875632055306,left,-0.05496346950531006,-0.040163493125322934,2.091606076042354,-9.572905541533231,-0.01961904893599573,1.0266315937042236,0.0360853374004364,0.3937636824440211,0.14764270186424255
1772547802204374500,6.71137451171875,0.20656433810404443,0.43106597661972046,0.10310023049420025,-0.20059417188167572,0.0012931419756980857,0.9946690234447672,0.002275521925404601,left,-0.01633012294769287,0.0031318682299501864,2.011319656406343,-9.598126492029428,0.0014402864525952248,1.000028371810913,0.022936880588531494,-0.030712919525580945,0.13083726167678833
1772547802244374500,6.75137451171875,0.19914156364637137,0.3152872920036316,0.09948075995982888,-0.16477876901626587,0.006709549412846539,0.9947873796524119,0.009106983956167257,left,-0.001148998737335205,0.04385863334842969,1.9381641115635633,-9.603594694307446,0.021366189645885714,0.9487600326538086,0.042074888944625854,-0.4299682741714641,0.1151270717382431
1772547802284374500,6.79137451171875,0.19538153136547243,0.24789680540561676,0.09770947807956626,-0.11603550612926483,0.010274696762567027,0.9943613035428983,0.01267677510168226,left,0.007199704647064209,0.08146745614181265,1.8975570836260913,-9.588159224766493,0.03990978902037064,0.8722972869873047,0.03515070676803589,-0.7980393334869295,0.12939022481441498
1772547802324374500,6.83137451171875,0.1920798503458537,0.09619931876659393,0.09610490590720291,-0.07865864038467407,0.011912464655425295,0.9937481121348509,0.013081129793024407,left,-0.034465253353118896,0.11294872219099342,1.8601698945179581,-9.564960720008612,0.05555684876075471,0.7621892690658569,0.06168527901172638,-1.1052949453011154,0.10964947193861008
1772547802364374300,6.871374267578125,0.19207498077096394,0.008546009659767151,0.09598624010763054,-0.003757856786251068,0.01139469418270732,0.9929395100509117,0.009520855923216642,left,-0.04455769062042236,0.1391835221743877,1.8539483896546065,-9.533217674267291,0.06875902798339055,0.6949504613876343,0.053412362933158875,-1.3605214599967002,0.11656403541564941
1772547802404374500,6.91137451171875,0.19588006953213527,-0.07807023823261261,0.09755902738056707,0.07340806722640991,0.009093672777956712,0.9919357300459751,0.002385901580306919,left,0.0030041933059692383,0.16196976629322907,1.883685794661939,-9.49321591874659,0.08039238769897951,0.6781526207923889,0.02626766264438629,-1.581445015335083,0.11074565351009369
1772547802444374500,6.95137451171875,0.20301966822866072,-0.12398014962673187,0.10058446660989791,0.1493886411190033,0.005645034808400194,0.9907383027076866,-0.007249552554906577,left,0.052495718002319336,0.1825425614835378,1.9444426073111594,-9.445654541626572,0.09104062546469494,0.6534990072250366,-0.0028485506772994995,-1.7802059848345815,0.06941881030797958
1772547802484374500,6.99137451171875,0.212204563501053,-0.15418051183223724,0.10434135001399591,0.146484375,0.0012321784778987234,0.9891732324133972,-0.019508694033141528,left,0.08693045377731323,0.20584697812684816,2.0218281909391282,-9.384285003906488,0.10318677710169341,0.7035911679267883,-0.033374592661857605,-2.00444334089607,0.03562258183956146
1772547802524374500,7.03137451171875,0.21923181642786507,-0.16260144114494324,0.1068499503347947,0.07956013083457947,-0.003155925909179373,0.9875184545914639,-0.03179339149339113,left,0.0668342113494873,0.22980129420120787,2.0766832321986555,-9.320295639076829,0.11567301140958362,0.6214434504508972,-0.04135909676551819,-2.233798624493182,-0.01170530915260315
1772547802564374500,7.07137451171875,0.22506785251321773,-0.09939564764499664,0.10864855099665295,0.07916280627250671,-0.0072149469088155175,0.9857966014738045,-0.0434060710951658,left,0.050318360328674316,0.2532189138747517,2.1187837135642766,-9.254479058820008,0.12786070902369517,0.6358039975166321,-0.04398205876350403,-2.4567770665347575,0.007963716983795166
1772547802604374500,7.11137451171875,0.22969901645474933,-0.07036926597356796,0.10992314084165447,0.056609876453876495,-0.0098646477326867,0.9840737444363433,-0.052036414155693746,left,-0.019525647163391113,0.2755660668703579,2.1485808859348294,-9.188803932860493,0.13934951425907002,0.5057429671287537,-0.032623156905174255,-2.6683082318887115,0.0007458031177520752
1772547802644374500,7.15137451171875,0.2337998207794273,-0.06271521002054214,0.11112047521448308,0.10297127813100815,-0.011859660260346329,0.9827170584715315,-0.05861193061491332,left,-0.04162341356277466,0.2915263950704094,2.1760997381098566,-9.137319829338788,0.1475756677951931,0.36080947518348694,-0.02275995910167694,-2.81857419667989,-0.011994123458862305
1772547802684374500,7.19137451171875,0.23590255797332077,-0.03430876135826111,0.11157030899957303,0.03167908638715744,-0.013252232027459588,0.9818171876514642,-0.06305968776188199,left,-0.024651765823364258,0.30206611082842094,2.188243326498568,-9.103332804062962,0.1530073625646051,0.24892786145210266,-0.02167794108390808,-2.917413925616443,0.014354735612869263
1772547802724374500,7.23137451171875,0.2361780889818633,-0.011002769693732262,0.11126310872906955,0.007500903680920601,-0.014175072686485544,0.9811521593459344,-0.06603617517580457,left,-0.0007053017616271973,0.3105889941291452,2.1848539763212202,-9.078224666291474,0.15735267192962754,0.23848535120487213,-0.01452682912349701,-2.997103840664029,0.039481133222579956
1772547802764374500,7.27137451171875,0.23752657600959348,-0.04053119942545891,0.11146787701990857,0.04874212294816971,-0.0154065923161104,0.9805444058672145,-0.06959845555933157,left,0.020234286785125732,0.31728734711079104,2.192320805070549,-9.055555153843759,0.1608418438759105,0.16586989164352417,-0.02291153371334076,-3.059581631886959,0.08044466376304626
1772547802804374500,7.31137451171875,0.23721193655360423,-0.02945486083626747,0.11095184271316683,-0.04654809832572937,-0.016369289837029576,0.9801103502126376,-0.072209196303609,left,0.03832918405532837,0.322882853504614,2.1854140944220126,-9.039462097176909,0.1637234837865264,0.2050500363111496,-0.02000240981578827,-3.1116675006940957,0.060065001249313354
1772547802844374500,7.35137451171875,0.2349975603132033,-0.06800738722085953,0.10941277867094686,-0.05517098680138588,-0.01801970296305376,0.9797744326232233,-0.07588301163860502,left,0.001861572265625,0.3283292636991745,2.161413917892426,-9.027663522833585,0.16657158538758315,0.11937062442302704,0.005680903792381287,-3.162272191032767,0.09305158257484436
1772547802884374500,7.39137451171875,0.23687042782005008,-0.11076559126377106,0.10988760605021765,0.09609784185886383,-0.020164263235274718,0.9795242568828801,-0.0807405175366523,left,0.0348699688911438,0.3296098169606764,2.177365666392445,-9.019656157466768,0.16748205926732398,0.08346928656101227,-0.0010571777820587158,-3.174156690093875,0.0786648690700531
1772547802924374500,7.43137451171875,0.24120033142542205,-0.09044235944747925,0.11146406472936814,0.025163911283016205,-0.02215959133114275,0.9789624565068995,-0.08598739072701389,left,0.08067083358764648,0.3329708730160274,2.2138385171346364,-8.999733313378691,0.16946112690825446,0.138350248336792,-0.03919689357280731,-3.2053251508176324,0.07941900193691254
1772547802964374500,7.47137451171875,0.24234994430935283,-0.06874195486307144,0.11144847639242886,-0.01051555946469307,-0.02413344653133378,0.9784353789693979,-0.09087495261272281,left,0.053761303424835205,0.33804055355492846,2.2202548139177263,-8.98129106323719,0.1722231507470323,0.19076183438301086,-0.033165499567985535,-3.252269565083086,0.029197126626968384
1772547803004374500,7.51137451171875,0.24283840189222264,-0.029107272624969482,0.11107208156548931,-0.02221525087952614,-0.025514027378182508,0.977692725454227,-0.0948445258782973,left,0.034368276596069336,0.3462028462815919,2.218184437384456,-8.954140021461248,0.17643385529199226,0.24223704636096954,-0.029325008392333984,-3.3276752269402143,-0.01361420750617981
1772547803044374500,7.55137451171875,0.24341399797793992,-0.01723596639931202,0.11077244912147609,0.02737133577466011,-0.026564831698404467,0.9769250963787545,-0.09818245713111903,left,0.029710590839385986,0.35449198602526755,2.2166135348059237,-8.925784280070662,0.1806685523423453,0.19795414805412292,-0.008357852697372437,-3.404025768432021,-0.034774333238601685
1772547803084374500,7.59137451171875,0.24573340992247966,-0.03317385911941528,0.11143747004284915,0.0674397200345993,-0.02711596151575778,0.9761751770872732,-0.1006531130312069,left,0.0585901141166687,0.36138838337695905,2.231546169391274,-8.897636628472805,0.18419682945538127,0.1387561410665512,0.0007654726505279541,-3.4673698210954664,-0.036554694175720215
1772547803124374300,7.631374267578125,0.2489331762622191,-0.013146381825208664,0.1126555983060703,0.06125814840197563,-0.027385598022683335,0.9755490369844031,-0.10246484404274576,left,0.07265418767929077,0.3662651633701155,2.2558121572501957,-8.873956477677822,0.18671593928309155,0.09151962399482727,-0.004299327731132507,-3.5120641183465717,-0.03205370903015137
1772547803164374500,7.67137451171875,0.24961541646283325,0.011039994657039642,0.11285182978819554,-0.03432444855570793,-0.027232958127361012,0.9752330175906149,-0.10270515481092926,left,0.042133986949920654,0.36939974013908283,2.2591351641930637,-8.861704314348101,0.1882638814804657,-0.0018714144825935364,-0.008923768997192383,-3.540747484256327,-0.013043254613876343
1772547803204374500,7.71137451171875,0.2477026650134848,0.0001845918595790863,0.11199879512676275,-0.03512919321656227,-0.027072147373982385,0.9753756540241298,-0.1019679897740541,left,-0.042660653591156006,0.3691141166791223,2.2424286518029866,-8.866988976752758,0.18805751978389176,-0.0779612734913826,-0.01550719141960144,-3.5381352559313175,-0.0314975380897522
1772547803244374500,7.75137451171875,0.24579034877937916,-0.01067080907523632,0.1111456662802644,-0.03593393787741661,-0.02691131848806844,0.9755174799496897,-0.10123150597637834,left,-0.12745815515518188,0.368827212958595,2.225714979019761,-8.872245582106709,0.18785102393279973,-0.15405113995075226,-0.022089868783950806,-3.5355110449075697,-0.04995304346084595
1772547803284374500,7.79137451171875,0.24195887083396367,0.09349638223648071,0.10958318315445968,-0.09644287824630737,-0.02627190655139823,0.9759716462170693,-0.09886826344147166,left,-0.06617414951324463,0.3664153276292154,2.193741777784377,-8.888961154586076,0.18649565660941092,0.022507846355438232,-0.016526758670806885,-3.5134389138311146,-0.030096322298049927
1772547803324374500,7.83137451171875,0.24035117160166572,0.10857085138559341,0.10886205660641157,0.04604896903038025,-0.024354416293994152,0.9754704778756986,-0.09555730875911317,left,-0.0061154961585998535,0.3735579803925639,2.1734188284628093,-8.867876280981301,0.18977144392665588,0.25718748569488525,-0.016764700412750244,-3.5787443296954033,-0.04386851191520691
1772547803364374300,7.871374267578125,0.2406627556602718,0.03930380940437317,0.10876130093487413,-0.013718623667955399,-0.023250327566985845,0.9745689440101984,-0.09463874643964239,left,0.03752332925796509,0.383455498914661,2.1676329385377464,-8.832364822617173,0.1945397102296719,0.16835220158100128,-0.02052941918373108,-3.6689354727521537,-0.00496557354927063
1772547803404374500,7.91137451171875,0.24136641703940667,-0.08089561015367508,0.10884008620627296,0.03142790123820305,-0.02381920440784282,0.9742466936533833,-0.09632142693550962,left,0.050267577171325684,0.3863269107524803,2.171320248748362,-8.820571508970856,0.1960353345722951,0.045729637145996094,-0.0036463886499404907,-3.695034082865715,-0.03805452585220337
1772547803444374500,7.95137451171875,0.24219549193219975,-0.09615594893693924,0.10872838766977541,-0.0769522488117218,-0.025839356163204038,0.973970796441268,-0.10088318780501795,left,0.009894728660583496,0.3882102290405288,2.176959569809586,-8.811996572849154,0.19720887740081583,0.040599532425403595,-0.033690258860588074,-3.712135439792275,0.009592264890670776
1772547803484374500,7.99137451171875,0.2375170919171236,-0.12615223228931427,0.10589518128952376,-0.12482678890228271,-0.02838352730673524,0.9739119105586992,-0.10550415549421163,left,-0.09096425771713257,0.39087120063746555,2.1333780561059714,-8.812453084445,0.19868604411133697,0.056821227073669434,0.008072346448898315,-3.7362756093144416,-0.018504172563552856
1772547803524374500,8.03137451171875,0.23704613513477613,-0.0538613498210907,0.10524147252916267,0.023416802287101746,-0.03072328359754242,0.9739482974330219,-0.11010211625424972,left,-0.10113739967346191,0.39001714374468516,2.1299761387079954,-8.816555259066819,0.198506943184083,-0.11102274060249329,-0.018844574689865112,-3.728530694276094,0.06274250149726868
1772547803564374500,8.07137451171875,0.23942527743105954,0.021792352199554443,0.10660574678952267,0.1078559011220932,-0.030319948649439744,0.9741448303227297,-0.10931905029472808,left,-0.0671912431716919,0.3866578509679677,2.153904126784205,-8.823581212180853,0.19686994336650124,-0.020391307771205902,-0.03840231895446777,-3.6980402789443727,0.003910630941390991
1772547803604374500,8.11137451171875,0.24165748952446425,0.020120494067668915,0.10789091566310385,0.09812632948160172,-0.029311725465550307,0.9741207783161154,-0.10759968339610404,left,-0.06203937530517578,0.3858961691080683,2.174268284898996,-8.821483363118768,0.19644098569255855,-0.010400800965726376,-0.016584649682044983,-3.691121001075208,0.0004903674125671387
1772547803644374500,8.15137451171875,0.2442289383209786,-0.03203534707427025,0.10916794753222463,0.05395561084151268,-0.029148450655242242,0.9740570726549027,-0.10767155692312626,left,-0.0465545654296875,0.38505803288810175,2.1976924151062964,-8.818861782443523,0.1960753043593394,-0.012031596153974533,-0.023865684866905212,-3.6835046808525918,0.0014859437942504883
1772547803684374500,8.19137451171875,0.24634386332606778,-0.011604629456996918,0.11017546608777828,0.04326482489705086,-0.029512579264405717,0.9740922380046425,-0.10860283907442056,left,0.007668495178222656,0.38325267526724366,2.217956619977951,-8.820628792116045,0.19528041387596154,-0.04176278039813042,-0.031539350748062134,-3.667090721668303,0.0464954674243927
1772547803724374500,8.23137451171875,0.24629986508824622,0.05088388919830322,0.11031498285381122,0.05908062309026718,-0.028766947820899117,0.9741365822517083,-0.10703505639705871,left,-0.00875544548034668,0.38304327648326186,2.2177558367088435,-8.821471088159084,0.19509162692819693,0.035223934799432755,-0.013008952140808105,-3.665186057090759,0.041464775800704956
1772547803764374500,8.27137451171875,0.24521374032233512,0.03941423073410988,0.10993861570472636,-0.027903087437152863,-0.02755590498791968,0.9740279241492638,-0.10462631911134358,left,0.012857556343078613,0.385257146083794,2.2061979392535984,-8.815981258571147,0.19601920722488198,0.07292744517326355,-0.03576219081878662,-3.6853143606230616,0.03320261836051941
1772547803804374500,8.31137451171875,0.2425972509854383,-0.03622755780816078,0.10864383375726022,-0.08088435232639313,-0.02791054771022985,0.9741669145324995,-0.10482970961682109,left,0.005500614643096924,0.3852702749596545,2.183111954959482,-8.821676839864253,0.19600041099255228,-0.003278292715549469,-0.04433742165565491,-3.6854336030885575,0.035176366567611694
1772547803844374500,8.35137451171875,0.24063211223406142,0.012907344847917557,0.10771118866851545,-0.026865772902965546,-0.028547402860123167,0.9744732890189707,-0.10544285907855144,left,0.005293309688568115,0.3829889069697264,2.1677700089208782,-8.834092669323086,0.1948972097714006,-0.05623446777462959,-0.037443920969963074,-3.6646915515720844,0.03142908215522766
1772547803884374500,8.39137451171875,0.23784673039886742,0.048788562417030334,0.10671663025346817,-0.0049858056008815765,-0.02777286139880687,0.9749442770688589,-0.10289020161004149,left,-0.04221850633621216,0.37984619836557165,2.1458581829726695,-8.851245464175939,0.19319323991634424,-0.09904345124959946,-0.0118284672498703,-3.6360868038564917,0.025084197521209717
1772547803924374500,8.43137451171875,0.23634424008161548,-0.021681606769561768,0.10639737445905566,0.010912513360381126,-0.026878108865786426,0.9754515745098581,-0.10020196429558591,left,-0.04995071887969971,0.3755148487526112,2.1362245315782724,-8.86968829883933,0.19092237962923872,-0.09878887981176376,0.007628455758094788,-3.596604396034777,-0.02297520637512207
1772547803964374500,8.47137451171875,0.2357849718544773,-0.06863106042146683,0.10630296689910827,0.000634332187473774,-0.027788753947523934,0.9761141137482309,-0.1010318393109511,left,-0.02952522039413452,0.36825835622677766,2.1373044357694684,-8.896024517101049,0.18742642435462176,-0.2218441367149353,0.010742276906967163,-3.53030704652369,0.0291290283203125
1772547804004374500,8.51137451171875,0.23317421547776063,0.03476317971944809,0.10559320369112606,-0.07122709602117538,-0.02728343733822536,0.97707773804882,-0.09835057704106245,left,-0.020348787307739258,0.35917824881550675,2.1213915579751133,-8.932394638121128,0.1828242100383862,-0.23250822722911835,0.025503098964691162,-3.4470872037842866,0.007799595594406128
1772547804044374500,8.55137451171875,0.23405302777403159,0.06804074347019196,0.10678471479927307,0.1150713637471199,-0.025636679086058472,0.9779788771126646,-0.09382226615776183,left,0.039114415645599365,0.3486781837051348,2.137517347867787,-8.965241845712065,0.17747369046308262,-0.2882923483848572,0.04173152148723602,-3.3504993454277514,0.06718280911445618
1772547804084374500,8.59137451171875,0.2364395103308007,0.03376415744423866,0.10870758281429602,0.10263362526893616,-0.023555715542223948,0.9787096328030447,-0.08877339274056391,left,0.04974335432052612,0.3389810283584309,2.1664156717024743,-8.991279373288155,0.17249633465681877,-0.21675899624824524,0.06518232822418213,-3.2609690043672916,0.0289573073387146
1772547804124374300,8.631374267578124,0.243137196957469,0.003296937793493271,0.11241525494698024,0.17780114710330963,-0.022669501411902743,0.9790676188381596,-0.08699745421069963,left,0.05941033363342285,0.33013264330981495,2.23344674231559,-9.004221856969595,0.1681524855677165,-0.17909200489521027,0.06466710567474365,-3.179007344995439,0.014957159757614136
1772547804164374500,8.67137451171875,0.2486722917720553,0.018825937062501907,0.11554664131814153,0.0513729602098465,-0.021451967397433887,0.9793255688440514,-0.08453728429680628,left,0.11388015747070312,0.3231306414178345,2.2886739778883753,-9.013075610032677,0.16465113634458373,-0.17865632474422455,0.0653136819601059,-3.1139719782441855,0.004424363374710083
1772547804204374500,8.71137451171875,0.2521267738984656,-0.09844247996807098,0.11747275184233422,0.013341493904590607,-0.02174122122200765,0.9797281488864251,-0.08464863896914164,left,0.13580501079559326,0.3151857584294956,2.3258942859970033,-9.02878931199312,0.16081046913487382,-0.211729496717453,0.059846147894859314,-3.0399940111026167,-0.007547050714492798
1772547804244374500,8.75137451171875,0.25334130141312683,-0.2715613543987274,0.11807938387085827,-0.04590955749154091,-0.02486423687140296,0.9805368953447281,-0.08951260451233532,left,0.12823855876922607,0.3024398981421865,2.3463798785343766,-9.062734251692891,0.15487543478746665,-0.3790421485900879,0.03781193494796753,-2.9209134581699967,0.01461908221244812
1772547804284374500,8.79137451171875,0.2522351002105735,-0.3625684976577759,0.1177409020916516,-0.08912025392055511,-0.029831697902866036,0.9820673690491386,-0.09644246753952344,left,0.09453052282333374,0.27982189826267395,2.352242048566043,-9.126974960935115,0.14419036285513942,-0.6022637486457825,0.06987413763999939,-2.7084447197049855,-0.0522761344909668
1772547804324374500,8.83137451171875,0.2538666275139231,-0.5557186007499695,0.1187598206528677,-0.029250603169202805,-0.037732192977927785,0.9837051648747959,-0.10856072831254367,left,0.08943301439285278,0.24856895257547026,2.387229336925596,-9.200590232244133,0.1296014765498904,-0.7785844206809998,0.06050194799900055,-2.4126041628092527,-0.04870206117630005
1772547804364374300,8.871374267578124,0.25583435853249586,-0.6021534204483032,0.12021533078997189,-0.02375638112425804,-0.046859111393939355,0.9852638923183027,-0.12235978038624859,left,0.08985865116119385,0.21156394224371372,2.426269261676818,-9.275932181215286,0.11228240323567439,-0.7648512721061707,0.07499580085277557,-2.0592909295015036,-0.09637738764286041
1772547804404374500,8.91137451171875,0.258182082911976,-0.6251867413520813,0.12176162781407071,-0.11498309671878815,-0.05767507332652358,0.9861516714220332,-0.1399545877392266,left,0.060137152671813965,0.17762426180965038,2.4644717126905915,-9.33243440515995,0.09670770861608402,-0.7688172459602356,0.025372743606567383,-1.7327539133079348,0.0014702528715133667
1772547804444374500,8.95137451171875,0.2563546821882985,-0.5805915594100952,0.12165657513175092,-0.06282121688127518,-0.06772645718046925,0.9870155232947456,-0.1553623965719423,left,-0.04086565971374512,0.14208134783440088,2.4614801296591757,-9.390587318921089,0.08008107711907636,-0.8239346742630005,0.03379121422767639,-1.3886588824614883,-0.028842002153396606
1772547804484374500,8.99137451171875,0.256539720693933,-0.44810163974761963,0.12283111001098952,-0.025409933179616928,-0.07615458213631845,0.9874505591486763,-0.16778540081683832,left,-0.031555354595184326,0.10724496340825994,2.4739953278392552,-9.431217435473203,0.06367296307013089,-0.7679352760314941,0.03786438703536987,-1.049698876415938,0.015544489026069641
1772547804524374500,9.03137451171875,0.2577247240469959,-0.3000422716140747,0.1245256749610357,-0.01812072843313217,-0.08169493958596441,0.9875909648656698,-0.17520020872411685,left,-0.018726885318756104,0.07816086063724702,2.4918989410594103,-9.4538086219877,0.0498321375356903,-0.6117920875549316,0.011405706405639648,-0.7657159305743872,0.038134824484586716
1772547804564374500,9.07137451171875,0.2587657284117269,-0.2224104255437851,0.1260590747328409,0.05815381556749344,-0.08527384675590208,0.9876112981895967,-0.1792916365961421,left,-0.07972615957260132,0.05403247990903791,2.50573808131963,-9.466317390426992,0.038226211538283796,-0.499826043844223,0.04504558444023132,-0.5296197213497013,0.01519753411412239
1772547804604374500,9.11137451171875,0.26591849267453804,-0.158607617020607,0.13037060354071506,0.23430442810058594,-0.08803496682804594,0.9870990754678309,-0.18270325729561282,left,-0.09638506174087524,0.035905938326755746,2.575483817718923,-9.455862631908058,0.029810871368281058,-0.32128214836120605,0.019533812999725342,-0.35204116754531856,-0.019912250339984894
1772547804644374500,9.15137451171875,0.2739969907987434,-0.054183319211006165,0.13485391855139872,0.1138143539428711,-0.08903527148683994,0.986545228516142,-0.18345068362704983,left,0.041430771350860596,0.024945702318221456,2.6526728558614847,-9.437896182584762,0.024812154702458265,-0.2296602725982666,-0.03534960746765137,-0.2446082361780107,0.012124618515372276
1772547804684374500,9.19137451171875,0.2767989745576215,-0.05558723956346512,0.13682231196568362,0.04721347987651825,-0.08936159741002125,0.986379716644779,-0.18242593123311568,left,0.03658473491668701,0.012406815400283999,2.6797347580492494,-9.432634901055692,0.018684395675918352,-0.4068063199520111,-0.06708164513111115,-0.1216659937154036,0.027308184653520584
1772547804724374500,9.23137451171875,0.27749161759675833,-0.03521086275577545,0.1379255318249455,0.06530745327472687,-0.08897131756658022,0.9863837183986627,-0.1793440500573039,left,-0.0730201005935669,-0.004067989882320015,2.686452083605528,-9.431424356222152,0.010378746901797603,-0.44055938720703125,-0.08238883316516876,0.03989344544117339,-0.05035143345594406
1772547804764374500,9.27137451171875,0.2805762008914948,-0.023321866989135742,0.14010536432843315,0.14748165011405945,-0.08856478875963178,0.986163184452717,-0.17645676311037545,left,-0.013903141021728516,-0.01895998940696187,2.715065599149465,-9.421477547225356,0.002970071594946679,-0.2697703242301941,-0.1178603321313858,0.185923060437385,-0.06195705384016037
1772547804804374500,9.31137451171875,0.27866460698136797,-0.03809499740600586,0.13942396234694004,-0.09828531742095947,-0.08859386068327993,0.986261618959894,-0.17566099416038777,left,0.00839000940322876,-0.025055601361158125,2.6966888154596087,-9.4253856605798,-0.0001768119451398688,-0.1425023376941681,-0.14344492554664612,0.2456860397436656,-0.022166380658745766
1772547804844374500,9.35137451171875,0.2743923055317032,-0.11516383290290833,0.13749091376056946,0.029559165239334106,-0.08981392193124421,0.9864201283893544,-0.177582415453023,left,0.01454019546508789,-0.029097588832881324,2.656105460658669,-9.435787812128662,-0.0022284047552329263,-0.13398566842079163,-0.08602933585643768,0.28530984706375745,0.018986554816365242
1772547804884374500,9.39137451171875,0.2695421045382199,-0.02054743468761444,0.13522910426601364,0.013732023537158966,-0.09063222264248254,0.9866529461135232,-0.17885113055178295,left,-0.025097191333770752,-0.03208770518041267,2.610069977931678,-9.447694523021578,-0.003836187060993668,-0.05932831019163132,-0.05493296682834625,0.3146191263195127,-0.018001921474933624
1772547804924374500,9.43137451171875,0.26954523076392356,0.050727084279060364,0.13520837575288155,0.10239432752132416,-0.09053269794335539,0.986665810969701,-0.17871785684133007,left,-0.0393671989440918,-0.03157736730009567,2.6101418741241096,-9.447840068972111,-0.0035931931608935447,0.08238580077886581,-0.06754288077354431,0.30961697065066546,-0.014517996460199356
1772547804964374500,9.47137451171875,0.26952642505847524,0.2038733959197998,0.13488453396186734,-0.07194763422012329,-0.08839375928917347,0.9869106009275675,-0.17535881563347752,left,0.026677429676055908,-0.024313481695605436,2.6104943408235908,-9.449807569652796,-0.00023567699300394511,0.2345876395702362,-0.10431943833827972,0.23841055058166383,-0.001654280349612236
1772547805004374500,9.51137451171875,0.2661930557938474,0.1690034419298172,0.1327909386956825,-0.034790489822626114,-0.08545935414398668,0.9874420507773032,-0.17084469847015943,left,-0.009029388427734375,-0.013574103437295851,2.5795050360590217,-9.460381570637226,0.004619394686607638,0.23547323048114777,-0.09590311348438263,0.13311261281589976,-0.0072189513593912125
1772547805044374500,9.55137451171875,0.2610109353624906,0.1804141253232956,0.12984785706869517,-0.0787469744682312,-0.08257392198669863,0.9880498319189633,-0.16624091585242035,left,-0.011642098426818848,-0.0039375363208565516,2.5306591720864176,-9.474421201905608,0.008859152103348715,0.22238650918006897,-0.04858329892158508,0.038614141653780826,-0.021671807393431664
1772547805084374500,9.59137451171875,0.25854866031537344,0.13930439949035645,0.12824602842326357,0.09021089971065521,-0.0801242829612625,0.9884089509000666,-0.16255675869085798,left,-0.09655237197875977,0.006020935043059586,2.507297001199424,-9.480525363999604,0.013441875845452731,0.21919290721416473,0.0036416947841644287,-0.05904466126936022,-0.040348540991544724
1772547805124374300,9.631374267578124,0.2602145482020271,0.24006983637809753,0.12872242538187526,0.0278150737285614,-0.0771775050716591,0.9885100035470107,-0.15787520574601202,left,-0.07180172204971313,0.015607202781139272,2.522825409720838,-9.475352929797769,0.017943935986593065,0.24381466209888458,-0.0130232572555542,-0.15304798759198746,0.006037449464201927
1772547805164374500,9.67137451171875,0.2593916141827579,0.36813968420028687,0.12785485477524167,0.002454414963722229,-0.07184403823709187,0.9888855890722814,-0.14895413158058204,left,-0.11157512664794922,0.02994508156237138,2.5142057576745747,-9.474330601012706,0.024427408547316627,0.31848767399787903,0.011856138706207275,-0.2936168894968927,0.0568552240729332
1772547805204374500,9.71137451171875,0.2590713487487979,0.3546139895915985,0.12722512759585367,-0.007654677145183086,-0.06523595990441021,0.9892033780745831,-0.13783536928604134,left,-0.029313385486602783,0.04705058478190055,2.5095173075973984,-9.468894547438621,0.03216352420275065,0.3530429005622864,0.012575656175613403,-0.4612382590409368,0.025283083319664
1772547805244374500,9.75137451171875,0.2560183717526034,0.2314697504043579,0.1252517728649908,-0.07516391575336456,-0.06023446340115283,0.9894804032568798,-0.12989366393207732,left,-0.011860251426696777,0.06441638725440325,2.4781951176166532,-9.467335043036938,0.04015278822294502,0.37883710861206055,0.0393792986869812,-0.6312720965541899,-0.02692335844039917
1772547805284374500,9.79137451171875,0.25317562224463863,0.1208694651722908,0.12338371650253778,-0.05344556272029877,-0.05807747993179133,0.9895236399231871,-0.12737975690960934,left,0.018605828285217285,0.07955077126410112,2.4485981439933178,-9.464007359918952,0.04739579773737007,0.371560275554657,0.07580958306789398,-0.7793039456177503,-0.030705124139785767
1772547805324374500,9.83137451171875,0.25203478292057074,0.29346710443496704,0.12228505373731148,-0.0852358266711235,-0.05566190624810611,0.989351317367841,-0.12473712148537827,left,0.125596821308136,0.09727799654130648,2.4339716527476907,-9.451929384112358,0.05596489427651934,0.49758896231651306,0.06058773398399353,-0.9524673863936215,0.055336445569992065
1772547805364374300,9.871374267578124,0.24764680637485031,0.30950435996055603,0.11957056314771328,-0.12781855463981628,-0.05050329627984382,0.9892769402677547,-0.1170526152203003,left,0.040245890617370605,0.12069542211743665,2.3863506543949247,-9.438302425298094,0.06695800191604469,0.46624478697776794,0.14898326992988586,-1.180746126800403,-0.007058091461658478
1772547805404374500,9.91137451171875,0.2454692968439527,0.19830089807510376,0.11816610724934178,-0.10805819928646088,-0.046589164190049624,0.9890750847977452,-0.11111420089656134,left,0.08294546604156494,0.13740816321994703,2.360667493214458,-9.4230165933609,0.07481064541982206,0.37663182616233826,0.14015470445156097,-1.343277333598584,-0.06990368664264679
1772547805444374500,9.95137451171875,0.24238381060084116,0.029388323426246643,0.11609958118800648,-0.15403471887111664,-0.04608450616085365,0.9887172118856317,-0.11187027742758486,left,0.05083674192428589,0.1533863690656484,2.326132770927995,-9.408217083635925,0.08267601432918822,0.43414273858070374,0.13024035096168518,-1.498315042836219,-0.07591888308525085
1772547805484374500,9.99137451171875,0.24317653657447968,0.09576985239982605,0.11585283227170236,-0.027133390307426453,-0.04620400059319669,0.9880199362019633,-0.11424508227841534,left,0.1048009991645813,0.1696977584224099,2.327395192079246,-9.381399219337105,0.09088388742523842,0.33627182245254517,0.15588167309761047,-1.6561907519787549,0.03287030756473541
1772547805524374500,10.03137451171875,0.2467178614656643,0.19998055696487427,0.11732230365743306,-0.06107006594538689,-0.04399231473147272,0.987388844294151,-0.11164754387543117,left,0.12075310945510864,0.181764916281158,2.355550442461669,-9.353035879161954,0.09676443883429947,0.1498962938785553,0.09496292471885681,-1.7727059844680129,0.011992871761322021
1772547805564374500,10.07137451171875,0.24593286237948403,0.03172434866428375,0.1168844224807643,-0.034571126103401184,-0.04191540942768794,0.9872255404027901,-0.10822101593810277,left,0.011135756969451904,0.18843214550345957,2.3452780547723173,-9.34321065071821,0.09983409692573178,0.16940826177597046,0.13655255734920502,-1.836972120412439,-0.1117827296257019
1772547805604374500,10.11137451171875,0.2523351449298778,-0.0854683369398117,0.1195041522646155,0.028422147035598755,-0.043850048736090705,0.9863905355347503,-0.11380032398547399,left,0.03274887800216675,0.196071905089375,2.401473404724896,-9.314142961665988,0.1040655459678646,0.2658112645149231,0.09794184565544128,-1.91051213452816,-0.04369641840457916
1772547805644374500,10.15137451171875,0.25662614384136917,0.10004571080207825,0.12101868484416155,0.021877406165003777,-0.044474572176887196,0.9854989316881908,-0.11714933956921064,left,-0.027833223342895508,0.20815679638581847,2.4353797659799454,-9.280741042801738,0.1103102895985004,0.26225876808166504,0.09881499409675598,-2.0266113335624336,0.012775704264640808
1772547805684374500,10.19137451171875,0.2603901614853909,0.25817441940307617,0.12265656688030069,-0.014931006357073784,-0.04146234814078866,0.9847379438324763,-0.11317094992758707,left,0.05329853296279907,0.2206803402624415,2.4635674573272466,-9.246257758441567,0.11630747796477167,0.17421957850456238,0.008263885974884033,-2.1466122162103654,0.08004824817180634
1772547805724374500,10.23137451171875,0.25957907495582794,0.14799503982067108,0.12235880799904307,0.012828079983592033,-0.03789900823487328,0.9845062932841827,-0.10690452214238831,left,-0.025398075580596924,0.228491351374131,2.451688511224091,-9.231765122708678,0.11974677091203971,0.14626194536685944,-0.07445165514945984,-2.2212882486186922,-0.010125607252120972
1772547805764374500,10.27137451171875,0.2609742442810135,0.12148147821426392,0.12304464307237918,-0.08379185199737549,-0.03608463796138701,0.9841982262452811,-0.10408977577064195,left,0.04163318872451782,0.23360678026142156,2.4616020024731755,-9.217236831140518,0.1221135489681064,0.1622011661529541,-0.15686142444610596,-2.2701203763268887,0.027791529893875122
1772547805804374500,10.31137451171875,0.25846217491900314,0.020101383328437805,0.1216472601953044,0.11511297523975372,-0.035194790626722296,0.9839835342075196,-0.10292781950209536,left,-0.11182290315628052,0.2406500326178148,2.434292701395601,-9.207705032685398,0.12545772802699842,0.17775645852088928,-0.10188759863376617,-2.3372581221848723,-0.042884767055511475
1772547805844374500,10.35137451171875,0.26200207737131764,0.040383532643318176,0.12310298056719449,0.14224904775619507,-0.034733603784240855,0.9833285168801196,-0.10347907808059839,left,0.024281322956085205,0.2481684063375655,2.4622505295097827,-9.18179726896882,0.12924496104223795,0.2224065065383911,-0.10585044324398041,-2.4087967333503064,0.0020135194063186646
1772547805884374500,10.39137451171875,0.2573969381097168,0.015112722292542458,0.12059191567737546,-0.06359179317951202,-0.0340811439911627,0.9831009045962474,-0.10274506357718927,left,-0.09902215003967285,0.2569874499416519,2.4144392692819237,-9.172138629263639,0.1334491257243962,0.14370903372764587,-0.04820990562438965,-2.4925378234848377,-0.05903163552284241
1772547805924374500,10.43137451171875,0.2549838220696461,-0.0013593453913927078,0.11929463294183584,0.006892748177051544,-0.03426052591658111,0.9830846006540568,-0.10312650717279177,left,-0.06110471487045288,0.25954032988870995,2.3906860532507297,-9.171750506728888,0.13468347368574393,0.03984140604734421,-0.03560119867324829,-2.5167425826758145,-0.00041237473487854004
1772547805964374500,10.47137451171875,0.2541684924419085,-0.05318684130907059,0.11863216413080786,0.016894441097974777,-0.03496716420144684,0.9828557275820604,-0.10499025988916239,left,-0.05399024486541748,0.263538212603723,2.380658434102684,-9.163885180181264,0.13674168138487128,0.13989853858947754,-0.016757085919380188,-2.5546152172133323,0.003024965524673462
1772547806004374500,10.51137451171875,0.2534192582595663,0.001157917082309723,0.11794865726279971,-0.01714363321661949,-0.035697495536870245,0.982549712837131,-0.10704874210120707,left,-0.041447222232818604,0.268571967645752,2.3705377298437056,-9.153101920360326,0.13931906392140742,0.09334050118923187,0.00005459785461425781,-2.602242645306885,0.021463021636009216
1772547806044374500,10.55137451171875,0.2535664075244456,0.0911053940653801,0.118047580819682,0.024733126163482666,-0.03501781812590499,0.9824630983852254,-0.10589549837832857,left,0.008929967880249023,0.2701285193495007,2.37086564662382,-9.148820882040262,0.14001687980811303,0.023180320858955383,-0.052299946546554565,-2.6169568148359654,0.010779231786727905
1772547806084374500,10.59137451171875,0.2520748932614125,0.08329550921916962,0.1174944201325195,-0.0008553508669137955,-0.03293967959422097,0.9824241417305312,-0.101861663292795,left,0.0413936972618103,0.2731882274455445,2.355209227808565,-9.144549780592321,0.14125429231104236,0.09831655025482178,-0.03540332615375519,-2.645861714541912,-0.02672809362411499
1772547806124374300,10.631374267578124,0.2522206111030432,0.01718524843454361,0.11756309148606847,-0.0014898652443662286,-0.03234369391567213,0.9822991725939219,-0.1009412285528611,left,0.11113733053207397,0.27522308160092324,2.355193299587071,-9.1389740262866,0.14220030243294668,0.029722779989242554,-0.03738480806350708,-2.665071441924572,-0.001981079578399658
1772547806164374500,10.67137451171875,0.2501926191212593,0.004108920693397522,0.11659891550320155,-0.04426047205924988,-0.032002433876798714,0.9823733722398325,-0.100072321228013,left,0.13300436735153198,0.27612312503420905,2.336059852311015,-9.14140388378203,0.14255811251494224,0.02583031728863716,-0.014419704675674438,-2.673564544981718,-0.008531272411346436
1772547806204374500,10.71137451171875,0.2508522302891036,0.03181206434965134,0.1168281460828825,0.03150423616170883,-0.03205530219698418,0.982205119351899,-0.10052509344427707,left,0.18490874767303467,0.2779987052750201,2.3408402184553445,-9.134987002477049,0.14351465836564647,0.07062283903360367,-0.030556857585906982,-2.6912562690168618,0.0397975891828537
1772547806244374500,10.75137451171875,0.24828612386145235,0.1084635928273201,0.11562920270045522,-0.04099985212087631,-0.030509738610606775,0.9820992417716875,-0.09760168931719089,left,0.11983811855316162,0.2825447106590871,2.31436064620018,-9.129010266155005,0.1455331500663174,0.11390292644500732,-0.034106284379959106,-2.7340976318776606,-0.03926709294319153
1772547806284374500,10.79137451171875,0.25042695632506623,0.07026322185993195,0.11664442933576953,0.14612576365470886,-0.02906760495708395,0.9816393723970794,-0.09569719688281508,left,0.21273434162139893,0.2879391667654409,2.330210103369504,-9.109612907245754,0.1480981687438829,0.1213584914803505,-0.06311146914958954,-2.7848616044312715,0.008583933115005493
1772547806324374500,10.83137451171875,0.25572259460492763,0.15535330772399902,0.11923948050910246,0.012203365564346313,-0.026880971609355854,0.9809156879328075,-0.09292323669250177,left,0.412716805934906,0.29446891203593056,2.373768090067059,-9.079358638757467,0.15120678202691612,0.14830593764781952,-0.11938468366861343,-2.846200454752147,0.09467095136642456
1772547806364374300,10.871374267578124,0.25494639820056125,-0.0011251866817474365,0.11890395254887713,0.05613727122545242,-0.02544016202662014,0.9806809555319136,-0.09046608758452332,left,0.30365920066833496,0.2989199411333753,2.3635015475966035,-9.068849519702791,0.15322928664602709,0.027565866708755493,-0.0612652450799942,-2.8879432087212797,0.06360253691673279
1772547806404374500,10.91137451171875,0.25835138909055905,-0.01651502400636673,0.12050592770151644,0.12834763526916504,-0.02554334783697165,0.9804496757680865,-0.09124269929953516,left,0.30794185400009155,0.29916816009677494,2.394183978369087,-9.060055972394347,0.15344064799464807,0.055992648005485535,-0.05524967610836029,-2.8902693135812876,0.03474670648574829
1772547806444374500,10.95137451171875,0.260727494973802,0.0014356598258018494,0.12130249233521807,-0.0384853333234787,-0.025819852260299925,0.9797899986642487,-0.09312578366832157,left,0.30160605907440186,0.30602816715169173,2.4105368550159034,-9.034971215498446,0.1569406483521018,0.2623392939567566,-0.042541325092315674,-2.95448634968698,0.016718417406082153
1772547806484374500,10.99137451171875,0.2583678575208086,0.07482117414474487,0.11980121664110703,-0.11234237998723984,-0.025893955598438514,0.9793101209230669,-0.0940373548105653,left,0.2198188304901123,0.31433077504424217,2.382861204843968,-9.016607291290164,0.16102374174606965,0.15393751859664917,-0.043567463755607605,-3.0320214247882364,0.07577839493751526
1772547806524374500,11.03137451171875,0.25498896792955456,0.07538986951112747,0.11817512067279412,-0.06640225648880005,-0.024803431904439146,0.9792004760615789,-0.09186459335608922,left,0.13026964664459229,0.3188311561095129,2.3489159728832543,-9.011311522969603,0.16305094967430048,0.0568135529756546,-0.04365220665931702,-3.0739617471560834,0.008688598871231079
1772547806564374500,11.07137451171875,0.24723697242955786,-0.00946180522441864,0.11446148580638597,-0.14106646180152893,-0.024249374039960397,0.9794713467295959,-0.08979773063379116,left,-0.03469276428222656,0.32152631058276643,2.2769546062611044,-9.02118351316452,0.16415296963284023,0.060110002756118774,0.009358927607536316,-3.0990491344004867,-0.08328917622566223
1772547806604374500,11.11137451171875,0.24464293472467738,-0.030387649312615395,0.11281599701380753,-0.11242780089378357,-0.02583090627524477,0.9793193424193806,-0.09303049744875745,left,-0.019263803958892822,0.32488930090467166,2.2510087024912235,-9.016897214147448,0.16594799297545978,0.11933805793523788,0.00888928771018982,-3.130321055498719,-0.014866799116134644
1772547806644374500,11.15137451171875,0.24315681721413201,-0.07708065211772919,0.11171020012000465,-0.016630366444587708,-0.0269746677416512,0.9790047096859704,-0.09571901087488688,left,-0.06647038459777832,0.3295426408254286,2.2340746649555863,-9.005997049948572,0.16835312495191315,0.15782299637794495,0.04566983878612518,-3.173533297498524,-0.06120532751083374
1772547806684374500,11.19137451171875,0.2430603241302292,0.026096627116203308,0.11118298988961345,0.022246044129133224,-0.02799092033010905,0.9784315304544136,-0.09866312129273468,left,-0.10068333148956299,0.33633366068029097,2.227967287991196,-8.985086948388814,0.17183247778297553,0.14528265595436096,0.03695259988307953,-3.236473445536196,-0.005808979272842407
1772547806724374500,11.23137451171875,0.24331936351936223,-0.038902297616004944,0.11103381339350642,-0.04202830418944359,-0.028093149487096965,0.9779560730915268,-0.09964192865681554,left,-0.07280653715133667,0.3418785547015812,2.225936805076897,-8.966953910326957,0.1745968491366599,0.1009800136089325,0.005884528160095215,-3.2877535509184,-0.05853241682052612
1772547806764374500,11.27137451171875,0.24278888760398348,-0.029521271586418152,0.1104135533120446,-0.03584401682019234,-0.02943920644817969,0.9777177035644695,-0.10265930240703765,left,-0.08219057321548462,0.3446268081343158,2.218999114768207,-8.959329406797885,0.17609706029011188,0.13495779037475586,0.08341163396835327,-3.313132322324812,-0.07418692111968994
1772547806804374500,11.31137451171875,0.2436468562162164,-0.05767344683408737,0.1103660019137164,-0.04239831864833832,-0.03034196831009991,0.9771265932444471,-0.10545961911269205,left,-0.10936713218688965,0.3507020746512932,2.221788307095319,-8.93772313966751,0.17922686709640065,0.1453598439693451,0.02388550341129303,-3.369145885969698,-0.06812366843223572
1772547806844374500,11.35137451171875,0.24706004576129,0.06496972590684891,0.11185549988374258,0.1202816516160965,-0.03047789523877174,0.9767533592920039,-0.10662914933447648,left,-0.04756897687911987,0.3526873328691746,2.2506411843530834,-8.923584724199772,0.1803112374719168,0.05545623600482941,0.026896491646766663,-3.3874230086773633,-0.010345667600631714
1772547806884374500,11.39137451171875,0.2491153403876355,-0.04867111146450043,0.11265411750632308,-0.000013232231140136719,-0.030374485897093212,0.9763031960903393,-0.10731594550053818,left,-0.10638254880905151,0.356542441846724,2.265740553807467,-8.906217994335293,0.18225887183173536,0.045166898518800735,0.0198831707239151,-3.4228763071134685,-0.045634061098098755
1772547806924374500,11.43137451171875,0.24759876136842693,0.0030337460339069366,0.11188178034545725,-0.03740224987268448,-0.030089369554835044,0.976205466487835,-0.10675084499039125,left,-0.10214382410049438,0.3587974744783587,2.2503335797086357,-8.902138031545281,0.18330231482015583,0.11476735770702362,0.06375458836555481,-3.4435911783620714,-0.052209556102752686
1772547806964374500,11.47137451171875,0.2494790453378177,0.05606362596154213,0.11262794375834581,0.07505124062299728,-0.03034415948916524,0.9759265016333972,-0.10787360509150085,left,-0.0870557427406311,0.36063093403381885,2.2655054298773405,-8.891758091828226,0.18428634341443914,-0.023946329951286316,0.02252940833568573,-3.4604204403489827,0.055783599615097046
1772547807004374500,11.51137451171875,0.24969497391126688,0.002499215304851532,0.11287784050762707,-0.00450337678194046,-0.02891550924697935,0.9757407525505969,-0.10531888383557236,left,-0.07159841060638428,0.3630927663015948,2.2653134144365787,-8.88298675635159,0.185343747080964,0.05842014402151108,-0.008224576711654663,-3.482999351903796,-0.02687603235244751
1772547807044374500,11.55137451171875,0.2480220833928163,0.10196913778781891,0.11220057203686372,-0.07805442810058594,-0.0285120396453841,0.9759104975923563,-0.10408419938289885,left,-0.03982985019683838,0.36242095076036196,2.2510239000603556,-8.88903012816906,0.18492325579850294,-0.026027366518974304,-0.005808472633361816,-3.4768399524912237,0.00838857889175415
1772547807084374500,11.59137451171875,0.24760349822645344,-0.030959278345108032,0.11214370503644244,0.012458398938179016,-0.02819725221222432,0.9760895983024732,-0.10313854979175986,left,-0.09327799081802368,0.360766528030553,2.2487096317686137,-8.895536441323161,0.18405882521266217,-0.11870626360177994,-0.012720808386802673,-3.4616645951911806,0.01979464292526245
1772547807124374300,11.631374267578124,0.24942415078155836,0.11607243120670319,0.11353122820958407,0.05283459648489952,-0.025762042226770906,0.9761816258919042,-0.09828922726784632,left,-0.05357462167739868,0.3592565240204206,2.266189320488274,-8.896482782262563,0.18307449263568212,0.08579447120428085,0.01158134639263153,-3.447805873447656,-0.04175221920013428
1772547807164374500,11.67137451171875,0.2492837952078589,-0.04506602883338928,0.11338033944765231,-0.000004783272743225098,-0.025707079021109216,0.9760158336044098,-0.09841930559289522,left,-0.13157981634140015,0.36126258446905374,2.263229593899846,-8.890079929482937,0.1840569298636174,-0.03765632212162018,0.054170891642570496,-3.4662156826242803,0.024764806032180786
1772547807204374500,11.71137451171875,0.25111339081131073,-0.04099053144454956,0.11414364736928163,-0.0653352290391922,-0.026438730073509244,0.9759612120424607,-0.10015048826794394,left,-0.047681331634521484,0.3604243242981199,2.2802122928828,-8.888735529136657,0.18377111049650413,0.009653646498918533,0.013718977570533752,-3.458524543599784,-0.005223721265792847
1772547807244374500,11.75137451171875,0.2475165010690015,0.06783190369606018,0.11259227804748635,0.04628320783376694,-0.026619920759451986,0.9764918749175254,-0.09935077016201886,left,-0.12229090929031372,0.35671857090561404,2.2513503555357457,-8.90924464868009,0.18187333007046377,-0.1468319296836853,0.02439633011817932,-3.4244948482260105,-0.005291074514389038
1772547807284374500,11.79137451171875,0.24980540316771305,-0.14416933059692383,0.1136240648474275,-0.021374672651290894,-0.027307548711527033,0.9764844077145279,-0.10095752745964019,left,-0.11088860034942627,0.3550217483616737,2.2731701192863283,-8.909685962706805,0.18116845696896308,-0.021583542227745056,-0.009281441569328308,-3.408897466121614,-0.04152786731719971
1772547807324374500,11.83137451171875,0.25175387607217453,-0.010014474391937256,0.11449254836588743,0.08946546167135239,-0.028556985178194834,0.9766540072761413,-0.10337001513234058,left,-0.07845050096511841,0.3512729682117772,2.2936932673551143,-8.917553627341984,0.17950699137673987,-0.011926286853849888,0.06148190796375275,-3.3744030758455392,-0.00822785496711731
1772547807364374300,11.871374267578124,0.2526727147642725,-0.08340642601251602,0.11465058003945347,-0.03852229565382004,-0.029713246596128118,0.9764551125507926,-0.10608116844812072,left,-0.16381949186325073,0.3525517981829836,2.3008054374478757,-8.911256573024392,0.18029864117940161,0.02590326964855194,0.05235759913921356,-3.386175638964772,-0.041684478521347046
1772547807404374500,11.91137451171875,0.25614544788354937,0.08268555253744125,0.11647428370330243,0.16018715500831604,-0.028975784469635692,0.9763540240825774,-0.10507169901830121,left,-0.10559463500976562,0.35153617691104083,2.332607958291471,-8.906534805199504,0.17979662283872813,-0.037086911499500275,0.060364216566085815,-3.37682650360018,-0.07333207130432129
1772547807444374500,11.95137451171875,0.257330886492995,0.16930270195007324,0.11752911841747492,0.02978818118572235,-0.0268122839689688,0.9765158394836586,-0.10057792755532281,left,-0.09893649816513062,0.34950847730192974,2.344902207197249,-8.910366930708289,0.17856263930253857,-0.053084760904312134,0.047676295042037964,-3.358150736963749,-0.06960302591323853
1772547807484374500,11.99137451171875,0.25734608197330894,0.023716330528259277,0.11796997389882352,0.014521139673888683,-0.024651966275648647,0.9766422146859252,-0.09604178806765512,left,-0.18649250268936157,0.34867702583843,2.3457474258497357,-8.913028258872032,0.17789069544700292,-0.15542882680892944,0.04633985459804535,-3.350488824033737,-0.08948078751564026
1772547807524374500,12.03137451171875,0.25484658982910596,0.2881002128124237,0.11761347794589493,0.11672936379909515,-0.020075048426060657,0.9768834633758123,-0.08624123640629498,left,-0.23756974935531616,0.34886428055434,2.323303977242857,-8.918256222653389,0.17737679477976337,0.10627743601799011,0.11704197525978088,-3.3522146249130365,-0.0769328773021698
1772547807564374500,12.07137451171875,0.259015699531793,0.08318591117858887,0.11987281604189647,0.14851945638656616,-0.018106639292416616,0.9765371746854586,-0.08317833458145596,left,-0.22883641719818115,0.3503976965258694,2.3591455443441864,-8.903513411551714,0.1779821405095239,-0.13403759896755219,0.026456117630004883,-3.3663425189867615,0.029721319675445557
1772547807604374500,12.11137451171875,0.2580294596148101,0.16012433171272278,0.12025069241765805,-0.06125599145889282,-0.013128764629884153,0.9765489147738365,-0.07301013114179246,left,-0.17603671550750732,0.3519070725394488,2.34906414918229,-8.900912873664497,0.17809969144404159,-0.020127110183238983,0.04068493843078613,-3.3802409882187843,-0.07121950387954712
1772547807644374500,12.15137451171875,0.2593616462386386,0.02271336317062378,0.1212797531386236,0.07660962641239166,-0.012527507914442806,0.9770778572296506,-0.07104627978830778,left,-0.057874441146850586,0.3447667249585211,2.3670494493365286,-8.920877803328633,0.1745079996665685,-0.1864815056324005,0.03849703073501587,-3.314423823440075,-0.058077484369277954
1772547807684374500,12.19137451171875,0.25390686090975945,-0.09218723326921463,0.1188591283516634,-0.23273594677448273,-0.013119120086429892,0.9779587702149038,-0.07038758023830793,left,-0.13627034425735474,0.33806637208702445,2.323879292912781,-8.954951922366023,0.17116375334678985,-0.25888776779174805,0.07622361183166504,-3.252508634535968,-0.025611460208892822
1772547807724374500,12.23137451171875,0.24982665558285092,0.08905788511037827,0.11740159152751935,0.046656474471092224,-0.011977395172228896,0.9788142893579259,-0.06637802681362584,left,-0.14432352781295776,0.3307344203564216,2.293156383999437,-8.987224544939398,0.167319821425715,-0.06359626352787018,0.07006116211414337,-3.1845895290419457,-0.021843045949935913
1772547807764374500,12.27137451171875,0.25077057960972715,0.15185216069221497,0.11826994077806903,0.1250668168067932,-0.010493166598021514,0.9791376610871123,-0.06291004036693318,left,-0.155928373336792,0.3261879014883099,2.30520776406005,-8.99898921701312,0.1648983290237244,-0.21179477870464325,0.062203094363212585,-3.142387048606574,0.09881481528282166
1772547807804374500,12.31137451171875,0.2485510111427968,0.16906215250492096,0.11807466040284655,-0.13638508319854736,-0.005202240683496007,0.9792450528993789,-0.051840644905705856,left,-0.05026012659072876,0.32703931040646006,2.2845691729180513,-9.00148687904775,0.1646519322137398,0.037899985909461975,0.00919613242149353,-3.150295045252144,-0.010258197784423828
1772547807844374500,12.35137451171875,0.24246982945606463,0.22723260521888733,0.1154226307779309,-0.12728382647037506,-0.0035329480173396217,0.979513543433917,-0.047562128572947074,left,-0.021976470947265625,0.3282457521125183,2.2288734430506825,-9.011517274674773,0.16497908800576072,0.062465764582157135,-0.027355104684829712,-3.161496822746098,0.022182941436767578
1772547807884374500,12.39137451171875,0.23669717814341132,0.06390370428562164,0.11320852061245883,-0.06144491583108902,0.00039889182202704714,0.9795009919719561,-0.039095424617336595,left,-0.0806395411491394,0.3325917555491798,2.173573726763576,-9.010791883009672,0.16661725438911806,0.019476860761642456,-0.01719808578491211,-3.2018112974777817,-0.07575473189353943
1772547807924374500,12.43137451171875,0.23801706448144755,0.031522057950496674,0.11378714193865723,0.07066846638917923,0.00026506146357402127,0.9793545845841538,-0.03970167210535173,left,-0.020318269729614258,0.3334743144420227,2.184798008350283,-9.005165275299548,0.16708330088037737,0.11676673591136932,-0.0008168518543243408,-3.2099905122801657,-0.011602222919464111
1772547807964374500,12.47137451171875,0.2386198916817801,-0.191692054271698,0.11382685612784824,0.08636487275362015,-0.0009462249402394714,0.979213151461064,-0.0424400668230829,left,-0.07972437143325806,0.33478564307698444,2.1892292687959967,-8.999748510947823,0.16788077884974914,-0.03601062297821045,0.05615024268627167,-3.222139215235412,-0.02893635630607605
1772547808004374500,12.51137451171875,0.23871523711260761,0.009336993098258972,0.11362130389367127,-0.027342602610588074,-0.002365635077259168,0.9791861175023427,-0.04538461416550768,left,-0.0659300684928894,0.33502085951298105,2.1899081909708675,-8.9988033390522,0.16816335369702054,0.06155940890312195,0.05823545157909393,-3.224317728318274,0.004902094602584839
1772547808044374500,12.55137451171875,0.23869682323336985,-0.07091682404279709,0.11337205757637113,0.03747393935918808,-0.0033073232050070643,0.9789832521466669,-0.047609319349766206,left,-0.10351818799972534,0.33747840285870684,2.1878623643569646,-8.99111746072471,0.16949151188552478,0.024044040590524673,0.057773470878601074,-3.24706819704771,0.03797668218612671
1772547808084374500,12.59137451171875,0.24175783886558908,0.0627555325627327,0.1151083069514129,0.06196608021855354,-0.002034178137857218,0.9789723900901154,-0.045291383208100645,left,0.006769239902496338,0.33551003760226483,2.2168998044013977,-8.990566256582737,0.16840061926199223,-0.03448426350951195,0.028963744640350342,-3.228847772963345,-0.014248013496398926
1772547808124374300,12.631374267578124,0.24114243019708753,-0.029387347400188446,0.11478950280484186,-0.08493360877037048,-0.002355696494912789,0.979081223537092,-0.04572882587832694,left,-0.059816181659698486,0.33460164003300635,2.2120661006346345,-8.99477306062281,0.1679808268655558,-0.016983360052108765,0.013140738010406494,-3.220434749405086,-0.004640489816665649
1772547808164374500,12.67137451171875,0.24089125608067674,-0.05110464617609978,0.11462773881130764,0.019496850669384003,-0.0031798510487313957,0.9793445058678444,-0.04698208956428963,left,-0.03509342670440674,0.3315028965242224,2.21217686753273,-9.00497647472918,0.1665366283102705,0.042705606669187546,0.019089028239250183,-3.1917163121819496,-0.08315038681030273
1772547808204374500,12.71137451171875,0.23978856665652729,0.023451674729585648,0.11371788608118176,-0.1234266385436058,-0.004576840509814247,0.9790339608452008,-0.0502123633427755,left,-0.048896610736846924,0.3360372118784311,2.1987862016923723,-8.993259733450412,0.16893667478759347,0.11507025361061096,0.05262671411037445,-3.233728823003173,0.05418232083320618
1772547808244374500,12.75137451171875,0.23702268637644588,-0.0884353518486023,0.1121230684701617,-0.10584111511707306,-0.005678857845752958,0.9789604370872071,-0.05232446078285537,left,-0.005108475685119629,0.33877848853055825,2.1718138774842024,-8.990656272953748,0.17038927585304112,0.08052118122577667,0.032474666833877563,-3.259095903971791,-0.009449630975723267
1772547808284374500,12.79137451171875,0.23065527716316006,0.004531137645244598,0.10880701819206531,-0.1545250415802002,-0.0066184604571755835,0.9789846960851781,-0.05360671466615257,left,-0.03798210620880127,0.34269264736797855,2.111590441059321,-8.991815379860997,0.17235440821393094,0.1749982237815857,0.06718917191028595,-3.2952737172901627,-0.07135432958602905
1772547808324374500,12.83137451171875,0.22815828301371202,-0.18757763504981995,0.10681542244708832,-0.1482246220111847,-0.009768868992640338,0.9784854834454345,-0.06046666410755234,left,-0.017103195190429688,0.3499092101948434,2.0836982255272565,-8.97366129901111,0.17624147631648246,0.21749188005924225,0.023278698325157166,-3.361842869479954,-0.02762708067893982
1772547808364374300,12.871374267578124,0.22547816275369578,-0.15268124639987946,0.10450289240328299,-0.18333421647548676,-0.014474108327297565,0.978124907964228,-0.07022069289817433,left,-0.010459482669830322,0.35510711298282815,2.0557056183606384,-8.962060293066502,0.17927974580165335,0.15429162979125977,0.007829323410987854,-3.409682186758518,-0.04641947150230408
1772547808404374500,12.91137451171875,0.22448648576728164,-0.08270283043384552,0.10342193192290419,0.003766089677810669,-0.01699426446833343,0.9778035296568637,-0.0756495512081276,left,0.0678052306175232,0.3589397894864154,2.0438931616224347,-8.951288139161466,0.18142547883467874,0.07833342254161835,0.0349360853433609,-3.4448978770464658,-0.021244049072265625
1772547808444374500,12.95137451171875,0.22834355590800942,-0.26805710792541504,0.10427589387105264,-0.004053927026689053,-0.021041129785942334,0.9770697158543925,-0.08526657775188211,left,0.07731801271438599,0.36402135858284107,2.0744141182228923,-8.926171818083525,0.18444083921232166,0.19709938764572144,0.000929608941078186,-3.4915105751395226,-0.01657921075820923
1772547808484374500,12.99137451171875,0.23069148562447106,-0.21092045307159424,0.104118599001815,-0.15381614863872528,-0.02648409125925953,0.9763537751300834,-0.09749006527991835,left,0.1746358871459961,0.36912468803674026,2.0912650075197217,-8.903814440324902,0.1875929599222154,0.12342347949743271,-0.04663430154323578,-3.5382319943040605,0.12852467596530914
1772547808524374500,13.03137451171875,0.23314927112815875,-0.1886940598487854,0.10437213048209587,0.08751122653484344,-0.03090782381148113,0.9759956840212657,-0.10715733678077133,left,0.26063764095306396,0.3701591818088736,2.1122955205887557,-8.895081683292984,0.18863590987341292,0.0802077054977417,-0.04393799602985382,-3.5476916043058035,0.1392095386981964
1772547808564374500,13.07137451171875,0.24240656825174242,-0.24098923802375793,0.10785832627233366,0.11387050151824951,-0.03464331343091355,0.9751122685973557,-0.1169554801606408,left,0.37849652767181396,0.37278376549531916,2.1923056075014173,-8.866077122604846,0.19058448946986678,0.12846457958221436,-0.09316703677177429,-3.571674537439644,0.16043050587177277
1772547808604374500,13.11137451171875,0.24808712981149356,-0.0734742283821106,0.1098131799998313,0.04538724571466446,-0.03818712220417404,0.9746272498202766,-0.12537288998480667,left,0.3964102864265442,0.37304085172081275,2.242408778058737,-8.852590449044108,0.19127093134251116,0.006808586418628693,-0.09847244620323181,-3.5740222696095705,0.22272810339927673
1772547808644374500,13.15137451171875,0.24850437444330137,0.023099452257156372,0.10991507116693698,-0.023676693439483643,-0.038092864636515705,0.9744215805411964,-0.12553903721326007,left,0.37069982290267944,0.37507406528234827,2.244310227765888,-8.844591851505637,0.1922758145596163,0.11467012763023376,-0.06629619002342224,-3.5925825931727884,0.08807116746902466
1772547808684374500,13.19137451171875,0.2453504463202641,-0.00610353983938694,0.1079950689099594,-0.10786862671375275,-0.03858684224359968,0.9740122699201411,-0.1267748152834297,left,0.22417712211608887,0.38131817475527574,2.2109119621634483,-8.829692973059416,0.19531513011115223,0.2069556713104248,-0.05962651968002319,-3.6494890140041707,0.0010716617107391357
1772547808724374500,13.23137451171875,0.23992411315284018,-0.06722135096788406,0.1046407461145484,-0.17310935258865356,-0.04033665441243122,0.9734729124078175,-0.13038461436978616,left,0.06391310691833496,0.38962726911001705,2.1556863340258596,-8.81180017349422,0.19943305911368822,0.1975073367357254,-0.032365188002586365,-3.7249940445825453,-0.03886863589286804
1772547808764374500,13.27137451171875,0.23505810131550348,-0.04354693740606308,0.10165120393220346,-0.056239522993564606,-0.04241238982042392,0.9731640452041966,-0.13432877626229095,left,-0.03150111436843872,0.3947870223913606,2.108278247771412,-8.803376044020057,0.20203898068007087,0.08174370974302292,0.008105292916297913,-3.7717517041042443,-0.02683320641517639
1772547808804374500,13.31137451171875,0.2344805445941793,-0.06787192821502686,0.10096347409908821,-0.07254333049058914,-0.04381025072313449,0.972921058293724,-0.13737190684079315,left,-0.011088132858276367,0.39699650427171673,2.101252148526907,-8.796465241718291,0.2032521827420303,0.0505836084485054,-0.005541995167732239,-3.791743521775305,-0.019505739212036133
1772547808844374500,13.35137451171875,0.2346677757661869,-0.09933464229106903,0.10072557841340826,0.004073627293109894,-0.045612027450833426,0.9729120987528733,-0.14100013031049194,left,-0.03331023454666138,0.3961247763704171,2.103666808453202,-8.799283221748471,0.20301664770222985,-0.10989395529031754,0.002863377332687378,-3.7838580292224884,0.003260999917984009
1772547808884374500,13.39137451171875,0.23681350978433632,-0.1076696589589119,0.10170674069097871,0.03766268119215965,-0.04719804411994121,0.9732183883002834,-0.14401263028678085,left,-0.008224010467529297,0.39089580474408914,2.127155674459785,-8.813862366721034,0.20068338389235119,-0.08497264981269836,-0.008084461092948914,-3.7364988966763018,-0.05882155895233154
1772547808924374500,13.43137451171875,0.239146326490281,-0.13127416372299194,0.10255406566180529,0.026405662298202515,-0.0491362871618414,0.9732411924612904,-0.1481237462468451,left,-0.0005356073379516602,0.3882655424023917,2.1500315231345595,-8.818394164931773,0.19967397781946658,-0.028397109359502792,0.006773799657821655,-3.712637544095516,-0.036836057901382446
1772547808964374500,13.47137451171875,0.24318150703366126,-0.1892235279083252,0.10397688406212681,0.04494456946849823,-0.052146695773084055,0.9730957772908905,-0.15479001358115682,left,-0.007684886455535889,0.3857114045320705,2.1878740547947584,-8.818821450433134,0.19888200173957896,-0.08177147805690765,-0.0048131197690963745,-3.689442254208028,0.005265653133392334
1772547809004374500,13.51137451171875,0.24553832122457958,-0.08794110268354416,0.10481244797838325,0.025600792840123177,-0.05440254040565316,0.9731250293437134,-0.15948086453070764,left,-0.006680727005004883,0.38262281366957124,2.2114115822486577,-8.824651471760868,0.19769249602206257,-0.10767713189125061,0.002397984266281128,-3.661361238105595,0.04005590081214905
1772547809044374500,13.55137451171875,0.24608012529558956,0.047360800206661224,0.10527918345505412,-0.02084570936858654,-0.05466601567398861,0.9734648997423948,-0.15955326434063594,left,0.0216829776763916,0.37845066075681827,2.2198944561727343,-8.838190752291679,0.19568840916773836,-0.12357193231582642,-0.012448996305465698,-3.6233731604948636,0.06813493371009827
1772547809084374500,13.59137451171875,0.244607685581446,-0.0019226297736167908,0.10506935116827489,0.008167650550603867,-0.0538531239051847,0.9740520445388093,-0.15690029248158394,left,-0.00009173154830932617,0.37345889374650776,2.211231111115217,-8.858888672405481,0.19308758257411027,-0.08069591969251633,-0.0180741548538208,-3.577839782071113,0.01965343952178955
1772547809124374300,13.631374267578124,0.24442286063665947,-0.0013469094410538673,0.10513898752953506,-0.005658376961946487,-0.05409350350163994,0.9743433253241727,-0.15691089818507845,left,0.011088788509368896,0.3702101279182658,2.2123948941975833,-8.87052825679481,0.191506420101185,0.007988788187503815,-0.021613001823425293,-3.5481574682518837,0.024323314428329468
1772547809164374500,13.67137451171875,0.2455343744493439,-0.01582617498934269,0.10554586422831728,0.07385994493961334,-0.054306263422819634,0.9741639648363707,-0.15772375063800384,left,-0.01751255989074707,0.37135256507882247,2.221266475178301,-8.864125988537072,0.19213384539919928,0.07188957929611206,-0.004336118698120117,-3.5585996595501896,0.008306354284286499
1772547809204374500,13.71137451171875,0.24699253504030244,0.04580327868461609,0.10625782672811675,0.07337607443332672,-0.053667008553483574,0.9739752528111426,-0.1569121036159304,left,-0.017951130867004395,0.3728902238791844,2.2328490686833855,-8.855561573809386,0.19287637489824327,0.020712684839963913,0.008895695209503174,-3.5726468896031376,0.0003223121166229248
1772547809244374500,13.75137451171875,0.24851548734517617,-0.010303813964128494,0.10715086572520287,0.06304874271154404,-0.05284685594706063,0.9739568820808243,-0.15548937677657843,left,-0.0005966424942016602,0.37260225003449765,2.24658591761291,-8.85314749840498,0.19270130606160826,-0.02425144612789154,-0.00017198920249938965,-3.570016541099548,-0.010898947715759277
1772547809284374500,13.79137451171875,0.25148214364529214,-0.019619286060333252,0.10856404772403393,0.12231199443340302,-0.05306877538956272,0.9738681653200429,-0.1563782559676258,left,-0.008042633533477783,0.3715085683055387,2.27381046301648,-8.85021962825954,0.1922971891386673,0.01334066316485405,0.0005816370248794556,-3.5600250161781903,0.008079200983047485
