time,seconds_elapsed,z,y,x
1772547795574399700,0.081399658203125,115.41346740722656,-4.77362060546875,167.69410705566406
1772547795584509700,0.091509765625,115.63262939453125,-4.8118438720703125,167.71873474121094
1772547795594619000,0.101618896484375,115.15727233886719,-5.2018890380859375,168.09349060058594
1772547795604729600,0.1117294921875,114.89077758789062,-5.0227203369140625,168.2926025390625
1772547795614838500,0.121838623046875,114.47746276855469,-4.5660400390625,168.6065216064453
1772547795624949800,0.13194970703125,114.08753967285156,-4.806060791015625,168.6776123046875
1772547795635058700,0.14205859375,113.86421203613281,-4.7758026123046875,168.76727294921875
1772547795645169700,0.152169677734375,113.51835632324219,-5.0132598876953125,169.00405883789062
1772547795655279600,0.162279541015625,113.51547241210938,-5.09234619140625,169.19155883789062
1772547795665389800,0.172389892578125,113.55487060546875,-5.1300506591796875,169.44427490234375
1772547795675498800,0.182498779296875,113.064697265625,-5.1146087646484375,169.541259765625
1772547795685608700,0.192608642578125,112.84811401367188,-5.1350555419921875,169.93496704101562
1772547795695718700,0.20271875,112.10969543457031,-5.0903167724609375,170.294189453125
1772547795705829600,0.21282958984375,112.32551574707031,-4.8495330810546875,170.551025390625
1772547795715940600,0.222940673828125,111.89469909667969,-4.7679443359375,170.6920928955078
1772547795726049500,0.233049560546875,111.697509765625,-4.438873291015625,171.12330627441406
1772547795736159700,0.24315966796875,111.45565795898438,-4.394287109375,171.2985076904297
1772547795746268700,0.2532685546875,111.7298583984375,-4.264434814453125,171.46119689941406
1772547795756377600,0.263377685546875,111.40866088867188,-4.0607452392578125,171.90113830566406
1772547795766486500,0.273486572265625,111.49351501464844,-4.127044677734375,172.2488555908203
1772547795776596700,0.2835966796875,110.47621154785156,-4.2113037109375,173.07643127441406
1772547795786707700,0.293707763671875,110.24436950683594,-4.1085968017578125,173.85562133789062
1772547795796817700,0.303817626953125,109.41932678222656,-4.3271331787109375,174.77735900878906
1772547795806926800,0.3139267578125,109.19218444824219,-4.137359619140625,175.59515380859375
1772547795817034800,0.32403466796875,109.04531860351562,-3.9256439208984375,176.26498413085938
1772547795827143700,0.334143798828125,108.61314392089844,-3.612152099609375,176.94259643554688
1772547795837251600,0.34425146484375,108.58049011230469,-3.342010498046875,177.39955139160156
1772547795847360500,0.354360595703125,108.52629089355469,-3.0639190673828125,177.82981872558594
1772547795857468700,0.36446875,108.24638366699219,-2.40545654296875,177.82296752929688
1772547795867578600,0.37457861328125,108.15974426269531,-2.1110382080078125,177.81959533691406
1772547795877687800,0.384687744140625,108.15884399414062,-1.595947265625,178.02838134765625
1772547795887797800,0.3947978515625,108.12370300292969,-1.4266357421875,178.04205322265625
1772547795897906700,0.40490673828125,108.37353515625,-1.422332763671875,178.0551300048828
1772547795908016600,0.4150166015625,108.18215942382812,-1.1835174560546875,177.83901977539062
1772547795918125600,0.42512548828125,108.05049133300781,-1.2772979736328125,177.976318359375
1772547795928234800,0.43523486328125,107.84950256347656,-1.6526641845703125,178.0762176513672
1772547795938343700,0.44534375,108.36181640625,-1.551361083984375,177.84884643554688
1772547795948453600,0.45545361328125,108.03779602050781,-1.53802490234375,178.3115997314453
1772547795958562600,0.4655625,108.13381958007812,-1.291839599609375,178.33694458007812
1772547795968671700,0.475671630859375,107.95877075195312,-1.4027557373046875,178.8109588623047
1772547795978780700,0.48578076171875,107.3740234375,-0.54046630859375,179.30126953125
1772547795988890600,0.495890625,106.99908447265625,-0.2699432373046875,180.07516479492188
1772547795999000800,0.506000732421875,106.98568725585938,0.3841552734375,180.93310546875
1772547796009110800,0.51611083984375,106.97325134277344,0.6506500244140625,181.75596618652344
1772547796019220700,0.526220703125,107.04568481445312,1.50701904296875,181.93148803710938
1772547796029329700,0.53632958984375,106.81430053710938,1.803955078125,182.40049743652344
1772547796039439600,0.546439697265625,106.80670166015625,1.37847900390625,182.79808044433594
1772547796049549800,0.5565498046875,106.61416625976562,1.468902587890625,182.46705627441406
1772547796059659800,0.56665966796875,106.25718688964844,1.6534881591796875,182.10076904296875
1772547796069769700,0.576769775390625,106.16819763183594,1.4652557373046875,181.8433074951172
1772547796079880700,0.586880615234375,106.06439208984375,2.0477447509765625,181.1048126220703
1772547796089991700,0.59699169921875,106.47145080566406,2.280059814453125,180.79083251953125
1772547796100105000,0.60710498046875,106.18534851074219,3.014984130859375,179.61502075195312
1772547796110215200,0.617215087890625,106.26409912109375,3.95587158203125,178.7101593017578
1772547796120325000,0.6273251953125,106.40773010253906,4.8004302978515625,178.0615997314453
1772547796130435000,0.63743505859375,106.7410888671875,5.934112548828125,177.59268188476562
1772547796140544300,0.647544189453125,106.88510131835938,6.8105010986328125,177.1717071533203
1772547796150653200,0.657653076171875,106.98593139648438,7.67681884765625,176.3324737548828
1772547796160763100,0.66776318359375,107.24549865722656,8.517257690429688,175.34124755859375
1772547796170874000,0.6778740234375,107.840087890625,9.2313232421875,174.4430694580078
1772547796180984000,0.687984130859375,108.50450134277344,10.290008544921875,173.586181640625
1772547796191094300,0.69809423828125,108.98330688476562,11.34173583984375,172.5768585205078
1772547796201204000,0.708203857421875,109.67317199707031,11.871307373046875,172.36227416992188
1772547796211314200,0.718314208984375,109.99102783203125,13.28448486328125,172.05125427246094
1772547796221424000,0.728424072265625,110.43185424804688,14.214706420898438,172.2434844970703
1772547796231536000,0.7385361328125,110.82908630371094,15.568038940429688,172.6889190673828
1772547796241646000,0.74864599609375,111.37013244628906,16.542984008789062,172.99705505371094
1772547796251757000,0.758757080078125,111.58480834960938,17.5291748046875,173.53121948242188
1772547796261868000,0.768867919921875,112.41580200195312,18.68975830078125,173.73861694335938
1772547796271978200,0.778978271484375,112.76507568359375,19.615646362304688,174.66607666015625
1772547796282089000,0.7890888671875,113.35044860839844,20.457489013671875,175.29354858398438
1772547796292200200,0.7992001953125,113.44139099121094,21.120437622070312,175.99766540527344
1772547796302312200,0.809312255859375,114.02560424804688,21.676315307617188,177.0196990966797
1772547796312423000,0.8194228515625,114.20339965820312,22.310287475585938,177.8364715576172
1772547796322534100,0.8295341796875,113.83476257324219,22.1796875,179.107666015625
1772547796332644000,0.83964404296875,113.75656127929688,22.221588134765625,180.65496826171875
1772547796342756000,0.849756103515625,113.12477111816406,21.986343383789062,181.64810180664062
1772547796352867000,0.8598671875,112.9075927734375,21.955215454101562,183.239013671875
1772547796362978000,0.86997802734375,112.87612915039062,21.9661865234375,184.55789184570312
1772547796373088000,0.880087890625,113.09463500976562,21.82147216796875,185.83322143554688
1772547796383198000,0.890197998046875,112.82633972167969,21.675811767578125,186.7741241455078
1772547796393309200,0.90030908203125,112.81462097167969,21.398880004882812,187.6497344970703
1772547796403419100,0.910419189453125,112.59623718261719,21.106597900390625,187.98590087890625
1772547796413531100,0.92053125,112.41311645507812,20.765762329101562,188.7394561767578
1772547796423641000,0.93064111328125,112.0899658203125,20.159576416015625,189.3680877685547
1772547796433752000,0.940751953125,111.86363220214844,19.576492309570312,189.80384826660156
1772547796443863000,0.950863037109375,111.85615539550781,19.320449829101562,190.0960693359375
1772547796453974000,0.96097412109375,111.7210693359375,19.075820922851562,190.6808319091797
1772547796464084200,0.971084228515625,111.87509155273438,18.919403076171875,191.03976440429688
1772547796474196200,0.9811962890625,111.60739135742188,18.676864624023438,191.50245666503906
1772547796484307000,0.991306884765625,111.9339599609375,18.529281616210938,191.52975463867188
1772547796494418200,1.001418212890625,111.83453369140625,18.368545532226562,191.66477966308594
1772547796504529000,1.01152880859375,111.25004577636719,18.151092529296875,191.84925842285156
1772547796514640100,1.02164013671875,110.94818115234375,17.892852783203125,191.57106018066406
1772547796524750000,1.03175,110.39372253417969,17.475860595703125,191.4918975830078
1772547796534861000,1.041861083984375,110.4163818359375,17.1387939453125,191.52703857421875
1772547796544971000,1.051970947265625,110.37673950195312,16.8055419921875,191.67507934570312
1772547796555081200,1.062081298828125,109.97804260253906,16.425003051757812,191.62213134765625
1772547796565191000,1.07219091796875,110.00352478027344,16.484207153320312,191.84408569335938
1772547796575302100,1.08230224609375,109.89146423339844,16.378616333007812,191.531005859375
1772547796585412000,1.092412109375,109.50262451171875,15.753936767578125,191.65191650390625
1772547796595523000,1.102523193359375,109.59611511230469,15.483306884765625,191.54051208496094
1772547796605633000,1.112633056640625,109.36444091796875,15.541519165039062,191.37818908691406
1772547796615744000,1.122743896484375,109.59329223632812,15.474517822265625,191.72442626953125
1772547796625854000,1.13285400390625,109.64370727539062,15.349960327148438,191.62063598632812
1772547796635965200,1.142965087890625,109.28958129882812,15.311141967773438,191.70651245117188
1772547796646076200,1.153076171875,109.42808532714844,15.11395263671875,191.6722412109375
1772547796656186000,1.16318603515625,109.07522583007812,15.01318359375,191.63246154785156
1772547796666297000,1.173297119140625,108.82000732421875,14.963973999023438,191.50660705566406
1772547796676407000,1.183406982421875,108.99848937988281,14.701904296875,191.593017578125
1772547796686516000,1.193515869140625,108.634765625,14.491897583007812,191.3639373779297
1772547796696626200,1.203626220703125,108.57728576660156,14.32818603515625,191.30413818359375
1772547796706736000,1.213736083984375,108.38174438476562,14.60028076171875,191.1947479248047
1772547796716846000,1.22384619140625,108.74075317382812,14.273910522460938,191.03611755371094
1772547796726955300,1.233955322265625,108.79911804199219,14.906661987304688,190.82369995117188
1772547796737064200,1.244064208984375,108.53788757324219,15.099044799804688,190.72329711914062
1772547796747174100,1.254174072265625,109.0018310546875,15.135116577148438,190.61325073242188
1772547796757284000,1.2642841796875,109.33723449707031,15.281509399414062,190.5745391845703
1772547796767394000,1.27439404296875,109.27871704101562,15.39263916015625,190.25604248046875
1772547796777504300,1.284504150390625,109.25424194335938,15.028717041015625,190.39993286132812
1772547796787614200,1.2946142578125,108.81269836425781,15.167068481445312,190.42808532714844
1772547796797724000,1.304723876953125,108.97801208496094,15.225387573242188,190.35060119628906
1772547796807835100,1.314835205078125,108.63192749023438,15.2647705078125,190.3724365234375
1772547796817945000,1.324945068359375,109.06782531738281,15.454727172851562,190.45799255371094
1772547796828054300,1.33505419921875,109.0233154296875,15.442794799804688,190.50955200195312
1772547796838164000,1.3451640625,109.33882141113281,15.254150390625,190.8818817138672
1772547796848276200,1.355276123046875,109.33453369140625,15.195343017578125,191.27206420898438
1772547796858385200,1.36538525390625,109.44395446777344,14.979019165039062,191.73472595214844
1772547796868496100,1.37549609375,109.47186279296875,15.014739990234375,191.99905395507812
1772547796878606000,1.385606201171875,109.57844543457031,14.9891357421875,192.25851440429688
1772547796888716000,1.395716064453125,109.42059326171875,14.824493408203125,192.4043426513672
1772547796898827000,1.405826904296875,109.60710144042969,14.71136474609375,192.84226989746094
1772547796908938200,1.415938232421875,109.35032653808594,14.259140014648438,192.86666870117188
1772547796919049000,1.426049072265625,109.29646301269531,13.766983032226562,193.09124755859375
1772547796929160200,1.43616015625,109.03416442871094,13.227127075195312,193.36236572265625
1772547796939269000,1.44626904296875,108.92610168457031,12.907241821289062,193.3482208251953
1772547796949380000,1.456380126953125,108.80703735351562,12.449356079101562,193.8265380859375
1772547796959490000,1.466489990234375,108.19393920898438,12.121490478515625,193.801025390625
1772547796969601300,1.476601318359375,108.40293884277344,11.90631103515625,193.8843231201172
1772547796979709200,1.486709228515625,108.34591674804688,11.567947387695312,193.83160400390625
1772547796989818000,1.496818115234375,108.24623107910156,11.402267456054688,193.69989013671875
1772547796999928000,1.506927978515625,108.11174011230469,11.670242309570312,193.69692993164062
1772547797010036000,1.517035888671875,108.15834045410156,11.467453002929688,193.86746215820312
1772547797020145200,1.527145263671875,108.10908508300781,11.651260375976562,193.5573272705078
1772547797030255000,1.537255126953125,108.44068908691406,11.7000732421875,193.3969268798828
1772547797040365000,1.547364990234375,108.55853271484375,11.718704223632812,193.12384033203125
1772547797050476000,1.55747607421875,107.693359375,11.47845458984375,192.50924682617188
1772547797060586000,1.5675859375,107.61131286621094,11.661224365234375,191.51393127441406
1772547797070695200,1.577695068359375,107.23495483398438,11.446380615234375,190.59205627441406
1772547797080804000,1.58780419921875,107.41069030761719,11.80078125,189.4544219970703
1772547797090913000,1.5979130859375,107.04458618164062,12.205307006835938,188.06100463867188
1772547797101017600,1.608017578125,107.1474609375,12.646286010742188,186.23341369628906
1772547797111126500,1.61812646484375,107.66261291503906,13.448272705078125,184.23928833007812
1772547797121236500,1.628236572265625,108.22911071777344,14.635299682617188,182.5995330810547
1772547797131346400,1.638346435546875,108.92384338378906,15.79498291015625,182.0316162109375
1772547797141455400,1.648455322265625,110.02926635742188,16.338623046875,182.38645935058594
1772547797151565600,1.658565673828125,110.47219848632812,17.096405029296875,182.32803344726562
1772547797161675500,1.668675537109375,111.28662109375,17.582962036132812,182.3369598388672
1772547797171786500,1.678786376953125,111.63275146484375,17.692108154296875,181.95848083496094
1772547797181895400,1.6888955078125,112.00120544433594,17.963836669921875,180.92999267578125
1772547797192004400,1.69900439453125,112.40791320800781,18.138137817382812,179.3583526611328
1772547797202114600,1.709114501953125,112.71250915527344,17.858749389648438,178.14598083496094
1772547797212224500,1.719224609375,113.28523254394531,17.64373779296875,176.83029174804688
1772547797222334500,1.72933447265625,113.90544128417969,17.454116821289062,175.5336151123047
1772547797232443600,1.739443603515625,114.55914306640625,17.089950561523438,174.616943359375
1772547797242552600,1.749552490234375,115.18585205078125,16.517425537109375,173.564697265625
1772547797252663300,1.759663330078125,115.41786193847656,16.039413452148438,172.44151306152344
1772547797262772500,1.7697724609375,116.09326171875,15.370285034179688,171.61740112304688
1772547797272882400,1.77988232421875,116.5526123046875,14.843307495117188,171.02890014648438
1772547797282993700,1.78999365234375,117.59857177734375,14.281631469726562,170.24375915527344
1772547797293104400,1.8001044921875,118.04861450195312,14.010269165039062,169.84156799316406
1772547797303214600,1.810214599609375,118.53280639648438,13.704727172851562,169.7248992919922
1772547797313324500,1.820324462890625,118.72625732421875,13.734375,169.8992156982422
1772547797323433500,1.83043359375,118.52708435058594,14.0394287109375,170.49343872070312
1772547797333542400,1.84054248046875,117.65266418457031,14.32421875,171.37571716308594
1772547797343652600,1.850652587890625,116.99119567871094,14.663619995117188,172.5338897705078
1772547797353762300,1.86076220703125,116.19923400878906,15.166549682617188,173.63551330566406
1772547797363871500,1.87087158203125,115.75665283203125,15.398849487304688,175.05474853515625
1772547797373980400,1.88098046875,115.41163635253906,15.94696044921875,176.41143798828125
1772547797384090400,1.89109033203125,114.73193359375,16.0125732421875,177.3271026611328
1772547797394201600,1.90120166015625,114.90213012695312,16.583938598632812,178.61007690429688
1772547797404311300,1.911311279296875,114.74307250976562,16.821762084960938,179.43978881835938
1772547797414421500,1.92142138671875,115.0289306640625,17.170196533203125,179.873046875
1772547797424531500,1.931531494140625,115.54203796386719,17.3165283203125,179.94839477539062
1772547797434640400,1.941640380859375,115.58892822265625,17.36138916015625,179.84938049316406
1772547797444749300,1.951749267578125,115.88789367675781,17.501358032226562,179.6798095703125
1772547797454858500,1.9618583984375,115.81190490722656,17.070465087890625,179.34103393554688
1772547797464968400,1.971968505859375,115.80426025390625,16.84344482421875,179.16810607910156
1772547797475077400,1.982077392578125,115.79808044433594,16.405899047851562,178.78933715820312
1772547797485187600,1.9921875,115.27932739257812,16.490570068359375,178.195068359375
1772547797495297500,2.002297607421875,115.42483520507812,16.221023559570312,177.77989196777344
1772547797505407500,2.012407470703125,115.46159362792969,16.0372314453125,177.51173400878906
1772547797515517400,2.022517333984375,115.20260620117188,15.948440551757812,176.96893310546875
1772547797525626400,2.03262646484375,115.4197998046875,15.6951904296875,176.4632110595703
1772547797535736600,2.042736572265625,115.26412963867188,15.701095581054688,175.9288330078125
1772547797545845500,2.052845458984375,115.30972290039062,15.563461303710938,175.44723510742188
1772547797555954400,2.062954345703125,115.40830993652344,15.4356689453125,175.07276916503906
1772547797566064400,2.073064453125,115.82109069824219,15.428390502929688,174.90939331054688
1772547797576173600,2.083173583984375,116.06845092773438,15.445388793945312,174.3096160888672
1772547797586282500,2.093282470703125,116.1715087890625,15.5050048828125,174.0909423828125
1772547797596391400,2.103391357421875,116.2611083984375,15.780899047851562,173.95498657226562
1772547797606501600,2.113501708984375,116.19204711914062,15.673858642578125,173.87887573242188
1772547797616611600,2.123611572265625,116.47665405273438,15.827789306640625,174.07875061035156
1772547797626720500,2.133720458984375,116.30596923828125,15.939773559570312,174.3207550048828
1772547797636829400,2.143829345703125,115.95263671875,16.07830810546875,174.5386199951172
1772547797646936300,2.153936279296875,115.68000793457031,16.206878662109375,174.9412841796875
1772547797657045200,2.164045166015625,115.81552124023438,15.919708251953125,175.60142517089844
1772547797667153400,2.1741533203125,115.414794921875,16.081451416015625,175.70791625976562
1772547797677261300,2.18426123046875,115.35549926757812,16.214736938476562,175.97337341308594
1772547797687370500,2.19437060546875,115.3662109375,16.166595458984375,176.43856811523438
1772547797697479400,2.2044794921875,115.35134887695312,16.625930786132812,176.818603515625
1772547797707588400,2.21458837890625,115.4564208984375,16.640365600585938,177.31727600097656
1772547797717696500,2.224696533203125,115.55715942382812,16.652236938476562,177.41990661621094
1772547797727804400,2.234804443359375,115.41944885253906,17.010955810546875,177.475830078125
1772547797737912300,2.244912353515625,115.7374267578125,17.093368530273438,177.7255859375
1772547797748020500,2.2550205078125,115.54173278808594,16.981475830078125,177.90000915527344
1772547797758127400,2.26512744140625,115.66461181640625,16.832717895507812,177.9674072265625
1772547797768234500,2.275234375,115.67387390136719,16.935073852539062,177.8177947998047
1772547797778342400,2.28534228515625,115.62596130371094,17.21185302734375,177.78402709960938
1772547797788449500,2.295449462890625,115.39410400390625,16.998306274414062,177.85366821289062
1772547797798558500,2.305558349609375,115.26205444335938,16.879852294921875,177.8425750732422
1772547797808665600,2.31566552734375,115.1934814453125,17.11773681640625,177.7558135986328
1772547797818774500,2.3257744140625,115.2086181640625,16.785140991210938,177.73020935058594
1772547797828882400,2.33588232421875,115.38249206542969,17.191818237304688,177.53411865234375
1772547797838990300,2.345990234375,115.013916015625,17.027969360351562,177.29649353027344
1772547797849099500,2.356099609375,115.49000549316406,16.940109252929688,177.5695343017578
1772547797859208700,2.366208740234375,115.298583984375,16.996246337890625,177.22976684570312
1772547797869317600,2.376317626953125,115.23886108398438,17.403762817382812,177.24777221679688
1772547797879427300,2.38642724609375,115.40774536132812,17.240310668945312,177.36610412597656
1772547797889536300,2.396536376953125,115.39883422851562,17.10809326171875,177.2543182373047
1772547797899645400,2.4066455078125,115.48530578613281,17.209884643554688,177.4213104248047
1772547797909755400,2.41675537109375,115.267578125,17.439178466796875,177.3949737548828
1772547797919865300,2.426865234375,115.54466247558594,17.32196044921875,177.53701782226562
1772547797929974500,2.436974609375,115.64447021484375,17.317092895507812,177.6173095703125
1772547797940083500,2.44708349609375,115.58164978027344,17.28985595703125,177.6616973876953
1772547797950192400,2.4571923828125,116.05195617675781,17.534820556640625,177.6302947998047
1772547797960301300,2.46730126953125,115.6639404296875,17.597366333007812,177.6780242919922
1772547797970410200,2.47741015625,116.05775451660156,17.70245361328125,177.6739501953125
1772547797980520400,2.4875205078125,116.41188049316406,17.743820190429688,177.74281311035156
1772547797990629400,2.49762939453125,116.75993347167969,17.9202880859375,177.9127197265625
1772547798000737500,2.507737548828125,116.73677062988281,18.010345458984375,177.83335876464844
1772547798010847500,2.517847412109375,116.67707824707031,18.194046020507812,177.74212646484375
1772547798020957400,2.52795751953125,116.95028686523438,18.212417602539062,177.62368774414062
1772547798031066400,2.53806640625,116.68939208984375,18.366470336914062,177.62916564941406
1772547798041174500,2.548174560546875,117.16822814941406,18.7142333984375,177.83010864257812
1772547798051283500,2.558283447265625,117.02372741699219,18.547592163085938,177.67710876464844
1772547798061392600,2.568392578125,116.97572326660156,18.840423583984375,177.74021911621094
1772547798071502300,2.57850244140625,117.03413391113281,19.025115966796875,177.5946502685547
1772547798081612300,2.5886123046875,117.43003845214844,18.747344970703125,177.7709503173828
1772547798091723500,2.5987236328125,117.46670532226562,19.021621704101562,177.61184692382812
1772547798101832000,2.60883203125,117.27989196777344,18.802276611328125,177.54588317871094
1772547798111939800,2.61893994140625,117.48246765136719,19.13134765625,177.3249969482422
1772547798122049800,2.6290498046875,117.36480712890625,19.095016479492188,177.3218536376953
1772547798132157700,2.63915771484375,117.64045715332031,19.241317749023438,177.29957580566406
1772547798142265900,2.649265869140625,117.32182312011719,19.15509033203125,177.18678283691406
1772547798152373800,2.659373779296875,116.91804504394531,19.1370849609375,176.99913024902344
1772547798162483000,2.66948291015625,117.4173583984375,19.165725708007812,176.8876190185547
1772547798172591900,2.679591796875,117.46354675292969,19.392242431640625,176.93162536621094
1772547798182701800,2.689701904296875,117.75302124023438,19.485870361328125,176.93182373046875
1772547798192810800,2.699810791015625,117.45794677734375,19.158233642578125,176.82937622070312
1772547798202920000,2.709919921875,117.237548828125,19.268966674804688,176.7101593017578
1772547798213028900,2.72002880859375,117.62689208984375,19.23028564453125,176.750244140625
1772547798223137000,2.730136962890625,117.65304565429688,19.414291381835938,176.583984375
1772547798233245000,2.740244873046875,117.49078369140625,19.4842529296875,176.52197265625
1772547798243352000,2.75035205078125,117.7479248046875,19.565460205078125,176.3916473388672
1772547798253459000,2.760458984375,117.73210144042969,19.299285888671875,176.6139373779297
1772547798263568000,2.77056787109375,117.85107421875,19.57440185546875,176.46275329589844
1772547798273676000,2.780676025390625,117.64317321777344,19.509811401367188,176.52964782714844
1772547798283784000,2.790783935546875,117.83773803710938,19.496017456054688,176.53689575195312
1772547798293891000,2.80089111328125,117.70106506347656,19.496063232421875,176.6118927001953
1772547798303999000,2.8109990234375,117.79690551757812,19.400634765625,176.404052734375
1772547798314108000,2.82110791015625,117.94918823242188,19.412185668945312,176.48895263671875
1772547798324216800,2.831216796875,118.08065795898438,19.536422729492188,176.53436279296875
1772547798334324000,2.841323974609375,118.0269775390625,19.609832763671875,176.14495849609375
1772547798344431900,2.851431884765625,118.0989990234375,19.378753662109375,176.39773559570312
1772547798354539800,2.861539794921875,118.09956359863281,19.53973388671875,176.2223358154297
1772547798364647000,2.87164697265625,118.17460632324219,19.876480102539062,176.17831420898438
1772547798374755800,2.881755859375,118.49716186523438,19.519454956054688,176.378662109375
1772547798384863700,2.89186376953125,118.04664611816406,19.580642700195312,176.33489990234375
1772547798394971000,2.901970947265625,118.03250122070312,19.727554321289062,176.29595947265625
1772547798405079800,2.912079833984375,118.35348510742188,19.7637939453125,176.5258026123047
1772547798415187700,2.922187744140625,118.17654418945312,19.933807373046875,176.32652282714844
1772547798425298000,2.9322978515625,118.32110595703125,20.126632690429688,176.4320068359375
1772547798435406000,2.942406005859375,118.70437622070312,20.0682373046875,176.33480834960938
1772547798445514000,2.952513916015625,118.66535949707031,20.203033447265625,176.27708435058594
1772547798455622000,2.962621826171875,118.64027404785156,20.444412231445312,176.1999969482422
1772547798465730800,2.972730712890625,118.91476440429688,20.4229736328125,176.09866333007812
1772547798475839000,2.9828388671875,119.17939758300781,20.247299194335938,176.28396606445312
1772547798485948000,2.992947998046875,119.14019775390625,20.585861206054688,176.09385681152344
1772547798496056800,3.003056884765625,119.05477905273438,20.647384643554688,175.81393432617188
1772547798506166000,3.013166015625,119.10337829589844,20.717788696289062,175.92945861816406
1772547798516275000,3.02327490234375,119.6689453125,20.929489135742188,175.86749267578125
1772547798526385000,3.033385009765625,118.97065734863281,20.744277954101562,175.54005432128906
1772547798536494800,3.043494873046875,119.37715148925781,20.920364379882812,175.5882568359375
1772547798546604000,3.05360400390625,119.3372802734375,21.032730102539062,175.50318908691406
1772547798556713000,3.063712890625,119.59403991699219,20.937271118164062,175.4674072265625
1772547798566822000,3.07382177734375,120.00764465332031,21.184890747070312,175.36669921875
1772547798576929800,3.0839296875,119.92079162597656,21.247207641601562,175.43544006347656
1772547798587040000,3.0940400390625,119.66830444335938,21.113082885742188,175.6594696044922
1772547798597150000,3.10414990234375,119.94329833984375,21.22216796875,175.8387908935547
1772547798607259000,3.1142587890625,119.77999877929688,21.160171508789062,175.8848876953125
1772547798617369900,3.124369873046875,119.69149780273438,21.536834716796875,176.25347900390625
1772547798627479800,3.134479736328125,119.81613159179688,21.442367553710938,176.333740234375
1772547798637590000,3.144590087890625,119.54061889648438,21.488494873046875,176.44406127929688
1772547798647699700,3.15469970703125,119.8792724609375,21.6978759765625,176.48362731933594
1772547798657810000,3.164809814453125,119.79145812988281,21.580337524414062,176.7471466064453
1772547798667918000,3.17491796875,119.54339599609375,21.538818359375,176.41407775878906
1772547798678027800,3.18502783203125,119.25692749023438,21.5286865234375,176.27511596679688
1772547798688136700,3.19513671875,119.51612854003906,21.501602172851562,176.05799865722656
1772547798698246000,3.205245849609375,119.30683898925781,21.250320434570312,176.1464080810547
1772547798708355000,3.21535498046875,119.54367065429688,21.12957763671875,176.1378936767578
1772547798718464800,3.22546484375,119.26380920410156,21.327041625976562,175.6249237060547
1772547798728573700,3.23557373046875,119.6458740234375,20.971527099609375,175.5589141845703
1772547798738684000,3.245683837890625,119.80509948730469,21.022598266601562,175.55458068847656
1772547798748792800,3.255792724609375,119.87164306640625,21.001724243164062,175.09075927734375
1772547798758902800,3.26590283203125,119.9805908203125,21.045501708984375,174.98899841308594
1772547798769010700,3.2760107421875,119.83494567871094,20.850814819335938,174.87547302246094
1772547798779119900,3.286119873046875,120.4683837890625,21.009185791015625,174.78016662597656
1772547798789228800,3.296228759765625,120.22158813476562,20.918106079101562,174.8021240234375
1772547798799338000,3.306337890625,120.45156860351562,20.95819091796875,174.99578857421875
1772547798809447000,3.316447021484375,120.20774841308594,21.099960327148438,174.82151794433594
1772547798819556900,3.326556884765625,119.95838928222656,20.924957275390625,174.84213256835938
1772547798829665000,3.3366650390625,120.40521240234375,20.983139038085938,174.7949676513672
1772547798839774700,3.346774658203125,119.8345947265625,20.8511962890625,175.00746154785156
1772547798849884000,3.3568837890625,120.22102355957031,21.0926513671875,175.2126007080078
1772547798859993900,3.366993896484375,120.36735534667969,20.919876098632812,175.19390869140625
1772547798870102800,3.377102783203125,120.14263916015625,20.973739624023438,175.23880004882812
1772547798880212700,3.387212646484375,120.43470764160156,21.151168823242188,175.081298828125
1772547798890323000,3.397322998046875,120.01678466796875,20.94061279296875,175.3605194091797
1772547798900433700,3.40743359375,120.23829650878906,21.185379028320312,175.2835693359375
1772547798910542800,3.41754296875,120.23472595214844,21.06878662109375,175.30967712402344
1772547798920652000,3.427652099609375,119.95489501953125,20.94219970703125,175.4141387939453
1772547798930761000,3.437760986328125,120.08642578125,20.791488647460938,175.5675506591797
1772547798940870000,3.447869873046875,120.40396118164062,21.047256469726562,175.57345581054688
1772547798950979000,3.45797900390625,120.25523376464844,21.016586303710938,175.38800048828125
1772547798961088800,3.4680888671875,120.47625732421875,20.9691162109375,175.32522583007812
1772547798971198700,3.47819873046875,120.36285400390625,20.917877197265625,175.3495635986328
1772547798981307000,3.488306884765625,120.2177734375,20.822906494140625,175.38775634765625
1772547798991416000,3.498416015625,120.708984375,20.90118408203125,175.4798126220703
1772547799001525800,3.50852587890625,120.42416381835938,20.985748291015625,175.08773803710938
1772547799011634000,3.518634033203125,120.37010192871094,21.090072631835938,175.3151092529297
1772547799021743900,3.528743896484375,120.34555053710938,20.98248291015625,175.33287048339844
1772547799031853800,3.538853759765625,120.2374267578125,21.02783203125,175.17605590820312
1772547799041963800,3.5489638671875,120.30398559570312,20.942672729492188,175.22811889648438
1772547799052075000,3.559074951171875,120.31939697265625,20.858917236328125,175.2316436767578
1772547799062185700,3.569185791015625,120.1824951171875,20.85369873046875,175.32225036621094
1772547799072296000,3.5792958984375,119.76652526855469,20.62451171875,175.08819580078125
1772547799082407000,3.589406982421875,120.13569641113281,20.607315063476562,175.22805786132812
1772547799092518000,3.599517822265625,120.30586242675781,20.625320434570312,175.28976440429688
1772547799102628400,3.60962841796875,120.17758178710938,20.630935668945312,175.2695770263672
1772547799112737300,3.6197373046875,120.18370056152344,20.908355712890625,175.22024536132812
1772547799122847000,3.629846923828125,120.17997741699219,21.011810302734375,175.23382568359375
1772547799132957200,3.639957275390625,120.25816345214844,21.12322998046875,175.38720703125
1772547799143067100,3.650067138671875,120.43008422851562,21.0699462890625,175.22476196289062
1772547799153178000,3.66017822265625,120.31935119628906,20.9249267578125,175.2220458984375
1772547799163289000,3.6702890625,119.99847412109375,20.98919677734375,175.31396484375
1772547799173399300,3.6803994140625,120.389404296875,20.864913940429688,175.3476104736328
1772547799183509000,3.690509033203125,120.46949768066406,21.087326049804688,175.591796875
1772547799193619000,3.700618896484375,120.21467590332031,20.753372192382812,175.3574676513672
1772547799203728100,3.71072802734375,120.11466979980469,20.770599365234375,175.51614379882812
1772547799213839000,3.720839111328125,120.23358154296875,20.96539306640625,175.3088836669922
1772547799223948300,3.7309482421875,120.18794250488281,20.993988037109375,175.31455993652344
1772547799234057200,3.74105712890625,120.11122131347656,20.776336669921875,175.3556365966797
1772547799244166100,3.751166259765625,119.96473693847656,20.721206665039062,175.56069946289062
1772547799254276000,3.761276123046875,119.97346496582031,20.8453369140625,175.34754943847656
1772547799264384000,3.771384033203125,120.18875122070312,20.861358642578125,175.5331268310547
1772547799274493200,3.7814931640625,120.10853576660156,20.816085815429688,175.35922241210938
1772547799284602000,3.79160205078125,119.8529052734375,20.741058349609375,175.5192413330078
1772547799294711000,3.8017109375,120.17926025390625,20.776214599609375,175.4546356201172
1772547799304821000,3.811821044921875,119.98492431640625,20.69293212890625,175.2820587158203
1772547799314931200,3.82193115234375,120.12873840332031,20.805908203125,175.41513061523438
1772547799325041200,3.832041259765625,120.27732849121094,20.73779296875,175.65463256835938
1772547799335152000,3.842152099609375,120.06982421875,20.57696533203125,175.3411865234375
1772547799345262000,3.852261962890625,119.98332214355469,20.453781127929688,175.32257080078125
1772547799355372300,3.862372314453125,119.82194519042969,20.454315185546875,175.18209838867188
1772547799365481200,3.872481201171875,119.95698547363281,20.642501831054688,175.3658905029297
1772547799375590100,3.882590087890625,120.02877807617188,20.441253662109375,175.3878173828125
1772547799385700400,3.892700439453125,120.05746459960938,20.806716918945312,175.259521484375
1772547799395810000,3.90281005859375,119.63655090332031,20.75579833984375,175.23126220703125
1772547799405919000,3.9129189453125,120.0252685546875,20.772811889648438,175.20619201660156
1772547799416029200,3.923029296875,120.02301025390625,20.5843505859375,175.42071533203125
1772547799426139100,3.93313916015625,119.7518310546875,20.638229370117188,175.4532470703125
1772547799436250000,3.94325,119.88383483886719,21.017059326171875,175.19287109375
1772547799446361000,3.953361083984375,119.54542541503906,20.613235473632812,175.38479614257812
1772547799456472000,3.96347216796875,119.65475463867188,20.36785888671875,175.43869018554688
1772547799466583000,3.9735830078125,120.166259765625,20.648880004882812,175.56869506835938
1772547799476694000,3.983694091796875,120.19192504882812,20.593597412109375,175.5012969970703
1772547799486804200,3.99380419921875,119.87080383300781,20.581253051757812,175.49717712402344
1772547799496914200,4.0039140625,119.52932739257812,20.450592041015625,175.7080078125
1772547799507025200,4.014025146484375,119.67169189453125,20.390899658203125,175.6024627685547
1772547799517135000,4.024135009765625,119.79020690917969,20.70269775390625,175.7462615966797
1772547799527245000,4.0342451171875,119.90499877929688,20.548873901367188,175.6560821533203
1772547799537355300,4.044355224609375,119.62548828125,20.547958374023438,175.52853393554688
1772547799547464200,4.054464111328125,120.02342224121094,20.579391479492188,175.65821838378906
1772547799557574100,4.06457421875,120.103271484375,20.570465087890625,175.5975341796875
1772547799567684000,4.07468408203125,119.71769714355469,20.625091552734375,175.61126708984375
1772547799577793000,4.08479296875,119.68714904785156,20.509414672851562,175.7137451171875
1772547799587902000,4.09490185546875,119.69619750976562,20.92803955078125,175.55502319335938
1772547799598011100,4.10501123046875,119.62364196777344,20.580169677734375,175.59056091308594
1772547799608122000,4.1151220703125,120.11738586425781,20.457626342773438,175.80850219726562
1772547799618232300,4.125232421875,119.90092468261719,20.753768920898438,175.4863739013672
1772547799628342300,4.13534228515625,120.0074462890625,20.90533447265625,175.46214294433594
1772547799638452000,4.145451904296875,119.7122802734375,20.4735107421875,175.5754852294922
1772547799648561200,4.15556103515625,119.71797180175781,20.448989868164062,175.7814178466797
1772547799658671000,4.165671142578125,120.10066223144531,20.635238647460938,175.90704345703125
1772547799668780000,4.175780029296875,119.66122436523438,20.7646484375,175.6532440185547
1772547799678890200,4.18589013671875,119.83154296875,20.769195556640625,175.79092407226562
1772547799689000200,4.196000244140625,119.92556762695312,20.696334838867188,175.5596923828125
1772547799699110100,4.206110107421875,119.89750671386719,20.6953125,175.5494384765625
1772547799709219300,4.21621923828125,120.1385498046875,20.703628540039062,175.54736328125
1772547799719328300,4.226328369140625,119.70924377441406,20.651214599609375,175.5628662109375
1772547799729438000,4.23643798828125,119.71560668945312,20.883010864257812,175.60064697265625
1772547799739548200,4.246548095703125,119.37905883789062,20.813064575195312,175.52001953125
1772547799749657000,4.256656982421875,119.69813537597656,20.945724487304688,175.52407836914062
1772547799759766000,4.26676611328125,119.81242370605469,20.670455932617188,175.4881591796875
1772547799769876200,4.276876220703125,119.82356262207031,20.729232788085938,175.43414306640625
1772547799779986200,4.286986083984375,119.69554138183594,21.029754638671875,175.37510681152344
1772547799790095000,4.29709521484375,119.60542297363281,20.854629516601562,175.31954956054688
1772547799800204000,4.3072041015625,119.95602416992188,20.814041137695312,175.60438537597656
1772547799810313200,4.317313232421875,120.02845764160156,21.044158935546875,175.34324645996094
1772547799820421000,4.327421142578125,120.14628601074219,21.242111206054688,175.31954956054688
1772547799830531000,4.337531005859375,120.01097106933594,21.082443237304688,175.3911895751953
1772547799840641000,4.34764111328125,119.95310974121094,21.00848388671875,175.35403442382812
1772547799850751200,4.357751220703125,119.87257385253906,21.242355346679688,175.5004119873047
1772547799860861200,4.367861083984375,119.80319213867188,21.390655517578125,175.4445037841797
1772547799870970400,4.377970458984375,119.71043395996094,21.290023803710938,175.3202362060547
1772547799881080000,4.388080078125,119.722900390625,21.42041015625,175.32284545898438
1772547799891189000,4.39818896484375,120.11355590820312,21.240432739257812,175.4016571044922
1772547799901298000,4.4082978515625,120.13612365722656,21.587020874023438,175.32505798339844
1772547799911406000,4.418406005859375,120.11662292480469,21.626754760742188,175.3002166748047
1772547799921514000,4.428513916015625,120.03912353515625,21.658645629882812,175.24436950683594
1772547799931623200,4.438623046875,120.18447875976562,21.682937622070312,175.3029327392578
1772547799941733000,4.448733154296875,120.48786926269531,21.647491455078125,175.48941040039062
1772547799951843000,4.458843017578125,120.22816467285156,21.695449829101562,175.20504760742188
1772547799961953300,4.468953369140625,120.14442443847656,21.698699951171875,175.26197814941406
1772547799972063000,4.47906298828125,120.22004699707031,21.691726684570312,175.2100067138672
1772547799982172000,4.489171875,119.87861633300781,21.97174072265625,175.05775451660156
1772547799992283100,4.499283203125,120.39715576171875,22.083267211914062,175.11038208007812
1772547800002392000,4.50939208984375,120.23597717285156,22.050613403320312,174.84495544433594
1772547800012502300,4.519502197265625,120.35243225097656,21.959320068359375,174.82566833496094
1772547800022611200,4.529611083984375,120.45562744140625,22.020919799804688,174.6819610595703
1772547800032721200,4.53972119140625,120.57356262207031,22.084548950195312,174.5752410888672
1772547800042830300,4.549830322265625,120.42459106445312,22.251785278320312,174.4706268310547
1772547800052940000,4.55993994140625,120.62602233886719,22.299301147460938,174.33908081054688
1772547800063049000,4.570049072265625,120.57623291015625,22.195236206054688,174.1101837158203
1772547800073159200,4.5801591796875,120.45240783691406,22.124221801757812,174.14984130859375
1772547800083267300,4.590267333984375,120.94328308105469,22.064743041992188,174.01693725585938
1772547800093377000,4.600376953125,120.92738342285156,22.350448608398438,173.8846435546875
1772547800103486500,4.610486572265625,120.94233703613281,22.199249267578125,173.80465698242188
1772547800113595400,4.620595458984375,120.77081298828125,22.286758422851562,173.7742919921875
1772547800123704300,4.630704345703125,120.98129272460938,22.379653930664062,173.74929809570312
1772547800133814500,4.640814453125,121.10302734375,22.45562744140625,174.16140747070312
1772547800143923500,4.65092333984375,120.88882446289062,22.568328857421875,173.6814727783203
1772547800154034700,4.66103466796875,120.57722473144531,22.288238525390625,173.8849639892578
1772547800164144600,4.67114453125,120.85037231445312,22.46026611328125,173.956787109375
1772547800174255600,4.681255615234375,120.61814880371094,22.22406005859375,174.28085327148438
1772547800184366600,4.69136669921875,120.63639831542969,22.483673095703125,174.31512451171875
1772547800194476500,4.7014765625,120.27595520019531,22.479446411132812,174.3177032470703
1772547800204585500,4.71158544921875,120.4146728515625,22.771163940429688,174.31324768066406
1772547800214693600,4.721693603515625,120.24565124511719,22.624832153320312,174.3780517578125
1772547800224802600,4.731802490234375,120.48881530761719,22.671356201171875,174.4755401611328
1772547800234912500,4.74191259765625,120.26765441894531,22.671356201171875,174.47666931152344
1772547800245021700,4.752021728515625,120.69767761230469,22.887481689453125,174.36776733398438
1772547800255130600,4.762130615234375,120.20965576171875,22.787551879882812,174.33485412597656
1772547800265239600,4.772239501953125,120.46197509765625,22.643707275390625,174.2960205078125
1772547800275348500,4.782348388671875,120.90861511230469,22.767898559570312,174.31790161132812
1772547800285458700,4.792458740234375,120.340576171875,22.673019409179688,174.07321166992188
1772547800295567600,4.802567626953125,120.58560180664062,22.417160034179688,174.11688232421875
1772547800305676500,4.812676513671875,120.75234985351562,22.475631713867188,173.9602813720703
1772547800315784400,4.822784423828125,120.46195983886719,22.35333251953125,173.95692443847656
1772547800325894700,4.832894775390625,120.62852478027344,22.420501708984375,174.00074768066406
1772547800336004600,4.843004638671875,120.60711669921875,22.525619506835938,173.89593505859375
1772547800346113500,4.853113525390625,120.50389099121094,22.470321655273438,173.85362243652344
1772547800356223500,4.863223388671875,120.54177856445312,22.221343994140625,173.80609130859375
1772547800366331600,4.87333154296875,120.47994995117188,22.073944091796875,173.8104705810547
1772547800376441600,4.883441650390625,120.61257934570312,22.199844360351562,173.63058471679688
1772547800386551600,4.893551513671875,120.30728149414062,22.136871337890625,173.63790893554688
1772547800396661500,4.90366162109375,120.53038024902344,21.893600463867188,173.77780151367188
1772547800406771500,4.913771484375,120.40614318847656,22.089004516601562,173.4752960205078
1772547800416881700,4.923881591796875,120.57716369628906,22.007492065429688,173.8020782470703
1772547800426990600,4.933990478515625,120.14846801757812,21.665878295898438,173.6900177001953
1772547800437100300,4.944100341796875,120.37158203125,22.003173828125,173.46922302246094
1772547800447208400,4.95420849609375,120.21492004394531,21.766326904296875,173.6417236328125
1772547800457318700,4.964318603515625,120.1666259765625,21.846725463867188,173.68626403808594
1772547800467428400,4.974428466796875,120.44615173339844,21.677688598632812,173.80245971679688
1772547800477537300,4.984537353515625,119.919677734375,21.746856689453125,173.64630126953125
1772547800487646500,4.994646484375,119.80014038085938,21.850509643554688,173.6343994140625
1772547800497754600,5.004754638671875,119.68235778808594,21.75799560546875,173.5262908935547
1772547800507863600,5.014863525390625,119.9171142578125,21.84503173828125,173.75865173339844
1772547800517972500,5.024972412109375,119.92242431640625,21.558059692382812,173.79049682617188
1772547800528080400,5.035080322265625,119.4617919921875,21.430862426757812,173.809326171875
1772547800538189300,5.045189208984375,119.15383911132812,21.519744873046875,173.8111572265625
1772547800548297500,5.05529736328125,119.40019226074219,21.581192016601562,173.64749145507812
1772547800558406700,5.06540673828125,119.68785095214844,21.2947998046875,173.93434143066406
1772547800568516600,5.0755166015625,119.34042358398438,21.256362915039062,173.6647186279297
1772547800578624500,5.08562451171875,119.06942749023438,21.328643798828125,173.54086303710938
1772547800588733400,5.0957333984375,119.24363708496094,21.284774780273438,173.63006591796875
1772547800598843600,5.10584375,118.8994140625,20.802154541015625,173.80032348632812
1772547800608952600,5.11595263671875,119.34611511230469,20.796478271484375,173.75535583496094
1772547800619061500,5.1260615234375,118.9296875,20.712173461914062,173.6948699951172
1772547800629171700,5.136171630859375,118.88296508789062,20.833297729492188,173.57469177246094
1772547800639279600,5.146279541015625,118.72601318359375,20.68695068359375,173.5814971923828
1772547800649388500,5.156388427734375,118.75405883789062,20.652206420898438,173.63796997070312
1772547800659496400,5.166496337890625,118.83711242675781,20.557830810546875,173.75982666015625
1772547800669604600,5.1766044921875,118.37266540527344,20.645614624023438,173.6997528076172
1772547800679713500,5.186713623046875,118.40664672851562,20.402572631835938,173.68809509277344
1772547800689822500,5.196822509765625,117.9923095703125,20.36383056640625,173.94741821289062
1772547800699930400,5.206930419921875,117.95039367675781,20.42449951171875,173.9893035888672
1772547800710039600,5.21703955078125,117.40135192871094,20.189315795898438,174.1352081298828
1772547800720147700,5.227147705078125,117.79887390136719,20.327789306640625,174.3207244873047
1772547800730255600,5.237255615234375,117.43655395507812,20.263137817382812,174.48239135742188
1772547800740364500,5.247364501953125,117.20436096191406,20.423858642578125,174.63539123535156
1772547800750473500,5.257473388671875,117.17021179199219,20.146621704101562,175.14849853515625
1772547800760581400,5.267581298828125,117.03895568847656,20.160903930664062,175.07656860351562
1772547800770689500,5.277689453125,116.7977294921875,20.182571411132812,175.2837371826172
1772547800780797400,5.28779736328125,116.67214965820312,20.344039916992188,175.37432861328125
1772547800790906400,5.29790625,116.46726989746094,20.313934326171875,175.6498260498047
1772547800801015600,5.308015625,116.79640197753906,20.537872314453125,175.80331420898438
1772547800811124500,5.31812451171875,116.46821594238281,20.631500244140625,175.64569091796875
1772547800821233400,5.3282333984375,116.34669494628906,20.472244262695312,175.7423095703125
1772547800831341600,5.338341552734375,116.19256591796875,20.44976806640625,175.7744903564453
1772547800841451500,5.348451416015625,116.274169921875,20.444259643554688,175.89822387695312
1772547800851559400,5.358559326171875,116.30499267578125,20.429946899414062,176.06898498535156
1772547800861669600,5.368669677734375,116.12617492675781,20.17913818359375,176.0244903564453
1772547800871779300,5.378779296875,115.70014953613281,20.00762939453125,176.01893615722656
1772547800881889500,5.3888896484375,115.90504455566406,20.159683227539062,175.90509033203125
1772547800891999500,5.39899951171875,115.87176513671875,20.14642333984375,176.1607666015625
1772547800902109700,5.409109619140625,115.65335083007812,19.832717895507812,176.1646270751953
1772547800912218600,5.419218505859375,115.65521240234375,19.817169189453125,176.12161254882812
1772547800922328600,5.42932861328125,115.47543334960938,19.935623168945312,176.12074279785156
1772547800932438500,5.4394384765625,115.56211853027344,19.770233154296875,176.37086486816406
1772547800942548500,5.449548583984375,115.71571350097656,19.614166259765625,176.5607452392578
1772547800952658400,5.459658447265625,115.23031616210938,20.026565551757812,176.2442626953125
1772547800962768600,5.4697685546875,114.78001403808594,19.808807373046875,176.45892333984375
1772547800972878300,5.47987841796875,115.10237121582031,19.7525634765625,176.394287109375
1772547800982988500,5.489988525390625,114.92927551269531,19.647415161132812,176.4893341064453
1772547800993097500,5.500097412109375,114.80433654785156,19.508880615234375,176.62298583984375
1772547801003206400,5.510206298828125,114.72695922851562,19.569686889648438,176.40182495117188
1772547801013316400,5.52031640625,114.59722900390625,19.510498046875,176.59999084472656
1772547801023424500,5.530424560546875,114.30001831054688,19.435134887695312,176.43907165527344
1772547801033533700,5.54053369140625,114.20278930664062,19.194931030273438,176.7161102294922
1772547801043641600,5.5506416015625,114.25146484375,19.277740478515625,176.4945831298828
1772547801053749500,5.56074951171875,114.40150451660156,19.255203247070312,176.5833282470703
1772547801063859500,5.570859375,114.13954162597656,19.236953735351562,176.63970947265625
1772547801073969700,5.5809697265625,113.95779418945312,19.284637451171875,176.5951690673828
1772547801084078600,5.59107861328125,113.99932861328125,19.309585571289062,176.74473571777344
1772547801094187500,5.6011875,114.02053833007812,19.144073486328125,176.60426330566406
1772547801104299800,5.6112998046875,113.8101806640625,19.262954711914062,176.5203857421875
1772547801114409700,5.62140966796875,113.71611022949219,19.257659912109375,176.65408325195312
1772547801124516600,5.6315166015625,113.89993286132812,19.203765869140625,176.6044158935547
1772547801134625800,5.641625732421875,113.77870178222656,19.208358764648438,176.72654724121094
1772547801144734700,5.651734619140625,114.07664489746094,19.236404418945312,176.56610107421875
1772547801154844000,5.661843994140625,113.80293273925781,19.408370971679688,176.64227294921875
1772547801164952800,5.671952880859375,113.76911926269531,19.256790161132812,176.5675048828125
1772547801175062800,5.682062744140625,113.97804260253906,19.335708618164062,176.59237670898438
1772547801185171700,5.692171630859375,113.65252685546875,19.523712158203125,176.41639709472656
1772547801195281700,5.70228173828125,113.95216369628906,19.630279541015625,176.37094116210938
1772547801205391600,5.7123916015625,113.73306274414062,19.671066284179688,176.43017578125
1772547801215500800,5.722500732421875,113.6007080078125,19.679519653320312,176.34754943847656
1772547801225609700,5.732609619140625,113.79069519042969,19.399871826171875,176.494873046875
1772547801235720700,5.742720703125,113.122802734375,19.1064453125,176.23602294921875
1772547801245828600,5.75282861328125,113.20297241210938,19.378952026367188,176.20455932617188
1772547801255938800,5.762938720703125,113.2154541015625,19.146743774414062,176.28231811523438
1772547801266047700,5.7730478515625,112.93489074707031,19.194351196289062,176.2800750732422
1772547801276155600,5.78315576171875,113.14356994628906,19.0269775390625,176.69692993164062
1772547801286264600,5.7932646484375,112.53677368164062,18.939041137695312,176.64036560058594
1772547801296374800,5.803374755859375,112.61994934082031,18.998184204101562,176.71360778808594
1772547801306484700,5.813484619140625,112.40730285644531,18.615203857421875,177.038330078125
1772547801316592600,5.823592529296875,112.08990478515625,18.654449462890625,177.21697998046875
1772547801326702800,5.833702880859375,112.05230712890625,18.723968505859375,177.28488159179688
1772547801336812800,5.843812744140625,111.77297973632812,18.621917724609375,177.34942626953125
1772547801346921700,5.853921630859375,112.08621215820312,18.90692138671875,177.41273498535156
1772547801357032000,5.864031982421875,111.92485046386719,18.615463256835938,177.40562438964844
1772547801367141600,5.8741416015625,111.74713134765625,18.51690673828125,177.69442749023438
1772547801377250600,5.88425048828125,112.05108642578125,18.571670532226562,177.63482666015625
1772547801387359700,5.89435986328125,111.56883239746094,18.53057861328125,177.6645050048828
1772547801397469000,5.904468994140625,111.52949523925781,18.299102783203125,177.72714233398438
1772547801407577900,5.914577880859375,111.49693298339844,18.268508911132812,177.7279052734375
1772547801417686800,5.924686767578125,111.28529357910156,18.180938720703125,178.17015075683594
1772547801427795700,5.934795654296875,111.4422607421875,18.037429809570312,178.07574462890625
1772547801437904600,5.944904541015625,111.22080993652344,17.967559814453125,178.12762451171875
1772547801448012800,5.9550126953125,111.02047729492188,18.080291748046875,178.1719512939453
1772547801458121700,5.965121826171875,111.15696716308594,18.132614135742188,178.42263793945312
1772547801468230700,5.975230712890625,111.31996154785156,17.916229248046875,178.8709716796875
1772547801478338800,5.9853388671875,110.78709411621094,17.859115600585938,179.11087036132812
1772547801488445700,5.99544580078125,110.65794372558594,17.58599853515625,179.56874084472656
1772547801498552800,6.005552734375,110.794921875,17.601455688476562,180.00521850585938
1772547801508659700,6.01565966796875,110.22999572753906,17.496047973632812,180.46372985839844
1772547801518766600,6.0257666015625,110.16445922851562,17.2025146484375,180.727294921875
1772547801528874800,6.035874755859375,109.69595336914062,16.717025756835938,180.8197021484375
1772547801538984000,6.04598388671875,109.87068176269531,16.459579467773438,180.8776092529297
1772547801549092900,6.0560927734375,109.65338134765625,16.342147827148438,180.656494140625
1772547801559200800,6.06620068359375,109.5692138671875,16.172073364257812,180.95928955078125
1772547801569309700,6.076309814453125,109.36563110351562,15.703155517578125,180.9088592529297
1772547801579418600,6.086418701171875,109.05609130859375,15.566879272460938,181.10142517089844
1772547801589527600,6.096527587890625,108.87765502929688,15.256332397460938,181.2408905029297
1772547801599636700,6.10663671875,108.22799682617188,14.669036865234375,181.4561767578125
1772547801609745700,6.11674560546875,108.18666076660156,14.3916015625,181.73585510253906
1772547801619855600,6.126855712890625,107.89077758789062,13.9168701171875,181.8172149658203
1772547801629965800,6.1369658203125,107.81387329101562,13.771804809570312,181.53614807128906
1772547801640074800,6.14707470703125,107.45109558105469,13.424362182617188,181.11050415039062
1772547801650182700,6.1571826171875,107.24919128417969,13.107040405273438,180.8525390625
1772547801660291600,6.16729150390625,107.48167419433594,12.643539428710938,180.4341278076172
1772547801670400500,6.177400390625,106.91259765625,12.446701049804688,180.1052703857422
1772547801680509700,6.187509765625,107.03248596191406,12.237152099609375,179.7368927001953
1772547801690619600,6.19761962890625,107.23165893554688,12.332794189453125,179.5370330810547
1772547801700727800,6.207727783203125,106.87663269042969,12.36334228515625,179.56141662597656
1772547801710835700,6.217835693359375,107.67874145507812,12.28399658203125,180.281005859375
1772547801720944600,6.227944580078125,107.71871948242188,12.2723388671875,180.5462646484375
1772547801731052500,6.238052490234375,107.40187072753906,12.747665405273438,180.57888793945312
1772547801741160700,6.24816064453125,107.8231201171875,12.8831787109375,180.9861602783203
1772547801751268600,6.2582685546875,108.19218444824219,12.940170288085938,181.45550537109375
1772547801761376500,6.26837646484375,107.83399963378906,13.188812255859375,181.5700225830078
1772547801771484700,6.278484619140625,108.34660339355469,13.477401733398438,181.92047119140625
1772547801781592600,6.288592529296875,108.51286315917969,13.864776611328125,182.0572509765625
1772547801791700500,6.298700439453125,108.53193664550781,14.104278564453125,182.29913330078125
1772547801801809700,6.3088095703125,108.90773010253906,13.9720458984375,182.58090209960938
1772547801811916800,6.318916748046875,109.26275634765625,14.419158935546875,182.7623748779297
1772547801822024700,6.329024658203125,109.39979553222656,14.2364501953125,182.7322235107422
1772547801832132900,6.3391328125,109.76356506347656,14.519851684570312,182.70191955566406
1772547801842241800,6.34924169921875,109.90707397460938,14.330795288085938,182.9130859375
1772547801852349700,6.359349609375,109.8111572265625,14.452239990234375,182.92245483398438
1772547801862456800,6.369456787109375,110.28939819335938,14.577407836914062,183.30294799804688
1772547801872563700,6.379563720703125,110.09951782226562,14.500030517578125,183.55169677734375
1772547801882670600,6.389670654296875,110.51780700683594,14.411636352539062,183.75592041015625
1772547801892776700,6.399776611328125,110.64984130859375,14.3729248046875,184.39637756347656
1772547801902883800,6.4098837890625,110.39779663085938,14.410171508789062,184.4830322265625
1772547801912990700,6.41999072265625,110.52737426757812,13.974319458007812,184.98583984375
1772547801923097600,6.43009765625,110.26396179199219,13.475372314453125,185.241455078125
1772547801933204700,6.440204833984375,109.84593200683594,13.35968017578125,185.23440551757812
1772547801943311600,6.4503115234375,110.43096923828125,13.1231689453125,184.77789306640625
1772547801953418800,6.460418701171875,109.81117248535156,13.007034301757812,184.2045440673828
1772547801963526000,6.47052587890625,110.03250122070312,12.869644165039062,183.7486572265625
1772547801973632800,6.4806328125,109.58784484863281,12.5303955078125,183.34983825683594
1772547801983739600,6.49073974609375,109.35031127929688,12.123046875,183.04823303222656
1772547801993846500,6.500846435546875,109.32856750488281,12.024566650390625,182.82200622558594
1772547802003953700,6.51095361328125,109.43650817871094,12.2999267578125,182.9289093017578
1772547802014061600,6.5210615234375,109.64105224609375,12.612274169921875,183.1055145263672
1772547802024169700,6.531169677734375,109.96145629882812,12.623031616210938,183.47943115234375
1772547802034278700,6.541278564453125,110.06597900390625,12.646453857421875,183.8217315673828
1772547802044386600,6.551386474609375,110.04156494140625,12.931228637695312,183.833984375
1772547802054494700,6.56149462890625,110.01185607910156,13.1435546875,184.2903289794922
1772547802064602600,6.5716025390625,110.57545471191406,13.243637084960938,184.71630859375
1772547802074709800,6.581709716796875,110.714111328125,13.044082641601562,185.44775390625
1772547802084817700,6.591817626953125,110.83612060546875,13.34991455078125,186.0858917236328
1772547802094925600,6.601925537109375,110.71754455566406,13.58154296875,186.02098083496094
1772547802105030700,6.61203076171875,110.80303955078125,13.540130615234375,186.13465881347656
1772547802115137500,6.622137451171875,110.77653503417969,13.506927490234375,186.15087890625
1772547802125243400,6.632243408203125,110.92373657226562,13.6551513671875,185.8035125732422
1772547802135351300,6.642351318359375,110.57757568359375,13.59039306640625,185.69007873535156
1772547802145458400,6.65245849609375,110.81773376464844,13.742355346679688,185.57725524902344
1772547802155566300,6.66256640625,111.10549926757812,13.96466064453125,185.41455078125
1772547802165674500,6.672674560546875,111.29673767089844,13.804290771484375,185.1778564453125
1772547802175782400,6.682782470703125,111.2747802734375,13.847381591796875,185.47398376464844
1772547802185891300,6.692891357421875,111.23594665527344,14.057876586914062,185.3765411376953
1772547802195999500,6.70299951171875,111.37680053710938,14.353057861328125,185.35350036621094
1772547802206108700,6.713108642578125,111.36311340332031,13.960739135742188,185.6953887939453
1772547802216217600,6.723217529296875,111.83367919921875,14.31793212890625,185.79222106933594
1772547802226325500,6.733325439453125,112.257080078125,14.39666748046875,185.8830108642578
1772547802236434400,6.743434326171875,111.93403625488281,14.148452758789062,185.8158721923828
1772547802246541600,6.75354150390625,112.37442016601562,14.583343505859375,185.6522216796875
1772547802256649500,6.7636494140625,112.09700012207031,14.745437622070312,185.6099090576172
1772547802266759400,6.773759521484375,112.20643615722656,14.58135986328125,185.5247344970703
1772547802276868600,6.78386865234375,112.51626586914062,14.41534423828125,185.4604949951172
1772547802286976500,6.7939765625,112.35049438476562,14.870315551757812,185.24566650390625
1772547802297086500,6.80408642578125,112.61424255371094,14.512069702148438,185.33599853515625
1772547802307194400,6.8141943359375,112.72048950195312,14.607025146484375,185.28858947753906
1772547802317302500,6.824302490234375,112.99285888671875,14.620895385742188,185.0628662109375
1772547802327411500,6.834411376953125,112.63233947753906,14.602294921875,185.14918518066406
1772547802337519400,6.844519287109375,112.8809814453125,14.672348022460938,184.941650390625
1772547802347627500,6.85462744140625,113.29353332519531,14.449386596679688,185.09979248046875
1772547802357736400,6.864736328125,113.44692993164062,14.35565185546875,184.9571075439453
1772547802367844600,6.8748447265625,113.37335205078125,14.48480224609375,184.97007751464844
1772547802377952500,6.884952392578125,113.23483276367188,14.419830322265625,184.78305053710938
1772547802388061400,6.8950615234375,113.30525207519531,14.356307983398438,184.82766723632812
1772547802398169600,6.905169677734375,113.30645751953125,14.496337890625,184.80755615234375
1772547802408277500,6.915277587890625,113.39401245117188,14.44451904296875,184.76353454589844
1772547802418387500,6.925387451171875,113.47096252441406,14.1676025390625,185.0188751220703
1772547802428495400,6.935495361328125,113.80661010742188,14.13067626953125,185.0806121826172
1772547802438604300,6.945604248046875,113.6500244140625,13.838409423828125,185.0991973876953
1772547802448712400,6.95571240234375,113.96395874023438,14.027008056640625,185.36581420898438
1772547802458820600,6.965820556640625,113.30555725097656,14.06195068359375,185.22970581054688
1772547802468929500,6.975929443359375,113.62440490722656,13.921783447265625,185.4853057861328
1772547802479038500,6.98603857421875,114.08845520019531,13.769027709960938,185.66009521484375
1772547802489148400,6.9961484375,113.82206726074219,13.648056030273438,185.8002471923828
1772547802499258600,7.006258544921875,113.75434875488281,13.398941040039062,185.70298767089844
1772547802509368300,7.016368408203125,113.84996032714844,13.052993774414062,186.07110595703125
1772547802519478500,7.026478515625,113.37118530273438,12.860504150390625,185.901611328125
1772547802529589500,7.036589599609375,113.63627624511719,12.600845336914062,185.7854461669922
1772547802539699500,7.046699462890625,113.69013977050781,12.302261352539062,185.63406372070312
1772547802549808400,7.056808349609375,113.21896362304688,12.005706787109375,185.57501220703125
1772547802559919400,7.06691943359375,113.26953125,11.878524780273438,185.54881286621094
1772547802570029600,7.077029541015625,112.8155517578125,11.480880737304688,185.36032104492188
1772547802580138500,7.087138427734375,112.68116760253906,11.254791259765625,185.18795776367188
1772547802590248400,7.09724853515625,112.488525390625,11.051300048828125,184.8760528564453
1772547802600359400,7.107359375,111.89146423339844,10.498367309570312,184.6861114501953
1772547802610468400,7.11746826171875,112.132080078125,10.579742431640625,184.429443359375
1772547802620578600,7.12757861328125,111.84129333496094,10.168594360351562,183.8885498046875
1772547802630688500,7.1376884765625,111.39445495605469,9.768890380859375,183.7440948486328
1772547802640797400,7.14779736328125,111.47760009765625,9.85443115234375,183.36270141601562
1772547802650906600,7.15790673828125,111.41275024414062,9.667770385742188,182.98883056640625
1772547802661015600,7.168015625,111.49522399902344,9.355911254882812,182.992919921875
1772547802671126300,7.178126220703125,111.3212890625,9.670333862304688,182.57492065429688
1772547802681235500,7.1882353515625,111.46185302734375,9.519607543945312,182.6665496826172
1772547802691345400,7.198345458984375,111.86007690429688,9.781341552734375,182.439453125
1772547802701454300,7.208454345703125,112.0010986328125,9.91485595703125,182.53126525878906
1772547802711563300,7.218563232421875,112.42857360839844,9.996490478515625,182.4571990966797
1772547802721671700,7.228671630859375,112.10594177246094,10.073211669921875,182.3824462890625
1772547802731779600,7.238779541015625,112.48731994628906,10.111572265625,182.5070037841797
1772547802741889500,7.2488896484375,112.36595153808594,10.5220947265625,182.48959350585938
1772547802751997400,7.25899755859375,112.72190856933594,10.457489013671875,182.90234375
1772547802762107400,7.269107421875,112.97518920898438,10.689315795898438,183.01303100585938
1772547802772216600,7.279216552734375,113.05978393554688,11.16253662109375,182.90956115722656
1772547802782326500,7.289326416015625,113.19996643066406,11.401992797851562,183.11058044433594
1772547802792436500,7.2994365234375,113.58345031738281,11.668411254882812,183.70191955566406
1772547802802545700,7.309545654296875,113.36116027832031,11.788070678710938,184.45315551757812
1772547802812655400,7.3196552734375,114.00912475585938,11.977767944335938,184.70553588867188
1772547802822763500,7.329763427734375,113.95913696289062,12.380050659179688,184.61410522460938
1772547802832872400,7.33987255859375,113.89427185058594,12.162887573242188,184.59481811523438
1772547802842981600,7.349981689453125,114.042236328125,12.4578857421875,184.33932495117188
1772547802853089500,7.360089599609375,113.59378051757812,12.245040893554688,183.97216796875
1772547802863198500,7.370198486328125,113.95747375488281,12.57177734375,183.6754913330078
1772547802873306600,7.380306640625,113.76922607421875,12.665420532226562,183.4144287109375
1772547802883415600,7.39041552734375,113.82850646972656,12.676071166992188,183.34133911132812
1772547802893524500,7.4005244140625,114.34877014160156,12.790084838867188,183.3333740234375
1772547802903634400,7.410634521484375,114.06843566894531,12.860137939453125,183.12289428710938
1772547802913742600,7.42074267578125,113.92277526855469,13.211959838867188,183.07522583007812
1772547802923850500,7.4308505859375,114.27365112304688,13.285659790039062,183.3765869140625
1772547802933959400,7.44095947265625,114.24551391601562,13.531845092773438,183.4874267578125
1772547802944067600,7.451067626953125,114.75172424316406,13.820999145507812,183.7588348388672
1772547802954176500,7.461176513671875,114.46797180175781,13.886642456054688,183.878662109375
1772547802964286500,7.471286376953125,114.48904418945312,14.171981811523438,184.1871795654297
1772547802974395400,7.4813955078125,114.42498779296875,14.187042236328125,184.09640502929688
1772547802984504600,7.491504638671875,114.52459716796875,14.299530029296875,184.1613311767578
1772547802994613500,7.501613525390625,114.48770141601562,14.405441284179688,183.95542907714844
1772547803004722400,7.511722412109375,114.15467834472656,14.164627075195312,183.81100463867188
1772547803014830300,7.521830322265625,114.23527526855469,14.46417236328125,183.88795471191406
1772547803024939500,7.531939453125,114.27867126464844,14.121841430664062,184.03744506835938
1772547803035048400,7.54204833984375,114.48539733886719,13.974533081054688,183.997314453125
1772547803045158400,7.552158447265625,114.35240173339844,14.261810302734375,183.56947326660156
1772547803055266300,7.562266357421875,114.46080017089844,14.519317626953125,183.65841674804688
1772547803065375500,7.57237548828125,114.72218322753906,14.109298706054688,183.71377563476562
1772547803075483600,7.582483642578125,114.51788330078125,14.458358764648438,183.5650177001953
1772547803085592600,7.592592529296875,114.66156005859375,14.415069580078125,183.59375
1772547803095702500,7.60270263671875,114.88215637207031,14.354812622070312,183.79019165039062
1772547803105816000,7.612816162109375,114.70735168457031,14.482437133789062,183.7256622314453
1772547803115926000,7.622926025390625,114.333740234375,14.694366455078125,183.79481506347656
1772547803126036200,7.6330361328125,114.78280639648438,14.733169555664062,183.84329223632812
1772547803136146200,7.643146240234375,114.85002136230469,14.6072998046875,183.98170471191406
1772547803146255000,7.653255126953125,115.09321594238281,14.679519653320312,184.15621948242188
1772547803156363000,7.663363037109375,114.85183715820312,14.650283813476562,184.17324829101562
1772547803166471000,7.673470947265625,114.93696594238281,14.577804565429688,184.38961791992188
1772547803176580000,7.683580078125,115.20692443847656,14.596115112304688,184.74595642089844
1772547803186689000,7.69368896484375,115.0338134765625,14.582000732421875,184.4696044921875
1772547803196798200,7.703798095703125,114.91354370117188,14.509201049804688,184.4322967529297
1772547803206906000,7.713906005859375,114.89845275878906,14.400115966796875,184.4100341796875
1772547803217014000,7.724013916015625,114.63771057128906,14.497085571289062,184.45518493652344
1772547803227122200,7.7341220703125,115.08863830566406,14.32244873046875,184.48133850097656
1772547803237231000,7.744231201171875,114.94573974609375,14.612701416015625,184.17604064941406
1772547803247338000,7.754337890625,115.17156982421875,14.470230102539062,183.96376037597656
1772547803257446100,7.764446044921875,114.99853515625,14.253005981445312,183.97161865234375
1772547803267553000,7.774552978515625,114.878173828125,14.06695556640625,184.1234130859375
1772547803277661200,7.7846611328125,115.06787109375,14.156906127929688,183.98883056640625
1772547803287768000,7.79476806640625,114.94784545898438,13.904830932617188,183.94520568847656
1772547803297875200,7.804875244140625,115.01420593261719,14.193527221679688,184.01573181152344
1772547803307983000,7.814983154296875,115.24891662597656,14.270034790039062,183.9557647705078
1772547803318091300,7.82509130859375,115.41835021972656,13.998748779296875,184.31214904785156
1772547803328199200,7.83519921875,115.37973022460938,14.060012817382812,184.1937255859375
1772547803338307000,7.84530712890625,115.36805725097656,14.3758544921875,184.2058868408203
1772547803348415200,7.855415283203125,115.41947937011719,14.162017822265625,184.2198028564453
1772547803358523100,7.865523193359375,115.43109130859375,14.23699951171875,184.24774169921875
1772547803368630300,7.87563037109375,115.78547668457031,14.3909912109375,184.3344268798828
1772547803378738200,7.88573828125,115.38475036621094,14.282485961914062,184.33212280273438
1772547803388846000,7.89584619140625,115.76019287109375,14.2467041015625,184.2975311279297
1772547803398955000,7.905955078125,115.42778015136719,14.119384765625,184.3295135498047
1772547803409064000,7.91606396484375,115.63618469238281,14.123443603515625,184.41842651367188
1772547803419172000,7.926172119140625,115.39756774902344,14.460220336914062,184.4130096435547
1772547803429281000,7.936281005859375,115.53155517578125,14.217803955078125,184.4435272216797
1772547803439390200,7.94639013671875,115.48001098632812,13.997146606445312,184.35922241210938
1772547803449499100,7.9564990234375,115.52752685546875,14.056594848632812,184.33009338378906
1772547803459607000,7.96660693359375,115.68531799316406,14.208816528320312,184.24107360839844
1772547803469715200,7.976715087890625,115.51762390136719,14.217849731445312,184.29090881347656
1772547803479823000,7.986822998046875,115.44119262695312,13.99456787109375,184.15061950683594
1772547803489931000,7.996930908203125,115.63569641113281,14.06121826171875,184.19580078125
1772547803500039200,8.0070390625,115.56231689453125,14.094635009765625,184.18348693847656
1772547803510147000,8.01714697265625,115.55941772460938,14.290390014648438,184.22213745117188
1772547803520255000,8.0272548828125,115.4993896484375,14.243698120117188,184.1664581298828
1772547803530364200,8.0373642578125,115.61260986328125,14.094528198242188,184.3350830078125
1772547803540472000,8.04747216796875,115.41055297851562,14.542160034179688,184.02566528320312
1772547803550580000,8.057580078125,115.83700561523438,14.206268310546875,184.2434539794922
1772547803560688000,8.067688232421874,116.09101867675781,14.261627197265625,184.48141479492188
1772547803570797300,8.07779736328125,115.76625061035156,14.530914306640625,184.2122039794922
1772547803580905200,8.0879052734375,115.59037780761719,14.638641357421875,184.21664428710938
1772547803591015200,8.09801513671875,115.67919921875,14.778640747070312,184.23194885253906
1772547803601123000,8.108123046875,115.84634399414062,14.890823364257812,184.1325225830078
1772547803611231000,8.11823095703125,116.08290100097656,14.430862426757812,184.32992553710938
1772547803621338000,8.128338134765626,116.01852416992188,14.752761840820312,184.23800659179688
1772547803631445200,8.1384453125,115.93064880371094,14.9410400390625,184.05128479003906
1772547803641553200,8.14855322265625,115.99844360351562,14.766799926757812,183.9841766357422
1772547803651660300,8.158660400390625,116.06207275390625,15.173553466796875,184.19039916992188
1772547803661767000,8.168766845703125,116.00163269042969,15.017669677734375,184.07667541503906
1772547803671876000,8.1788759765625,115.955078125,14.977767944335938,184.1273193359375
1772547803681984300,8.188984375,116.03475952148438,15.164215087890625,184.13876342773438
1772547803692092200,8.199092041015625,115.76495361328125,15.294342041015625,184.14430236816406
1772547803702200000,8.209199951171875,116.04002380371094,15.418716430664062,184.1739959716797
1772547803712309200,8.219309326171874,115.69589233398438,15.566787719726562,183.81825256347656
1772547803722418200,8.229418212890625,115.66230773925781,15.520782470703125,183.76171875
1772547803732526000,8.239526123046875,115.51467895507812,15.926345825195312,183.58399963378906
1772547803742635000,8.249635009765624,115.95773315429688,15.864288330078125,183.7051544189453
1772547803752744200,8.259744140625,115.63740539550781,16.097030639648438,183.7057647705078
1772547803762854100,8.269854248046874,115.85212707519531,16.141311645507812,183.56398010253906
1772547803772962000,8.279962158203125,115.7763671875,16.144699096679688,183.62619018554688
1772547803783072000,8.290072021484375,115.75758361816406,16.291656494140625,183.47499084472656
1772547803793181200,8.30018115234375,115.77207946777344,16.468353271484375,183.60333251953125
1772547803803289000,8.3102890625,115.69677734375,16.644241333007812,183.66891479492188
1772547803813399000,8.32039892578125,115.75086975097656,16.606201171875,183.60069274902344
1772547803823508000,8.330508056640625,115.68095397949219,16.948196411132812,183.438720703125
1772547803833616100,8.3406162109375,115.71311950683594,16.971466064453125,183.5691680908203
1772547803843723000,8.350722900390625,115.80087280273438,17.482147216796875,183.63345336914062
1772547803853832000,8.36083203125,116.12995910644531,17.641494750976562,183.3751983642578
1772547803863940000,8.370940185546875,115.95462036132812,17.551422119140625,183.49102783203125
1772547803874049300,8.38104931640625,116.10589599609375,17.634918212890625,183.46104431152344
1772547803884158200,8.391158203125,116.08406066894531,17.866943359375,183.1332550048828
1772547803894267100,8.40126708984375,116.18394470214844,17.849456787109375,183.38644409179688
1772547803904376000,8.4113759765625,115.77813720703125,18.368576049804688,182.98117065429688
1772547803914485000,8.421485107421875,116.04475402832031,18.715850830078125,182.88613891601562
1772547803924595200,8.43159521484375,116.36183166503906,18.45513916015625,182.92391967773438
1772547803934706000,8.441705810546875,116.03594970703125,18.872756958007812,182.6272430419922
1772547803944816000,8.451816162109376,116.80799865722656,18.868499755859375,182.6679229736328
1772547803954928000,8.46192822265625,116.87718200683594,19.326156616210938,182.3482208251953
1772547803965039000,8.4720390625,116.71434020996094,19.41827392578125,182.33297729492188
1772547803975149000,8.482149169921875,116.6611328125,19.4383544921875,182.21824645996094
1772547803985260000,8.492260009765625,117.03616333007812,19.67877197265625,182.00604248046875
1772547803995370200,8.502370361328126,117.01321411132812,19.65106201171875,181.748779296875
1772547804005481000,8.51248095703125,116.93252563476562,19.921157836914062,181.42713928222656
1772547804015592200,8.52259228515625,117.1365966796875,19.705230712890625,181.30108642578125
1772547804025703200,8.532703125,117.29095458984375,20.072479248046875,180.80703735351562
1772547804035813000,8.542813232421874,117.64813232421875,20.18084716796875,180.68621826171875
1772547804045923000,8.552923095703125,117.61296081542969,20.148406982421875,180.28424072265625
1772547804056031000,8.563031005859376,117.39543151855469,20.217453002929688,179.69622802734375
1772547804066139000,8.573138916015624,118.03353881835938,20.484481811523438,179.43809509277344
1772547804076248000,8.583248046875,118.06524658203125,20.411422729492188,179.13931274414062
1772547804086356200,8.593356201171876,118.10841369628906,20.785919189453125,178.83352661132812
1772547804096465200,8.603465087890624,118.45222473144531,20.822784423828125,178.49813842773438
1772547804106570800,8.61357080078125,118.4974365234375,20.845489501953125,178.2250518798828
1772547804116681000,8.623680908203125,118.56008911132812,21.022613525390625,178.11094665527344
1772547804126790000,8.633789794921874,118.80747985839844,21.124771118164062,178.09713745117188
1772547804136898800,8.64389892578125,118.57806396484375,21.051254272460938,177.9019775390625
1772547804147008000,8.654008056640626,118.44345092773438,21.158462524414062,177.95326232910156
1772547804157116000,8.664115966796874,118.67771911621094,20.931793212890625,178.06509399414062
1772547804167223800,8.674223876953125,118.79347229003906,21.047073364257812,178.1436004638672
1772547804177333000,8.6843330078125,119.03141784667969,21.1405029296875,178.4410400390625
1772547804187441000,8.69444091796875,118.51374816894531,21.126083374023438,178.31491088867188
1772547804197549800,8.7045498046875,118.38201904296875,21.330093383789062,178.45240783691406
1772547804207658800,8.71465869140625,118.57281494140625,21.109848022460938,178.6256103515625
1772547804217768000,8.724767822265624,118.59982299804688,21.26947021484375,178.8413848876953
1772547804227879000,8.73487890625,118.33436584472656,21.112686157226562,179.1399688720703
1772547804237987800,8.74498779296875,118.24951171875,21.023162841796875,179.11439514160156
1772547804248097000,8.755096923828125,118.33689880371094,20.905990600585938,179.50633239746094
1772547804258207700,8.765207763671874,118.0677490234375,20.911651611328125,179.65040588378906
1772547804268316700,8.775316650390625,117.9739990234375,21.0577392578125,179.66961669921875
1772547804278427000,8.785427001953124,118.00837707519531,20.711166381835938,179.8871307373047
1772547804288536800,8.795536865234375,117.45794677734375,20.59259033203125,180.096923828125
1772547804298644700,8.805644775390626,117.15216064453125,20.317886352539062,180.30792236328125
1772547804308753000,8.8157529296875,117.24334716796875,20.355026245117188,180.24658203125
1772547804318862800,8.82586279296875,116.96443176269531,20.021560668945312,180.5171661376953
1772547804328972800,8.835972900390624,116.558349609375,19.79644775390625,180.2124481201172
1772547804339081700,8.846081787109375,116.54396057128906,19.819076538085938,180.31814575195312
1772547804349191000,8.85619091796875,116.6495361328125,19.597381591796875,180.4473876953125
1772547804359299000,8.866299072265624,116.55101013183594,19.538162231445312,180.42623901367188
1772547804369408800,8.87640869140625,116.525146484375,19.407150268554688,180.69638061523438
1772547804379517700,8.886517578125,116.35813903808594,19.2139892578125,180.75917053222656
1772547804389624800,8.896624755859374,116.05360412597656,18.86749267578125,181.0607147216797
1772547804399732700,8.906732666015625,115.94511413574219,18.829742431640625,181.07687377929688
1772547804409841700,8.916841552734375,116.08868408203125,18.828628540039062,181.50941467285156
1772547804419951900,8.926951904296875,115.75518798828125,18.439666748046875,181.9381866455078
1772547804430061800,8.937061767578125,116.00566101074219,18.380096435546875,181.91497802734375
1772547804440172000,8.947172119140625,115.53233337402344,18.148788452148438,182.28024291992188
1772547804450280000,8.957280029296875,115.36773681640625,18.133453369140625,182.29718017578125
1772547804460386800,8.96738671875,115.45713806152344,17.638580322265625,182.6102294921875
1772547804470496000,8.97749609375,114.91889953613281,17.425811767578125,182.4949951171875
1772547804480605000,8.98760498046875,114.6798095703125,17.15301513671875,182.5991973876953
1772547804490712800,8.997712890625,114.63778686523438,16.929489135742188,182.47125244140625
1772547804500821000,9.007821044921876,114.78312683105469,16.829986572265625,182.51759338378906
1772547804510930000,9.017929931640625,114.86663818359375,16.541763305664062,182.78147888183594
1772547804521037800,9.028037841796875,114.9189453125,16.510894775390625,182.82469177246094
1772547804531145700,9.038145751953126,115.01576232910156,16.4576416015625,182.79217529296875
1772547804541254700,9.048254638671875,114.654541015625,16.120742797851562,183.03228759765625
1772547804551363800,9.05836376953125,114.44071960449219,16.074432373046875,182.95452880859375
1772547804561472000,9.068471923828126,114.5614013671875,15.589004516601562,183.23460388183594
1772547804571581000,9.078580810546875,114.1441650390625,15.487045288085938,182.9424591064453
1772547804581688800,9.088688720703125,114.00286865234375,15.017959594726562,182.91502380371094
1772547804591797800,9.0987978515625,113.85662841796875,15.1856689453125,182.478515625
1772547804601906700,9.10890673828125,113.35562133789062,14.883377075195312,182.47215270996094
1772547804612017000,9.119016845703126,113.43692016601562,14.46649169921875,182.46070861816406
1772547804622126800,9.129126953125,113.215087890625,14.467117309570312,182.45436096191406
1772547804632235800,9.13923583984375,112.91357421875,14.282363891601562,182.48207092285156
1772547804642345000,9.149344970703124,112.96382141113281,14.251007080078125,182.55186462402344
1772547804652455000,9.159454833984375,112.87757873535156,14.159957885742188,182.67156982421875
1772547804662563800,9.169563720703126,112.54074096679688,13.909194946289062,182.5513916015625
1772547804672671700,9.179671630859374,112.45393371582031,13.651565551757812,182.3780059814453
1772547804682780700,9.18978076171875,112.16487121582031,13.879959106445312,182.21778869628906
1772547804692888800,9.199888916015626,112.09452819824219,13.646499633789062,182.11228942871094
1772547804702996700,9.209996826171874,112.2001953125,13.750625610351562,182.04811096191406
1772547804713104600,9.220104736328125,111.47604370117188,13.674331665039062,182.00787353515625
1772547804723213000,9.230213134765625,111.39035034179688,13.278656005859375,182.3217315673828
1772547804733321000,9.240321044921876,111.16375732421875,13.350250244140625,182.13690185546875
1772547804743430000,9.250429931640625,111.53236389160156,12.960067749023438,182.42872619628906
1772547804753539800,9.260539794921876,110.92105102539062,12.781890869140625,182.1964569091797
1772547804763648800,9.270648681640624,110.67097473144531,12.576507568359375,181.9665069580078
1772547804773758000,9.280758056640625,110.77044677734375,12.061752319335938,181.6142578125
1772547804783867000,9.290866943359376,110.20509338378906,11.681610107421875,181.20726013183594
1772547804793975800,9.300975830078125,110.40547180175781,11.499679565429688,181.00152587890625
1772547804804084700,9.311084716796875,110.23805236816406,11.5281982421875,180.658447265625
1772547804814195000,9.32119482421875,109.97148132324219,11.012527465820312,180.737060546875
1772547804824305000,9.331304931640625,110.01240539550781,10.771759033203125,180.52804565429688
1772547804834415900,9.341415771484375,109.94476318359375,10.924362182617188,180.74746704101562
1772547804844525800,9.35152587890625,110.07817077636719,10.768966674804688,180.9158477783203
1772547804854636000,9.361635986328125,109.79696655273438,11.190582275390625,180.55580139160156
1772547804864745700,9.371745849609376,110.17759704589844,11.252777099609375,180.51744079589844
1772547804874855700,9.381855712890625,110.47463989257812,11.412429809570312,180.44064331054688
1772547804884966000,9.3919658203125,109.93659973144531,11.538604736328125,180.25698852539062
1772547804895075800,9.402075927734375,110.49618530273438,11.562026977539062,180.27691650390625
1772547804905184800,9.412184814453125,110.46647644042969,11.56640625,180.05221557617188
1772547804915292700,9.422292724609376,110.76724243164062,12.054412841796875,180.00218200683594
1772547804925401900,9.43240185546875,110.63301086425781,12.231948852539062,180.00514221191406
1772547804935510000,9.442510009765625,110.84906005859375,12.84014892578125,179.97314453125
1772547804945619000,9.452618896484376,111.80172729492188,13.107879638671875,179.9819793701172
1772547804955728000,9.462727783203125,111.89518737792969,13.417572021484375,179.975341796875
1772547804965836800,9.4728369140625,111.8779296875,14.089752197265625,179.7502899169922
1772547804975947000,9.482947021484375,112.20999145507812,14.018020629882812,179.9401092529297
1772547804986056700,9.493056640625,112.49900817871094,14.141998291015625,180.4615478515625
1772547804996165600,9.50316552734375,112.09260559082031,14.064743041992188,180.43374633789062
1772547805006274800,9.51327490234375,112.55250549316406,14.148162841796875,180.71298217773438
1772547805016384800,9.523384765625,112.56240844726562,14.48419189453125,180.85397338867188
1772547805026493700,9.53349365234375,112.48907470703125,14.664505004882812,181.2535858154297
1772547805036602600,9.5436025390625,112.53012084960938,14.94305419921875,181.6211700439453
1772547805046711800,9.5537119140625,112.55714416503906,15.20086669921875,181.78207397460938
1772547805056821800,9.56382177734375,112.615966796875,15.170791625976562,181.9869842529297
1772547805066933000,9.57393310546875,112.54574584960938,15.63824462890625,182.00274658203125
1772547805077043000,9.58404296875,112.62628173828125,15.6370849609375,181.94317626953125
1772547805087153000,9.59415283203125,112.63502502441406,15.754241943359375,182.08705139160156
1772547805097261800,9.60426171875,112.93460083007812,16.007980346679688,181.8988037109375
1772547805107370800,9.614370849609376,112.64665222167969,15.773117065429688,181.8570098876953
1772547805117480700,9.624480712890625,112.46281433105469,15.954132080078125,181.86546325683594
1772547805127590000,9.63458984375,112.86625671386719,16.213058471679688,181.8729248046875
1772547805137700900,9.644700927734375,112.82073974609375,15.9693603515625,182.0940704345703
1772547805147812900,9.654812744140624,113.00193786621094,16.770111083984375,181.7915496826172
1772547805157922800,9.6649228515625,113.24678039550781,16.730850219726562,181.87046813964844
1772547805168032800,9.67503271484375,113.18634033203125,16.640060424804688,181.7662811279297
1772547805178142000,9.685141845703125,113.50013732910156,16.657501220703125,181.82850646972656
1772547805188251600,9.695251708984374,113.19471740722656,16.923843383789062,181.3631591796875
1772547805198361900,9.70536181640625,113.16398620605469,17.206069946289062,181.15460205078125
1772547805208472800,9.715472900390624,113.81230163574219,17.323654174804688,180.8251495361328
1772547805218583800,9.725583740234375,113.73663330078125,17.659713745117188,180.53305053710938
1772547805228695000,9.735695068359375,114.50627136230469,17.98651123046875,180.20245361328125
1772547805238804700,9.7458046875,114.67430114746094,18.175064086914062,179.9754638671875
1772547805248913700,9.75591357421875,115.09872436523438,18.358856201171875,179.6814727783203
1772547805259024000,9.76602392578125,115.88215637207031,18.813812255859375,179.31690979003906
1772547805269132800,9.7761328125,115.88714599609375,19.034088134765625,179.4337921142578
1772547805279241000,9.786240966796875,116.25431823730469,19.44671630859375,179.2138671875
1772547805289350700,9.7963505859375,116.5521240234375,19.736602783203125,179.00372314453125
1772547805299460900,9.8064609375,116.03408813476562,19.475540161132812,178.9252166748047
1772547805309570800,9.81657080078125,116.3319091796875,19.747955322265625,178.72927856445312
1772547805319679700,9.8266796875,116.25546264648438,19.610031127929688,178.9311981201172
1772547805329789000,9.836788818359375,116.06111145019531,19.608978271484375,178.33438110351562
1772547805339900000,9.84689990234375,116.10200500488281,19.57928466796875,177.9376220703125
1772547805350009900,9.857009765625,116.13139343261719,19.50830078125,177.68980407714844
1772547805360119800,9.867119873046875,115.952392578125,19.513412475585938,177.36883544921875
1772547805370228700,9.877228759765625,116.2203369140625,19.65789794921875,176.92361450195312
1772547805380339000,9.8873388671875,116.18858337402344,19.321731567382812,176.75497436523438
1772547805390449000,9.897448974609375,116.19863891601562,19.5791015625,176.20249938964844
1772547805400558800,9.907558837890624,116.40835571289062,19.845901489257812,175.89830017089844
1772547805410667800,9.917667724609375,116.62689208984375,19.614654541015625,175.88430786132812
1772547805420777000,9.92777685546875,116.43128967285156,19.764938354492188,175.3626708984375
1772547805430884900,9.937884765625,116.70904541015625,19.71429443359375,175.47679138183594
1772547805440993800,9.947993896484375,116.803955078125,19.421920776367188,175.44400024414062
1772547805451102700,9.958102783203126,116.90309143066406,19.602310180664062,175.54676818847656
1772547805461213000,9.968212890625,116.75343322753906,19.564590454101562,175.8490447998047
1772547805471320800,9.97832080078125,116.47470092773438,19.507568359375,175.952880859375
1772547805481429800,9.9884296875,116.40238952636719,19.699356079101562,176.1731719970703
1772547805491538000,9.998537841796875,116.60336303710938,19.509628295898438,176.9769744873047
1772547805501645800,10.008645751953125,116.13578796386719,19.566314697265625,177.15602111816406
1772547805511753000,10.0187529296875,116.58209228515625,19.544479370117188,177.9613800048828
1772547805521860900,10.02886083984375,116.21182250976562,19.558822631835938,178.0442657470703
1772547805531968000,10.038968017578124,116.09077453613281,19.571945190429688,178.40866088867188
1772547805542076000,10.049075927734375,116.10971069335938,19.496688842773438,178.69190979003906
1772547805552183800,10.059183837890625,115.7479248046875,19.310440063476562,178.8915557861328
1772547805562292000,10.0692919921875,115.74606323242188,19.288330078125,178.85287475585938
1772547805572398800,10.07939892578125,115.34384155273438,19.092178344726562,178.8380126953125
1772547805582506000,10.089506103515625,115.06568908691406,18.7537841796875,178.90354919433594
1772547805592612900,10.09961279296875,114.99830627441406,18.457489013671875,178.6858673095703
1772547805602720800,10.109720703125,115.11264038085938,18.360336303710938,178.56118774414062
1772547805612827000,10.119826904296875,114.82664489746094,18.351654052734375,178.26039123535156
1772547805622933000,10.12993310546875,114.8111572265625,17.904983520507812,177.99310302734375
1772547805633041000,10.140041015625,114.6837158203125,18.0350341796875,177.85609436035156
1772547805643148800,10.150148681640625,114.90338134765625,17.684234619140625,177.85647583007812
1772547805653257700,10.1602578125,114.9150390625,17.664505004882812,178.0361785888672
1772547805663366000,10.170365966796876,115.07667541503906,17.316268920898438,178.11288452148438
1772547805673474800,10.180474853515625,114.97520446777344,17.392501831054688,178.28045654296875
1772547805683582700,10.190582763671875,114.93829345703125,17.76806640625,178.44972229003906
1772547805693691600,10.200691650390626,114.99400329589844,17.217056274414062,179.1329803466797
1772547805703800800,10.21080078125,114.12734985351562,16.838592529296875,179.3908233642578
1772547805713910800,10.220910888671876,114.12989807128906,16.35296630859375,179.3213653564453
1772547805724021000,10.23102099609375,113.55772399902344,15.990966796875,179.11932373046875
1772547805734129000,10.24112890625,113.38716125488281,15.562789916992188,178.7044677734375
1772547805744239900,10.251239990234374,113.28201293945312,14.930923461914062,178.42236328125
1772547805754348800,10.261348876953125,112.60423278808594,14.553695678710938,178.00857543945312
1772547805764456700,10.271456787109376,112.51457214355469,14.035568237304688,177.99000549316406
1772547805774566000,10.28156591796875,112.06277465820312,13.889923095703125,178.0119171142578
1772547805784674800,10.2916748046875,111.61643981933594,13.612655639648438,177.93125915527344
1772547805794784800,10.30178466796875,111.90084838867188,13.27899169921875,178.57766723632812
1772547805804892700,10.311892578125,111.28237915039062,13.422454833984375,178.27099609375
1772547805814999800,10.321999755859375,111.47955322265625,13.105255126953125,178.67156982421875
1772547805825107700,10.332107666015625,111.36387634277344,13.31842041015625,179.0395965576172
1772547805835216000,10.3422158203125,111.33187866210938,13.215484619140625,179.38900756835938
1772547805845323800,10.35232373046875,111.98800659179688,13.426254272460938,180.13882446289062
1772547805855432700,10.3624326171875,111.88262939453125,13.689498901367188,180.41500854492188
1772547805865542000,10.3725419921875,112.16923522949219,14.262115478515625,180.65573120117188
1772547805875650000,10.382650146484375,112.82157897949219,14.595367431640625,180.80809020996094
1772547805885759000,10.392759033203125,113.31474304199219,15.3516845703125,180.91403198242188
1772547805895868000,10.402867919921874,113.78866577148438,16.18035888671875,180.6454620361328
1772547805905975800,10.412975830078125,115.01690673828125,16.725143432617188,180.2269744873047
1772547805916083700,10.423083740234375,114.98687744140625,17.012252807617188,180.2073974609375
1772547805926190800,10.43319091796875,114.88369750976562,16.689712524414062,180.17066955566406
1772547805936299800,10.4432998046875,115.11863708496094,16.515213012695312,179.8665008544922
1772547805946407000,10.453406982421875,114.83822631835938,16.710769653320312,178.88284301757812
1772547805956515800,10.463515869140625,114.79144287109375,16.4140625,178.1759490966797
1772547805966622700,10.473622802734376,114.72109985351562,15.921524047851562,177.5093994140625
1772547805976729900,10.483729736328126,114.68301391601562,16.17364501953125,176.51087951660156
1772547805986838800,10.4938388671875,115.05442810058594,16.056838989257812,176.0140380859375
1772547805996947700,10.50394775390625,114.958251953125,15.9599609375,175.6877899169922
1772547806007056000,10.514055908203124,114.51206970214844,15.8818359375,175.62432861328125
1772547806017165000,10.5241650390625,114.80294799804688,15.701126098632812,175.51821899414062
1772547806027274000,10.53427392578125,114.27732849121094,15.873825073242188,175.78994750976562
1772547806037383700,10.5443837890625,114.26445007324219,15.677947998046875,176.2845001220703
1772547806047491800,10.554491943359375,113.64279174804688,15.7530517578125,176.3824920654297
1772547806057599700,10.564599853515626,113.5458984375,15.285537719726562,176.95074462890625
1772547806067710000,10.5747099609375,113.15672302246094,15.648956298828125,177.0872039794922
1772547806077820000,10.58481982421875,113.23403930664062,15.693756103515625,177.614013671875
1772547806087928800,10.5949287109375,112.930419921875,15.523361206054688,177.7917022705078
1772547806098038800,10.605038818359375,112.94230651855469,15.705780029296875,177.8742218017578
1772547806108147000,10.61514697265625,113.40126037597656,15.919021606445312,178.03982543945312
1772547806118256000,10.625256103515625,113.11634826660156,15.928359985351562,178.1608123779297
1772547806128365000,10.635364990234375,114.18417358398438,16.503143310546875,178.30093383789062
1772547806138474000,10.645473876953124,114.42172241210938,16.589981079101562,178.04078674316406
1772547806148582000,10.655581787109375,114.84489440917969,17.159530639648438,177.7367401123047
1772547806158690800,10.66569091796875,115.36405944824219,17.740966796875,177.35073852539062
1772547806168800000,10.675800048828124,115.45101928710938,17.956024169921875,177.45999145507812
1772547806178909200,10.6859091796875,115.11680603027344,17.29095458984375,177.74917602539062
1772547806189018000,10.69601806640625,114.61703491210938,16.941925048828125,177.644775390625
1772547806199127800,10.7061279296875,114.17292785644531,16.587295532226562,177.60134887695312
1772547806209237000,10.716237060546876,113.95600891113281,16.239181518554688,177.5528106689453
1772547806219346000,10.726345947265624,113.48176574707031,15.871902465820312,177.49752807617188
1772547806229455000,10.736455078125,113.57838439941406,15.379928588867188,177.53585815429688
1772547806239564000,10.74656396484375,113.17784118652344,15.405914306640625,177.3090057373047
1772547806249673000,10.7566728515625,113.37730407714844,15.546463012695312,177.37001037597656
1772547806259782100,10.7667822265625,113.16148376464844,15.6773681640625,177.6349334716797
1772547806269892000,10.77689208984375,113.67532348632812,15.886566162109375,177.98733520507812
1772547806280001000,10.7870009765625,113.46575927734375,15.956695556640625,178.13223266601562
1772547806290109000,10.79710888671875,113.79713439941406,16.312026977539062,178.05624389648438
1772547806300216800,10.807216796875,113.9693603515625,16.748245239257812,178.0689239501953
1772547806310325000,10.817324951171875,113.9051513671875,16.629898071289062,178.43511962890625
1772547806320434200,10.82743408203125,113.79287719726562,16.36181640625,178.81912231445312
1772547806330543000,10.837543212890624,113.37333679199219,16.066268920898438,178.5807647705078
1772547806340652000,10.847652099609375,113.28656005859375,15.581863403320312,178.3836669921875
1772547806350760000,10.857760009765625,112.7904052734375,15.229217529296875,178.29612731933594
1772547806360870100,10.8678701171875,112.94807434082031,14.962799072265625,178.2986602783203
1772547806370978000,10.87797802734375,112.75444030761719,15.130401611328125,178.11129760742188
1772547806381087000,10.8880869140625,112.59315490722656,14.759368896484375,178.4918670654297
1772547806391194000,10.898194091796874,112.45022583007812,14.924468994140625,178.73960876464844
1772547806401302000,10.908302001953125,112.45646667480469,14.685379028320312,178.90823364257812
1772547806411410200,10.91841015625,112.07928466796875,14.355911254882812,179.25595092773438
1772547806421518000,10.92851806640625,112.11502075195312,14.212310791015625,179.16680908203125
1772547806431626000,10.9386259765625,111.32789611816406,13.824966430664062,179.4971466064453
1772547806441735000,10.94873486328125,111.69773864746094,13.484207153320312,179.78778076171875
1772547806451843000,10.958843017578126,111.46900939941406,13.50921630859375,179.82376098632812
1772547806461951000,10.968950927734374,111.59587097167969,13.3135986328125,180.66448974609375
1772547806472059100,10.97905908203125,111.12422180175781,12.863128662109375,180.7122802734375
1772547806482167000,10.9891669921875,111.05189514160156,12.327239990234375,181.25096130371094
1772547806492275000,10.99927490234375,110.36419677734375,12.317230224609375,181.49864196777344
1772547806502383000,11.009383056640624,110.65695190429688,12.168182373046875,181.94940185546875
1772547806512491000,11.019490966796875,110.47621154785156,11.716537475585938,182.485595703125
1772547806522599000,11.029598876953125,110.31568908691406,11.273162841796875,182.99412536621094
1772547806532707800,11.039707763671874,110.07325744628906,11.431411743164062,183.35011291503906
1772547806542816000,11.04981591796875,110.17304992675781,11.046524047851562,183.7047576904297
1772547806552925200,11.05992529296875,110.23609924316406,10.661544799804688,184.20668029785156
1772547806563033000,11.070033203125,110.10154724121094,10.322952270507812,184.4521942138672
1772547806573142000,11.08014208984375,110.46243286132812,10.004074096679688,184.66612243652344
1772547806583251000,11.0902509765625,110.24649047851562,9.7974853515625,184.90077209472656
1772547806593360000,11.10035986328125,109.97894287109375,9.383712768554688,185.03842163085938
1772547806603468000,11.110468017578125,109.94425964355469,9.0595703125,185.36427307128906
1772547806613577000,11.120576904296875,109.60324096679688,8.87646484375,185.368408203125
1772547806623685000,11.13068505859375,109.72222900390625,8.628128051757812,185.61985778808594
1772547806633793000,11.14079296875,109.83259582519531,8.229415893554688,185.70266723632812
1772547806643902000,11.15090185546875,109.86302185058594,7.824981689453125,186.13157653808594
1772547806654010000,11.161010009765626,110.04879760742188,7.55389404296875,186.42880249023438
1772547806664119000,11.171119140625,110.06828308105469,7.206878662109375,186.47760009765625
1772547806674229000,11.18122900390625,110.01220703125,7.000579833984375,186.69259643554688
1772547806684337000,11.1913369140625,109.87834167480469,6.64630126953125,186.9384002685547
1772547806694446000,11.201446044921875,110.13925170898438,6.3276824951171875,187.35348510742188
1772547806704555000,11.211554931640626,110.08006286621094,6.0909576416015625,187.3958740234375
1772547806714663000,11.221662841796874,110.38954162597656,5.732208251953125,187.68588256835938
1772547806724771000,11.23177099609375,109.80317687988281,5.68218994140625,187.9169464111328
1772547806734879000,11.24187890625,110.41531372070312,5.1974029541015625,188.29376220703125
1772547806744988000,11.25198779296875,110.74391174316406,5.0814208984375,188.400146484375
1772547806755096000,11.262095947265625,110.44462585449219,4.889923095703125,188.35662841796875
1772547806765205000,11.272205078125,110.46354675292969,4.656036376953125,188.40049743652344
1772547806775314200,11.282314208984374,110.46490478515625,4.2251434326171875,188.79754638671875
1772547806785423000,11.292423095703125,110.91304016113281,4.132476806640625,188.81207275390625
1772547806795532000,11.302531982421876,111.12861633300781,3.8652496337890625,188.9365234375
1772547806805642000,11.31264208984375,111.14173889160156,3.5631866455078125,189.23313903808594
1772547806815752000,11.322751953125,110.89620971679688,3.4262542724609375,189.2760467529297
1772547806825860900,11.33286083984375,110.97860717773438,3.321380615234375,189.30267333984375
1772547806835970000,11.342969970703125,111.16200256347656,3.117706298828125,189.46148681640625
1772547806846079200,11.353079345703126,111.37472534179688,2.862579345703125,189.6124267578125
1772547806856188200,11.363188232421875,111.29537963867188,2.558868408203125,189.76927185058594
1772547806866297900,11.3732978515625,111.51434326171875,2.2811431884765625,189.7659149169922
1772547806876408000,11.383407958984375,111.67506408691406,2.0212249755859375,189.89553833007812
1772547806886517000,11.39351708984375,111.78062438964844,1.9383087158203125,190.0471954345703
1772547806896626000,11.4036259765625,112.00131225585938,1.5802459716796875,190.22804260253906
1772547806906735900,11.41373583984375,112.21414184570312,1.385498046875,190.4377899169922
1772547806916846000,11.42384619140625,112.26927185058594,1.2024078369140625,190.3712921142578
1772547806926955000,11.433955078125,112.2542724609375,1.106353759765625,190.43276977539062
1772547806937065200,11.444065185546876,112.76567077636719,0.96234130859375,190.8545684814453
1772547806947174100,11.454174072265625,113.0048828125,0.7164154052734375,190.75222778320312
1772547806957283000,11.464282958984375,112.97166442871094,0.43218994140625,190.9881591796875
1772547806967391000,11.474390869140626,113.14154052734375,0.408111572265625,190.93484497070312
1772547806977500000,11.4845,113.48469543457031,0.206939697265625,190.9967803955078
1772547806987608800,11.49460888671875,113.79818725585938,0.17486572265625,191.1536102294922
1772547806997719000,11.504718994140624,113.26998901367188,-0.1682586669921875,191.30628967285156
1772547807007830000,11.514830078125,113.39436340332031,-0.0818634033203125,191.2522735595703
1772547807017941000,11.52494091796875,113.80398559570312,-0.549346923828125,191.43060302734375
1772547807028051000,11.535051025390626,113.94761657714844,-0.7090911865234375,191.59706115722656
1772547807038160100,11.54516015625,114.06962585449219,-0.4873046875,191.427490234375
1772547807048270800,11.555270751953126,113.96214294433594,-0.7923583984375,191.4422607421875
1772547807058379800,11.5653798828125,114.2242431640625,-0.8881683349609375,191.4804229736328
1772547807068489000,11.575489013671875,114.4002685546875,-1.0118865966796875,191.58187866210938
1772547807078598100,11.58559814453125,114.467041015625,-1.042144775390625,192.01766967773438
1772547807088707800,11.595707763671875,114.17720031738281,-1.399017333984375,192.0021209716797
1772547807098817000,11.605817138671876,114.40274047851562,-1.47808837890625,191.91847229003906
1772547807108926700,11.6159267578125,114.62309265136719,-1.5490570068359375,192.18389892578125
1772547807119035600,11.62603564453125,114.41798400878906,-1.8918914794921875,192.0045928955078
1772547807129145900,11.636145751953125,114.90472412109375,-1.89697265625,192.4344024658203
1772547807139255800,11.646255859375,114.94631958007812,-1.9567413330078125,192.33592224121094
1772547807149366800,11.65636669921875,114.91871643066406,-2.1064605712890625,192.05029296875
1772547807159475700,11.666475830078125,114.92837524414062,-2.22344970703125,192.17025756835938
1772547807169585700,11.676585693359375,114.82688903808594,-2.339996337890625,192.29286193847656
1772547807179695900,11.68669580078125,114.98431396484375,-2.2674560546875,192.39662170410156
1772547807189804800,11.6968046875,114.80068969726562,-2.3565216064453125,192.31854248046875
1772547807199915500,11.70691552734375,114.82757568359375,-2.6189117431640625,192.45236206054688
1772547807210025000,11.71702490234375,114.96994018554688,-2.4001617431640625,192.56529235839844
1772547807220134000,11.7271337890625,115.09451293945312,-2.5208892822265625,192.47438049316406
1772547807230243600,11.73724365234375,114.94293212890625,-2.7519378662109375,192.54661560058594
1772547807240353800,11.747353759765625,115.05865478515625,-2.735748291015625,192.64266967773438
1772547807250462700,11.757462646484376,115.178955078125,-2.66668701171875,192.54666137695312
1772547807260574000,11.767573974609375,115.10441589355469,-3.074798583984375,193.0295867919922
1772547807270683000,11.777682861328126,115.08622741699219,-2.83660888671875,192.9752197265625
1772547807280792800,11.787792724609375,115.01182556152344,-3.066558837890625,192.89385986328125
1772547807290902800,11.79790283203125,114.93746948242188,-3.1455535888671875,193.02395629882812
1772547807301011700,11.80801171875,114.79559326171875,-2.954925537109375,192.851806640625
1772547807311120600,11.81812060546875,115.19769287109375,-2.7152099609375,193.08348083496094
1772547807321229800,11.828229736328124,115.15672302246094,-2.831298828125,192.9409942626953
1772547807331339800,11.83833984375,115.08168029785156,-3.32684326171875,192.9716339111328
1772547807341448700,11.84844873046875,114.87629699707031,-3.185516357421875,193.13909912109375
1772547807351557600,11.8585576171875,114.92652893066406,-3.2959136962890625,193.14450073242188
1772547807361665800,11.868665771484375,114.93414306640625,-3.21478271484375,193.25425720214844
1772547807371773700,11.878773681640626,114.990234375,-3.2725982666015625,193.3243408203125
1772547807381881600,11.888881591796874,115.20875549316406,-3.3425140380859375,193.1373748779297
1772547807391990800,11.89899072265625,114.77964782714844,-3.513031005859375,193.2429656982422
1772547807402098700,11.9090986328125,115.12875366210938,-3.555755615234375,193.23086547851562
1772547807412207900,11.919207763671874,115.11871337890625,-3.3626861572265625,193.5499267578125
1772547807422316800,11.92931689453125,115.08189392089844,-3.345245361328125,193.0713653564453
1772547807432425700,11.93942578125,114.96490478515625,-3.5207977294921875,193.20655822753906
1772547807442536700,11.94953662109375,115.12141418457031,-3.554962158203125,193.24082946777344
1772547807452646700,11.959646728515626,115.21487426757812,-3.662200927734375,193.1875
1772547807462756900,11.9697568359375,115.24842834472656,-3.51995849609375,193.22084045410156
1772547807472865800,11.97986572265625,115.01521301269531,-3.62335205078125,193.13565063476562
1772547807482975700,11.989975830078125,115.07154846191406,-3.6201934814453125,193.07373046875
1772547807493086000,12.0000859375,115.11946105957031,-3.4779205322265625,192.92929077148438
1772547807503196700,12.01019677734375,114.85337829589844,-3.679290771484375,192.93646240234375
1772547807513307000,12.020306884765626,114.94146728515625,-3.6213531494140625,193.12303161621094
1772547807523416800,12.030416748046875,115.19573974609375,-3.5171356201171875,192.7628173828125
1772547807533526800,12.04052685546875,114.47845458984375,-3.586822509765625,192.57180786132812
1772547807543637800,12.0506376953125,115.33448791503906,-3.453094482421875,192.62217712402344
1772547807553748700,12.060748779296874,115.25450134277344,-3.1336517333984375,192.49691772460938
1772547807563860700,12.07086083984375,115.1517333984375,-3.1374359130859375,192.36920166015625
1772547807573971700,12.0809716796875,114.89804077148438,-3.2281036376953125,192.34075927734375
1772547807584081700,12.09108154296875,114.71051025390625,-3.00250244140625,192.34521484375
1772547807594192000,12.10119189453125,114.76669311523438,-2.95147705078125,192.3606414794922
1772547807604302600,12.111302490234374,114.82679748535156,-3.017791748046875,192.28570556640625
1772547807614411800,12.121411865234375,114.86361694335938,-2.9085845947265625,192.05323791503906
1772547807624520700,12.131520751953126,114.626220703125,-2.7435302734375,191.722900390625
1772547807634629600,12.141629638671875,113.80885314941406,-2.626312255859375,191.7189178466797
1772547807644737800,12.15173779296875,113.92050170898438,-2.67327880859375,191.60855102539062
1772547807654847700,12.16184765625,114.35006713867188,-2.2103729248046875,191.3190155029297
1772547807664956000,12.171955810546875,114.10464477539062,-2.2683563232421875,191.43296813964844
1772547807675063800,12.182063720703125,113.785888671875,-2.093017578125,191.08358764648438
1772547807685173800,12.192173828125,113.87794494628906,-2.13433837890625,190.96502685546875
1772547807695281700,12.20228173828125,113.31741333007812,-1.8504180908203125,190.95851135253906
1772547807705389800,12.212389892578125,113.37753295898438,-1.6311187744140625,190.81553649902344
1772547807715496700,12.22249658203125,113.43043518066406,-1.5560150146484375,190.64659118652344
1772547807725604900,12.23260498046875,113.32940673828125,-1.6056365966796875,190.4313507080078
1772547807735712800,12.242712646484375,113.13482666015625,-1.1486968994140625,190.25106811523438
1772547807745821700,12.25282177734375,113.22590637207031,-0.7097625732421875,190.43399047851562
1772547807755929600,12.2629296875,112.74681091308594,-0.562164306640625,190.05311584472656
1772547807766037800,12.273037841796874,112.53515625,-0.6920318603515625,189.9694366455078
1772547807776146700,12.283146728515625,112.82049560546875,-0.4010009765625,190.0271453857422
1772547807786254600,12.293254638671876,112.35345458984375,-0.082427978515625,189.8884735107422
1772547807796362800,12.30336279296875,112.44482421875,0.152313232421875,189.91944885253906
1772547807806472000,12.313471923828125,112.09095764160156,0.4110870361328125,189.68763732910156
1772547807816580900,12.323580810546876,112.03741455078125,0.43438720703125,189.56979370117188
1772547807826689800,12.333689697265624,111.90142822265625,0.6679840087890625,189.6064453125
1772547807836799700,12.3437998046875,111.95896911621094,0.7866973876953125,189.45761108398438
1772547807846908000,12.353907958984376,111.52513122558594,1.1091461181640625,189.3594207763672
1772547807857016800,12.364016845703125,111.40776062011719,1.211669921875,189.37997436523438
1772547807867125800,12.374125732421875,111.40327453613281,1.4735107421875,189.23342895507812
1772547807877235700,12.384235595703124,111.2401123046875,1.6934356689453125,189.1698455810547
1772547807887345000,12.394344970703125,111.38340759277344,2.088958740234375,189.09356689453125
1772547807897453800,12.404453857421874,111.1956787109375,2.2559814453125,188.71202087402344
1772547807907563800,12.414563720703125,110.91539001464844,2.2469024658203125,188.9790496826172
1772547807917673000,12.4246728515625,110.4964599609375,2.652618408203125,188.54771423339844
1772547807927782700,12.43478271484375,110.89845275878906,2.85015869140625,188.7026824951172
1772547807937891800,12.444891845703125,110.6956787109375,2.7904205322265625,188.63084411621094
1772547807948000800,12.455000732421874,110.80392456054688,3.0178375244140625,188.55384826660156
1772547807958110700,12.46511083984375,110.64739990234375,3.354888916015625,188.5004119873047
1772547807968220700,12.475220703125,110.40261840820312,3.56097412109375,188.36163330078125
1772547807978329600,12.48532958984375,110.37159729003906,3.6928253173828125,188.4280548095703
1772547807988439800,12.495439697265626,110.32978820800781,3.946624755859375,188.1582489013672
1772547807998549800,12.5055498046875,110.07872009277344,4.061859130859375,188.2315673828125
1772547808008659700,12.51565966796875,110.07061767578125,4.6673736572265625,188.02188110351562
1772547808018768000,12.525767822265625,109.99276733398438,4.6100006103515625,188.1502685546875
1772547808028876800,12.535876708984375,109.76042175292969,4.997650146484375,188.06842041015625
1772547808038985700,12.54598583984375,110.00936889648438,4.915771484375,187.9950714111328
1772547808049093600,12.55609375,109.66950988769531,5.2509307861328125,187.81146240234375
1772547808059203800,12.566203857421876,109.98258972167969,5.5128021240234375,187.890380859375
1772547808069310700,12.576310791015626,109.74847412109375,5.89910888671875,187.87075805664062
1772547808079418600,12.586418701171874,110.00694274902344,6.072113037109375,188.00567626953125
1772547808089527800,12.59652783203125,109.60629272460938,6.1436920166015625,187.64695739746094
1772547808099635700,12.6066357421875,109.42221069335938,6.6862030029296875,187.6947021484375
1772547808109748500,12.61674853515625,109.39724731445312,6.8692779541015625,187.43714904785156
1772547808119857400,12.626857421875,109.26504516601562,6.946014404296875,187.5156707763672
1772547808129967400,12.63696728515625,109.27354431152344,7.206024169921875,187.4818115234375
1772547808140077300,12.647077392578124,109.11959838867188,7.5571746826171875,187.35369873046875
1772547808150187300,12.657187255859375,109.43629455566406,7.97796630859375,187.2924346923828
1772547808160297500,12.66729736328125,109.21173095703125,8.152084350585938,187.22149658203125
1772547808170406400,12.677406494140625,109.21531677246094,8.107345581054688,187.28076171875
1772547808180516400,12.687516357421876,109.23896789550781,8.513992309570312,186.9126434326172
1772547808190625500,12.69762548828125,109.211181640625,8.746109008789062,186.85679626464844
1772547808200737300,12.7077373046875,109.33976745605469,8.837417602539062,186.7095489501953
1772547808210848300,12.71784814453125,109.31002807617188,9.22418212890625,186.63800048828125
1772547808220958200,12.727958251953124,109.16401672363281,9.631500244140625,186.61618041992188
1772547808231068400,12.738068359375,109.02117919921875,9.679107666015625,186.318603515625
1772547808241177300,12.74817724609375,109.25198364257812,9.9307861328125,186.0921173095703
1772547808251287300,12.758287353515625,109.47247314453125,10.243606567382812,185.91506958007812
1772547808261397200,12.768397216796876,109.44645690917969,10.501235961914062,185.9170379638672
1772547808271508500,12.778508544921875,109.28334045410156,10.673187255859375,185.63124084472656
1772547808281617400,12.788617431640626,108.99581909179688,10.71990966796875,185.35714721679688
1772547808291726300,12.798726318359375,109.25387573242188,11.1591796875,185.14175415039062
1772547808301834200,12.808834228515625,109.48506164550781,11.407073974609375,184.942138671875
1772547808311944200,12.818944091796874,109.45433044433594,11.586380004882812,184.77879333496094
1772547808322053400,12.829053466796875,109.71795654296875,11.683837890625,184.49044799804688
1772547808332164400,12.839164306640624,109.7940673828125,12.000320434570312,184.31613159179688
1772547808342273300,12.849273193359375,109.73707580566406,12.287200927734375,184.1759490966797
1772547808352383500,12.859383544921876,109.96043395996094,12.343536376953125,183.9257354736328
1772547808362492400,12.869492431640625,110.22245788574219,12.81524658203125,183.99598693847656
1772547808372601300,12.879601318359375,110.15298461914062,13.037109375,183.67437744140625
1772547808382711300,12.889711181640624,110.50637817382812,13.0684814453125,183.26405334472656
1772547808392821200,12.8998212890625,110.44346618652344,13.40606689453125,182.9862823486328
1772547808402930200,12.90993017578125,110.33447265625,13.521041870117188,182.66075134277344
1772547808413040400,12.920040283203125,110.72100830078125,14.000808715820312,182.64695739746094
1772547808423148300,12.930148193359376,110.91580200195312,14.237213134765625,182.07318115234375
1772547808433257200,12.94025732421875,110.76313781738281,14.292266845703125,181.5844268798828
1772547808443366400,12.950366455078125,110.96929931640625,14.8350830078125,181.18443298339844
1772547808453475300,12.960475341796876,111.14427185058594,14.830291748046875,181.02340698242188
1772547808463584500,12.97058447265625,111.11819458007812,15.090194702148438,180.5289764404297
1772547808473693400,12.980693359375,111.66036987304688,15.225860595703125,180.24046325683594
1772547808483802400,12.99080224609375,111.81761169433594,15.520828247070312,179.86244201660156
1772547808493911300,13.000911376953125,111.8597412109375,15.758819580078125,179.57632446289062
1772547808504021500,13.011021484375,112.04365539550781,15.982833862304688,179.21165466308594
1772547808514130400,13.02113037109375,112.29736328125,16.327896118164062,178.70806884765625
1772547808524238300,13.03123828125,112.83058166503906,16.2171630859375,178.58692932128906
1772547808534347300,13.04134716796875,113.21078491210938,16.515716552734375,178.17022705078125
1772547808544457500,13.05145751953125,113.32818603515625,16.596572875976562,178.0775604248047
1772547808554567400,13.0615673828125,113.56773376464844,16.9898681640625,177.9827880859375
1772547808564676400,13.07167626953125,113.42158508300781,17.269866943359375,177.16465759277344
1772547808574784300,13.0817841796875,114.04148864746094,17.418746948242188,176.8808135986328
1772547808584892200,13.09189208984375,114.15818786621094,17.360733032226562,177.03758239746094
1772547808595002400,13.10200244140625,114.44972229003906,17.630401611328125,176.7562713623047
1772547808605110500,13.112110595703125,114.85325622558594,17.959503173828125,176.6982421875
