time,seconds_elapsed,z,y,x
1773150242127696100,0.357696044921875,-9.355630571830272,-2.8109792115062473,0.8607911924108862
1773150242137733000,0.367733154296875,-9.376098190319537,-2.7546842005714773,0.8190735728830099
1773150242147770000,0.37777001953125,-9.393124728444217,-2.708480960062146,0.7769996872633695
1773150242157807000,0.38780712890625,-9.406265949568152,-2.6747005632743237,0.7338427556473761
1773150242167844000,0.397843994140625,-9.416086501836777,-2.650881880791485,0.6931956148952245
1773150242177881300,0.40788134765625,-9.42247415704727,-2.6351056349888444,0.6660190002866089
1773150242187918000,0.41791796875,-9.425803009209035,-2.626244867663085,0.6537997893784194
1773150242197955000,0.427955078125,-9.427200601047277,-2.6213059499561786,0.6534783754043281
1773150242207992000,0.437991943359375,-9.427964571157098,-2.616055189821124,0.663413859289512
1773150242218029000,0.448029052734375,-9.429332352378964,-2.6080723743736742,0.6752998927205801
1773150242228066300,0.45806640625,-9.43208311239183,-2.5957331172823905,0.6843676538605242
1773150242238102300,0.468102294921875,-9.435498473793267,-2.5889032712623474,0.6628232729852199
1773150242248139300,0.47813916015625,-9.44094271067381,-2.583658064085245,0.6030717283884063
1773150242258176000,0.488176025390625,-9.444451011055707,-2.588539990907907,0.5217192869560793
1773150242268213000,0.498212890625,-9.44879342417419,-2.5925699770763515,0.411414891805686
1773150242278250200,0.508250244140625,-9.454176870778202,-2.590218445514142,0.2823069206544198
1773150242288287200,0.518287353515625,-9.459584867301583,-2.581514622315764,0.14972264256156048
1773150242298324200,0.52832421875,-9.46333808235526,-2.57200182082206,0.020590957174566573
1773150242308361000,0.53836083984375,-9.464750287240744,-2.5652117222905155,-0.09257603803244419
1773150242318398200,0.548398193359375,-9.463148697263001,-2.565779585306346,-0.18967207423998042
1773150242328435200,0.558435302734375,-9.460097492998838,-2.569075119720399,-0.2771089136199094
1773150242338472200,0.56847216796875,-9.457727841258048,-2.5693667961433526,-0.34659503096863625
1773150242348508200,0.578508056640625,-9.45546574154496,-2.5690871024191377,-0.4053927819719538
1773150242358545200,0.588545166015625,-9.451716033622622,-2.5729534224584696,-0.4640654087582603
1773150242368582100,0.59858203125,-9.446505020976065,-2.5850758219286796,-0.5013116184931248
1773150242378619100,0.608619140625,-9.439477314296365,-2.608007784704864,-0.5147326794717461
1773150242388656000,0.61865625,-9.429963636019826,-2.641154267503321,-0.5200698027160018
1773150242398693000,0.628693115234375,-9.418121222534776,-2.682683670982718,-0.5220979475427419
1773150242408730000,0.638730224609375,-9.40524420530498,-2.727064079979062,-0.5242951653260738
1773150242418767000,0.64876708984375,-9.39287922925055,-2.7690280754834413,-0.5260055129079148
1773150242428804000,0.65880419921875,-9.381490404751895,-2.808558706361055,-0.5196288905480876
1773150242438841000,0.668841064453125,-9.370920495420695,-2.8445696386799213,-0.5144520724320784
1773150242448878000,0.678878173828125,-9.36121100231111,-2.8750562546193597,-0.5216967828633263
1773150242458914000,0.6889140625,-9.351088836747408,-2.900293279467523,-0.5619784513039514
1773150242468951300,0.698951416015625,-9.342119348350167,-2.9191026093557477,-0.611580978862755
1773150242478988300,0.70898828125,-9.333009574699402,-2.941242544971406,-0.6437479125719517
1773150242489025000,0.71902490234375,-9.324752033963799,-2.961728575900197,-0.6689866909857839
1773150242499062000,0.72906201171875,-9.31801541918516,-2.9767236081972714,-0.6957678034707904
1773150242509099300,0.739099365234375,-9.313045229557156,-2.982342324861884,-0.7370271578371524
1773150242519136300,0.74913623046875,-9.309818084204196,-2.9804014199271798,-0.7841440060600638
1773150242529173200,0.75917333984375,-9.308832580298185,-2.97392959356457,-0.8196098717167973
1773150242539210200,0.769210205078125,-9.308921427625418,-2.965736642497778,-0.8478015816520899
1773150242549247200,0.779247314453125,-9.310068259572983,-2.9571792420327663,-0.8649324569340795
1773150242559284200,0.7892841796875,-9.311996012765169,-2.9481653299719093,-0.8748911024991423
1773150242569321200,0.7993212890625,-9.31415757471323,-2.9389333912461995,-0.8829097199123352
1773150242579357200,0.809357177734375,-9.315396176597476,-2.9336013825684786,-0.887557180391997
1773150242589394400,0.81939453125,-9.314899332991242,-2.934490440362692,-0.8898300206948071
1773150242599431200,0.82943115234375,-9.31329657396972,-2.938197185926139,-0.8943670796025543
1773150242609468200,0.83946826171875,-9.312135128974914,-2.9394679365143177,-0.902246580806002
1773150242619505200,0.849505126953125,-9.312263723790645,-2.9360981678202744,-0.911841434559971
1773150242629542100,0.859542236328125,-9.314058790513872,-2.928312920771539,-0.9185158708225936
1773150242639579400,0.869579345703125,-9.316534825238586,-2.92151288536787,-0.9150533092785627
1773150242649616100,0.8796162109375,-9.31840821789503,-2.9192887795776126,-0.9030007601741701
1773150242659653000,0.889653076171875,-9.318981633868813,-2.92298704957366,-0.884938449260965
1773150242669690000,0.899690185546875,-9.318618061253428,-2.9305124766424298,-0.8636186709217727
1773150242679727400,0.909727294921875,-9.318626244559884,-2.9371204966053366,-0.8407831542573869
1773150242689764400,0.919764404296875,-9.320033773270248,-2.9393589231818913,-0.8170216818545013
1773150242699800300,0.92980029296875,-9.322312239596247,-2.9381308426916597,-0.7951550102222711
1773150242709837300,0.93983740234375,-9.323458487021922,-2.9358947542026637,-0.7899523270126432
1773150242719874000,0.9498740234375,-9.324003845945,-2.934937307347357,-0.7870726799231023
1773150242729911300,0.959911376953125,-9.324669031855464,-2.938461097559333,-0.7657528285186738
1773150242739948300,0.9699482421875,-9.325127297016978,-2.94214007833302,-0.7457881180502474
1773150242749985300,0.9799853515625,-9.325733446216583,-2.9439246236622334,-0.7310194418549537
1773150242760022300,0.990022216796875,-9.326597369569539,-2.944036559604108,-0.7194588409859687
1773150242770059000,1.00005908203125,-9.326930547046661,-2.944951044100523,-0.7113485267013311
1773150242780096300,1.01009619140625,-9.326667512196302,-2.9467382197782395,-0.7073872218549251
1773150242790133200,1.02013330078125,-9.325921662265062,-2.949536618325114,-0.7055526268389075
1773150242800170200,1.030170166015625,-9.324967138019204,-2.953233427016437,-0.7026970912773162
1773150242810207200,1.040207275390625,-9.324126011019944,-2.9568890269145367,-0.6984719478629529
1773150242820244200,1.050244140625,-9.32346491676271,-2.960450811049342,-0.6921857072003186
1773150242830280200,1.0602802734375,-9.322857013997435,-2.964180645227432,-0.6843645851206034
1773150242840317200,1.070317138671875,-9.322070247533917,-2.9687156583085654,-0.6753633864108473
1773150242850354200,1.080354248046875,-9.321091757890581,-2.973955020266771,-0.6657538465443998
1773150242860391200,1.09039111328125,-9.320074105280638,-2.979143528820574,-0.6567403728749602
1773150242870428400,1.100428466796875,-9.318916167417168,-2.9846739826798436,-0.648000455449894
1773150242880465200,1.110465087890625,-9.317695685711502,-2.9903125730887052,-0.6394987306948751
1773150242890502100,1.120502197265625,-9.316384018591046,-2.996007277598977,-0.6319138285238295
1773150242900539100,1.1305390625,-9.315366950502991,-3.0004543201357126,-0.6257765678778291
1773150242910576000,1.140576171875,-9.315095732346176,-3.0024796884834766,-0.6200702459949999
1773150242920613400,1.15061328125,-9.315216143855451,-3.003418722899258,-0.6136886551991104
1773150242930650000,1.160650146484375,-9.31497882796824,-3.005488807171583,-0.6071159257452935
1773150242940687000,1.17068701171875,-9.313817967495321,-3.010470394976437,-0.6002059636937453
1773150242950724000,1.18072412109375,-9.31158217126727,-3.0187022167488933,-0.5935155992096289
1773150242960760000,1.190760009765625,-9.308993323817848,-3.027569998337328,-0.5889382082914933
1773150242970797300,1.20079736328125,-9.306706089663505,-3.035310237200558,-0.5852364311641082
1773150242980834300,1.210834228515625,-9.304904593199492,-3.0414655449599026,-0.5819152143195271
1773150242990871300,1.220871337890625,-9.303502325186132,-3.046279667243361,-0.5791427539315074
1773150243000908000,1.230907958984375,-9.302434403693676,-3.0501600158080455,-0.5758658146200701
1773150243010945300,1.2409453125,-9.301485140144825,-3.053837827537954,-0.5716978812856599
1773150243020982300,1.250982177734375,-9.30041254247725,-3.0578476477012035,-0.5676937967434526
1773150243031019300,1.261019287109375,-9.29918153937757,-3.061881141000986,-0.5661217981863766
1773150243041056300,1.27105615234375,-9.298100758403539,-3.064714026339352,-0.5685421937337145
1773150243051093000,1.281093017578125,-9.29701530125439,-3.066960928483307,-0.5741454571008682
1773150243061130200,1.291130126953125,-9.295795988592506,-3.0695521140202877,-0.5800082116544246
1773150243071167200,1.301167236328125,-9.294593627065419,-3.0722376998424528,-0.585034332720749
1773150243081204200,1.311204345703125,-9.293569544714689,-3.0746365776777265,-0.5886898230209946
1773150243091240200,1.321240234375,-9.292786869904399,-3.0765953105300663,-0.5908155464706942
1773150243101277200,1.331277099609375,-9.29237361292839,-3.0775714620858428,-0.5922215773437172
1773150243111314200,1.341314208984375,-9.292346724921464,-3.077274524965882,-0.5941847671754658
1773150243121351200,1.35135107421875,-9.292553645670413,-3.076109280578792,-0.5969787087429315
1773150243131388200,1.36138818359375,-9.292768165203928,-3.0749148100972175,-0.5997874094881117
1773150243141425200,1.371425048828125,-9.292461291211843,-3.0755867180094123,-0.6010983824888244
1773150243151462400,1.38146240234375,-9.291134426522254,-3.079257223215699,-0.6028104471037165
1773150243161499100,1.3914990234375,-9.288964096745849,-3.0850939665451644,-0.6064047452686354
1773150243171536100,1.4015361328125,-9.286512611940502,-3.0916102165713903,-0.6107461354738101
1773150243181573000,1.411572998046875,-9.284575506398081,-3.096935210986435,-0.6132187726650387
1773150243191610400,1.4216103515625,-9.283654884421825,-3.0996763263881206,-0.6133017747733741
1773150243201647400,1.4316474609375,-9.283859467083214,-3.0996520687296987,-0.6103262660939246
1773150243211683300,1.441683349609375,-9.284172770816086,-3.0995424708753823,-0.6061038260933012
1773150243221720300,1.45172021484375,-9.283950067976116,-3.1008900860920545,-0.6026075084101409
1773150243231757000,1.461757080078125,-9.28282369429469,-3.104664051672816,-0.6005259528957307
1773150243241794000,1.4717939453125,-9.2808111854285,-3.1107837035968897,-0.5999575053580105
1773150243251831300,1.481831298828125,-9.27833105905056,-3.117952572312951,-0.6011038989141583
1773150243261868300,1.491868408203125,-9.276122150829433,-3.1240403677940365,-0.6035852308684959
1773150243271905300,1.5019052734375,-9.27458135112822,-3.128120330584049,-0.6061253803379834
1773150243281942000,1.51194189453125,-9.273844269025325,-3.1300293790757654,-0.607543795768544
1773150243291979300,1.521979248046875,-9.273730287256836,-3.1304300688311457,-0.6072185824021696
1773150243302016300,1.532016357421875,-9.273864142769575,-3.130150667367875,-0.6066180226931348
1773150243312053200,1.54205322265625,-9.273726195603608,-3.1304917358905073,-0.6069683339681476
1773150243322090200,1.55209033203125,-9.27314518084526,-3.1321234287455675,-0.6074291929455473
1773150243332127200,1.562127197265625,-9.272102393794059,-3.135276339818537,-0.6070782606160268
1773150243342164200,1.572164306640625,-9.270706555521487,-3.1396427183344957,-0.6058240593038499
1773150243352200200,1.5822001953125,-9.269331175515054,-3.144019618244469,-0.6041694239646196
1773150243362237200,1.5922373046875,-9.268021261960268,-3.1481957348853347,-0.6025151539515704
1773150243372274200,1.602274169921875,-9.266900148975848,-3.151902772709727,-0.6003748174546286
1773150243382311200,1.612311279296875,-9.265916398635506,-3.155213796953857,-0.5981686491798609
1773150243392348400,1.622348388671875,-9.265066503807901,-3.158078538735211,-0.5962116698931902
1773150243402385200,1.63238525390625,-9.264364493018387,-3.1605875989466905,-0.5938209022991359
1773150243412422100,1.642422119140625,-9.263667158403992,-3.1630095653966066,-0.591803205801174
1773150243422459100,1.652459228515625,-9.262919554907082,-3.1653239798188206,-0.5911207399623468
1773150243432496400,1.662496337890625,-9.262026989981532,-3.1677775104507804,-0.5919638762556017
1773150243442533400,1.672533447265625,-9.260871974727511,-3.1707492197379468,-0.5941264245843515
1773150243452570000,1.682570068359375,-9.259439311575889,-3.1743776393681764,-0.5970759585723281
1773150243462607000,1.692607177734375,-9.257903772571682,-3.178341282302141,-0.5997904416954144
1773150243472644400,1.702644287109375,-9.256316211119294,-3.182645993758738,-0.6014688963016495
1773150243482681300,1.712681396484375,-9.254760213848948,-3.187095958904922,-0.6018487259320915
1773150243492717300,1.72271728515625,-9.253364960098265,-3.191303347466886,-0.6009993060285225
1773150243502754300,1.73275439453125,-9.252393484717606,-3.1944840233296152,-0.5990620543556288
1773150243512791800,1.742791748046875,-9.251893718501925,-3.1965561534285545,-0.5957157761350274
1773150243522829000,1.7528291015625,-9.251491567441821,-3.1984654941812156,-0.5917002934159711
1773150243532866000,1.762865966796875,-9.250966666784882,-3.2008383607923983,-0.5870560843393207
1773150243542903000,1.772903076171875,-9.250106835085154,-3.2042154360100623,-0.5821589234149083
1773150243552939800,1.782939697265625,-9.248962341225146,-3.208289553581178,-0.577887675836496
1773150243562977000,1.79297705078125,-9.247993203932046,-3.211842569887638,-0.5736455447547137
1773150243573014000,1.803013916015625,-9.247436154571176,-3.214193516927957,-0.569445170455426
1773150243583051000,1.813051025390625,-9.247049785602092,-3.2159681253850456,-0.5656849411390722
1773150243593088000,1.823087890625,-9.24660613348782,-3.2177760515898464,-0.5626522954449057
1773150243603124700,1.833124755859375,-9.246057267433404,-3.219781546193361,-0.5601904353760182
1773150243613162000,1.843161865234375,-9.245546979823708,-3.221590349180996,-0.5582089427025988
1773150243623198000,1.853197998046875,-9.244913358095287,-3.223567494472861,-0.5572874804761261
1773150243633235000,1.86323486328125,-9.243968186199664,-3.2262834754332896,-0.5572521534344181
1773150243643272000,1.87327197265625,-9.24274828901589,-3.229718126057088,-0.5575895686952397
1773150243653309000,1.883308837890625,-9.241597949936985,-3.232780728498101,-0.5589104785680771
1773150243663346200,1.89334619140625,-9.24074863963127,-3.234781839187443,-0.5613662011571228
1773150243673383000,1.9033828125,-9.240165286785363,-3.235942115138471,-0.5642714210793376
1773150243683420000,1.913419921875,-9.2398344473958,-3.2364822133645412,-0.5665877351976931
1773150243693457000,1.923456787109375,-9.239771319031714,-3.236328191846609,-0.5684925093730911
1773150243703494100,1.933494140625,-9.239627526646853,-3.236402718387544,-0.5704032018326223
1773150243713531100,1.94353125,-9.23882965426743,-3.2384193189069626,-0.5718790465388447
1773150243723567900,1.95356787109375,-9.237256121340394,-3.242899971452355,-0.5719145927762612
1773150243733604900,1.96360498046875,-9.23530323370695,-3.248735837998986,-0.5703265563998371
1773150243743641900,1.973641845703125,-9.233614549967646,-3.254159324352443,-0.5667358384314924
1773150243753679000,1.98367919921875,-9.232572931960224,-3.2579832665547728,-0.5617166950952261
1773150243763715000,1.993715087890625,-9.23187092117071,-3.2606299816712734,-0.5578854098366574
1773150243773752000,2.003751953125,-9.231400381049513,-3.2621243118822574,-0.5569349407114088
1773150243783788800,2.013788818359375,-9.231309780156613,-3.2623186654105782,-0.5573005226207897
1773150243793825800,2.02382568359375,-9.231409148877859,-3.261691765683889,-0.5593210686629638
1773150243803863000,2.033863037109375,-9.231291075456141,-3.2611674495488403,-0.5643015970218926
1773150243813900000,2.043900146484375,-9.230711229741573,-3.261723914387822,-0.5705384455848485
1773150243823937000,2.05393701171875,-9.229465029072761,-3.2642911345273253,-0.5759905735109001
1773150243833973800,2.063973876953125,-9.228087895500659,-3.2676679174840446,-0.5789002869451418
1773150243844011000,2.074010986328125,-9.227219880494475,-3.2700594887956975,-0.5792364966295659
1773150243854048000,2.084048095703125,-9.22709596185386,-3.2707942328110335,-0.5770565587745979
1773150243864085000,2.0940849609375,-9.227419202458858,-3.2706299821600315,-0.5728012028850614
1773150243874122000,2.1041220703125,-9.22775062637031,-3.270574452580511,-0.5677529795847833
1773150243884159000,2.114158935546875,-9.227968653035163,-3.270753900800645,-0.5631619620000943
1773150243894196000,2.124196044921875,-9.228061007493734,-3.2711946303054686,-0.5590731583165005
1773150243904232000,2.13423193359375,-9.228264421111344,-3.2711782636925575,-0.5558018450282514
1773150243914269000,2.14426904296875,-9.228370804095269,-3.2712524979725477,-0.5535911101762205
1773150243924306000,2.154305908203125,-9.228062761059403,-3.2724463839322326,-0.5516654393432662
1773150243934343000,2.164343017578125,-9.227228063800931,-3.2751661642849443,-0.5494796562694013
1773150243944380200,2.174380126953125,-9.226138514998555,-3.2784517618268727,-0.548182675261423
1773150243954417000,2.1844169921875,-9.225254717901349,-3.2808968168914316,-0.5484292339010164
1773150243964454000,2.194453857421875,-9.224889391720295,-3.281772722943127,-0.5493338180579245
1773150243974491000,2.204490966796875,-9.225082868465782,-3.2812788019463417,-0.5490377942534164
1773150243984528100,2.214528076171875,-9.225775526905059,-3.279655876919627,-0.5470896923929452
1773150243994565000,2.224565185546875,-9.226812468737362,-3.2771076537415382,-0.5448731488546357
1773150244004601900,2.234601806640625,-9.227987357735634,-3.2742309292614458,-0.5422622722364961
1773150244014638800,2.244638916015625,-9.229090935063361,-3.2714410062819717,-0.5403127090713009
1773150244024676000,2.254676025390625,-9.22989406813979,-3.269340819132328,-0.5393036050939932
1773150244034712000,2.264712158203125,-9.230331875035166,-3.2682208751916884,-0.5386015577718615
1773150244044749000,2.2747490234375,-9.230593156319856,-3.2678587638810277,-0.5363122047256678
1773150244054786000,2.2847861328125,-9.230470406723022,-3.2686934611394998,-0.5333326409256085
1773150244064823000,2.294822998046875,-9.229835615950822,-3.2709543918088078,-0.5304468563562259
1773150244074859800,2.30485986328125,-9.228985721123218,-3.273874078647792,-0.5272178113071248
1773150244084897000,2.31489697265625,-9.228395354014635,-3.2760312566816805,-0.5241413264712318
1773150244094934000,2.32493408203125,-9.22851342743635,-3.2761841091558335,-0.5210932274796068
1773150244104971000,2.334970947265625,-9.22937267461419,-3.2742312215223905,-0.5181402228929102
1773150244115008000,2.345008056640625,-9.230551070743799,-3.2712282403141257,-0.5161141238927841
1773150244125045000,2.355044921875,-9.231510855686665,-3.268589416243136,-0.5156674395712092
1773150244135082000,2.36508203125,-9.231968536326288,-3.2671444781318306,-0.5166299279278144
1773150244145119000,2.375118896484375,-9.231923528140783,-3.267052415934205,-0.518012979784049
1773150244155156000,2.385156005859375,-9.231614900583029,-3.267717601844668,-0.5193218338929116
1773150244165193000,2.39519287109375,-9.230980694332718,-3.2692253760591146,-0.5210984516439959
1773150244175230000,2.40522998046875,-9.230192758825421,-3.2711224418520923,-0.5231478949870914
1773150244185266000,2.415265869140625,-9.229604729804397,-3.272477071331441,-0.5250487601723521
1773150244195303000,2.425302978515625,-9.229439894631504,-3.272582285271585,-0.5272811953995377
1773150244205340000,2.43533984375,-9.229407745927572,-3.2723090212881565,-0.5295344176864251
1773150244215377000,2.445376953125,-9.229531080046296,-3.271824744902551,-0.5303800381977111
1773150244225414100,2.4554140625,-9.229719880616665,-3.2714787079438565,-0.5292243653565645
1773150244235451000,2.465450927734375,-9.229611744067073,-3.2720722899228334,-0.5274430714303627
1773150244245487900,2.47548779296875,-9.229022546002268,-3.273931946314871,-0.5262137122984976
1773150244255524900,2.48552490234375,-9.228699889919161,-3.2750887151345607,-0.5246685652157291
1773150244265562000,2.49556201171875,-9.228819132384658,-3.2751290471449495,-0.5223175816427916
1773150244275599000,2.50559912109375,-9.229156986036896,-3.2744889956757426,-0.5203584469316527
1773150244285635800,2.5156357421875,-9.229643892771005,-3.2731483947217463,-0.5201490419646725
1773150244295672800,2.5256728515625,-9.230134891158341,-3.271494490034878,-0.5218405021829531
1773150244305710000,2.5357099609375,-9.230779618802666,-3.269334973913431,-0.5239710844708606
1773150244315747000,2.5457470703125,-9.231472861763834,-3.267064983154833,-0.5259066191107035
1773150244325784000,2.5557841796875,-9.231807208284735,-3.2658301806628702,-0.5277048641717061
1773150244335820000,2.565820068359375,-9.23183643437922,-3.2654680693522096,-0.5294321994209662
1773150244345857000,2.57585693359375,-9.231903654396534,-3.2650100964516398,-0.5310770440185443
1773150244355893800,2.585893798828125,-9.232249691355229,-3.2639977045387027,-0.5312863393876701
1773150244365931000,2.595930908203125,-9.232997879374027,-3.262069074563682,-0.5301351235259324
1773150244375968000,2.605968017578125,-9.233909733521937,-3.2597534910976886,-0.5284955030927434
1773150244386005000,2.6160048828125,-9.23466961197853,-3.2580452258750796,-0.5257403226330876
1773150244396042000,2.6260419921875,-9.235121447399258,-3.2574247558891773,-0.5216360291194171
1773150244406079000,2.636078857421875,-9.234991683539748,-3.2585634045302867,-0.5167963340032845
1773150244416116000,2.646115966796875,-9.234321821454166,-3.2610981837049127,-0.5127552053863182
1773150244426153000,2.656153076171875,-9.233279034402965,-3.264513545106351,-0.5097999723099171
1773150244436190000,2.66618994140625,-9.232156167852878,-3.2678231080457567,-0.5089310805208981
1773150244446227200,2.676227294921875,-9.23110870462656,-3.270504017692804,-0.5107073329458013
1773150244456264000,2.686263916015625,-9.230161194643378,-3.2725399074345827,-0.5147691024919971
1773150244466301000,2.696301025390625,-9.229507699170709,-3.273695214949548,-0.5191260921251029
1773150244476338000,2.706337890625,-9.229293764159083,-3.273928146922588,-0.5214521969851106
1773150244486375000,2.716375,-9.229499515864253,-3.273268221709132,-0.5219594889201223
1773150244496411100,2.7264111328125,-9.229963626244663,-3.2722116983935234,-0.5203717448046431
1773150244506448100,2.7364482421875,-9.230389742702245,-3.2716283455476165,-0.5164690382776782
1773150244516484600,2.746484619140625,-9.230429490190744,-3.2723546139955517,-0.5111295038806274
1773150244526521300,2.756521240234375,-9.230034353393316,-3.274208132907748,-0.5063666003277525
1773150244536558300,2.766558349609375,-9.229238234579563,-3.276751972171664,-0.5044205077612772
1773150244546595600,2.776595703125,-9.22816096073687,-3.2797038077145815,-0.5049535917246714
1773150244556632600,2.786632568359375,-9.227263135114312,-3.2818823207974432,-0.5072001650750637
1773150244566669600,2.796669677734375,-9.226905407717824,-3.282342924046516,-0.5107146029368043
1773150244576706300,2.806706298828125,-9.227093039244412,-3.281159267219901,-0.514911141311191
1773150244586743300,2.816743408203125,-9.227591051894425,-3.2792934733480212,-0.5178616616798565
1773150244596780500,2.826780517578125,-9.228055162274837,-3.278025353108346,-0.5176245649883523
1773150244606817500,2.836817626953125,-9.228450883594155,-3.2773926081627605,-0.5145655427439138
1773150244616854500,2.8468544921875,-9.228831407344341,-3.277041018246114,-0.5099592179922386
1773150244626891300,2.856891357421875,-9.2288167942971,-3.2777354302510617,-0.5057462764723226
1773150244636928500,2.866928466796875,-9.228414643236993,-3.2792814906492826,-0.5030481964947655
1773150244646965500,2.876965576171875,-9.228257991370558,-3.2797911937370894,-0.5026042521195486
1773150244657001500,2.88700146484375,-9.22871976366341,-3.2784073381632566,-0.5031528259130195
1773150244667038500,2.89703857421875,-9.22944690889418,-3.2761727109789844,-0.5043634072791785
1773150244677075500,2.907075439453125,-9.229715204441547,-3.2751091734007,-0.5063632758595049
1773150244687112400,2.917112548828125,-9.229255185714363,-3.2759710509270428,-0.5091668255055323
1773150244697149400,2.9271494140625,-9.228449130028485,-3.27775764208287,-0.5122624169006943
1773150244707186400,2.9371865234375,-9.22765710286796,-3.2796643524870275,-0.5143234410837292
1773150244717223400,2.947223388671875,-9.226991916957497,-3.281498874437809,-0.5145614876233041
1773150244727260400,2.957260498046875,-9.226359464272857,-3.2832994941189884,-0.5144090735405683
1773150244737297400,2.96729736328125,-9.225928671640157,-3.284426452322304,-0.5149463587550446
1773150244747334400,2.97733447265625,-9.225639333304763,-3.2850627043992278,-0.5160688965115696
1773150244757371400,2.987371337890625,-9.225572113287448,-3.2851123887598512,-0.5169519264237955
1773150244767408400,2.997408447265625,-9.225734025850892,-3.2847239739641547,-0.5165335914138705
1773150244777445600,3.007445556640625,-9.226347773835062,-3.2834152294531465,-0.5138800081651658
1773150244787482600,3.017482666015625,-9.226996008610724,-3.2821257741644976,-0.5104669117860495
1773150244797519400,3.027519287109375,-9.227152660477161,-3.282003901350498,-0.5084136690506711
1773150244807556400,3.037556396484375,-9.227007699048519,-3.282628755250573,-0.5070112183742225
1773150244817593600,3.047593505859375,-9.226982564607262,-3.2828888674914833,-0.5057885081788525
1773150244827629600,3.057629638671875,-9.227387638276815,-3.2818107168659565,-0.5053968054475263
1773150244837666600,3.06766650390625,-9.227978589907288,-3.280105374252796,-0.505666014310345
1773150244847703600,3.07770361328125,-9.228965262857079,-3.2774858394041657,-0.504647083058767
1773150244857740300,3.087740234375,-9.230258809798956,-3.2742756451860067,-0.5018220522332936
1773150244867777500,3.097777587890625,-9.23127295527756,-3.271884366135299,-0.49875258166007697
1773150244877814500,3.107814453125,-9.231666923031211,-3.271286107981205,-0.49537996342182156
1773150244887851500,3.1178515625,-9.231568723353742,-3.2720638143554326,-0.4920616691866889
1773150244897888500,3.127888427734375,-9.231105197495221,-3.2737478219196197,-0.4895519879207015
1773150244907925200,3.13792529296875,-9.230317261987924,-3.2762326244726774,-0.4877754067022353
1773150244917962500,3.14796240234375,-9.229421774452923,-3.2790120260581372,-0.4860417878426611
1773150244927999500,3.15799951171875,-9.228551421359182,-3.2818592321828004,-0.4833419908320531
1773150244938036500,3.168036376953125,-9.228044640880823,-3.284158156774938,-0.47737460686024275
1773150244948073500,3.178073486328125,-9.228128812032937,-3.285231631225347,-0.4682739663640037
1773150244958110500,3.1881103515625,-9.228706904181838,-3.2850191575184464,-0.4582592432301491
1773150244968147500,3.1981474609375,-9.229593039366602,-3.2840631719678637,-0.4471235897749662
1773150244978184400,3.208184326171875,-9.230532950565218,-3.2832226294904947,-0.433698729404062
1773150244988221400,3.218221435546875,-9.231883196130394,-3.2808693443626162,-0.4226221126597374
1773150244998258400,3.228258544921875,-9.23407456869483,-3.2754660240143534,-0.4166177211457863
1773150245008295400,3.23829541015625,-9.23703984824121,-3.2674557360380887,-0.4137741682829335
1773150245018331600,3.24833154296875,-9.239774241641163,-3.2597073138684034,-0.4138452242251485
1773150245028368400,3.258368408203125,-9.241818314689397,-3.2535470376729965,-0.41666356958150863
1773150245038405400,3.2684052734375,-9.243273774194718,-3.248925807613134,-0.4204265388442203
1773150245048442400,3.2784423828125,-9.244887639132141,-3.2440412504419682,-0.4226549920160323
1773150245058479600,3.288479736328125,-9.247521494767069,-3.236505594240129,-0.42279900359660383
1773150245068516600,3.2985166015625,-9.251275878864526,-3.2260715862482785,-0.4204074322849512
1773150245078553300,3.30855322265625,-9.25602219660878,-3.2130367481082676,-0.41572796923182903
1773150245088590300,3.31859033203125,-9.261747588518261,-3.1971970816805957,-0.410294071082212
1773150245098627600,3.328627685546875,-9.268342164477705,-3.1789322339326143,-0.4032501439200714
1773150245108664600,3.33866455078125,-9.275878405201434,-3.158104549959302,-0.3934944735812023
1773150245118701600,3.34870166015625,-9.283938377538323,-3.13526143451035,-0.3860124472627416
1773150245128738300,3.35873828125,-9.291893720456958,-3.112198831091821,-0.3811951466415077
1773150245138775300,3.368775390625,-9.29953283703327,-3.0895623441308735,-0.3790542621552944
1773150245148812500,3.3788125,-9.306338425394893,-3.068936904731393,-0.37956977392937985
1773150245158849500,3.388849609375,-9.312615605968237,-3.0497070113435387,-0.3806098575668409
1773150245168886500,3.398886474609375,-9.320088718327879,-3.0271950275450945,-0.3773813605070114
1773150245178923300,3.40892333984375,-9.330399099940061,-2.996454729105532,-0.36782862886171785
1773150245188960500,3.41896044921875,-9.34457200219929,-2.953822332820296,-0.35255751956962045
1773150245198997500,3.42899755859375,-9.363474855589866,-2.8957588509082792,-0.3321186887834221
1773150245209034500,3.439034423828125,-9.386550610750913,-2.8225732031881807,-0.3100509416211396
1773150245219070500,3.449070556640625,-9.411035648187994,-2.7416940783560273,-0.293090564067848
1773150245229107500,3.459107421875,-9.433121223267912,-2.66540082000941,-0.28678125305688007
1773150245239144400,3.46914453125,-9.44991161454916,-2.604086811868846,-0.2971365332567133
1773150245249181400,3.479181396484375,-9.460676169669627,-2.561786716277897,-0.32130755457486954
1773150245259218400,3.489218505859375,-9.466698498699069,-2.5358470961183306,-0.348544411470741
1773150245269255400,3.49925537109375,-9.470113860100508,-2.5212054073035715,-0.3617378742385655
1773150245279292700,3.509292724609375,-9.472506308194994,-2.5132564941257236,-0.35432880355846136
1773150245289329400,3.519329345703125,-9.4748636849761,-2.5084113921821114,-0.32436829385235905
1773150245299366400,3.529366455078125,-9.476675702834129,-2.5078613570839163,-0.2713636844987981
1773150245309403400,3.5394033203125,-9.477168454787135,-2.51232213588506,-0.20468672455297782
1773150245319440400,3.5494404296875,-9.475911732724308,-2.5220462420418857,-0.12946062051383778
1773150245329477600,3.5594775390625,-9.473212410637736,-2.535184248295426,-0.038429528634762386
1773150245339514400,3.569514404296875,-9.469632214063406,-2.5476181979328394,0.07802251155832782
1773150245349551400,3.57955126953125,-9.467748300012946,-2.5475796194881197,0.20484776033358648
1773150245359588400,3.58958837890625,-9.470806518539785,-2.5230709089145065,0.3291165112927556
1773150245369625600,3.59962548828125,-9.48139337900579,-2.461106912432611,0.4653137283189222
1773150245379662600,3.60966259765625,-9.499067567384243,-2.348319906686246,0.6507635634876787
1773150245389699600,3.619699462890625,-9.516575751546025,-2.1910351491741835,0.8969561462476849
1773150245399736300,3.629736328125,-9.523238716566562,-2.016874806315452,1.187655102471262
1773150245409773300,3.639773193359375,-9.50306218997836,-1.8562888153009116,1.5544729833878577
1773150245419810600,3.649810546875,-9.448319376921653,-1.7156071098044514,1.9890540485844015
1773150245429847600,3.65984765625,-9.355955566000938,-1.6041365934841334,2.4623612964078783
1773150245439883500,3.669883544921875,-9.237687498494981,-1.5080449942119418,2.925972495125234
1773150245449920500,3.67992041015625,-9.10669263588488,-1.3880321288652717,3.363316156902909
1773150245459957200,3.689957275390625,-8.965634644421934,-1.2126145524870604,3.7838270495623347
1773150245469994500,3.699994384765625,-8.81970583205223,-0.9768754861369728,4.1747918220028275
1773150245480031500,3.710031494140625,-8.689998671165108,-0.7329085435371846,4.485214446480572
1773150245490068500,3.720068359375,-8.598916716748475,-0.5522415587307885,4.682311428290605
1773150245500105500,3.73010546875,-8.539624569824337,-0.41811073618251826,4.803163667070866
1773150245510142700,3.740142822265625,-8.505961954197288,-0.2866825053901411,4.872043434290587
1773150245520180000,3.750179931640625,-8.485894148680567,-0.12576338256425224,4.913671621969342
1773150245530217000,3.760217041015625,-8.47182938297093,0.09461986448550597,4.938576346123218
1773150245540254000,3.77025390625,-8.458052202031016,0.39974198966864494,4.946912212792038
1773150245550291000,3.780291015625,-8.438589376670121,0.784678478262946,4.934052731218934
1773150245560327700,3.79032763671875,-8.402612054359912,1.2229926655732095,4.906198509609699
1773150245570365000,3.800364990234375,-8.341410858944059,1.677547574392706,4.876175711789727
1773150245580402000,3.81040185546875,-8.260151210361718,2.1145804166555404,4.844464522491395
1773150245590439000,3.82043896484375,-8.16865015375018,2.528448510299623,4.801091829232871
1773150245600476000,3.830475830078125,-8.068720876011252,2.9281013238474727,4.742610998691618
1773150245610513000,3.840512939453125,-7.960698892709613,3.3231264775946734,4.664170499183237
1773150245620550000,3.8505498046875,-7.852348992627858,3.721403034353256,4.545564870285988
1773150245630587000,3.8605869140625,-7.751511367872357,4.134544275027514,4.357750972867012
1773150245640623900,3.870623779296875,-7.658507505482435,4.564736603745818,4.084216940325498
1773150245650660900,3.880660888671875,-7.5672706527650355,5.007968446779251,3.718474871946871
1773150245660697900,3.89069775390625,-7.454816824495792,5.464401716691255,3.276645881448686
1773150245670734800,3.90073486328125,-7.287538350105285,5.932879644662141,2.8041230620011683
1773150245680770800,3.910770751953125,-7.045669621893763,6.407663394778966,2.3389679948426783
1773150245690807800,3.920807861328125,-6.727585669007897,6.87538261333704,1.9076412552669644
1773150245700845000,3.930844970703125,-6.34083266904354,7.320647423502803,1.5402410444177685
1773150245710882000,3.940882080078125,-5.895870641216636,7.735256398642063,1.2549518382832408
1773150245720918800,3.950918701171875,-5.4003673436760895,8.117336730620265,1.056057743923366
1773150245730955800,3.960955810546875,-4.860898355419933,8.466843995773791,0.9244532249823212
1773150245740992800,3.97099267578125,-4.293195498587191,8.77750159805119,0.833253927796334
1773150245751030000,3.981030029296875,-3.7170021690458057,9.042320409217476,0.768575411658734
1773150245761067000,3.99106689453125,-3.1495594244539737,9.25857889535427,0.7275772655118257
1773150245771103700,4.001103759765625,-2.5939234375119207,9.430544650778174,0.7118859215136617
1773150245781140700,4.011140625,-2.049169786851108,9.562471825802326,0.7283083562653512
1773150245791178000,4.021177978515625,-1.521637612365186,9.656075407651066,0.7843536302227526
1773150245801215000,4.031215087890625,-1.0228027592491358,9.712495214009284,0.8897721530277282
1773150245811252000,4.041251953125,-0.5621832166284323,9.733916187700629,1.0512927945438773
1773150245821288700,4.051288818359375,-0.14408717569154686,9.722261405742168,1.2756363143935798
1773150245831325700,4.06132568359375,0.22550774132348594,9.678028296262026,1.5669332365103066
1773150245841363000,4.071363037109375,0.5435919864702969,9.602326281806826,1.9157782383628188
1773150245851400000,4.08139990234375,0.8148653075382113,9.498095507481693,2.3005562849923966
1773150245861437000,4.09143701171875,1.0530313087742775,9.368657811185717,2.6999583386495707
1773150245871473700,4.1014736328125,1.267962564895302,9.216052589792012,3.1027421436995266
1773150245881511000,4.111510986328125,1.4449886724486947,9.063194854941964,3.4555627711847423
1773150245891548000,4.1215478515625,1.565884311979264,8.950324262565374,3.6891865258812904
1773150245901585000,4.1315849609375,1.6394392314031718,8.88660436232686,3.8093180491715666
1773150245911620900,4.141620849609375,1.66990290485844,8.85534705427587,3.8684167193502184
1773150245921657900,4.151657958984375,1.6348445970892904,8.829173917621373,3.942508668260276
1773150245931695000,4.161695068359375,1.5016566083490848,8.7995819124341,4.059899076148867
1773150245941731800,4.17173193359375,1.2773305510908364,8.754911580580472,4.229696839883923
1773150245951768800,4.181768798828125,1.005930023446679,8.679044730952382,4.4533910289794205
1773150245961805800,4.191805908203125,0.7481888955816626,8.568958800858258,4.709943531581759
1773150245971842800,4.2018427734375,0.5599511467274279,8.433269058430195,4.973613172712922
1773150245981880000,4.211880126953125,0.464239632814005,8.275923949033022,5.240607574352622
1773150245991916800,4.221916748046875,0.4441880112471059,8.121033831572532,5.479224607291817
1773150246001953800,4.231953857421875,0.4683342451838776,7.991743434792757,5.6641930521517985
1773150246011990800,4.24199072265625,0.5028622820012271,7.865106767392158,5.835888173940777
1773150246022028000,4.252028076171875,0.5127337242068722,7.731915271520614,6.010405367413163
1773150246032065000,4.26206494140625,0.48157143749557435,7.598102428880334,6.181205001667141
1773150246042101800,4.272101806640625,0.4156162890182808,7.448525030875206,6.365306600564718
1773150246052138800,4.282138671875,0.3164960261072963,7.287042675542831,6.555092674839496
1773150246062176000,4.292176025390625,0.18705942578986287,7.130798805385828,6.729569536301494
1773150246072213000,4.302212890625,0.04693463722353335,6.985041842451691,6.88312285220027
1773150246082250000,4.31225,-0.0918627660633996,6.849552006509899,7.017519632208347
1773150246092286700,4.32228662109375,-0.2235101560317911,6.720681880968809,7.138129294404387
1773150246102323700,4.33232373046875,-0.33289117099326104,6.5995683609038585,7.24605132446289
1773150246112361000,4.34236083984375,-0.41905594461075957,6.486735762450099,7.342821845909953
1773150246122398000,4.35239794921875,-0.4889932580593973,6.371890655130148,7.438432091405987
1773150246132435000,4.36243505859375,-0.5532531103935092,6.250502409777045,7.536279302173853
1773150246142471700,4.3724716796875,-0.6205206201110035,6.128422090506553,7.630712320584058
1773150246152509000,4.382509033203125,-0.6765378370177,6.02643061954081,7.70680187305212
1773150246162546000,4.3925458984375,-0.7168227933939546,5.959074408626556,7.755382071825862
1773150246172583000,4.4025830078125,-0.7759863455023616,5.9281485244870185,7.773370148459076
1773150246182619000,4.412618896484375,-0.8770216117218136,5.915489533922075,7.772271247306466
1773150246192656000,4.42265576171875,-1.0017044416408984,5.908232694661617,7.762715483453869
1773150246202692900,4.43269287109375,-1.1251362485855818,5.896681373077631,7.754585368490218
1773150246212729900,4.442729736328125,-1.2323463309824465,5.879403490540385,7.751407322975993
1773150246222766800,4.452766845703125,-1.325535340680927,5.86163928579092,7.749484245958924
1773150246232803800,4.462803955078125,-1.3961601980023086,5.834086677476764,7.757869212466478
1773150246242840800,4.4728408203125,-1.434115834648162,5.794859413459896,7.780315437552332
1773150246252877800,4.4828779296875,-1.44446099531278,5.760639163950085,7.8037775616824625
1773150246262914800,4.492914794921875,-1.4555610659979283,5.754384779730439,7.806330168774724
1773150246272951800,4.502951904296875,-1.4971483371444045,5.785681835269927,7.775271013644337
1773150246282988800,4.51298876953125,-1.5780847451217472,5.85085836405754,7.710220741584896
1773150246293026000,4.523026123046875,-1.6847328097216785,5.958522035440803,7.6044789781749245
1773150246303063000,4.53306298828125,-1.7972895138435065,6.1130906658619635,7.454546190860867
1773150246313099800,4.543099853515625,-1.9003245025128126,6.30795272822678,7.264218849316239
1773150246323136800,4.55313671875,-1.9602002945438026,6.526549301922321,7.0521028698116535
1773150246333174000,4.563174072265625,-1.9810379153892397,6.766767340317368,6.815918616977334
1773150246343211000,4.5732109375,-2.006791365326941,7.022671608144044,6.544101909747719
1773150246353248000,4.583248046875,-2.0727825714983044,7.281316114589572,6.233490484699606
1773150246363284700,4.59328466796875,-2.1826571969293056,7.542470558029413,5.87516103066504
1773150246373321700,4.60332177734375,-2.3084240957580504,7.803323388174176,5.472632369419932
1773150246383359000,4.61335888671875,-2.421415538035333,8.053577082893252,5.04450515653789
1773150246393396000,4.62339599609375,-2.499367377243936,8.275222522765398,4.630793422499298
1773150246403433000,4.633432861328125,-2.536529817685485,8.45160960176289,4.278634181532263
1773150246413469700,4.6434697265625,-2.5573382124364374,8.571102827149629,4.020770011809468
1773150246423507000,4.6535068359375,-2.589069860000908,8.626710148081182,3.8790439118266105
1773150246433544000,4.6635439453125,-2.6039719533175227,8.64266116592884,3.8332919222161173
1773150246443581000,4.673580810546875,-2.606114518304169,8.63604087100625,3.8467306649819015
1773150246453618000,4.683617919921875,-2.6140543713927267,8.632618495342134,3.8490263747036453
1773150246463655000,4.693655029296875,-2.6110356080934403,8.65127760310471,3.808974350300431
1773150246473692000,4.70369189453125,-2.5682968288242813,8.692224530521035,3.7442601783275604
1773150246483728000,4.713727783203125,-2.472979721055925,8.745466875886917,3.683959146621823
1773150246493764900,4.723764892578125,-2.3335411474883556,8.800673214802146,3.643227323260903
1773150246503801900,4.7338017578125,-2.1693061324469745,8.855180465537309,3.6125156663939353
1773150246513838300,4.74383837890625,-1.9984971458427607,8.907433215343952,3.582460135348141
1773150246523875300,4.753875244140625,-1.8336755630850792,8.960198590847849,3.5387677086159584
1773150246533912000,4.763912109375,-1.683086796080321,9.018914399188757,3.4636373565688725
1773150246543949000,4.773948974609375,-1.5546658756114542,9.082083679807186,3.356956851004064
1773150246553986300,4.783986328125,-1.456282219879329,9.143218239727616,3.2328304128587244
1773150246564023300,4.794023193359375,-1.3946642603561281,9.198924929380416,3.0992049094840883
1773150246574060300,4.804060302734375,-1.3700951978974043,9.249842046669125,2.955273992933333
1773150246584097000,4.814096923828125,-1.3699319701597095,9.300252968001365,2.79266029548347
1773150246594134300,4.82413427734375,-1.380235775900632,9.356060195419191,2.594118960084021
1773150246604171300,4.834171142578125,-1.3831310589507222,9.420212057334185,2.3488183577276764
1773150246614208300,4.844208251953125,-1.3707163985356687,9.488415240466594,2.064339152801782
1773150246624245200,4.854245361328125,-1.3376592014558613,9.554376782152056,1.7592407920867204
1773150246634282200,4.8642822265625,-1.2741378925293683,9.614895840522646,1.4493842770591376
1773150246644319200,4.8743193359375,-1.176223388678953,9.669159345629811,1.1376525427442044
1773150246654356200,4.884356201171875,-1.0578376130774616,9.713895143935083,0.8316349482923746
1773150246664393200,4.894393310546875,-0.9375004842124879,9.74657751635313,0.5438060310797765
1773150246674430200,4.90443017578125,-0.8339101266827433,9.767067931196094,0.28174174278602004
1773150246684467200,4.91446728515625,-0.7536432885300368,9.777434426909684,0.06487069140856619
1773150246694504200,4.924504150390625,-0.6913032983426004,9.78175345915258,-0.09907070641452446
1773150246704541200,4.934541259765625,-0.6425832527067512,9.783312963554263,-0.21036416740119457
1773150246714578200,4.944578125,-0.5971020793942734,9.784767254015803,-0.26868598972214386
1773150246724615400,4.954615478515625,-0.5486199341675266,9.787502231937646,-0.27238066125530747
1773150246734652200,4.964652099609375,-0.48978053597956894,9.791927647164464,-0.22062338508171958
1773150246744689200,4.974689208984375,-0.41673674441557373,9.797115863457321,-0.11511027019531465
1773150246754726100,4.98472607421875,-0.33865674878265706,9.800743406304717,0.03351792590975528
1773150246764763100,4.99476318359375,-0.2702820267419331,9.800770294311642,0.2055395602563396
1773150246774800400,5.00480029296875,-0.22461163273397833,9.796747614666819,0.37900753693673755
1773150246784837000,5.014837158203125,-0.20676206952231005,9.789565009686351,0.5404222338603809
1773150246794873300,5.024873291015625,-0.21294309624480082,9.780717686364055,0.6801691061921418
1773150246804910000,5.03491015625,-0.2316495868130587,9.771920047402382,0.791388131969422
1773150246814947000,5.044947021484375,-0.25220534024350344,9.765766785469651,0.8582319363821297
1773150246824984300,5.054984375,-0.2668030803186819,9.765482707831262,0.857052298143506
1773150246835021300,5.065021240234375,-0.2651647385271266,9.771533093911408,0.7856261343766003
1773150246845058300,5.075058349609375,-0.240627276783064,9.780466926473379,0.6744889416638762
1773150246855095000,5.085094970703125,-0.1945252498921938,9.788040576598048,0.5716782632697374
1773150246865132300,5.09513232421875,-0.12871856997488065,9.793516377660632,0.4907702411366626
1773150246875169300,5.105169189453125,-0.05494877482443116,9.796431972846388,0.4441771975921467
1773150246885206300,5.115206298828125,0.005596038471101201,9.796942844977975,0.4361633659519255
1773150246895243300,5.1252431640625,0.047746967386570756,9.795841021215915,0.45779538857806473
1773150246905280000,5.135280029296875,0.07210883966828696,9.793249251157045,0.5074184109356255
1773150246915317200,5.145317138671875,0.08481058252956718,9.788813314536213,0.5851063385110348
1773150246925354200,5.155354248046875,0.10096369882058352,9.782155025690793,0.6853137756042182
1773150246935391200,5.16539111328125,0.13839004176217132,9.774486683019996,0.7814221798807383
1773150246945428200,5.17542822265625,0.19373579828124493,9.768289581945538,0.8446136723309755
1773150246955465200,5.18546533203125,0.24593201386136931,9.765791335389018,0.8597787274327129
1773150246965502200,5.195502197265625,0.2715669519859366,9.767178405833244,0.8359848871301859
1773150246975539200,5.205539306640625,0.2641071740319021,9.769633397769928,0.8092609847251325
1773150246985576200,5.215576171875,0.23497186310356483,9.771092364406584,0.8005685597036033
1773150246995613400,5.225613525390625,0.19848346773236988,9.771146724942327,0.809725533496961
1773150247005650200,5.235650146484375,0.16627273141406476,9.770053084486722,0.829930993918702
1773150247015687200,5.245687255859375,0.14495936454935,9.768368492400645,0.8534230017304419
1773150247025724200,5.25572412109375,0.13642613041121512,9.766899004369973,0.8714677769869565
1773150247035761200,5.26576123046875,0.14053752038595266,9.766236741068958,0.8782203199870884
1773150247045798400,5.27579833984375,0.15447183724949134,9.766600313684343,0.8718236046873032
1773150247055835100,5.285835205078125,0.17098421530695632,9.76772610284388,0.8559778007797897
1773150247065872100,5.2958720703125,0.18166777761308475,9.769009712913633,0.8389560118954629
1773150247075909000,5.3059091796875,0.17890567422229794,9.76990870757997,0.8290162902265786
1773150247085946400,5.3159462890625,0.15707986432341858,9.77005892970562,0.8316540913842618
1773150247095983400,5.3259833984375,0.11733538063257001,9.769430568674206,0.845481322010979
1773150247106020000,5.33602001953125,0.06356357259906362,9.76819079774618,0.8653275206662714
1773150247116057000,5.34605712890625,0.0037868284872674845,9.766524325838684,0.8862067156311124
1773150247126094000,5.356093994140625,-0.05724479507342912,9.7643697781533,0.9078540454242378
1773150247136131300,5.36613134765625,-0.11536607158728875,9.76157459447682,0.9320712987706065
1773150247146168300,5.376168212890625,-0.16630436866134404,9.758105457061529,0.9602623511187731
1773150247156205000,5.386205078125,-0.21146937043042852,9.754190329444407,0.9906792628228663
1773150247166242000,5.396241943359375,-0.2541391943829134,9.750130824920534,1.0201639351781457
1773150247176279300,5.406279296875,-0.29659080900745466,9.746029234820604,1.0475447671219706
1773150247186316300,5.41631640625,-0.3414375020749867,9.74165467299819,1.0742353517793117
1773150247196353300,5.426353271484375,-0.3926049043303355,9.73635656659007,1.1043552532982082
1773150247206389200,5.43638916015625,-0.4530569984119385,9.729374452617764,1.1421123716972768
1773150247216426200,5.44642626953125,-0.525121861941181,9.72005717369616,1.1895830748591572
1773150247226463200,5.456463134765625,-0.6093188791496679,9.708082073742151,1.245896717429161
1773150247236500200,5.466500244140625,-0.7041155067078769,9.693510527554153,1.307849169603735
1773150247246537200,5.476537109375,-0.8062619490396231,9.67692004275918,1.3702416206307708
1773150247256574200,5.48657421875,-0.9113022131167352,9.65892202925384,1.43008657913208
1773150247266611200,5.496611083984375,-1.0124076950281857,9.640596098968386,1.4846964134588836
1773150247276648200,5.506648193359375,-1.1017509890839456,9.62305751966834,1.5340484733879565
1773150247286685200,5.516685302734375,-1.1748248469926417,9.606902503681182,1.5803819161482155
1773150247296722200,5.52672216796875,-1.2315233241617678,9.592035189417004,1.6268378162443637
1773150247306759200,5.53675927734375,-1.276643153348565,9.578497662451863,1.6712176407188175
1773150247316796400,5.54679638671875,-1.3221962593860923,9.565044891160726,1.7123431395724416
1773150247326833200,5.556833251953125,-1.3817423810712992,9.550363454857468,1.7469228700444102
1773150247336870100,5.5668701171875,-1.4560134859405458,9.533179095822572,1.780146509732306
1773150247346907100,5.5769072265625,-1.535771059396863,9.514063476464152,1.815047727243602
1773150247356944400,5.5869443359375,-1.6092871081151068,9.49524947040081,1.849545040129125
1773150247366981400,5.5969814453125,-1.6595669504135846,9.482093051707745,1.8724660431198774
1773150247377018000,5.60701806640625,-1.6773291093364358,9.47783071808815,1.8782129162088035
1773150247387055000,5.61705517578125,-1.6660073587246238,9.4809450507164,1.8725645350582896
1773150247397092000,5.627092041015625,-1.6370348006099462,9.48788274102509,1.862947980929166
1773150247407129300,5.63712939453125,-1.6015632358647882,9.49604968086779,1.8521407557107508
1773150247417166300,5.647166259765625,-1.5638545597173272,9.50494668855071,1.8386781936779617
1773150247427203000,5.657203125,-1.5214276228763162,9.515091650468111,1.821725743702799
1773150247437240000,5.667239990234375,-1.4698852132961153,9.526927049690485,1.8020818626865744
1773150247447277300,5.67727734375,-1.40609823917076,9.540514845538139,1.7809714162491261
1773150247457314300,5.687314208984375,-1.3301082015544174,9.555511339139938,1.7588024006694554
1773150247467351300,5.697351318359375,-1.2437189349986613,9.571617839810251,1.7342624181747435
1773150247477388000,5.707387939453125,-1.1499454034104943,9.588618074449895,1.7048235577225683
1773150247487425300,5.71742529296875,-1.051119118477404,9.607602760905026,1.66117482400164
1773150247497462300,5.727462158203125,-0.9504393876973539,9.629090370091795,1.596140334033221
1773150247507499300,5.737499267578125,-0.8540069390982389,9.651025138524174,1.5161640032596886
1773150247517536800,5.747536865234375,-0.764878164575994,9.67139806446731,1.4315724337756632
1773150247527573500,5.757573486328125,-0.6796277658570558,9.68915291686654,1.3523413684114813
1773150247537610500,5.767610595703125,-0.5902135619895532,9.703729723751545,1.2882815686941147
1773150247547647500,5.7776474609375,-0.48362259787172074,9.715248896631598,1.2451656266756355
1773150247557684700,5.787684814453125,-0.369029200290516,9.721442490574717,1.2360213662333785
1773150247567721700,5.7977216796875,-0.2595464419876225,9.722708564987778,1.2537817715905606
1773150247577758500,5.807758544921875,-0.1622990968090482,9.72190367834568,1.2761755358368159
1773150247587795500,5.81779541015625,-0.07559458115850574,9.722253806957601,1.2815887930572032
1773150247597832700,5.827832763671875,0.0031809076165256554,9.724490187707543,1.266756842367351
1773150247607869700,5.83786962890625,0.07588538536520209,9.727197693100571,1.243476650675386
1773150247617906700,5.84790673828125,0.1424279737750534,9.729155841431021,1.2221415286365895
1773150247627943400,5.857943359375,0.2004922685378231,9.730327223297953,1.2045436934299767
1773150247637980700,5.867980712890625,0.24740265266951172,9.731161920556426,1.1889800674647093
1773150247648016600,5.8780166015625,0.27888598802872,9.732326288160682,1.1723610141623764
1773150247658053600,5.8880537109375,0.2911956171667203,9.734421799135207,1.1517875241458415
1773150247668090600,5.898090576171875,0.28792624010723084,9.737548991245031,1.1258864824309944
1773150247678127600,5.908127685546875,0.27810258256606757,9.741320326477288,1.0953039318364113
1773150247688164600,5.91816455078125,0.2711466076820157,9.745153036507963,1.0624904803846031
1773150247698201600,5.92820166015625,0.2727195560871623,9.748801037621497,1.0280511812966315
1773150247708238600,5.938238525390625,0.2861168160650879,9.752318690353631,0.9903547801088541
1773150247718275600,5.948275634765625,0.3109917296025902,9.755205059444904,0.9537363834161311
1773150247728312600,5.9583125,0.34450894540958105,9.756735337752103,0.9261673354238271
1773150247738349600,5.968349609375,0.38238939792737364,9.756623109549283,0.912385186047852
1773150247748386600,5.978386474609375,0.4212329233236611,9.755058344450593,0.9120289930213242
1773150247758423600,5.988423583984375,0.46036790594719346,9.752462482738494,0.9208212982207536
1773150247768460500,5.99846044921875,0.5015271974725648,9.749117263963818,0.9346524013049899
1773150247778497800,6.008497802734375,0.5473514486016705,9.745096922406553,0.9507328907512128
1773150247788534500,6.018534423828125,0.6006329569341614,9.740320794045925,0.9673405458766966
1773150247798571500,6.028571533203125,0.6608951544668525,9.735116211140156,0.9803601864475756
1773150247808608500,6.0386083984375,0.7248563891805708,9.730094583585858,0.984999536686018
1773150247818645500,6.0486455078125,0.786559323573485,9.725904730680584,0.9790349291931837
1773150247828682800,6.058682861328125,0.8417655163582414,9.722726685166359,0.964568085488677
1773150247838719500,6.068719482421875,0.8888160944119096,9.720305595499276,0.9465952064245938
1773150247848756500,6.078756591796875,0.927434359684959,9.71834218647182,0.9295662571471184
1773150247858793500,6.08879345703125,0.957697322936356,9.716672207432985,0.9162465376511215
1773150247868830700,6.098830810546875,0.9810431272104382,9.715387428319454,0.9050813658405095
1773150247878867700,6.10886767578125,1.000715868994966,9.714370944753288,0.8943830808892845
1773150247888904400,6.118904541015625,1.0179337649732827,9.713236972287296,0.8872469453990459
1773150247898941400,6.12894140625,1.0318017660018055,9.711853993496298,0.8863632944323122
1773150247908978700,6.138978759765625,1.0420560335125773,9.71032196162343,0.891145560272783
1773150247919015700,6.149015625,1.050256802559644,9.70867770154774,0.8994180063165724
1773150247929052700,6.159052734375,1.0599692182786762,9.706820675504208,0.908015957987681
1773150247939089700,6.169089599609375,1.0752992546837776,9.704661451643705,0.9130477416098117
1773150247949126400,6.17912646484375,1.0992436093728988,9.702012982961534,0.9126798581454902
1773150247959163600,6.18916357421875,1.132865235402435,9.69849825283885,0.9089199210900812
1773150247969200600,6.19920068359375,1.1731664853263646,9.694097387531398,0.9047476769067346
1773150247979237600,6.209237548828125,1.2148141814231872,9.689264560547471,0.9015341947529465
1773150247989274600,6.219274658203125,1.2538795328766106,9.684629886484146,0.8978383359096944
1773150247999311600,6.2293115234375,1.2902321182399987,9.680375736171007,0.8921921467162668
1773150248009348600,6.2393486328125,1.326936585780978,9.676007604089378,0.8857140367433428
1773150248019385600,6.249385498046875,1.3670188591919838,9.671000589582324,0.8794222431227564
1773150248029422600,6.259422607421875,1.411473940859735,9.665211484786868,0.8728291284680366
1773150248039459600,6.26945947265625,1.4581868844568728,9.65894073395431,0.8654132261883467
1773150248049496600,6.27949658203125,1.5008100745223463,9.653016604602337,0.8586134099803865
1773150248059533600,6.289533447265625,1.532556627395004,9.648348612791299,0.8549986535493284
1773150248069570600,6.299570556640625,1.550611631784588,9.645373980894684,0.8559933636751026
1773150248079607600,6.309607666015625,1.559708838214725,9.643446227702498,0.8611771229885518
1773150248089644500,6.31964453125,1.56536934819445,9.641862757903336,0.8686077844459563
1773150248099681500,6.329681640625,1.568979209254682,9.640598437055944,0.8760878380030394
1773150248109718500,6.339718505859375,1.5680721774123607,9.640157707551122,0.882553015429154
1773150248119755500,6.349755615234375,1.5608328738085924,9.640792498323322,0.8884302368994802
1773150248129792800,6.359792724609375,1.5481803129844367,9.642370122903586,0.8934334520142525
1773150248139829800,6.369829833984375,1.5326640332922339,9.644484923100471,0.8973473375223576
1773150248149865700,6.37986572265625,1.5161479289077222,9.646853405797481,0.8999445874739438
1773150248159902500,6.38990234375,1.499006093840301,9.649471479341388,0.9005816432684659
1773150248169939500,6.399939453125,1.4808677950814366,9.65235784843266,0.899675415143743
1773150248179976700,6.409976806640625,1.4623871126256882,9.655337156504393,0.8979427461322397
1773150248190013700,6.420013671875,1.4450108842805027,9.658205405417084,0.8952105446893721
1773150248200050700,6.43005078125,1.4305600418627262,9.660831077745556,0.8900792462155223
1773150248210087400,6.44008740234375,1.420155552226305,9.663032387182115,0.882809474408254
1773150248220124400,6.45012451171875,1.4137496307067572,9.664786537373065,0.8738328986831009
1773150248230161700,6.46016162109375,1.4094750221274792,9.666395726135372,0.8628734055124223
1773150248240198700,6.47019873046875,1.4049474617004394,9.668245153394341,0.8494423345964401
1773150248250235600,6.480235595703125,1.3976396229051053,9.670694884634017,0.8334593141753226
1773150248260272400,6.4902724609375,1.3860972152799367,9.673879944410919,0.8155668068710714
1773150248270309600,6.5003095703125,1.3701352376468479,9.677730774620175,0.7966404995396733
1773150248280346600,6.5103466796875,1.3511219096191227,9.682017658159136,0.7767799070328474
1773150248290383600,6.520383544921875,1.330432757333666,9.686471714958548,0.7567259108457713
1773150248300420600,6.530420654296875,1.3087675996229051,9.690835170865059,0.7384094059757887
1773150248310457600,6.54045751953125,1.285740652039647,9.69504606655836,0.723426867834106
1773150248320494600,6.55049462890625,1.2606082566097379,9.699157593530416,0.712451957898587
1773150248330531600,6.560531494140625,1.233544600856304,9.703210668313503,0.7045929149612784
1773150248340568600,6.570568603515625,1.2058650782268494,9.70707728061378,0.6992394251041114
1773150248350605600,6.58060546875,1.1795214073110372,9.710494980102776,0.6967137060187757
1773150248360642600,6.590642578125,1.155983660661429,9.713313544654845,0.6968643665358424
1773150248370679600,6.600679443359375,1.135700166567415,9.715593180024623,0.6984475440740585
1773150248380716500,6.610716552734375,1.1186539738941936,9.717477094075083,0.6997422600597143
1773150248390753500,6.62075341796875,1.1041233442384748,9.719096219709515,0.7003292661674321
1773150248400790800,6.630790771484375,1.0910254507996142,9.720550510171055,0.7006622244488447
1773150248410827500,6.64082763671875,1.079321349806711,9.721800217971206,0.7014862541828304
1773150248420864500,6.650864501953125,1.0686499528624116,9.722925422608851,0.7022143492616713
1773150248430901500,6.660901611328125,1.0572344595525414,9.724217215985059,0.70161294930242
1773150248440938800,6.670938720703125,1.042580641908571,9.725949154344201,0.6995191918935626
1773150248450975700,6.680975830078125,1.0222040627036244,9.728234050410986,0.6978091731052846
1773150248461012500,6.691012451171875,0.9948213310636579,9.73106079826951,0.6979566918171942
1773150248471049500,6.701049560546875,0.9606940935995429,9.734372114774585,0.6996151996139437
1773150248481086500,6.71108642578125,0.9211147282093762,9.738033559891582,0.7018805872626602
1773150248491123700,6.721123779296875,0.8777260336641222,9.741883805578947,0.7040626805420964
1773150248501160700,6.73116064453125,0.8316927428942174,9.745751586923003,0.7064000374484807
1773150248511197400,6.741197509765625,0.7826786827478558,9.749612938526273,0.7091059354063123
1773150248521238000,6.751238037109375,0.7302879127100109,9.753390703499317,0.71302902713418
1773150248531275000,6.76127490234375,0.6744260324954986,9.75694693467617,0.7193984160356223
1773150248541312000,6.77131201171875,0.6158695794347673,9.7601360861063,0.728564084592089
1773150248551349200,6.781349365234375,0.5553195779366419,9.762884508031606,0.7403271492306143
1773150248561386000,6.791385986328125,0.49358135303463785,9.765149530354142,0.7540732774451374
1773150248571423000,6.801423095703125,0.43146234865412114,9.76686860923171,0.769758264767751
1773150248581460000,6.8114599609375,0.3706784288022667,9.76806103388667,0.7861097531750798
1773150248591497200,6.821497314453125,0.3129677789159119,9.768843708696961,0.8013431242726743
1773150248601534200,6.8315341796875,0.2603591831426136,9.769361595091222,0.8137438292276113
1773150248611571200,6.8415712890625,0.2142741621854715,9.769747964060306,0.8224802395213395
1773150248621608000,6.85160791015625,0.17471390335457399,9.770124980679153,0.8273710803028196
1773150248631645200,6.861645263671875,0.14031505500799976,9.770524793651699,0.8291948616638779
1773150248641682200,6.87168212890625,0.107495867935149,9.7709725374192,0.8288199639368802
1773150248651719200,6.88171923828125,0.07163486548098735,9.771498022598028,0.8264710627231746
1773150248661756200,6.891756103515625,0.029199462205730376,9.771979084113239,0.8233733889687805
1773150248671793000,6.90179296875,-0.021927977931988425,9.77229414141178,0.8198715913929044
1773150248681828900,6.911828857421875,-0.08097101349984295,9.772395848220587,0.8149171838559209
1773150248691866000,6.9218662109375,-0.1455307255633641,9.772327459159493,0.8067285436380655
1773150248701903000,6.931903076171875,-0.21227380041480062,9.772084298053382,0.7947943602163344
1773150248711940000,6.941940185546875,-0.2779231891448609,9.771745275357365,0.7785561229251324
1773150248721977000,6.95197705078125,-0.33996300907563415,9.771346046906709,0.758688735351339
1773150248732014000,6.96201416015625,-0.3969543317114934,9.770874922263621,0.736761200377345
1773150248742051000,6.972051025390625,-0.4495870207464322,9.7701904471308,0.7152770983219147
1773150248752088000,6.982088134765625,-0.4997702708026394,9.769116095897555,0.6964077818747609
1773150248762125000,6.992125,-0.5497223424514756,9.767530288010835,0.6808516085635871
1773150248772162300,7.002162353515625,-0.602650178508088,9.765297998914122,0.6679319943010806
1773150248782199000,7.012198974609375,-0.6613442864738405,9.762251470825076,0.6568694791473448
1773150248792236000,7.022236083984375,-0.7280841190554201,9.758048758438228,0.6486735324058681
1773150248802273000,7.03227294921875,-0.8033440888315438,9.752340317663549,0.6456540384542196
1773150248812310000,7.04231005859375,-0.8867232137858867,9.744891755223273,0.648988516639173
1773150248822347300,7.05234716796875,-0.9749866767156868,9.735862061071396,0.6578688654482364
1773150248832384000,7.062384033203125,-1.0623825630307198,9.72582172857225,0.6709237965282052
1773150248842421000,7.0724208984375,-1.1425205871719866,9.71561656090021,0.6869057209707796
1773150248852458000,7.0824580078125,-1.2101123604077846,9.706103467145562,0.705402039387077
1773150248862495200,7.0924951171875,-1.2639051061980426,9.697853525194525,0.7242639762453734
1773150248872532200,7.1025322265625,-1.3061879583932459,9.690876087397337,0.7424082663536071
1773150248882569000,7.11256884765625,-1.34180170808807,9.684574356904625,0.7608924559406935
1773150248892606000,7.12260595703125,-1.3757454787440597,9.678174426734447,0.7814397155374289
1773150248902643200,7.132643310546875,-1.4105891208492218,9.671170100930333,0.8056516351215541
1773150248912680200,7.14268017578125,-1.4445033731497823,9.663782913288474,0.8337245409827679
1773150248922717200,7.15271728515625,-1.4717175432898104,9.656856328895687,0.8657582402337342
1773150248932754000,7.16275390625,-1.4869246109023688,9.651394556358456,0.9000221827547996
1773150248942791000,7.172791015625,-1.4882663809001444,9.648041154277324,0.9331532487884163
1773150248952828200,7.182828125,-1.4799059643119572,9.646448916649819,0.9624505088128149
1773150248962865200,7.192865234375,-1.4689733591482041,9.645706573849916,0.9863412336185574
1773150248972902100,7.202902099609375,-1.4618288942210376,9.644911039558053,1.0045622422248124
1773150248982939000,7.21293896484375,-1.4612810510799288,9.643547349989413,1.018358785452321
1773150248992976100,7.22297607421875,-1.4659677475914359,9.641640055063366,1.0296121470030397
1773150249003013000,7.23301318359375,-1.473065304636955,9.639570263051986,1.038816832395643
1773150249013050000,7.243050048828125,-1.4814667838878928,9.637560092273354,1.0455104117501526
1773150249023087000,7.253087158203125,-1.4916758970826864,9.635535892969369,1.0496353096604347
1773150249033124000,7.2631240234375,-1.5037272771432995,9.63344505816996,1.0516208574544639
1773150249043161000,7.2731611328125,-1.5161717481747268,9.631419689822197,1.05230430967398
1773150249053198000,7.283197998046875,-1.526203605106473,9.629859600898623,1.0521011152520776
1773150249063235000,7.293235107421875,-1.5300111806958914,9.629465633144974,1.0501713162332773
1773150249073272000,7.30327197265625,-1.5238069192282855,9.630912909343838,1.0458973652411252
1773150249083307000,7.31330712890625,-1.5058562519960104,9.63452700818777,1.0385817084655165
1773150249093344300,7.32334423828125,-1.4774806368611753,9.640018591341375,1.0283324824560434
1773150249103381200,7.33338134765625,-1.4417675184451042,9.646609660169482,1.0171611001003533
1773150249113418000,7.34341796875,-1.4026878462053836,9.653506433945894,1.0063089397616685
1773150249123455000,7.353455078125,-1.3623350852899252,9.660279873603582,0.9966969156771898
1773150249133492000,7.363491943359375,-1.3215299044318496,9.666803722414373,0.9883470204830169
1773150249143529200,7.373529296875,-1.2803715262219308,9.673183194318414,0.9800735515259206
1773150249153566200,7.383566162109375,-1.2392970269031822,9.67958487805426,0.969619012202695
1773150249163603000,7.39360302734375,-1.199000087828189,9.686048521110415,0.9556386368408799
1773150249173640000,7.403639892578125,-1.159188740313053,9.69260218053758,0.9381412663340568
1773150249183677200,7.41367724609375,-1.1191546899579465,9.699349901232123,0.9167838593982159
1773150249193714200,7.423714111328125,-1.0773155629422515,9.706431383925676,0.8916239914394914
1773150249203751200,7.433751220703125,-1.0321243490196763,9.714010879269242,0.8620345435354858
1773150249213788200,7.4437880859375,-0.9827144944887608,9.72218366433084,0.8269159569464624
1773150249223825000,7.453824951171875,-0.9285494813200086,9.730376907658576,0.7924348645433783
1773150249233862100,7.463862060546875,-0.8697108503170311,9.738234050899743,0.7620954019896685
1773150249243899100,7.473899169921875,-0.8072264832228422,9.74575509405434,0.7341969759125262
1773150249253936000,7.48393603515625,-0.7419595727380365,9.753070970025657,0.7053238595843315
1773150249263973000,7.49397314453125,-0.6741072488699108,9.760183432379364,0.6743669957846403
1773150249274010000,7.504010009765625,-0.6031977659208699,9.76701883135736,0.641789545045793
1773150249284047000,7.514047119140625,-0.5298651840107516,9.773363231948018,0.6090945688745006
1773150249294084000,7.524083984375,-0.455067972908169,9.77906524298191,0.5772051734650507
1773150249304121000,7.53412109375,-0.379668594661355,9.784106744280457,0.54543611649964
1773150249314158000,7.544157958984375,-0.303787131986022,9.788513454806804,0.5129244610060006
1773150249324195000,7.554195068359375,-0.22944659687606617,9.792227506893873,0.47957682961225506
1773150249334232000,7.564232177734375,-0.16167091844072565,9.795137841382623,0.4466974367847666
1773150249344269000,7.57426904296875,-0.1083119426915422,9.797181329908966,0.4170002907225862
1773150249354305000,7.584304931640625,-0.08143584539946168,9.798348035600782,0.3951343132100999
1773150249364343000,7.594343017578125,-0.08928931711250916,9.798659585767984,0.3856158126279712
1773150249374379300,7.604379150390625,-0.1205439674155321,9.798196059909463,0.3888484013410285
1773150249384416000,7.614416015625,-0.1490112063565757,9.79747359085381,0.39708431476671247
1773150249394453000,7.624452880859375,-0.15479940696973352,9.797207633394002,0.4014380164641887
1773150249404490000,7.634489990234375,-0.13777189159751868,9.797574713140726,0.3986590532701462
1773150249414527200,7.64452734375,-0.11076529066041112,9.798134685111044,0.39327757942751046
1773150249424564200,7.654564208984375,-0.08792550881286151,9.798319978550076,0.3944205754501745
1773150249434601000,7.66460107421875,-0.07784183036233298,9.797800923112034,0.40917609990295023
1773150249444638000,7.674637939453125,-0.08352445170916617,9.796375858744979,0.44096247332934285
1773150249454675200,7.68467529296875,-0.1055656761907041,9.79381682191193,0.49032483545672145
1773150249464712200,7.694712158203125,-0.1415429071693681,9.789896433597802,0.5552491065163165
1773150249474749200,7.704749267578125,-0.1847749863808043,9.784807586026192,0.6275185892395675
1773150249484786000,7.714785888671875,-0.23242603281196206,9.778908006593584,0.6995056748248636
1773150249494823000,7.724822998046875,-0.2858969810356386,9.77248294198215,0.7662984797026962
1773150249504860200,7.734860107421875,-0.34870351102259006,9.76573054511249,0.8241893084615468
1773150249514897200,7.744897216796875,-0.4212564868623391,9.759269824665784,0.8657844706535339
1773150249524930300,7.754930419921875,-0.49784259067568926,9.753789347428082,0.8866345125891267
1773150249534967300,7.76496728515625,-0.571880179050006,9.749472068750858,0.8894491316184401
1773150249545004300,7.77500439453125,-0.642068873443827,9.745985980200768,0.8797164768289775
1773150249555041300,7.785041259765625,-0.7087761189300567,9.74254840696752,0.8664784442670643
1773150249565078300,7.795078369140625,-0.7700898348096757,9.73859470090568,0.8585637986849993
1773150249575115500,7.805115478515625,-0.8231026822686195,9.733921448397636,0.862350331486389
1773150249585152500,7.815152587890625,-0.8651185540907085,9.728492993608116,0.8822476027417927
1773150249595189200,7.825189208984375,-0.8936245176069438,9.722786306399106,0.9161107093770057
1773150249605226200,7.835226318359375,-0.9088572311174123,9.717450790590048,0.9568278466254472
1773150249615263200,7.84526318359375,-0.9165815417591482,9.712534961497783,0.9984658250458538
1773150249625300500,7.855300537109375,-0.9268870280005037,9.707259066921472,1.0394128985926507
1773150249635337500,7.86533740234375,-0.949342532371357,9.701001175570488,1.0769037672709674
1773150249645374200,7.875374267578125,-0.98674206950441,9.693958271321653,1.1063009074732661
1773150249655411200,7.8854111328125,-1.033478978499025,9.686949853864311,1.1248637883197516
1773150249665448400,7.895448486328125,-1.0838454031024127,9.680248894920945,1.1351049771532415
1773150249675485400,7.9054853515625,-1.1354689150948076,9.673566640678047,1.141583598582819
1773150249685522400,7.9155224609375,-1.182805835809186,9.66697849445939,1.1492970955695956
1773150249695559200,7.92555908203125,-1.2224201994474977,9.66052303470969,1.1620559663124381
1773150249705596400,7.935596435546875,-1.2588427082419396,9.65371919991374,1.1795853393927216
1773150249715633400,7.94563330078125,-1.2987836734861136,9.646139704570174,1.1981463205430656
1773150249725670400,7.95567041015625,-1.3434982828728854,9.637945876720547,1.214658187143877
1773150249735707400,7.965707275390625,-1.3893676152527332,9.629824529585242,1.2274103358849882
1773150249745744100,7.975744140625,-1.4303157117128371,9.622373629057407,1.2387637968093157
1773150249755781400,7.985781494140625,-1.462240836022794,9.615905894348025,1.2516411063000559
1773150249765818400,7.995818359375,-1.4847151181593536,9.610216158273815,1.2687649673193693
1773150249775855400,8.00585546875,-1.4977502485603094,9.605327217188478,1.2902902781680226
1773150249785892400,8.015892333984375,-1.5041837887391447,9.600958500584959,1.3150770750306546
1773150249795929300,8.025929443359376,-1.5092555390454827,9.596305706343054,1.3429198984630406
1773150249805966300,8.03596630859375,-1.517139424163103,9.590731705603003,1.373518158083409
1773150249816003300,8.04600341796875,-1.527900764413178,9.584387305012346,1.4054977890595792
1773150249826040300,8.056040283203124,-1.5388311776198447,9.57814870288372,1.4357818681642411
1773150249836077600,8.06607763671875,-1.5496983163319527,9.57249637621045,1.4615499311491846
1773150249846114300,8.0761142578125,-1.5624878014087675,9.567570025724171,1.4800721146591007
1773150249856151300,8.0861513671875,-1.580539152536541,9.562998480024934,1.4904137681923806
1773150249866188300,8.096188232421875,-1.606446039470285,9.558223520708083,1.4933460222519934
1773150249876225300,8.106225341796875,-1.639080188832432,9.55300490927696,1.4912803218938409
1773150249886262500,8.116262451171876,-1.6777699849717318,9.547142739245295,1.485785816130787
1773150249896299300,8.12629931640625,-1.7208388729780912,9.541104043602942,1.4752772815980015
1773150249906336300,8.136336181640624,-1.764153260178119,9.535485034677386,1.4603632055826485
1773150249916373200,8.146373291015625,-1.8049743692576885,9.53053471879363,1.4426950085535644
1773150249926410500,8.156410400390625,-1.841277562521398,9.526167171233892,1.4255629642277956
1773150249936447500,8.166447509765625,-1.8769994487658141,9.520960834762453,1.4137084219135343
1773150249946484200,8.176484130859375,-1.921286041998863,9.511876195552945,1.4153658337317405
1773150249956521200,8.186521240234375,-1.9800639557905495,9.496566982740163,1.437000011782348
1773150249966558500,8.196558349609376,-2.060511703468114,9.472564760383962,1.4816145217955112
1773150249976595500,8.206595458984374,-2.1747074069686234,9.436150800222158,1.5492176932081578
1773150249986632400,8.216632568359374,-2.329218461983651,9.38484205326736,1.633974828517437
1773150249996669200,8.226669189453125,-2.514234983769059,9.32128055846095,1.7212645510442555
1773150250006706200,8.2367060546875,-2.7060066789031025,9.254704099747538,1.7883983513794839
1773150250016743400,8.246743408203125,-2.8926366272345185,9.191180598863959,1.8235270940363406
1773150250026780400,8.256780517578125,-3.0862317384034395,9.125411364880204,1.8364191627047954
1773150250036817400,8.2668173828125,-3.2951030368983742,9.050659198495746,1.8434334253810345
1773150250046854100,8.276854248046876,-3.5093253410324454,8.966402121663092,1.8597486003659665
1773150250056891400,8.286891357421876,-3.7184091132342814,8.875667373248934,1.8884793125487862
1773150250066928400,8.296928466796874,-3.912668533530831,8.783665965899825,1.9257804308086632
1773150250076965400,8.30696533203125,-4.087882184834778,8.692976225671172,1.9727597702570259
1773150250087002400,8.31700244140625,-4.246080403929948,8.603362590241431,2.0306017183728513
1773150250097039400,8.327039306640625,-4.383002026240527,8.517709090614318,2.099598682231456
1773150250107076400,8.337076416015625,-4.4991547090277075,8.43419084945023,2.1891623410396277
1773150250117113300,8.34711328125,-4.609910501207411,8.342389933109283,2.307299621772766
1773150250127150300,8.357150390625,-4.719057396885752,8.243995025330781,2.436684418837726
1773150250137187300,8.367187255859376,-4.810016601705551,8.154055811208487,2.558414609496295
1773150250147224300,8.377224365234374,-4.8761236893415445,8.075676101976633,2.6790403460443017
1773150250157261300,8.38726123046875,-4.934569448569417,7.998892722025513,2.7996660825923083
1773150250167298300,8.39729833984375,-5.006632229739427,7.918326900926232,2.898985996261239
1773150250177335300,8.407335205078125,-5.096825126361846,7.836364657032489,2.963805674435198
1773150250187372500,8.41737255859375,-5.194577644583583,7.757793809142708,3.000565087033808
1773150250197409300,8.4274091796875,-5.2877124398767945,7.687846997213363,3.0178637200981377
1773150250207446300,8.4374462890625,-5.367092266061902,7.6305714508086435,3.0230896380528804
1773150250217483300,8.447483154296876,-5.428306905481219,7.587880310073494,3.0212469327956435
1773150250227520300,8.457520263671874,-5.469346187356114,7.559550287646055,3.018250965850055
1773150250237557500,8.4675576171875,-5.489637280234694,7.545536959862709,3.016479280002415
1773150250247594200,8.47759423828125,-5.490450350183248,7.545425900703668,3.0152786720409988
1773150250257631200,8.48763134765625,-5.475746702048182,7.5568018657207485,3.013526567676663
1773150250267668200,8.497668212890625,-5.44755228869915,7.578304087954759,3.0106261700600383
1773150250277705500,8.50770556640625,-5.404911416846513,7.608852955475449,3.0104262635737657
1773150250287742500,8.517742431640626,-5.344149197369814,7.647842319083213,3.0200913330197334
1773150250297779200,8.527779296875,-5.261152934253215,7.695048891416191,3.045795390857756
1773150250307816200,8.537816162109374,-5.155467869466543,7.748090161252021,3.0917046168565747
1773150250317853400,8.547853515625,-5.029082546478509,7.802410364982485,3.1624522237747907
1773150250327890400,8.557890380859375,-4.884829558366537,7.85546040264666,3.255851222962141
1773150250337927400,8.567927490234375,-4.729452241910994,7.907431412902474,3.357854968887567
1773150250347964200,8.577964111328125,-4.576812241464853,7.954123021450639,3.4576138584956526
1773150250358001200,8.588001220703125,-4.436117238095402,7.992067259919643,3.5521979758143423
1773150250368038400,8.598038330078126,-4.300953565368056,8.030022019782662,3.6319317300036547
1773150250378075400,8.608075439453126,-4.163852787098288,8.076654007098078,3.6878695980638265
1773150250388112400,8.6181123046875,-4.0185871148124335,8.130233621594309,3.7310368318781255
1773150250398149400,8.6281494140625,-3.8364164839774366,8.19265354515016,3.7858611857384443
1773150250408186400,8.638186279296875,-3.633025954981148,8.260964864832163,3.8377021398738025
1773150250418223400,8.648223388671875,-3.475591413734853,8.322930614879727,3.849607097201049
1773150250428260400,8.65826025390625,-3.396011681063473,8.368131692609191,3.8225487021446227
1773150250438297300,8.66829736328125,-3.380772318616509,8.397280630204081,3.7717949587240813
1773150250448334300,8.678334228515626,-3.423338956189155,8.415563305869698,3.6918063529908656
1773150250458371300,8.688371337890626,-3.5009620018348095,8.433605743038655,3.576023964820802
1773150250468408300,8.698408203125,-3.559227436059713,8.46321119222939,3.4462095441669223
1773150250478445300,8.7084453125,-3.5586765241786837,8.509390759602189,3.3311379346147176
1773150250488482300,8.718482421875,-3.4967435073569413,8.565755036380887,3.2513109491840004
1773150250498519300,8.728519287109375,-3.394380280469358,8.618793968129157,3.2194679501995442
1773150250508556300,8.738556396484375,-3.2780925731256603,8.659313025522232,3.231223269923031
1773150250518593500,8.748593505859375,-3.1533065020278093,8.69174639161527,3.2681194606438275
1773150250528630500,8.758630615234376,-3.0132763923078776,8.724632177650928,3.3123040548071265
1773150250538667800,8.768667724609376,-2.8696964811518786,8.760549878728389,3.3448458497107025
1773150250548704500,8.77870458984375,-2.7456737956419586,8.79490164566338,3.358774421820044
1773150250558740700,8.78874072265625,-2.649610545681417,8.821666318470239,3.365733154916763
1773150250568777500,8.798777587890624,-2.5690187133580444,8.84191941742599,3.375056863579154
1773150250578814500,8.808814453125,-2.485431498610973,8.861983131289481,3.385008641012013
1773150250588851700,8.818851806640625,-2.391979161801189,8.88576732698083,3.3899770770743487
1773150250598888700,8.828888671875,-2.2973254863776265,8.910804737603664,3.389725148139894
1773150250608925700,8.83892578125,-2.2142997049055992,8.932323910972476,3.3883421693488955
1773150250618962400,8.84896240234375,-2.146363356015831,8.949943154293297,3.3855575070664283
1773150250628999700,8.858999755859376,-2.089664294324815,8.968979278674722,3.3706203424364327
1773150250639036700,8.86903662109375,-2.0437848789423705,8.990202683967352,3.342090705783665
1773150250649073700,8.87907373046875,-2.009237443304807,9.011201048332453,3.306299553695321
1773150250659110700,8.889110595703125,-1.985398594816774,9.031303340640664,3.2656004635602236
1773150250669147400,8.8991474609375,-1.9715958410441874,9.050369275638461,3.220874017605185
1773150250679184600,8.9091845703125,-1.9638500492230058,9.069958357727527,3.1701027385279534
1773150250689221600,8.9192216796875,-1.9564742597579954,9.091101098999381,3.1135970074519514
1773150250699258600,8.929258544921876,-1.9465391411989925,9.113249217921496,3.05451645745188
1773150250709295600,8.939295654296876,-1.93238845077157,9.135430654591321,2.9966929217755793
1773150250719332600,8.94933251953125,-1.912983493077755,9.156413821387291,2.944646800456941
1773150250729369600,8.95936962890625,-1.8885726899206636,9.175788968464731,2.899755519329011
1773150250739406600,8.969406494140625,-1.8624466072782873,9.192721398565173,2.862785971111059
1773150250749443600,8.979443603515625,-1.8390481960341334,9.206385182258487,2.8338591518342495
1773150250759480600,8.98948046875,-1.821804800288379,9.21555165453255,2.815139253795147
1773150250769517600,8.999517578125,-1.8102606390975415,9.21954510808289,2.8095094312146305
1773150250779554600,9.009554443359375,-1.8014996788844466,9.219435802489519,2.8154917204946277
1773150250789591600,9.019591552734376,-1.7922186403200029,9.215880740356445,2.832998151090741
1773150250799628500,9.029628662109374,-1.7833916291333733,9.20891148586571,2.8610896885871884
1773150250809665800,9.039665771484374,-1.7792137589268386,9.198338653925061,2.8974697464793917
1773150250819702500,9.04970263671875,-1.7772307684160769,9.18610636433959,2.937220742109418
1773150250829739500,9.059739501953125,-1.7679117359288037,9.175572110843659,2.9755227079749105
1773150250839776500,9.069776611328125,-1.7358607932820915,9.170953803393244,3.0084511641085148
1773150250849813800,9.079813720703125,-1.678073644093424,9.17195158225894,3.038049891297519
1773150250859850800,9.089850830078126,-1.6048213608779012,9.17362682199478,3.0723765237912533
1773150250869887500,9.099887451171876,-1.5293541780918836,9.17148513379097,3.1169431030094623
1773150250879924500,9.109924560546874,-1.4624766906052826,9.165829299986362,3.165297676333785
1773150250889961500,9.11996142578125,-1.4124819488584994,9.159094438773392,3.207221047566831
1773150250899998700,9.129998779296875,-1.3870039548613131,9.149322401821612,3.2459973529458046
1773150250910035700,9.14003564453125,-1.3845266049623488,9.134234722805022,3.2892604483500123
1773150250920072400,9.150072509765625,-1.3970786280214786,9.114352795249223,3.3387343810930847
1773150250930109400,9.160109375,-1.4140866075761616,9.091987234184145,3.3921278253674507
1773150250940146700,9.170146728515626,-1.426065360791981,9.071416155320405,3.4418221228629347
1773150250950183700,9.18018359375,-1.4268826685242355,9.05622676949501,3.4812583534553645
1773150250960220700,9.190220703125,-1.4163820250369608,9.04830006814897,3.506068969585001
1773150250970257400,9.20025732421875,-1.4031881969429552,9.046579235705734,3.5158035971358417
1773150250980294700,9.210294677734375,-1.3988032598569988,9.046704907912016,3.5172239853277802
1773150250990331600,9.22033154296875,-1.4073516002327202,9.045348232606052,3.5173031880438326
1773150251000368600,9.23036865234375,-1.4230619411922991,9.042385291147232,3.5185993653342127
1773150251010405600,9.240405517578125,-1.4374053777128457,9.039258683559298,3.5208038896411655
1773150251020442400,9.2504423828125,-1.4460918113850056,9.037228054514527,3.522457502067089
1773150251030479600,9.260479736328126,-1.4472167237617075,9.037288260269165,3.521841708256304
1773150251040516600,9.2705166015625,-1.4385009178645909,9.040314914613962,3.517640164913237
1773150251050553600,9.2805537109375,-1.4216853921420871,9.044912179276347,3.5126550699770447
1773150251060590600,9.290590576171875,-1.4000314864777028,9.048943042227625,3.5109719391956924
1773150251070627600,9.300627685546875,-1.3764458820983767,9.050753891041875,3.5156285328298806
1773150251080664600,9.31066455078125,-1.352014474544674,9.051831749406457,3.522325107859075
1773150251090701600,9.32070166015625,-1.3273304074041545,9.054023706492782,3.526077153868973
1773150251100738600,9.330738525390625,-1.3034607253864408,9.056686203700304,3.52814373100996
1773150251110775800,9.34077587890625,-1.2784500566400587,9.059243486967683,3.5307328707203265
1773150251120812500,9.3508125,-1.2493497804924845,9.060996468114853,3.5366470632001756
1773150251130849500,9.360849609375,-1.2182100344065576,9.06180310832262,3.5454315504193303
1773150251140886500,9.370886474609375,-1.189674114143476,9.062264296093582,3.553930790956318
1773150251150923500,9.380923583984375,-1.1703896410241723,9.063077950564026,3.5582544993743297
1773150251160960800,9.390960693359375,-1.1610269885908813,9.06482391744852,3.5568747354537247
1773150251170997500,9.40099755859375,-1.1583723093636333,9.06693111886084,3.5523695329889655
1773150251181034500,9.411034423828125,-1.15903376894705,9.06833104878664,3.548576862707734
1773150251191071500,9.421071533203126,-1.158754440549016,9.069342856177688,3.546079492934048
1773150251201108700,9.431108642578126,-1.153565274408087,9.071074210014938,3.5433448072731495
1773150251211145700,9.441145751953124,-1.1430496525473892,9.074552699780464,3.5378391955941915
1773150251221182500,9.451182373046874,-1.1299606730673462,9.07927563664913,3.529917170423269
1773150251231219500,9.461219482421875,-1.1174707554589955,9.084288496375084,3.520987721775472
1773150251241256400,9.47125634765625,-1.107187042658031,9.088790483969449,3.512605970138311
1773150251251293700,9.481293701171875,-1.1010479553811252,9.092525578844548,3.5048601783171294
1773150251261330700,9.49133056640625,-1.1000498111892492,9.09688377405405,3.4938489549592133
1773150251271367400,9.501367431640626,-1.103975094874203,9.102617933791874,3.4776395784363148
1773150251281404400,9.511404296875,-1.1117927098225802,9.107970985257625,3.461092932783067
1773150251291441700,9.521441650390624,-1.1223840272679924,9.112095956233143,3.4467870517939327
1773150251301478700,9.531478759765625,-1.136418324774131,9.115286861228942,3.4337273714736103
1773150251311515600,9.541515625,-1.1530005531974137,9.118365538021921,3.419998705850541
1773150251321552600,9.551552734375,-1.170345217360556,9.122256700241564,3.403691714172065
1773150251331589600,9.561589599609375,-1.188280979284644,9.127585786309838,3.3831267727881666
1773150251341626600,9.571626708984375,-1.2065353056386112,9.134303111866116,3.3584462127789854
1773150251351663600,9.58166357421875,-1.2229530642151831,9.14175635048151,3.3321286992177366
1773150251361700600,9.59170068359375,-1.23186921498999,9.149677791130543,3.307006825181842
1773150251371737600,9.601737548828124,-1.2306931569479405,9.157987354314328,3.284363031697273
1773150251381774600,9.611774658203124,-1.2215806068181991,9.166785577797889,3.263152485886216
1773150251391811600,9.6218115234375,-1.212779387659952,9.17577435541749,3.2410952601179477
1773150251401848600,9.6318486328125,-1.2070587449908257,9.185112092605232,3.216689717657864
1773150251411885600,9.641885498046875,-1.1997717297878117,9.194882375991345,3.19140739236325
1773150251421922600,9.651922607421875,-1.1840052747268228,9.205382727217673,3.1669284924060106
1773150251431959600,9.66195947265625,-1.156160697728768,9.217242091837525,3.142633424583077
1773150251441996500,9.67199658203125,-1.1224633030492812,9.22942937323749,3.1189921444937583
1773150251452033500,9.682033447265624,-1.0922461517009883,9.240511323744059,3.0968276589587327
1773150251462070800,9.69207080078125,-1.0671635136969386,9.251075972378253,3.073943626977503
1773150251472107800,9.702107666015625,-1.041797090315446,9.262768748259544,3.0473174858584997
1773150251482144500,9.71214453125,-1.0182212036125362,9.274572583299875,3.0192592661097644
1773150251492181500,9.722181396484375,-0.9974847050540149,9.28700244128406,2.987806727747619
1773150251502218500,9.732218505859375,-0.9799681183900684,9.300033772292732,2.9528651782259345
1773150251512255700,9.742255859375,-0.9632343526668846,9.314437560698389,2.9126953726619482
1773150251522296800,9.752296875,-0.9462791262127459,9.3298414660573,2.868621545396745
1773150251532333800,9.762333740234375,-0.9298135099064558,9.345662720045446,2.822128382030129
1773150251542370800,9.772370849609375,-0.9123601246718317,9.362294121372699,2.7722648654475806
1773150251552407800,9.78240771484375,-0.893079450944811,9.379846144676208,2.718694018779695
1773150251562444800,9.79244482421875,-0.8719574602000415,9.397384139454363,2.6644392815008757
1773150251572481800,9.802481689453124,-0.8487668464876711,9.414619351893663,2.6105390567481517
1773150251582518800,9.812518798828124,-0.8224715447582304,9.431768055093288,2.5564967931762337
1773150251592555800,9.8225556640625,-0.7920500299442559,9.449179208621382,2.5012109592840073
1773150251602593000,9.832593017578125,-0.7571133027281611,9.467539041176439,2.441897915702313
1773150251612630000,9.842630126953125,-0.7200137714549899,9.487039275938272,2.376562250830233
1773150251622666800,9.852666748046875,-0.6861486920583992,9.506945168891548,2.305989269826561
1773150251632703700,9.862703857421875,-0.6561402880899607,9.527061489725112,2.230462611938268
1773150251642740700,9.87274072265625,-0.6272102539427578,9.54730289824307,2.1508215044684706
1773150251652778000,9.882778076171874,-0.5959008503783494,9.567644260004162,2.0677214887164532
1773150251662815000,9.89281494140625,-0.5624942918715998,9.587929507663846,1.98131249454692
1773150251672851700,9.902851806640625,-0.5293423291804269,9.607623803693055,1.8930745313845574
1773150251682888700,9.912888671875,-0.49921428088769315,9.626236149704456,1.8046458679556845
1773150251692926000,9.922926025390625,-0.4713631280183792,9.643699910202622,1.716759348579496
1773150251702963000,9.932962890625,-0.44217521011997013,9.660243048724531,1.6292912007458507
1773150251713000000,9.943,-0.4104305204108357,9.675925771024822,1.54220591474995
1773150251723036000,9.953035888671875,-0.37595574815068394,9.690798930507897,1.455143717368692
1773150251733072600,9.96307275390625,-0.34235549370273943,9.70463281007111,1.36867203322649
1773150251743110000,9.97310986328125,-0.3134315605027601,9.717062083533406,1.2848589007690547
1773150251753147000,9.98314697265625,-0.28884072460364546,9.727873984926939,1.206414674933627
1773150251763183900,9.993183837890625,-0.2638832108166069,9.736987265709041,1.1365946311891078
1773150251773220900,10.003220947265625,-0.2349643373842351,9.744422384145855,1.077691118256375
1773150251783257900,10.0132578125,-0.19980267883846536,9.750355865848064,1.0300633979018776
1773150251793294800,10.023294921875,-0.15378420204520224,9.754916890153288,0.994139997735992
1773150251803331800,10.033331787109375,-0.09348061305619776,9.757893860137463,0.9722087364349513
1773150251813368800,10.043368896484376,-0.01915741267353296,9.759282684147358,0.962510130045563
1773150251823405800,10.05340576171875,0.06344185048211366,9.75896061258614,0.9638831719644367
1773150251833442800,10.06344287109375,0.14729902301067485,9.757370128524302,0.9707917823091149
1773150251843479800,10.073479736328125,0.2250165602730587,9.755909408321976,0.9705612614888697
1773150251853516800,10.083516845703125,0.292969951629173,9.754819274997711,0.9633614131126552
1773150251863553800,10.0935537109375,0.35050763783510774,9.753098442554473,0.9615689767379313
1773150251873591000,10.103591064453125,0.3909465791966766,9.75056746277213,0.9715862936876714
1773150251883627800,10.113627685546875,0.4046873371163383,9.748108379182218,0.9904653278112411
1773150251893664800,10.123664794921876,0.3891529737781733,9.746624278104305,1.0110666556827723
1773150251903701800,10.13370166015625,0.35169739560894664,9.746040925258397,1.030228160009533
1773150251913738800,10.14373876953125,0.30422124908696857,9.745763861882686,1.0478278949122874
1773150251923776000,10.15377587890625,0.2566405462119728,9.745374570304154,1.0640461123287677
1773150251933812700,10.163812744140625,0.21464051127983255,9.744925657492875,1.0773840981338172
1773150251943849700,10.173849609375,0.17910097759868948,9.74465619290173,1.0862811058167368
1773150251953886700,10.18388671875,0.14695473961764946,9.744649178639055,1.0911433780908584
1773150251963924000,10.193924072265625,0.11528449425105936,9.744621121588349,1.095199813874811
1773150251973961000,10.2039609375,0.08530718867378309,9.744034846132994,1.1031165052834897
1773150251983997700,10.213997802734376,0.06146414350124541,9.742748897975682,1.1159880426205695
1773150251994034700,10.22403466796875,0.0461052737273043,9.740956753861903,1.1322620818775146
1773150252004072000,10.234072021484375,0.03769545590628404,9.738474873918294,1.1537365393217653
1773150252014109000,10.24410888671875,0.03077500442676246,9.735221425080299,1.1810544620972125
1773150252024146000,10.25414599609375,0.014964638300455408,9.73095149267614,1.2160360513683408
1773150252034183000,10.264182861328125,-0.01930734025494894,9.725711253935097,1.2572076543860136
1773150252044219600,10.2742197265625,-0.07609763530981727,9.720239544525741,1.2967489527881144
1773150252054257000,10.2842568359375,-0.15330153309479355,9.714733348324895,1.3307317402802408
1773150252064294000,10.2942939453125,-0.24379207922322674,9.709057640776038,1.3583600441791117
1773150252074331000,10.304330810546874,-0.3385626772910356,9.70295347868204,1.3814619566947222
1773150252084368000,10.314367919921875,-0.42811939490176737,9.696490420147777,1.4018439427271485
1773150252094404900,10.32440478515625,-0.506613524293527,9.689907534626126,1.4210568849802017
1773150252104441900,10.33444189453125,-0.5738678822685033,9.683513449674845,1.4389758418999612
1773150252114478800,10.344478759765625,-0.6317945129930973,9.677342652085423,1.456116507923603
1773150252124515800,10.354515869140625,-0.6794747672524303,9.6720901383847,1.4694783860608935
1773150252134552800,10.364552734375,-0.7145670503564179,9.668722707778215,1.4749842900007963
1773150252144589800,10.37458984375,-0.734656117856875,9.66770622421205,1.4717778951749205
1773150252154626800,10.384626708984374,-0.7412862035211175,9.668736151781678,1.4616548528283833
1773150252164663800,10.394663818359374,-0.7392164845749736,9.670832831799983,1.4487665835522114
1773150252174700800,10.40470068359375,-0.7297111357353627,9.673472532653808,1.4359069558486341
1773150252184738000,10.414738037109375,-0.7045544095817953,9.67598656130135,1.4315215803712606
1773150252194774800,10.42477490234375,-0.6542639728240668,9.677451373156904,1.445420634125173
1773150252204811800,10.434811767578125,-0.5843628266673535,9.677653617730735,1.4737475878126918
1773150252214848800,10.444848876953126,-0.5209458183655515,9.676820089516044,1.5027128394037483
1773150252224886000,10.454885986328126,-0.5016708802595734,9.674657358524202,1.5230569776438176
1773150252234923000,10.464923095703124,-0.5435914384810253,9.67100526575744,1.5318433645591139
1773150252244959700,10.474959716796874,-0.626392069427669,9.66690542922318,1.5260963453397154
1773150252254996700,10.484996826171875,-0.7149956510320306,9.664781276676058,1.500399009503424
1773150252265034000,10.495033935546875,-0.7845079440016299,9.666113986584543,1.4564223590023815
1773150252275071000,10.505071044921875,-0.8289218899413943,9.6701857660681,1.4038395004585384
1773150252285108000,10.51510791015625,-0.8597155990686267,9.675286304077506,1.3491172917984424
1773150252295144700,10.525144775390626,-0.8944877103075385,9.679781861931085,1.2930951064556837
1773150252305181700,10.535181640625,-0.9450175818443298,9.682704471379518,1.2339184026047587
1773150252315219000,10.545218994140624,-1.0151643733251838,9.683341600239276,1.1716326268225907
1773150252325256000,10.555255859375,-1.1006785375468433,9.68157926674187,1.1072145882520823
1773150252335293000,10.56529296875,-1.1938816488359123,9.677726098445058,1.042422967128828
1773150252345329700,10.57532958984375,-1.2879916458368301,9.67194050078094,0.9823700649652629
1773150252355367000,10.585366943359375,-1.380629451393336,9.664062899273633,0.9328050198726355
1773150252365404000,10.59540380859375,-1.4739796430028975,9.653467855501175,0.899072334684059
1773150252375441000,10.60544091796875,-1.5725057759456336,9.639311904376745,0.8838855061419307
1773150252385478000,10.615477783203126,-1.6792863808840512,9.621450084471702,0.8820964307680725
1773150252395514600,10.6255146484375,-1.797426584226638,9.599741526010632,0.8857931663941592
1773150252405551900,10.6355517578125,-1.9312351890832185,9.573333411556481,0.8899391070924699
1773150252415588900,10.6455888671875,-2.0796616634875535,9.541869767278433,0.893367766366899
1773150252425625900,10.6556259765625,-2.2351602682352065,9.506257186627387,0.8974997516050934
1773150252435662800,10.665662841796875,-2.386665565562993,9.468406471660733,0.9074703068036586
1773150252445699800,10.675699951171875,-2.5187422320604322,9.43264249984026,0.9228165636911988
1773150252455736800,10.68573681640625,-2.623882522445917,9.401484560510516,0.9474825837183743
1773150252465773800,10.69577392578125,-2.700707987973094,9.375430081799626,0.988868998530507
1773150252475810800,10.705810791015624,-2.7507562134727834,9.354487247014045,1.0475215323768556
1773150252485848000,10.71584814453125,-2.775869611941278,9.339458604708314,1.113313416583836
1773150252495884800,10.725884765625,-2.778245401161909,9.331972632867098,1.168777310456708
1773150252505921800,10.735921875,-2.759417951095104,9.333474269601702,1.200948445416987
1773150252515958800,10.745958740234375,-2.7234689780965446,9.343486545050144,1.2051424630407244
1773150252525995300,10.755995361328125,-2.6776699344739314,9.359691245397924,1.1817946129400283
1773150252536032300,10.7660322265625,-2.6298554593756793,9.379229474082589,1.133260372199863
1773150252546069200,10.7760693359375,-2.591602885609865,9.39841815867722,1.0600654451947658
1773150252556106200,10.786106201171876,-2.5827783586412667,9.411685052007437,0.9590670769196004
1773150252566143200,10.796143310546874,-2.6191259755685925,9.414045351397991,0.8284301609016954
1773150252576180200,10.80618017578125,-2.6953113896265624,9.404633964452147,0.6771572840902954
1773150252586217200,10.81621728515625,-2.7757094529435036,9.390711237561701,0.5295055569181218
1773150252596254500,10.82625439453125,-2.8077193329274652,9.386924704760313,0.4156358339689672
1773150252606291200,10.836291259765625,-2.766790525689721,9.401715446656942,0.3507319115776568
1773150252616328200,10.846328125,-2.656893103905022,9.434274484956264,0.3252483646225184
1773150252626365200,10.856365234375,-2.5061378942921757,9.475873738801479,0.31222434013746675
1773150252636402400,10.86640234375,-2.3445621615879237,9.517731935843825,0.2935976733397692
1773150252646439400,10.876439453125,-2.1940870840907096,9.554435234341025,0.2629602690191008
1773150252656476200,10.88647607421875,-2.0675788653753697,9.583694062051176,0.21979617700995877
1773150252666513200,10.89651318359375,-1.9658892999656497,9.606102293214201,0.16872070908807216
1773150252676550100,10.906550048828125,-1.8779441822700202,9.62443874489367,0.11782597716110758
1773150252686587400,10.91658740234375,-1.7857378999985754,9.642430913180112,0.07100113415471278
1773150252696624400,10.926624267578125,-1.6722171731501816,9.662981533777714,0.02955552508480614
1773150252706661000,10.9366611328125,-1.5273003143019974,9.686985509699582,-0.006390470505377743
1773150252716698000,10.946697998046876,-1.3557142058454452,9.712406366682051,-0.03962434617620893
1773150252726735400,10.9567353515625,-1.182456803175807,9.73480816810429,-0.0754391988005489
1773150252736772400,10.9667724609375,-1.0421304869882762,9.750459910744429,-0.11342479219324886
1773150252746809300,10.976809326171875,-0.9512292959660291,9.75939082069695,-0.14086146424384788
1773150252756845300,10.98684521484375,-0.911709040351957,9.763098443043232,-0.14529789405502377
1773150252766882300,10.99688232421875,-0.9092804980307817,9.763666013798117,-0.12009896359439007
1773150252776919300,11.006919189453125,-0.9202598649457097,9.763130007225275,-0.06921558417850174
1773150252786956300,11.016956298828125,-0.9348505542255937,9.76198142171204,-0.012420423435559496
1773150252796993300,11.0269931640625,-0.9605668870232998,9.759465054976939,0.022957316413149235
1773150252807030300,11.0370302734375,-1.0005318907301872,9.755440621766448,0.026318872117984574
1773150252817067300,11.0470673828125,-1.0417115309238434,9.751154907271266,0.01453760053591104
1773150252827104300,11.057104248046874,-1.0715655480481683,9.747927177396416,0.006625911812623962
1773150252837141200,11.067141357421875,-1.0872641985699534,9.746188809296488,0.008233511976865702
1773150252847178200,11.07717822265625,-1.091281471387297,9.745728790569304,0.015676898772636196
1773150252857215200,11.08721533203125,-1.0853629680585115,9.746370011082291,0.02505210586846806
1773150252867252200,11.097252197265625,-1.0705124587986619,9.747986214107275,0.033655633330415
1773150252877289200,11.107289306640626,-1.0504116277951747,9.750155959361791,0.03860190322671551
1773150252887326200,11.117326171875,-1.0292879565499722,9.75239701628685,0.04111301383138634
1773150252897363200,11.12736328125,-1.0081589515425264,9.754587804329395,0.044846711333841084
1773150252907400400,11.137400390625,-0.9863719940830021,9.75677976141572,0.05205232273056171
1773150252917437400,11.1474375,-0.9623695525310934,9.759101482361555,0.06454854221553541
1773150252927474200,11.15747412109375,-0.935198271684721,9.761614926487207,0.08158442355729639
1773150252937511200,11.16751123046875,-0.9039364335890859,9.76435165797472,0.10360345447333529
1773150252947548200,11.177548095703125,-0.8677573050964623,9.767280697163939,0.1326410406482406
1773150252957585400,11.18758544921875,-0.8260290180440991,9.770376909613608,0.16678153945272786
1773150252967622400,11.197622314453126,-0.7785708821028471,9.773585350266098,0.20314146787235512
1773150252977659100,11.2076591796875,-0.7261915102418511,9.776778008827566,0.24007660236405207
1773150252987696000,11.217696044921874,-0.6721735773935914,9.779691850447653,0.27600058705182745
1773150252997733400,11.2277333984375,-0.6207509948007762,9.78206617836356,0.31022958612367507
1773150253007770400,11.237770263671875,-0.5754440455440432,9.783720959833264,0.34360684547070414
1773150253017807400,11.247807373046875,-0.5387833075469359,9.78458371414244,0.37685225859899074
1773150253027844000,11.257843994140625,-0.5103246903037653,9.784815769332647,0.4090525100558996
1773150253037881300,11.26788134765625,-0.48921417080108076,9.784619369977712,0.43852333654891695
1773150253047918300,11.27791845703125,-0.4757933290181681,9.784050630179047,0.465163250464946
1773150253057955300,11.287955322265624,-0.4698678114267066,9.783198397263885,0.4885180782957002
1773150253067992300,11.297992431640624,-0.4664769999446347,9.782307001382112,0.5091811462918296
1773150253078029000,11.308029052734375,-0.45845783454217015,9.781600314417481,0.529642517703399
1773150253088066300,11.31806640625,-0.44188382595796133,9.781201670488715,0.5506820543291047
1773150253098103300,11.328103271484375,-0.41617282692249863,9.781140295690298,0.5713687589291483
1773150253108140300,11.338140380859375,-0.38398075877204535,9.781207515707612,0.592381626743637
1773150253118177300,11.34817724609375,-0.34787250355854626,9.781187641963362,0.6145959793023765
1773150253128214300,11.35821435546875,-0.3117301268797368,9.781167768219113,0.6340108008030801
1773150253138251300,11.368251220703126,-0.28191390274884176,9.781475811254978,0.6431668978136033
1773150253148288300,11.378288330078124,-0.26119503117855636,9.782208217182754,0.6407463196031749
1773150253158325200,11.3883251953125,-0.243364501460921,9.783290167200565,0.6311877792716026
1773150253168362200,11.3983623046875,-0.21856502777980638,9.78467899121046,0.6186199010562151
1773150253178399200,11.408399169921875,-0.18239842997519298,9.786126267409324,0.6073254768427461
1773150253188436200,11.418436279296875,-0.14175084169846958,9.786965056321025,0.6046649523966015
1773150253198473200,11.42847314453125,-0.10941134616765193,9.786614343187212,0.616925810489431
1773150253208510200,11.43851025390625,-0.09145855091037228,9.785326056942344,0.6398484939806163
1773150253218547500,11.44854736328125,-0.08538546894122846,9.78376596801877,0.6641036681845783
1773150253228584200,11.458584228515624,-0.08723527979268692,9.782380651140212,0.6839538854278624
1773150253238621200,11.46862109375,-0.0959095755024813,9.7813214974761,0.6978158220417797
1773150253248658200,11.478658203125,-0.10709399086968041,9.780800103950499,0.7034723864987492
1773150253258695400,11.4886953125,-0.11482742553278803,9.780956171295045,0.7000806251686066
1773150253268732400,11.498732421875,-0.1145330365629401,9.781721310448646,0.6893537717100232
1773150253278769200,11.50876904296875,-0.10796740357019007,9.782924841019511,0.6731315357055515
1773150253288806100,11.51880615234375,-0.10007413870287127,9.784282100847363,0.6543607111968099
1773150253298843100,11.528843017578126,-0.09582101130303926,9.785496152812241,0.636599282926321
1773150253308880400,11.53888037109375,-0.09640255578435025,9.786336695289611,0.6234521435182542
1773150253318917400,11.54891748046875,-0.0977979373991955,9.786707282167672,0.617376038474962
1773150253328954000,11.5589541015625,-0.09487499915719963,9.786576349264383,0.6199196585431694
1773150253338991000,11.5689912109375,-0.08815655022291466,9.78607775209248,0.6287360752705484
1773150253349028400,11.5790283203125,-0.08305175616350025,9.785434193491936,0.6393591030284762
1773150253359065300,11.5890654296875,-0.08406566418008879,9.784739781486987,0.6497546056408434
1773150253369102300,11.599102294921876,-0.09227610523779876,9.783978733986615,0.6600274317216128
1773150253379139000,11.60913916015625,-0.1058827884490136,9.783203073439001,0.669411273073405
1773150253389176300,11.61917626953125,-0.12186997358859517,9.782491710299253,0.6770397221252322
1773150253399213300,11.62921337890625,-0.14107253144495188,9.781841721957921,0.6826926333203911
1773150253409250300,11.639250244140625,-0.16719068650919944,9.781189395529031,0.6861284529879689
1773150253419287300,11.649287353515625,-0.1998979741727933,9.780418411156534,0.6883858765259385
1773150253429324000,11.659323974609375,-0.23464279554598033,9.779509479618072,0.6903104148477316
1773150253439361300,11.669361328125,-0.26634552754322066,9.778402979680894,0.6944776905950159
1773150253449398300,11.679398193359376,-0.29507501588333396,9.776998373579978,0.702581940465048
1773150253459435300,11.689435302734376,-0.32529388426467776,9.775307936275004,0.7126802867617458
1773150253469472300,11.69947216796875,-0.35872360445130613,9.773720959344505,0.7183948650162667
1773150253479509200,11.70950927734375,-0.39187553060986097,9.772617966538666,0.7160745323099196
1773150253489546200,11.719546142578125,-0.4186723886532709,9.771851073819398,0.7113674505975097
1773150253499583200,11.729583251953125,-0.4358050175009295,9.77121160687208,0.7098552924688905
1773150253509620200,11.7396201171875,-0.4427832590157166,9.771054370483755,0.707706005480513
1773150253519657500,11.749657470703125,-0.4398575442947447,9.771592715144157,0.7020525097634643
1773150253529694500,11.759694580078126,-0.43079705314580347,9.772396432742475,0.6964812124371528
1773150253539731500,11.7697314453125,-0.4225602994699031,9.77296634158492,0.6935026350177824
1773150253549768400,11.7797685546875,-0.4218455387966707,9.773226453825831,0.6902859379936009
1773150253559805400,11.789805419921874,-0.4300013727234676,9.773212425300478,0.6854302415907383
1773150253569842700,11.7998427734375,-0.44128224333561955,9.773000243854522,0.6812712222151458
1773150253579879400,11.80987939453125,-0.45090694423858074,9.772712659084796,0.6790887636095285
1773150253589916400,11.81991650390625,-0.4604861254993826,9.772417475530505,0.6769250827696174
1773150253599953400,11.829953369140625,-0.4742884043479338,9.772062086221576,0.6724724872749298
1773150253609990400,11.839990478515626,-0.493113552859798,9.77155004504621,0.6663458210881799
1773150253620027600,11.850027587890626,-0.5155192632721737,9.770879013916849,0.6592101970545947
1773150253630065400,11.8600654296875,-0.5399673296997324,9.770185770955681,0.6498316163998097
1773150253640102400,11.870102294921875,-0.566688930549845,9.769521169567108,0.6369279303587972
1773150253650139600,11.8801396484375,-0.5956491771722212,9.768944246461986,0.6191317961011081
1773150253660176600,11.8901767578125,-0.6274521729398519,9.7683766757071,0.5962632904825732
1773150253670213400,11.90021337890625,-0.6629260757725686,9.767640178126095,0.5693110957469791
1773150253680250400,11.91025048828125,-0.7022227517638355,9.766689745533466,0.5376278904341161
1773150253690287400,11.920287353515626,-0.7440103677880019,9.76554466715157,0.5009553524013608
1773150253700324600,11.93032470703125,-0.7876343323938548,9.764114926609397,0.4604994599049911
1773150253710361600,11.940361572265624,-0.8342734070371836,9.762062670254707,0.42013698131311683
1773150253720398300,11.9503984375,-0.8881617952216416,9.758800453588366,0.38388486064951866
1773150253730435300,11.960435302734375,-0.9547583468750118,9.753600546857713,0.3550799507193267
1773150253740472600,11.97047265625,-1.0400378986231982,9.745436529624461,0.33940800554137673
1773150253750509600,11.980509521484375,-1.1527598032440989,9.732563019526005,0.34461079834885894
1773150253760546600,11.990546630859376,-1.3004495608717201,9.712793904694914,0.3753110205063596
1773150253770583300,12.000583251953126,-1.4794446304105222,9.684838560798763,0.4307425464795902
1773150253780620500,12.01062060546875,-1.6722621813356875,9.649941434940695,0.5025456538001075
1773150253790657500,12.020657470703124,-1.8604624477237461,9.611031566309927,0.5806180506484583
1773150253800694500,12.030694580078125,-2.037128197532147,9.570130231600999,0.6580985094856471
1773150253810731500,12.0407314453125,-2.204265656016767,9.527806755134463,0.7297370738942176
1773150253820768300,12.050768310546875,-2.3698599767126143,9.482740117439628,0.7948557350147515
1773150253830805500,12.060805419921875,-2.5294632403001187,9.436344276967644,0.8529920629672706
1773150253840842500,12.070842529296876,-2.6623995923668144,9.395493795663118,0.8981712941911071
1773150253850879500,12.08087939453125,-2.7550930736333132,9.366288159444927,0.9233083657961338
1773150253860916500,12.09091650390625,-2.803490024794638,9.35184813068211,0.923981808078289
1773150253870953500,12.100953369140624,-2.810334483861923,9.352242682957648,0.8988604454990475
1773150253880990500,12.110990478515625,-2.784542163218558,9.364107892796397,0.8545121852066367
1773150253891027500,12.12102734375,-2.7327552773579953,9.38429844790995,0.7983581171125174
1773150253901064400,12.131064453125,-2.653330735248327,9.412384140187502,0.7329662650737911
1773150253911101700,12.141101806640625,-2.5412881181284783,9.448256833079457,0.6653471654396503
1773150253921138400,12.151138427734375,-2.394053629987687,9.490940375030041,0.6007827041357755
1773150253931175400,12.161175537109376,-2.2144128098912534,9.53804874768555,0.5407260391125455
1773150253941212400,12.17121240234375,-2.01133397719264,9.58596142246127,0.48403103254213925
1773150253951249400,12.18124951171875,-1.8017106912866234,9.630121466705203,0.4301008875751868
1773150253961286700,12.19128662109375,-1.613361517947167,9.665528295651077,0.38083760190811006
1773150253971323400,12.201323486328125,-1.473322348137945,9.68952525731027,0.3358719769023359
1773150253981360400,12.2113603515625,-1.3653537024587392,9.706383453130721,0.30382835904555394
1773150253991397400,12.2213974609375,-1.2593101796232162,9.720990655153988,0.2947537115070969
1773150254001434600,12.2314345703125,-1.1566647017281502,9.733581256657839,0.2998672185959294
1773150254011471600,12.2414716796875,-1.0829292381055653,9.742110015550255,0.29825890661645676
1773150254021508400,12.25150830078125,-1.0471277838189155,9.746673962464929,0.2761166694458574
1773150254031545300,12.26154541015625,-1.0382746152777225,9.748434542396664,0.24576922451509162
1773150254041582600,12.27158251953125,-1.0488645444836466,9.747928346440196,0.21946630573477593
1773150254051619600,12.28161962890625,-1.085922501637414,9.744381467613577,0.19544411830278113
1773150254061656600,12.291656494140625,-1.1429533525660633,9.73846552156806,0.16230433923974633
1773150254071693300,12.301693359375,-1.1903589546024798,9.733444478535652,0.11623770332266575
1773150254081730300,12.311730224609375,-1.2131233787920326,9.73115139916241,0.05845201087214518
1773150254091767600,12.321767578125,-1.2203927122078835,9.730414901581407,-0.006693861340655712
1773150254101804500,12.331804443359376,-1.2279194544509053,9.729244688758254,-0.06617611145132686
1773150254111841500,12.341841552734374,-1.2427797544524073,9.726966806954145,-0.10956000652387737
1773150254121878300,12.351878173828124,-1.2635168375328183,9.724050627246498,-0.12945606306972912
1773150254131915500,12.36191552734375,-1.2854323167428374,9.721246675741671,-0.12416242277417332
1773150254141952500,12.371952392578125,-1.3030914536826312,9.719202018171549,-0.09714503558157012
1773150254151989500,12.381989501953125,-1.310233872783184,9.718566642877459,-0.05596017122352495
1773150254162026500,12.392026611328125,-1.30295379877761,9.71970061534345,-0.01010032933287439
1773150254172063200,12.402063232421876,-1.2810697376191615,9.72255542025268,0.034233727762603666
1773150254182100500,12.4121005859375,-1.247823301577568,9.726689743578433,0.06947975610659923
1773150254192137500,12.422137451171874,-1.2109684657804667,9.731204590654373,0.08714096170589328
1773150254202174500,12.432174560546875,-1.177095056946948,9.735395028081536,0.08331027923552319
1773150254212211500,12.44221142578125,-1.1462073859259485,9.739203188192844,0.06724944433784112
1773150254222248400,12.45224853515625,-1.1108842166755348,9.743360892394184,0.056708190278965044
1773150254232285400,12.462285400390625,-1.0643043248735367,9.748508192154764,0.06507794551765546
1773150254242322400,12.472322509765625,-1.0098614446114749,9.754090960723161,0.09089762909198179
1773150254252359400,12.482359375,-0.9559437572672963,9.759156427419185,0.12413754406124353
1773150254262396700,12.492396728515626,-0.9101054045476019,9.763093766868113,0.15525496871750802
1773150254272433400,12.502433349609374,-0.8752304905213415,9.765926944467425,0.17619767563892527
1773150254282470400,12.512470458984374,-0.8523627520877868,9.76785878931284,0.1810656287351623
1773150254292507400,12.52250732421875,-0.8388667261768132,9.7692552121073,0.16835077979713678
1773150254302544400,12.53254443359375,-0.8268070897445082,9.770732298922539,0.1398448802129831
1773150254312581600,12.54258154296875,-0.8100367183379829,9.772617966538666,0.10078942909906617
1773150254322618400,12.552618408203125,-0.7865420801777392,9.77486896033585,0.06056135400920175
1773150254332655400,12.5626552734375,-0.7614948788132518,9.777008894973992,0.024666880826989653
1773150254342692400,12.5726923828125,-0.7420649328086525,9.778532743540406,0.0044136639964635835
1773150254352729600,12.5827294921875,-0.7342021635442971,9.779124864214658,0.005144466770210419
1773150254362766600,12.5927666015625,-0.7424838888730854,9.778484228223562,0.019050907533668213
1773150254372803300,12.60280322265625,-0.7672096031982452,9.776517896586656,0.03857284609558992
1773150254382840300,12.61284033203125,-0.8040440537944435,9.77345032570958,0.059611473972420205
1773150254392877600,12.622877685546875,-0.8468106709185987,9.769676652389764,0.0818563814996276
1773150254402914600,12.63291455078125,-0.8897156736001371,9.765619485953449,0.10712821279969066
1773150254412951600,12.64295166015625,-0.9277344386100769,9.761724232080578,0.1357385591390077
1773150254422988300,12.65298828125,-0.9573273205801844,9.758419345316291,0.16485985067514702
1773150254433025300,12.663025390625,-0.9755389768362045,9.756147308731078,0.19057590947821734
1773150254443062500,12.6730625,-0.983520696305111,9.754959560251235,0.20937435264624654
1773150254453099500,12.683099609375,-0.9857980666525661,9.754477329692245,0.22084451701911165
1773150254463136500,12.693136474609375,-0.9896814839571714,9.754005036005378,0.22430554419318213
1773150254473173500,12.703173583984375,-1.001437753528729,9.75287983136773,0.22104124516760928
1773150254483210500,12.71321044921875,-1.021909755932167,9.750934542518854,0.21303033613683656
1773150254493247500,12.72324755859375,-1.0460398424517363,9.74855378486216,0.2046364374041557
1773150254503284500,12.733284423828126,-1.069327267602086,9.746107560753822,0.2008237289818935
1773150254513321500,12.743321533203124,-1.0927394881758838,9.743391872054337,0.206419302232936
1773150254523354400,12.753354248046875,-1.1220021152783184,9.73965736170113,0.22490298036336898
1773150254533391400,12.763391357421876,-1.1610055074114352,9.734277422228455,0.25747412922559304
1773150254543428400,12.773428466796876,-1.2088765350025146,9.727119951689243,0.3035162791553885
1773150254553465300,12.78346533203125,-1.2628959291554986,9.718354461431503,0.3592390796927735
1773150254563502300,12.79350244140625,-1.3206352936796844,9.708355629986524,0.41731136596575374
1773150254573539300,12.803539306640625,-1.381152744615078,9.697615624785422,0.4680438474025577
1773150254583576300,12.813576416015625,-1.453546657435596,9.685240711858867,0.5036949334330857
1773150254593613300,12.82361328125,-1.5532367195911705,9.66884428833127,0.5208707073027268
1773150254603650300,12.833650390625,-1.675084106888622,9.648187869271636,0.5262787768913433
1773150254613687300,12.843687255859376,-1.7954365794532,9.626317398247123,0.5299122014902532
1773150254623724500,12.853724609375,-1.9063433244109154,9.604422961825131,0.5397302695408464
1773150254633761300,12.86376123046875,-2.0089115723513067,9.582650105956196,0.554500005182065
1773150254643798300,12.87379833984375,-2.107625044559687,9.560556347569822,0.5692695216275752
1773150254653835300,12.883835205078125,-2.2134074322409925,9.536050267344713,0.5787625589748844
1773150254663872300,12.893872314453125,-2.3309429476886985,9.507300558200479,0.5902005929101258
1773150254673909500,12.903909423828125,-2.4555802579656243,9.473941893956065,0.6204353529803455
1773150254683946500,12.913946533203125,-2.5824875590011476,9.436111637255548,0.6789279470246284
1773150254693983200,12.923983154296875,-2.705860256169736,9.395794239914416,0.7534822527494281
1773150254704020200,12.934020263671876,-2.8190695789813995,9.355985961139202,0.8299139697186648
1773150254714057500,12.944057373046874,-2.918834898330271,9.317841816183924,0.9102696551986038
1773150254724094500,12.954094482421874,-3.010960808841884,9.278370806539058,1.0081409774944186
1773150254734131500,12.96413134765625,-3.10347250380069,9.23347835636735,1.1321345099750906
1773150254744168200,12.974168212890625,-3.1928876940488813,9.183098999217153,1.2831807384237646
1773150254754205200,12.984205078125,-3.280215848889947,9.1275653280437,1.4484895201765
1773150254764242400,12.994242431640625,-3.378245722748339,9.065133129528164,1.6066092672079801
1773150254774279400,13.004279541015626,-3.4949575007230043,8.994861907950042,1.7458865127339958
1773150254784316400,13.01431640625,-3.6186379486665126,8.919050003379583,1.8778687789462505
1773150254794353200,13.024353271484374,-3.7262159875929353,8.84421132775545,2.0163396765254435
1773150254804390400,13.034390380859374,-3.8157644488319753,8.771910646176337,2.159607891383767
1773150254814427400,13.044427490234375,-3.9148388633072373,8.696271175563336,2.2845767717026173
1773150254824464400,13.05446435546875,-4.025233420959115,8.621982535037398,2.3726138054654
1773150254834501400,13.06450146484375,-4.125601966898143,8.554825646087528,2.442282238844782
1773150254844538400,13.074538330078125,-4.215905338157713,8.48933873617649,2.515481476698816
1773150254854575400,13.084575439453126,-4.305644353532791,8.4223472669214,2.5876386581540105
1773150254864612400,13.0946123046875,-4.39795409617871,8.355653903830051,2.6479087101995944
1773150254874649300,13.1046494140625,-4.48296169911772,8.293224043402075,2.7010876349404453
1773150254884686300,13.114686279296874,-4.557875485804677,8.233998531973361,2.7563457040429116
1773150254894723300,13.124723388671875,-4.623584806294739,8.175387353050708,2.8206173929452896
1773150254904760300,13.13476025390625,-4.684164362680912,8.114382556989788,2.895821102489531
