time,seconds_elapsed,z,y,x
1773150242127696100,0.357696044921875,-0.2649654150009155,-0.5207661986351013,-0.5973038077354431
1773150242137733000,0.367733154296875,-0.28430405259132385,-0.5309218168258667,-0.5342788100242615
1773150242147770000,0.37777001953125,-0.3026287257671356,-0.5324952006340027,-0.3967510461807251
1773150242157807000,0.38780712890625,-0.32698678970336914,-0.5591920614242554,-0.2750028967857361
1773150242167844000,0.397843994140625,-0.32506000995635986,-0.45901164412498474,-0.18357446789741516
1773150242177881300,0.40788134765625,-0.31424376368522644,-0.2876681983470917,-0.1057436466217041
1773150242187918000,0.41791796875,-0.38535550236701965,-0.17273150384426117,-0.03659173846244812
1773150242197955000,0.427955078125,-0.4889063537120819,-0.07011060416698456,-0.015115494839847088
1773150242207992000,0.437991943359375,-0.5730031132698059,-0.02698337286710739,-0.02195209637284279
1773150242218029000,0.448029052734375,-0.6693430542945862,-0.06257382780313492,-0.06359698623418808
1773150242228066300,0.45806640625,-0.5427196025848389,-0.12270187586545944,-0.068515844643116
1773150242238102300,0.468102294921875,-0.36579057574272156,-0.609937846660614,-0.055260904133319855
1773150242248139300,0.47813916015625,-0.30632299184799194,-0.8014364242553711,0.0252136941999197
1773150242258176000,0.488176025390625,-0.22343114018440247,-1.0764349699020386,0.0828627496957779
1773150242268213000,0.498212890625,-0.20760370790958405,-1.3444496393203735,0.021829482167959213
1773150242278250200,0.508250244140625,-0.19742240011692047,-1.4640569686889648,-0.0572088249027729
1773150242288287200,0.518287353515625,-0.17550618946552277,-1.4332644939422607,-0.10427433997392654
1773150242298324200,0.52832421875,-0.13485339283943176,-1.344239592552185,-0.09691190719604492
1773150242308361000,0.53836083984375,-0.06706902384757996,-1.0978477001190186,-0.03454732522368431
1773150242318398200,0.548398193359375,-0.03345535323023796,-0.9880205988883972,0.034411728382110596
1773150242328435200,0.558435302734375,-0.08417259156703949,-0.8612754344940186,0.019482847303152084
1773150242338472200,0.56847216796875,-0.12315913289785385,-0.6769629120826721,-0.014621375128626823
1773150242348508200,0.578508056640625,-0.11350037902593613,-0.6562762260437012,0.007859165780246258
1773150242358545200,0.588545166015625,-0.11988715827465057,-0.594648540019989,0.06796993315219879
1773150242368582100,0.59858203125,-0.17568998038768768,-0.2769656777381897,0.1784362643957138
1773150242378619100,0.608619140625,-0.19752152264118195,-0.13507643342018127,0.28781548142433167
1773150242388656000,0.61865625,-0.14576777815818787,-0.07383304834365845,0.39450037479400635
1773150242398693000,0.628693115234375,-0.06357452273368835,-0.03159542381763458,0.46404698491096497
1773150242408730000,0.638730224609375,0.051632486283779144,-0.027627047151327133,0.46694210171699524
1773150242418767000,0.64876708984375,0.04884190112352371,0.04121844843029976,0.4313967525959015
1773150242428804000,0.65880419921875,-0.01916271448135376,0.08337069302797318,0.40648049116134644
1773150242438841000,0.668841064453125,-0.10507003217935562,-0.02613249234855175,0.34573084115982056
1773150242448878000,0.678878173828125,-0.06635219603776932,-0.2123178094625473,0.2982743978500366
1773150242458914000,0.6889140625,0.049307629466056824,-0.5936095714569092,0.2075667828321457
1773150242468951300,0.698951416015625,-0.011750929057598114,-0.4223203957080841,0.23101937770843506
1773150242478988300,0.70898828125,-0.14173337817192078,-0.33123499155044556,0.21639469265937805
1773150242489025000,0.71902490234375,-0.15853765606880188,-0.3133888840675354,0.19920584559440613
1773150242499062000,0.72906201171875,-0.09329083561897278,-0.367798775434494,0.09736908227205276
1773150242509099300,0.739099365234375,0.05111508071422577,-0.5149616003036499,0.025610201060771942
1773150242519136300,0.74913623046875,0.068833127617836,-0.4138467609882355,-0.05250314250588417
1773150242529173200,0.75917333984375,0.039997752755880356,-0.3289632797241211,-0.07380043715238571
1773150242539210200,0.769210205078125,-0.06182577833533287,-0.26638516783714294,-0.10113448649644852
1773150242549247200,0.779247314453125,-0.11766055226325989,-0.16527584195137024,-0.09966042637825012
1773150242559284200,0.7892841796875,-0.10661062598228455,-0.12082843482494354,-0.10959243029356003
1773150242569321200,0.7993212890625,-0.032277803868055344,-0.09122340381145477,-0.09411413967609406
1773150242579357200,0.809357177734375,0.007411071099340916,-0.01879771240055561,-0.01841389760375023
1773150242589394400,0.81939453125,0.04640347883105278,-0.018473073840141296,0.03687066212296486
1773150242599431200,0.82943115234375,0.05285923555493355,-0.046661023050546646,0.04022745415568352
1773150242609468200,0.83946826171875,0.016086839139461517,-0.0940711498260498,-0.006805302109569311
1773150242619505200,0.849505126953125,-0.048500604927539825,-0.1280909776687622,-0.07496549934148788
1773150242629542100,0.859542236328125,-0.10145516693592072,-0.04730558022856712,-0.09646386653184891
1773150242639579400,0.869579345703125,-0.11769266426563263,0.05128644034266472,-0.06640281528234482
1773150242649616100,0.8796162109375,-0.09682280570268631,0.1365443468093872,0.0005360001232475042
1773150242659653000,0.889653076171875,-0.06060869246721268,0.19734254479408264,0.06035745516419411
1773150242669690000,0.899690185546875,-0.04457646235823631,0.22195866703987122,0.07992769032716751
1773150242679727400,0.909727294921875,-0.048212140798568726,0.23526854813098907,0.045458607375621796
1773150242689764400,0.919764404296875,-0.042778756469488144,0.23674659430980682,-0.0038894987665116787
1773150242699800300,0.92980029296875,0.0002850787714123726,0.2072337120771408,-0.01859240233898163
1773150242709837300,0.93983740234375,0.16340769827365875,-0.01551972795277834,-0.02130190283060074
1773150242719874000,0.9498740234375,0.08698984235525131,0.19037887454032898,0.0304245688021183
1773150242729911300,0.959911376953125,-0.03536829352378845,0.23986920714378357,0.042229827493429184
1773150242739948300,0.9699482421875,-0.06099429354071617,0.15810775756835938,0.025825290009379387
1773150242749985300,0.9799853515625,-0.04402542859315872,0.12727686762809753,0.0036179879680275917
1773150242760022300,0.990022216796875,-0.016660591587424278,0.10067743062973022,0.0020103261340409517
1773150242770059000,1.00005908203125,0.005202895030379295,0.06807847321033478,0.016699522733688354
1773150242780096300,1.01009619140625,0.012502402067184448,0.0264353696256876,0.023886561393737793
1773150242790133200,1.02013330078125,0.01131516508758068,0.025387415662407875,0.0352257676422596
1773150242800170200,1.030170166015625,-0.011324089951813221,0.033001381903886795,0.038535669445991516
1773150242810207200,1.040207275390625,-0.030157431960105896,0.04609108343720436,0.03560805693268776
1773150242820244200,1.050244140625,-0.027879055589437485,0.07099907100200653,0.03359714522957802
1773150242830280200,1.0602802734375,-0.012004218064248562,0.08702410757541656,0.04100951924920082
1773150242840317200,1.070317138671875,0.0023682983592152596,0.0991111472249031,0.05458053946495056
1773150242850354200,1.080354248046875,0.0003983583301305771,0.10136497765779495,0.055568572133779526
1773150242860391200,1.09039111328125,-0.00791691243648529,0.09019044041633606,0.056707534939050674
1773150242870428400,1.100428466796875,-0.0045485468581318855,0.09055822342634201,0.059231411665678024
1773150242880465200,1.110465087890625,0.00908183865249157,0.09101969003677368,0.060480255633592606
1773150242890502100,1.120502197265625,0.015406845137476921,0.0783582255244255,0.060428060591220856
1773150242900539100,1.1305390625,0.017295775935053825,0.06325975060462952,0.035354167222976685
1773150242910576000,1.140576171875,0.011315649375319481,0.0703650563955307,0.010356939397752285
1773150242920613400,1.15061328125,-0.003308979794383049,0.06906957179307938,0.010423433966934681
1773150242930650000,1.160650146484375,-0.014109428972005844,0.06585593521595001,0.03630349785089493
1773150242940687000,1.17068701171875,-0.010887101292610168,0.07374751567840576,0.07257235795259476
1773150242950724000,1.18072412109375,0.005209842696785927,0.06365679949522018,0.09604758769273758
1773150242960760000,1.190760009765625,0.019231483340263367,0.045170366764068604,0.09316065907478333
1773150242970797300,1.20079736328125,0.01817474141716957,0.04592989757657051,0.07391452044248581
1773150242980834300,1.210834228515625,0.007134462706744671,0.03416500613093376,0.05975193530321121
1773150242990871300,1.220871337890625,0.008847939781844616,0.035273946821689606,0.04553491622209549
1773150243000908000,1.230907958984375,0.00793872494250536,0.042365673929452896,0.03990628570318222
1773150243010945300,1.2409453125,0.011181388981640339,0.05237570032477379,0.03917817771434784
1773150243020982300,1.250982177734375,0.010383662767708302,0.038318052887916565,0.04572203382849693
1773150243031019300,1.261019287109375,0.0028075026348233223,-0.0004101688973605633,0.03955548629164696
1773150243041056300,1.27105615234375,0.002394532784819603,-0.04700198024511337,0.024122463539242744
1773150243051093000,1.281093017578125,0.020569276064634323,-0.060671985149383545,0.026000525802373886
1773150243061130200,1.291130126953125,0.03382795304059982,-0.04937499761581421,0.03370987996459007
1773150243071167200,1.301167236328125,0.03488203138113022,-0.03638489544391632,0.030583329498767853
1773150243081204200,1.311204345703125,0.03035096451640129,-0.019971605390310287,0.024062687531113625
1773150243091240200,1.321240234375,0.02005012333393097,-0.010925381444394588,0.018219713121652603
1773150243101277200,1.331277099609375,0.011199305765330791,-0.010555924847722054,0.0034767696633934975
1773150243111314200,1.341314208984375,0.01639300212264061,-0.020067935809493065,-0.006538313813507557
1773150243121351200,1.35135107421875,0.019435951486229897,-0.028092332184314728,-0.014083598740398884
1773150243131388200,1.36138818359375,0.005957428365945816,-0.019471680745482445,-0.005784656386822462
1773150243141425200,1.371425048828125,-0.0012253709137439728,-0.01098606362938881,0.02245403081178665
1773150243151462400,1.38146240234375,-0.004493868909776211,-0.027509912848472595,0.054294783622026443
1773150243161499100,1.3914990234375,-0.005503106862306595,-0.05000998452305794,0.06986375153064728
1773150243171536100,1.4015361328125,-0.0020905323326587677,-0.04334675520658493,0.0672067180275917
1773150243181573000,1.411572998046875,0.003910607658326626,-0.011771505698561668,0.045534536242485046
1773150243191610400,1.4216103515625,0.005345518700778484,0.018035124987363815,0.01025856751948595
1773150243201647400,1.4316474609375,-0.0007964931428432465,0.04452075809240341,-0.006110708694905043
1773150243211683300,1.441683349609375,-0.0012921066954731941,0.04559294506907463,0.004921702202409506
1773150243221720300,1.45172021484375,0.0012199310585856438,0.03146660327911377,0.025641176849603653
1773150243231757000,1.461757080078125,-0.0031961221247911453,0.01443568617105484,0.053506363183259964
1773150243241794000,1.4717939453125,-0.009018857963383198,-0.007613955996930599,0.07501910626888275
1773150243251831300,1.481831298828125,-0.006782335229218006,-0.022010471671819687,0.07435358315706253
1773150243261868300,1.491868408203125,-0.0027632983401417732,-0.0298338383436203,0.05471180006861687
1773150243271905300,1.5019052734375,0.00393828097730875,-0.024746933951973915,0.032798778265714645
1773150243281942000,1.51194189453125,0.00664870161563158,-0.002889686031267047,0.011504246853291988
1773150243291979300,1.521979248046875,0.001791629008948803,0.01231030561029911,-0.0016190119786188006
1773150243302016300,1.532016357421875,-0.00797601044178009,-0.0022945234086364508,-0.0010374474804848433
1773150243312053200,1.54205322265625,-0.010189630091190338,-0.010929024778306484,0.008323563262820244
1773150243322090200,1.55209033203125,-0.010718668811023235,-0.005705623887479305,0.027780836448073387
1773150243332127200,1.562127197265625,-0.008863510563969612,0.005805890075862408,0.03983643651008606
1773150243342164200,1.572164306640625,-0.007599996402859688,0.012315337546169758,0.04716631770133972
1773150243352200200,1.5822001953125,0.00006058625876903534,0.016739381477236748,0.0467764288187027
1773150243362237200,1.5922373046875,0.002322203479707241,0.021367091685533524,0.042901359498500824
1773150243372274200,1.602274169921875,-0.0008421642705798149,0.024460885673761368,0.03723149001598358
1773150243382311200,1.612311279296875,-0.012109661474823952,0.015372789464890957,0.032804638147354126
1773150243392348400,1.622348388671875,-0.027463849633932114,0.01434108056128025,0.02628229185938835
1773150243402385200,1.63238525390625,-0.0341825932264328,0.015465311706066132,0.023360444232821465
1773150243412422100,1.642422119140625,-0.023375220596790314,0.00727422721683979,0.02543691173195839
1773150243422459100,1.652459228515625,-0.006357802078127861,-0.0027606363873928785,0.02523156628012657
1773150243432496400,1.662496337890625,0.0005267355591058731,-0.017553431913256645,0.028210045769810677
1773150243442533400,1.672533447265625,-0.004497074522078037,-0.030490795150399208,0.03500840812921524
1773150243452570000,1.682570068359375,-0.005600954871624708,-0.0347563773393631,0.04265274479985237
1773150243462607000,1.692607177734375,-0.0035956809297204018,-0.025861861184239388,0.04363350570201874
1773150243472644400,1.702644287109375,-0.014343133196234703,-0.01501746941357851,0.045353375375270844
1773150243482681300,1.712681396484375,-0.028329886496067047,-0.005740244872868061,0.046783555299043655
1773150243492717300,1.72271728515625,-0.03166096657514572,0.001741639687679708,0.03988703340291977
1773150243502754300,1.73275439453125,-0.026517445221543312,0.01788555458188057,0.025812262669205666
1773150243512791800,1.742791748046875,-0.0212734155356884,0.036274150013923645,0.018884848803281784
1773150243522829000,1.7528291015625,-0.019331902265548706,0.037864793092012405,0.020865829661488533
1773150243532866000,1.762865966796875,-0.013662298209965229,0.046050284057855606,0.02800390124320984
1773150243542903000,1.772903076171875,-0.015910984948277473,0.04319768399000168,0.04148143529891968
1773150243552939800,1.782939697265625,-0.021406950429081917,0.03634270653128624,0.045379504561424255
1773150243562977000,1.79297705078125,-0.025658167898654938,0.038578979671001434,0.031184464693069458
1773150243573014000,1.803013916015625,-0.019665520638227463,0.037493739277124405,0.019544852897524834
1773150243583051000,1.813051025390625,-0.005295285955071449,0.03373141586780548,0.019526470452547073
1773150243593088000,1.823087890625,0.0019463812932372093,0.029351316392421722,0.019857235252857208
1773150243603124700,1.833124755859375,-0.005442909896373749,0.02252810448408127,0.02121891640126705
1773150243613162000,1.843161865234375,-0.00794494990259409,0.014786296524107456,0.01969665288925171
1773150243623198000,1.853197998046875,-0.008015885949134827,0.0008109286427497864,0.023336194455623627
1773150243633235000,1.86323486328125,-0.002025637775659561,-0.004448015242815018,0.0340128056704998
1773150243643272000,1.87327197265625,0.00787915475666523,-0.00438194815069437,0.036290328949689865
1773150243653309000,1.883308837890625,0.012460324913263321,-0.015222345478832722,0.027007879689335823
1773150243663346200,1.89334619140625,0.0069145215675234795,-0.028919992968440056,0.017183011397719383
1773150243673383000,1.9033828125,0.0013466496020555496,-0.029333846643567085,0.007229181006550789
1773150243683420000,1.913419921875,-0.0021246476098895073,-0.023618046194314957,0.002636334393173456
1773150243693457000,1.923456787109375,0.005612633191049099,-0.015900736674666405,-0.003950728103518486
1773150243703494100,1.933494140625,0.0098072225227952,-0.018062274903059006,0.00858057290315628
1773150243713531100,1.94353125,0.010876215063035488,-0.004289471544325352,0.03498475253582001
1773150243723567900,1.95356787109375,0.010667435824871063,0.013936673291027546,0.05831833928823471
1773150243733604900,1.96360498046875,0.010432545095682144,0.031036030501127243,0.06498583406209946
1773150243743641900,1.973641845703125,0.006227327510714531,0.05012058466672897,0.05062633752822876
1773150243753679000,1.98367919921875,-0.000372251495718956,0.06026270240545273,0.03533127158880234
1773150243763715000,1.993715087890625,-0.005392370745539665,0.020943056792020798,0.020175397396087646
1773150243773752000,2.003751953125,-0.011896609328687191,-0.002226178301498294,0.008789317682385445
1773150243783788800,2.013788818359375,-0.012058795429766178,-0.013248469680547714,-0.004306510090827942
1773150243793825800,2.02382568359375,-0.008686700835824013,-0.04143749549984932,-0.006496960297226906
1773150243803863000,2.033863037109375,-0.0036475639790296555,-0.06501463055610657,-0.00507662957534194
1773150243813900000,2.043900146484375,0.0014414703473448753,-0.06597816199064255,0.01706063188612461
1773150243823937000,2.05393701171875,0.00014401599764823914,-0.045625802129507065,0.0365101620554924
1773150243833973800,2.063973876953125,0.0004596002399921417,-0.015298525802791119,0.03518257662653923
1773150243844011000,2.074010986328125,0.007696122862398624,0.014714593067765236,0.018459977582097054
1773150243854048000,2.084048095703125,0.0060598766431212425,0.03670644387602806,-0.0007741717854514718
1773150243864085000,2.0940849609375,0.003858630545437336,0.05528692156076431,-0.00023042596876621246
1773150243874122000,2.1041220703125,-0.0005022957921028137,0.053316183388233185,0.00024015456438064575
1773150243884159000,2.114158935546875,0.004387847147881985,0.04686437547206879,0.0041692499071359634
1773150243894196000,2.124196044921875,0.005783076398074627,0.045771148055791855,0.003284015227109194
1773150243904232000,2.13423193359375,0.0065589407458901405,0.02710016816854477,-0.002666739746928215
1773150243914269000,2.14426904296875,0.0034805936738848686,0.023126468062400818,0.007137155160307884
1773150243924306000,2.154305908203125,0.014637554995715618,0.02930801920592785,0.019836626946926117
1773150243934343000,2.164343017578125,0.01865147054195404,0.028128771111369133,0.034563109278678894
1773150243944380200,2.174380126953125,0.02005203813314438,0.013422783464193344,0.03671373426914215
1773150243954417000,2.1844169921875,0.011562147177755833,-0.006498194299638271,0.0173909030854702
1773150243964454000,2.194453857421875,0.0011170487850904465,-0.007347033359110355,0.0012620813213288784
1773150243974491000,2.204490966796875,-0.005103828851133585,0.01350285392254591,-0.01155997347086668
1773150243984528100,2.214528076171875,0.0011414950713515282,0.02405700273811817,-0.023996388539671898
1773150243994565000,2.224565185546875,0.0007771747186779976,0.026619764044880867,-0.028979694470763206
1773150244004601900,2.234601806640625,-0.0080318134278059,0.02226528339087963,-0.032147232443094254
1773150244014638800,2.244638916015625,-0.014752300456166267,0.009182769805192947,-0.029077406972646713
1773150244024676000,2.254676025390625,-0.014017924666404724,0.0012666556285694242,-0.018026018515229225
1773150244034712000,2.264712158203125,-0.006403414066880941,0.014342776499688625,-0.010241331532597542
1773150244044749000,2.2747490234375,0.008663828484714031,0.032516852021217346,0.00031231867615133524
1773150244054786000,2.2847861328125,0.005903995595872402,0.03171310946345329,0.018078265711665154
1773150244064823000,2.294822998046875,0.0011147018522024155,0.032875169068574905,0.02840365841984749
1773150244074859800,2.30485986328125,0.0013266894966363907,0.03556149825453758,0.029148543253540993
1773150244084897000,2.31489697265625,0.0008653318509459496,0.03256607800722122,0.015010147355496883
1773150244094934000,2.32493408203125,0.0014397753402590752,0.035058796405792236,-0.009854721836745739
1773150244104971000,2.334970947265625,0.0077932411804795265,0.033218592405319214,-0.028439700603485107
1773150244115008000,2.345008056640625,-0.00042340904474258423,0.015636669471859932,-0.033419813960790634
1773150244125045000,2.355044921875,-0.01191961020231247,-0.007564679253846407,-0.02281159721314907
1773150244135082000,2.36508203125,-0.0045013753697276115,-0.017108118161559105,-0.010261449962854385
1773150244145119000,2.375118896484375,0.010614329017698765,-0.0102457944303751,0.0069840699434280396
1773150244155156000,2.385156005859375,0.01704452931880951,-0.01060691848397255,0.012947953306138515
1773150244165193000,2.39519287109375,0.012228946201503277,-0.016596322879195213,0.020590966567397118
1773150244175230000,2.40522998046875,0.017786432057619095,-0.01585010625422001,0.020454345270991325
1773150244185266000,2.415265869140625,0.027822308242321014,-0.013692418113350868,0.010060444474220276
1773150244195303000,2.425302978515625,0.03397234529256821,-0.013988561928272247,-0.0003250846639275551
1773150244205340000,2.43533984375,0.03467082232236862,-0.007970291189849377,-0.0017212355742231011
1773150244215377000,2.445376953125,0.029287243261933327,0.013031663373112679,-0.0059340898878872395
1773150244225414100,2.4554140625,0.024109642952680588,0.028619833290576935,0.0009100574534386396
1773150244235451000,2.465450927734375,0.020883753895759583,0.02184448391199112,0.015022147446870804
1773150244245487900,2.47548779296875,0.024258587509393692,0.020230000838637352,0.02053644321858883
1773150244255524900,2.48552490234375,0.025917470455169678,0.03098996914923191,0.007719714194536209
1773150244265562000,2.49556201171875,0.026513390243053436,0.033694781363010406,-0.003666834905743599
1773150244275599000,2.50559912109375,0.017351582646369934,0.019553126767277718,-0.010211554355919361
1773150244285635800,2.5156357421875,0.01477525569498539,-0.0034616789780557156,-0.015643635764718056
1773150244295672800,2.5256728515625,0.01700139231979847,-0.016716230660676956,-0.020143579691648483
1773150244305710000,2.5357099609375,0.021429048851132393,-0.013963750563561916,-0.024292591959238052
1773150244315747000,2.5457470703125,0.0186468455940485,-0.013933391310274601,-0.02120598964393139
1773150244325784000,2.5557841796875,0.018456850200891495,-0.010568630881607533,-0.004009770695120096
1773150244335820000,2.565820068359375,0.017795585095882416,-0.01552211120724678,-0.004175951704382896
1773150244345857000,2.57585693359375,0.008897685445845127,-0.008230894804000854,-0.005907133221626282
1773150244355893800,2.585893798828125,0.0036240937188267708,0.011136678047478199,-0.01756565272808075
1773150244365931000,2.595930908203125,0.005468765273690224,0.01600264571607113,-0.024458661675453186
1773150244375968000,2.605968017578125,0.01019694097340107,0.025802545249462128,-0.023858385160565376
1773150244386005000,2.6160048828125,0.01202487014234066,0.042771726846694946,-0.012505696155130863
1773150244396042000,2.6260419921875,0.014289623126387596,0.05579005926847458,0.00029638526029884815
1773150244406079000,2.636078857421875,0.005788710899651051,0.05324631556868553,0.024085121229290962
1773150244416116000,2.646115966796875,0.0002243025228381157,0.03776589035987854,0.03405146673321724
1773150244426153000,2.656153076171875,0.003110256977379322,0.02277294732630253,0.03776250779628754
1773150244436190000,2.66618994140625,0.010059243999421597,0.0004934743046760559,0.03315896913409233
1773150244446227200,2.676227294921875,0.01751178503036499,-0.028677143156528473,0.027554109692573547
1773150244456264000,2.686263916015625,0.021112110465765,-0.04381401836872101,0.016879893839359283
1773150244466301000,2.696301025390625,0.026861049234867096,-0.02862839214503765,0.008796675130724907
1773150244476338000,2.706337890625,0.02627968043088913,-0.005152893718332052,0.0004383435007184744
1773150244486375000,2.716375,0.019196778535842896,0.012232993729412556,-0.011075980961322784
1773150244496411100,2.7264111328125,0.011027000844478607,0.035797975957393646,-0.00993321929126978
1773150244506448100,2.7364482421875,0.008582355454564095,0.05241648852825165,-0.00021688372362405062
1773150244516484600,2.746484619140625,-0.0016106273978948593,0.05952686071395874,0.01707848347723484
1773150244526521300,2.756521240234375,-0.006714904680848122,0.03574248403310776,0.022783413529396057
1773150244536558300,2.766558349609375,0.001813601702451706,0.005785917863249779,0.03151405230164528
1773150244546595600,2.776595703125,0.016064152121543884,-0.012340046465396881,0.031109260395169258
1773150244556632600,2.786632568359375,0.018098007887601852,-0.025309108197689056,0.013618418015539646
1773150244566669600,2.796669677734375,0.01528147328644991,-0.038312554359436035,-0.003897472284734249
1773150244576706300,2.806706298828125,0.004049859009683132,-0.042145371437072754,-0.020978987216949463
1773150244586743300,2.816743408203125,-0.002182154916226864,-0.018461667001247406,-0.01939869299530983
1773150244596780500,2.826780517578125,-0.007888244464993477,0.015790045261383057,-0.010621980763971806
1773150244606817500,2.836817626953125,-0.015597017481923103,0.040540385991334915,-0.00640766741707921
1773150244616854500,2.8468544921875,-0.023418987169861794,0.04165998101234436,-0.0008658961160108447
1773150244626891300,2.856891357421875,-0.011409854516386986,0.03469407930970192,0.013196727260947227
1773150244636928500,2.866928466796875,0.004443677142262459,0.017869029194116592,0.01597413793206215
1773150244646965500,2.876965576171875,0.014504678547382355,0.001838277792558074,-0.003831186331808567
1773150244657001500,2.88700146484375,0.01761551760137081,-0.0007287431508302689,-0.022326307371258736
1773150244667038500,2.89703857421875,0.013711467385292053,-0.011822274886071682,-0.021232211962342262
1773150244677075500,2.907075439453125,0.011294381693005562,-0.02284962683916092,0.00024298601783812046
1773150244687112400,2.917112548828125,0.006182887591421604,-0.030624397099018097,0.018531635403633118
1773150244697149400,2.9271494140625,0.00826574582606554,-0.027770021930336952,0.02004963718354702
1773150244707186400,2.9371865234375,0.01147779542952776,-0.006487363018095493,0.022287601605057716
1773150244717223400,2.947223388671875,0.01166288461536169,0.0073432307690382,0.020544029772281647
1773150244727260400,2.957260498046875,0.005316426046192646,0.0022492550779134035,0.014876666478812695
1773150244737297400,2.96729736328125,0.008863491006195545,-0.008835352957248688,0.010500027798116207
1773150244747334400,2.97733447265625,0.016023721545934677,-0.004651020281016827,0.0028887810185551643
1773150244757371400,2.987371337890625,0.014553922228515148,0.0004462699871510267,0.0011257685255259275
1773150244767408400,2.997408447265625,0.008913868106901646,0.02067006193101406,-0.006524021737277508
1773150244777445600,3.007445556640625,0.008179635740816593,0.04207468777894974,-0.017617952078580856
1773150244787482600,3.017482666015625,0.0010186098515987396,0.030112070962786674,-0.009321910329163074
1773150244797519400,3.027519287109375,-0.0007220320403575897,0.014922997914254665,0.0037462213076651096
1773150244807556400,3.037556396484375,-0.0009009204804897308,0.016042793169617653,0.007193641271442175
1773150244817593600,3.047593505859375,0.00020082946866750717,0.010308208875358105,-0.00469124736264348
1773150244827629600,3.057629638671875,-0.0007658712565898895,-0.0038574577774852514,-0.017989743500947952
1773150244837666600,3.06766650390625,-0.001688922755420208,0.0005298338364809752,-0.023194625973701477
1773150244847703600,3.07770361328125,0.0013846680521965027,0.02417282573878765,-0.03347885236144066
1773150244857740300,3.087740234375,-0.00020444020628929138,0.03528007119894028,-0.03595266118645668
1773150244867777500,3.097777587890625,-0.005536644719541073,0.029551086947321892,-0.01807829737663269
1773150244877814500,3.107814453125,-0.008624846115708351,0.03463026508688927,0.0022165870759636164
1773150244887851500,3.1178515625,-0.004351628944277763,0.03068728558719158,0.01155433151870966
1773150244897888500,3.127888427734375,0.007931401953101158,0.02730959840118885,0.025268545374274254
1773150244907925200,3.13792529296875,0.02012627013027668,0.021434945985674858,0.02812971919775009
1773150244917962500,3.14796240234375,0.017984556034207344,0.0239148810505867,0.03195428475737572
1773150244927999500,3.15799951171875,0.01693330518901348,0.0523061528801918,0.03111277148127556
1773150244938036500,3.168036376953125,0.016427837312221527,0.08817174285650253,0.016181493178009987
1773150244948073500,3.178073486328125,0.007864565588533878,0.11175388097763062,0.004488466307520866
1773150244958110500,3.1881103515625,0.009184959344565868,0.11181353777647018,-0.008995383977890015
1773150244968147500,3.1981474609375,0.013551158830523491,0.14294062554836273,-0.007483224850147963
1773150244978184400,3.208184326171875,0.020560331642627716,0.151380717754364,-0.009870481677353382
1773150244988221400,3.218221435546875,0.018117118626832962,0.09908533841371536,-0.038419585675001144
1773150244998258400,3.228258544921875,0.005621567368507385,0.04443327337503433,-0.07960829883813858
1773150245008295400,3.23829541015625,-0.005941308103501797,0.015190926380455494,-0.08961794525384903
1773150245018331600,3.24833154296875,-0.02042517624795437,-0.02415941096842289,-0.0758049264550209
1773150245028368400,3.258368408203125,-0.04103575646877289,-0.05387512594461441,-0.05706033110618591
1773150245038405400,3.2684052734375,-0.05580378323793411,-0.053492430597543716,-0.04844074323773384
1773150245048442400,3.2784423828125,-0.05841818451881409,-0.032676659524440765,-0.06596487760543823
1773150245058479600,3.288479736328125,-0.05134296417236328,-0.006637068465352058,-0.10016972571611404
1773150245068516600,3.2985166015625,-0.03148508816957474,0.026806894689798355,-0.12727844715118408
1773150245078553300,3.30855322265625,-0.011191003024578094,0.05464332178235054,-0.15609119832515717
1773150245088590300,3.31859033203125,0.01134475041180849,0.06296535581350327,-0.18489773571491241
1773150245098627600,3.328627685546875,0.020952638238668442,0.10828863084316254,-0.20759958028793335
1773150245108664600,3.33866455078125,0.04330307990312576,0.11099772900342941,-0.23713567852973938
1773150245118701600,3.34870166015625,0.06336627155542374,0.0853554829955101,-0.24666553735733032
1773150245128738300,3.35873828125,0.10139960795640945,0.07266159355640411,-0.24091801047325134
1773150245138775300,3.368775390625,0.10901091992855072,0.043366555124521255,-0.23063501715660095
1773150245148812500,3.3788125,0.10146579891443253,0.017275679856538773,-0.20314978063106537
1773150245158849500,3.388849609375,0.10201254487037659,0.036302365362644196,-0.20863349735736847
1773150245168886500,3.398886474609375,0.1268407106399536,0.11102424561977386,-0.27030542492866516
1773150245178923300,3.40892333984375,0.16401684284210205,0.1885978728532791,-0.3776204586029053
1773150245188960500,3.41896044921875,0.1767405867576599,0.24792592227458954,-0.5235657691955566
1773150245198997500,3.42899755859375,0.16936177015304565,0.2924901843070984,-0.6992830038070679
1773150245209034500,3.439034423828125,0.13278965651988983,0.26133623719215393,-0.8359155654907227
1773150245219070500,3.449070556640625,0.08223327249288559,0.16084639728069305,-0.8555880784988403
1773150245229107500,3.459107421875,0.07641126960515976,0.008433227427303791,-0.7392953634262085
1773150245239144400,3.46914453125,0.11715443432331085,-0.1661263257265091,-0.5440478324890137
1773150245249181400,3.479181396484375,0.1447124034166336,-0.2600198984146118,-0.3428894579410553
1773150245259218400,3.489218505859375,0.09817392379045486,-0.22334419190883636,-0.2041073441505432
1773150245269255400,3.49925537109375,0.09605024755001068,0.008373544551432133,-0.10187175869941711
1773150245279292700,3.509292724609375,0.15641692280769348,0.22160141170024872,-0.06105455756187439
1773150245289329400,3.519329345703125,0.22060343623161316,0.5088852643966675,-0.024865685030817986
1773150245299366400,3.529366455078125,0.3396925628185272,0.7348430752754211,0.027016153559088707
1773150245309403400,3.5394033203125,0.46833911538124084,0.873345136642456,0.08700495958328247
1773150245319440400,3.5494404296875,0.5638318061828613,0.9928081631660461,0.13032899796962738
1773150245329477600,3.5594775390625,0.5982090830802917,1.2543137073516846,0.15101957321166992
1773150245339514400,3.569514404296875,0.5621360540390015,1.4857300519943237,0.09153121709823608
1773150245349551400,3.57955126953125,0.4685157537460327,1.4294761419296265,-0.13126875460147858
1773150245359588400,3.58958837890625,0.32646992802619934,1.3928699493408203,-0.41748693585395813
1773150245369625600,3.59962548828125,0.165267676115036,1.6508935689926147,-0.9201891422271729
1773150245379662600,3.60966259765625,-0.022153880447149277,2.311060667037964,-1.446775197982788
1773150245389699600,3.619699462890625,-0.2643928527832031,2.731733798980713,-1.7879716157913208
1773150245399736300,3.629736328125,-0.4672873914241791,3.2576234340667725,-1.7246404886245728
1773150245409773300,3.639773193359375,-0.7763489484786987,4.14116907119751,-1.4561889171600342
1773150245419810600,3.649810546875,-0.9165174961090088,4.6986775398254395,-1.144866704940796
1773150245429847600,3.65984765625,-0.5957922339439392,4.973906517028809,-0.8896448612213135
1773150245439883500,3.669883544921875,-0.28888553380966187,4.792792320251465,-0.9832930564880371
1773150245449920500,3.67992041015625,-0.3562820553779602,4.628046989440918,-1.4467147588729858
1773150245459957200,3.689957275390625,-0.4686141908168793,4.520310401916504,-2.104154586791992
1773150245469994500,3.699994384765625,-0.37367478013038635,4.078248500823975,-2.7357118129730225
1773150245480031500,3.710031494140625,0.2709074020385742,2.8635289669036865,-2.6119015216827393
1773150245490068500,3.720068359375,0.865128755569458,1.8296109437942505,-2.214352607727051
1773150245500105500,3.73010546875,0.8561067581176758,1.0837767124176025,-1.9297807216644287
1773150245510142700,3.740142822265625,0.15802927315235138,0.6269413828849792,-1.7497397661209106
1773150245520180000,3.750179931640625,-0.7300952672958374,0.3351885974407196,-1.7456177473068237
1773150245530217000,3.760217041015625,-1.6843544244766235,0.2626611590385437,-2.069514751434326
1773150245540254000,3.77025390625,-2.580644369125366,0.09515152126550674,-2.6070032119750977
1773150245550291000,3.780291015625,-3.0586767196655273,0.037037789821624756,-3.131582260131836
1773150245560327700,3.79032763671875,-3.266503095626831,0.09818504005670547,-3.486360549926758
1773150245570365000,3.800364990234375,-3.367877721786499,0.3380885124206543,-3.40134334564209
1773150245580402000,3.81040185546875,-3.647587537765503,0.49601662158966064,-2.9789483547210693
1773150245590439000,3.82043896484375,-4.080845355987549,0.6466214060783386,-2.536318302154541
1773150245600476000,3.830475830078125,-4.527979850769043,0.8177574872970581,-2.226346969604492
1773150245610513000,3.840512939453125,-4.903844356536865,0.891187310218811,-2.061758518218994
1773150245620550000,3.8505498046875,-5.371753215789795,0.6598859429359436,-2.0177431106567383
1773150245630587000,3.8605869140625,-5.91397762298584,0.20986583828926086,-2.099867343902588
1773150245640623900,3.870623779296875,-6.325849533081055,-0.385785311460495,-2.3171586990356445
1773150245650660900,3.880660888671875,-6.584430694580078,-1.0417617559432983,-2.6784346103668213
1773150245660697900,3.89069775390625,-6.662031173706055,-1.3599679470062256,-3.2591047286987305
1773150245670734800,3.90073486328125,-6.464592933654785,-1.204748272895813,-3.9801411628723145
1773150245680770800,3.910770751953125,-6.0035834312438965,-0.9628056883811951,-4.7161407470703125
1773150245690807800,3.920807861328125,-5.364406108856201,-0.4924822449684143,-5.275398254394531
1773150245700845000,3.930844970703125,-4.726828575134277,0.28116869926452637,-5.620175361633301
1773150245710882000,3.940882080078125,-4.128829002380371,1.3536696434020996,-5.848513603210449
1773150245720918800,3.950918701171875,-3.56526255607605,2.4023184776306152,-6.0611653327941895
1773150245730955800,3.960955810546875,-3.02078914642334,3.078639268875122,-6.219202995300293
1773150245740992800,3.97099267578125,-2.476274013519287,3.2687034606933594,-6.223350524902344
1773150245751030000,3.981030029296875,-1.8711878061294556,3.1475322246551514,-6.055824279785156
1773150245761067000,3.99106689453125,-1.2512226104736328,2.756579637527466,-5.817662715911865
1773150245771103700,4.001103759765625,-0.6069666147232056,2.1963727474212646,-5.650226593017578
1773150245781140700,4.011140625,0.029702752828598022,1.553639531135559,-5.484251499176025
1773150245791178000,4.021177978515625,0.6499588489532471,1.0613598823547363,-5.231370449066162
1773150245801215000,4.031215087890625,1.2748711109161377,0.8191626071929932,-4.855475902557373
1773150245811252000,4.041251953125,1.9157373905181885,0.7628110647201538,-4.420841693878174
1773150245821288700,4.051288818359375,2.6283276081085205,1.0293649435043335,-3.912914276123047
1773150245831325700,4.06132568359375,3.3594958782196045,1.4030303955078125,-3.3114423751831055
1773150245841363000,4.071363037109375,3.953181743621826,1.74246084690094,-2.693099021911621
1773150245851400000,4.08139990234375,4.327714443206787,2.1821038722991943,-2.1121208667755127
1773150245861437000,4.09143701171875,4.590571403503418,2.7087552547454834,-1.629231572151184
1773150245871473700,4.1014736328125,4.745227336883545,3.18951153755188,-1.1141550540924072
1773150245881511000,4.111510986328125,3.8654048442840576,3.8008453845977783,-0.18658782541751862
1773150245891548000,4.1215478515625,2.622948408126831,3.9793171882629395,0.5817064642906189
1773150245901585000,4.1315849609375,1.5259325504302979,3.745014190673828,1.012668490409851
1773150245911620900,4.141620849609375,1.185408115386963,2.969620704650879,1.2377084493637085
1773150245921657900,4.151657958984375,1.3866946697235107,1.7444859743118286,1.6881859302520752
1773150245931695000,4.161695068359375,1.6552637815475464,0.36596035957336426,2.2624878883361816
1773150245941731800,4.17173193359375,2.1982791423797607,-0.4668410122394562,2.7169299125671387
1773150245951768800,4.181768798828125,2.7100844383239746,-0.8307720422744751,2.7452337741851807
1773150245961805800,4.191805908203125,2.9955456256866455,-0.7476446628570557,2.2977192401885986
1773150245971842800,4.2018427734375,3.153970956802368,0.06379050016403198,1.688712239265442
1773150245981880000,4.211880126953125,3.1609416007995605,0.5568316578865051,1.008398175239563
1773150245991916800,4.221916748046875,2.635544776916504,1.1580595970153809,0.6584782600402832
1773150246001953800,4.231953857421875,2.185159206390381,1.4867503643035889,0.6081216335296631
1773150246011990800,4.24199072265625,2.303042411804199,1.2029153108596802,0.5365414619445801
1773150246022028000,4.252028076171875,2.2231993675231934,0.23727066814899445,0.32852083444595337
1773150246032065000,4.26206494140625,2.2303905487060547,-0.6477158069610596,0.11862367391586304
1773150246042101800,4.272101806640625,2.493760108947754,-1.4659180641174316,-0.1562507599592209
1773150246052138800,4.282138671875,2.4145925045013428,-2.379547595977783,-0.541558027267456
1773150246062176000,4.292176025390625,2.2154290676116943,-2.991795301437378,-0.8907514214515686
1773150246072213000,4.302212890625,2.0217206478118896,-2.9131360054016113,-0.8619600534439087
1773150246082250000,4.31225,1.8662676811218262,-2.5235679149627686,-0.5982490181922913
1773150246092286700,4.32228662109375,1.7756427526474,-2.0452778339385986,-0.3490356206893921
1773150246102323700,4.33232373046875,1.6050976514816284,-1.6052780151367188,-0.3176555931568146
1773150246112361000,4.34236083984375,1.5226454734802246,-1.347130298614502,-0.33283042907714844
1773150246122398000,4.35239794921875,1.6270827054977417,-1.1259312629699707,-0.3657186031341553
1773150246132435000,4.36243505859375,1.6682449579238892,-1.195173978805542,-0.3486844599246979
1773150246142471700,4.3724716796875,1.5426924228668213,-1.1768261194229126,-0.38052254915237427
1773150246152509000,4.382509033203125,1.1529138088226318,-0.9288384914398193,-0.4788063168525696
1773150246162546000,4.3925458984375,0.6714628338813782,-0.9760465025901794,-0.5826586484909058
1773150246172583000,4.4025830078125,0.2513241767883301,-1.2932634353637695,-0.3011079430580139
1773150246182619000,4.412618896484375,0.08512428402900696,-1.30071222782135,0.22188414633274078
1773150246192656000,4.42265576171875,0.06461913883686066,-1.5479040145874023,0.1501864790916443
1773150246202692900,4.43269287109375,0.22715532779693604,-1.5953350067138672,-0.14982740581035614
1773150246212729900,4.442729736328125,0.294432669878006,-1.6276391744613647,-0.4773828089237213
1773150246222766800,4.452766845703125,0.3773230314254761,-1.6254827976226807,-0.6945846676826477
1773150246232803800,4.462803955078125,0.5529897809028625,-1.1107906103134155,-0.5329095721244812
1773150246242840800,4.4728408203125,0.5928362607955933,-0.5715049505233765,-0.4137197732925415
1773150246252877800,4.4828779296875,0.36823394894599915,-0.29474493861198425,-0.31304988265037537
1773150246262914800,4.492914794921875,-0.13275699317455292,-0.41638216376304626,-0.20444591343402863
1773150246272951800,4.502951904296875,-0.6107600331306458,-0.7608948349952698,0.029551537707448006
1773150246282988800,4.51298876953125,-1.1586791276931763,-1.0459781885147095,0.29462313652038574
1773150246293026000,4.523026123046875,-1.8152142763137817,-1.115444540977478,0.4488641023635864
1773150246303063000,4.53306298828125,-2.4896693229675293,-1.0743365287780762,0.5164260864257812
1773150246313099800,4.543099853515625,-2.9782698154449463,-0.819382905960083,0.4208669662475586
1773150246323136800,4.55313671875,-3.252108573913574,-0.4140220880508423,0.06872677057981491
1773150246333174000,4.563174072265625,-3.611628532409668,-0.394363135099411,-0.18114599585533142
1773150246343211000,4.5732109375,-3.9098498821258545,-0.7281211018562317,-0.09892196208238602
1773150246353248000,4.583248046875,-4.166840076446533,-1.4336276054382324,0.04848742485046387
1773150246363284700,4.59328466796875,-4.458624362945557,-2.026447296142578,0.038313884288072586
1773150246373321700,4.60332177734375,-4.571469783782959,-2.6429383754730225,-0.293768048286438
1773150246383359000,4.61335888671875,-4.315890789031982,-3.3659143447875977,-0.8896393775939941
1773150246393396000,4.62339599609375,-3.7569022178649902,-3.0676822662353516,-1.0426362752914429
1773150246403433000,4.633432861328125,-3.082951307296753,-2.0106561183929443,-0.77266526222229
1773150246413469700,4.6434697265625,-2.0361578464508057,-0.867527961730957,-0.07158709317445755
1773150246423507000,4.6535068359375,-1.1265017986297607,0.3135339319705963,0.44948887825012207
1773150246433544000,4.6635439453125,-0.46388110518455505,1.3423610925674438,0.6439415812492371
1773150246443581000,4.673580810546875,-0.1029154509305954,1.1430418491363525,0.5586229562759399
1773150246453618000,4.683617919921875,-0.16759510338306427,-0.20296069979667664,0.008194448426365852
1773150246463655000,4.693655029296875,-0.40612298250198364,-0.8372023701667786,-0.5810658931732178
1773150246473692000,4.70369189453125,-0.6787313222885132,-0.35374733805656433,-0.9369357228279114
1773150246483728000,4.713727783203125,-0.8626931309700012,1.0217649936676025,-0.9467076659202576
1773150246493764900,4.723764892578125,-0.9732818603515625,2.2403550148010254,-0.8319730162620544
1773150246503801900,4.7338017578125,-1.0125917196273804,2.7959272861480713,-0.7852465510368347
1773150246513838300,4.74383837890625,-1.0476373434066772,3.009836435317993,-0.679897129535675
1773150246523875300,4.753875244140625,-1.2103554010391235,2.822300672531128,-0.6578514575958252
1773150246533912000,4.763912109375,-1.4708071947097778,2.338862895965576,-0.6578860878944397
1773150246543949000,4.773948974609375,-1.6069886684417725,1.8536564111709595,-0.5755395889282227
1773150246553986300,4.783986328125,-1.6320455074310303,1.3600058555603027,-0.40551257133483887
1773150246564023300,4.794023193359375,-1.6030211448669434,0.7632540464401245,-0.19417743384838104
1773150246574060300,4.804060302734375,-1.7075990438461304,0.35682976245880127,-0.0005740284686908126
1773150246584097000,4.814096923828125,-1.8811959028244019,0.07229685038328171,0.12299451231956482
1773150246594134300,4.82413427734375,-2.3695151805877686,-0.043043915182352066,0.07699909806251526
1773150246604171300,4.834171142578125,-2.850557804107666,0.13973842561244965,-0.0059644971042871475
1773150246614208300,4.844208251953125,-3.221083402633667,0.5690853595733643,-0.10302312672138214
1773150246624245200,4.854245361328125,-3.355768918991089,0.9398679137229919,-0.2951448857784271
1773150246634282200,4.8642822265625,-3.4007017612457275,1.3238062858581543,-0.6520759463310242
1773150246644319200,4.8743193359375,-3.392552375793457,1.5586705207824707,-0.977182149887085
1773150246654356200,4.884356201171875,-3.2525837421417236,1.748436450958252,-1.1155059337615967
1773150246664393200,4.894393310546875,-3.02978253364563,2.048804521560669,-1.0611804723739624
1773150246674430200,4.90443017578125,-2.6884005069732666,2.418177366256714,-0.8599115610122681
1773150246684467200,4.91446728515625,-2.145233154296875,2.659971237182617,-0.7040750980377197
1773150246694504200,4.924504150390625,-1.5880134105682373,2.645087480545044,-0.5804793238639832
1773150246704541200,4.934541259765625,-1.0231047868728638,2.328737735748291,-0.5102536678314209
1773150246714578200,4.944578125,-0.4134676158428192,1.6171505451202393,-0.5148078799247742
1773150246724615400,4.954615478515625,0.20606032013893127,0.675290048122406,-0.5427443981170654
1773150246734652200,4.964652099609375,0.8386321067810059,-0.5760443210601807,-0.6592214107513428
1773150246744689200,4.974689208984375,1.38935387134552,-1.7784266471862793,-0.7789984345436096
1773150246754726100,4.98472607421875,1.7640379667282104,-2.392648458480835,-0.7815104722976685
1773150246764763100,4.99476318359375,1.8478519916534424,-2.3129143714904785,-0.6483233571052551
1773150246774800400,5.00480029296875,1.7655659914016724,-1.796925663948059,-0.3975464999675751
1773150246784837000,5.014837158203125,1.5672271251678467,-1.0908640623092651,-0.10534501820802689
1773150246794873300,5.024873291015625,1.3010815382003784,-0.34064653515815735,0.12667953968048096
1773150246804910000,5.03491015625,0.9447320699691772,0.3047806918621063,0.23718340694904327
1773150246814947000,5.044947021484375,0.3516634404659271,0.8560512065887451,0.264778196811676
1773150246824984300,5.054984375,-0.43001455068588257,0.8476454615592957,0.1558210700750351
1773150246835021300,5.065021240234375,-1.0160324573516846,0.1502257138490677,-0.11692935973405838
1773150246845058300,5.075058349609375,-1.1511600017547607,-1.0316742658615112,-0.4350793957710266
1773150246855095000,5.085094970703125,-0.8682588934898376,-2.6453702449798584,-0.7321226596832275
1773150246865132300,5.09513232421875,-0.6451041102409363,-3.9306142330169678,-0.9523823261260986
1773150246875169300,5.105169189453125,-0.2276439070701599,-4.80769157409668,-0.9283995628356934
1773150246885206300,5.115206298828125,0.07628083229064941,-4.972334384918213,-0.7429101467132568
1773150246895243300,5.1252431640625,0.3365355134010315,-4.8126678466796875,-0.5624315142631531
1773150246905280000,5.135280029296875,0.6134885549545288,-4.380220413208008,-0.3950614035129547
1773150246915317200,5.145317138671875,0.9004817008972168,-3.7800967693328857,-0.34338489174842834
1773150246925354200,5.155354248046875,1.0327316522598267,-2.954340696334839,-0.46616435050964355
1773150246935391200,5.16539111328125,0.8201707601547241,-2.046600818634033,-0.673076868057251
1773150246945428200,5.17542822265625,0.3909088969230652,-1.2494016885757446,-0.7038859128952026
1773150246955465200,5.18546533203125,-0.11040212959051132,-0.4194594621658325,-0.47295647859573364
1773150246965502200,5.195502197265625,-0.3199577331542969,0.1694144606590271,-0.06578443944454193
1773150246975539200,5.205539306640625,-0.18204933404922485,0.4351547062397003,0.24814897775650024
1773150246985576200,5.215576171875,0.03128078952431679,0.7391276359558105,0.42053887248039246
1773150246995613400,5.225613525390625,0.18637622892856598,1.1869417428970337,0.4672313630580902
1773150247005650200,5.235650146484375,0.2653733193874359,1.5707155466079712,0.413228839635849
1773150247015687200,5.245687255859375,0.2570652365684509,1.948209524154663,0.3241061568260193
1773150247025724200,5.25572412109375,0.16345512866973877,2.2666563987731934,0.2226828634738922
1773150247035761200,5.26576123046875,0.038989000022411346,2.453996419906616,0.11788910627365112
1773150247045798400,5.27579833984375,-0.08714576810598373,2.5593881607055664,0.05613786354660988
1773150247055835100,5.285835205078125,-0.14316965639591217,2.565819263458252,0.06889570504426956
1773150247065872100,5.2958720703125,-0.10404089838266373,2.496880292892456,0.1602778136730194
1773150247075909000,5.3059091796875,0.0016262233257293701,2.3933420181274414,0.32460275292396545
1773150247085946400,5.3159462890625,0.12773515284061432,2.291639566421509,0.515742838382721
1773150247095983400,5.3259833984375,0.2087082713842392,2.1606285572052,0.6763450503349304
1773150247106020000,5.33602001953125,0.2273370921611786,2.0168373584747314,0.7687817811965942
1773150247116057000,5.34605712890625,0.21173496544361115,1.7845430374145508,0.7822105288505554
1773150247126094000,5.356093994140625,0.22172580659389496,1.4228602647781372,0.747943639755249
1773150247136131300,5.36613134765625,0.2559150755405426,1.0546687841415405,0.6612669229507446
1773150247146168300,5.376168212890625,0.2941937744617462,0.7046211957931519,0.553118884563446
1773150247156205000,5.386205078125,0.3047068417072296,0.3927173614501953,0.48194998502731323
1773150247166242000,5.396241943359375,0.28426414728164673,0.18161553144454956,0.4503744840621948
1773150247176279300,5.406279296875,0.2665686309337616,0.14172475039958954,0.4561176300048828
1773150247186316300,5.41631640625,0.272627055644989,0.25935521721839905,0.5121681094169617
1773150247196353300,5.426353271484375,0.32216259837150574,0.47171732783317566,0.621275007724762
1773150247206389200,5.43638916015625,0.4031573235988617,0.6980289816856384,0.7547821998596191
1773150247216426200,5.44642626953125,0.4882301986217499,0.8928143978118896,0.9123940467834473
1773150247226463200,5.456463134765625,0.5530241131782532,0.988501787185669,1.050048828125
1773150247236500200,5.466500244140625,0.5787801146507263,0.9474531412124634,1.1473146677017212
1773150247246537200,5.476537109375,0.567305862903595,0.7926803827285767,1.187076449394226
1773150247256574200,5.48657421875,0.5312734842300415,0.6362892985343933,1.1753625869750977
1773150247266611200,5.496611083984375,0.4751151204109192,0.5727604031562805,1.0842515230178833
1773150247276648200,5.506648193359375,0.42039570212364197,0.5930964946746826,0.9404087662696838
1773150247286685200,5.516685302734375,0.402049720287323,0.6332889199256897,0.7746539115905762
1773150247296722200,5.52672216796875,0.3940025269985199,0.6476773619651794,0.6231370568275452
1773150247306759200,5.53675927734375,0.38020363450050354,0.5394637584686279,0.5298537015914917
1773150247316796400,5.54679638671875,0.36114993691444397,0.19871032238006592,0.5741112232208252
1773150247326833200,5.556833251953125,0.33500275015830994,0.0347573347389698,0.7104930281639099
1773150247336870100,5.5668701171875,0.35025835037231445,0.052178457379341125,0.8405682444572449
1773150247346907100,5.5769072265625,0.3416121304035187,0.18693867325782776,0.8608484864234924
1773150247356944400,5.5869443359375,0.2735233008861542,0.30929043889045715,0.744297206401825
1773150247366981400,5.5969814453125,0.08273310959339142,0.37671902775764465,0.4352671802043915
1773150247377018000,5.60701806640625,-0.06738521158695221,0.2769228518009186,0.07116872072219849
1773150247387055000,5.61705517578125,-0.1088133454322815,0.10768643021583557,-0.2161504030227661
1773150247397092000,5.627092041015625,-0.10024669021368027,-0.042984914034605026,-0.3637317419052124
1773150247407129300,5.63712939453125,-0.10373223572969437,-0.12577299773693085,-0.4089428782463074
1773150247417166300,5.647166259765625,-0.14368267357349396,-0.09881291538476944,-0.4307636320590973
1773150247427203000,5.657203125,-0.19696453213691711,0.012729321606457233,-0.4837011396884918
1773150247437240000,5.667239990234375,-0.23906654119491577,0.15219782292842865,-0.5733830332756042
1773150247447277300,5.67727734375,-0.26789551973342896,0.29397866129875183,-0.6787009835243225
1773150247457314300,5.687314208984375,-0.2976626753807068,0.40315431356430054,-0.7782365679740906
1773150247467351300,5.697351318359375,-0.33730462193489075,0.4662286341190338,-0.8612006902694702
1773150247477388000,5.707387939453125,-0.3914872705936432,0.4553278982639313,-0.9203411936759949
1773150247487425300,5.71742529296875,-0.6172207593917847,0.43574488162994385,-0.9734230041503906
1773150247497462300,5.727462158203125,-0.8040705919265747,0.3945487439632416,-0.965303897857666
1773150247507499300,5.737499267578125,-0.8950197100639343,0.28787288069725037,-0.9110363721847534
1773150247517536800,5.747536865234375,-0.8769052028656006,0.16675539314746857,-0.8621337413787842
1773150247527573500,5.757573486328125,-0.7603874206542969,0.11683443188667297,-0.8639660477638245
1773150247537610500,5.767610595703125,-0.5834748148918152,0.13307316601276398,-0.9757904410362244
1773150247547647500,5.7776474609375,-0.28743410110473633,0.14888142049312592,-1.1482599973678589
1773150247557684700,5.787684814453125,0.07193486392498016,0.15070979297161102,-1.149505853652954
1773150247567721700,5.7977216796875,0.2538868188858032,0.13864700496196747,-1.0469688177108765
1773150247577758500,5.807758544921875,0.16587607562541962,0.20837406814098358,-0.913665235042572
1773150247587795500,5.81779541015625,-0.06571907550096512,0.2892356216907501,-0.8060945272445679
1773150247597832700,5.827832763671875,-0.22309647500514984,0.30456721782684326,-0.7351175546646118
1773150247607869700,5.83786962890625,-0.23802082240581512,0.18933464586734772,-0.69267737865448
1773150247617906700,5.84790673828125,-0.19606152176856995,-0.03666531667113304,-0.648287296295166
1773150247627943400,5.857943359375,-0.1700240671634674,-0.27544593811035156,-0.5772833824157715
1773150247637980700,5.867980712890625,-0.17036312818527222,-0.4729680120944977,-0.47167298197746277
1773150247648016600,5.8780166015625,-0.20634615421295166,-0.7290988564491272,-0.31396856904029846
1773150247658053600,5.8880537109375,-0.2717020809650421,-1.1407361030578613,-0.16890832781791687
1773150247668090600,5.898090576171875,-0.341720312833786,-1.60555100440979,-0.10225073993206024
1773150247678127600,5.908127685546875,-0.38478884100914,-1.937276840209961,-0.12015675008296967
1773150247688164600,5.91816455078125,-0.39728784561157227,-2.0780203342437744,-0.19009056687355042
1773150247698201600,5.92820166015625,-0.425239235162735,-2.0066235065460205,-0.28859925270080566
1773150247708238600,5.938238525390625,-0.4501248598098755,-1.8261202573776245,-0.3866123557090759
1773150247718275600,5.948275634765625,-0.3943426012992859,-1.624250054359436,-0.46436062455177307
1773150247728312600,5.9583125,-0.26595479249954224,-1.4247550964355469,-0.5091709494590759
1773150247738349600,5.968349609375,-0.11370775103569031,-1.2200452089309692,-0.5142913460731506
1773150247748386600,5.978386474609375,0.008180869743227959,-1.005100131034851,-0.49175330996513367
1773150247758423600,5.988423583984375,0.08673252165317535,-0.7331897020339966,-0.4763219356536865
1773150247768460500,5.99846044921875,0.13569767773151398,-0.3809445798397064,-0.4779600501060486
1773150247778497800,6.008497802734375,0.17062164843082428,0.027919529005885124,-0.503715455532074
1773150247788534500,6.018534423828125,0.18796975910663605,0.4117406904697418,-0.5454202890396118
1773150247798571500,6.028571533203125,0.14699535071849823,0.7094249129295349,-0.5794309377670288
1773150247808608500,6.0386083984375,0.05510350316762924,0.8403691053390503,-0.5690520405769348
1773150247818645500,6.0486455078125,-0.051653582602739334,0.7525087594985962,-0.5304009318351746
1773150247828682800,6.058682861328125,-0.13617485761642456,0.4714866578578949,-0.47791075706481934
1773150247838719500,6.068719482421875,-0.18038733303546906,0.08060947805643082,-0.4320089519023895
1773150247848756500,6.078756591796875,-0.18936192989349365,-0.35144686698913574,-0.38742494583129883
1773150247858793500,6.08879345703125,-0.18959951400756836,-0.7351284623146057,-0.34043002128601074
1773150247868830700,6.098830810546875,-0.2147970050573349,-0.9873857498168945,-0.30894240736961365
1773150247878867700,6.10886767578125,-0.21726837754249573,-1.1404410600662231,-0.29587599635124207
1773150247888904400,6.118904541015625,-0.17555953562259674,-1.251165747642517,-0.27875691652297974
1773150247898941400,6.12894140625,-0.11928252130746841,-1.347272515296936,-0.24713362753391266
1773150247908978700,6.138978759765625,-0.07943497598171234,-1.4235337972640991,-0.22261416912078857
1773150247919015700,6.149015625,-0.06433973461389542,-1.4453257322311401,-0.2183389812707901
1773150247929052700,6.159052734375,-0.0748474970459938,-1.3888301849365234,-0.2538354694843292
1773150247939089700,6.169089599609375,-0.11479953676462173,-1.2368797063827515,-0.3166429400444031
1773150247949126400,6.17912646484375,-0.14355050027370453,-1.0243338346481323,-0.3953627645969391
1773150247959163600,6.18916357421875,-0.14460089802742004,-0.8386335372924805,-0.4683401584625244
1773150247969200600,6.19920068359375,-0.12416352331638336,-0.7164269089698792,-0.498295396566391
1773150247979237600,6.209237548828125,-0.10769110172986984,-0.6124392747879028,-0.47964224219322205
1773150247989274600,6.219274658203125,-0.11085893213748932,-0.4942108690738678,-0.431004136800766
1773150247999311600,6.2293115234375,-0.11546334624290466,-0.35925886034965515,-0.401860773563385
1773150248009348600,6.2393486328125,-0.09270370006561279,-0.20287562906742096,-0.4101509153842926
1773150248019385600,6.249385498046875,-0.06689465790987015,-0.01983930543065071,-0.4393174648284912
1773150248029422600,6.259422607421875,-0.049916207790374756,0.15070153772830963,-0.46328112483024597
1773150248039459600,6.26945947265625,-0.04505431279540062,0.22048166394233704,-0.45657312870025635
1773150248049496600,6.27949658203125,-0.0324261337518692,0.16529349982738495,-0.38058197498321533
1773150248059533600,6.289533447265625,-0.014605534262955189,0.0006541619077324867,-0.2550024688243866
1773150248069570600,6.299570556640625,0.007688586600124836,-0.15672187507152557,-0.1416386216878891
1773150248079607600,6.309607666015625,0.03752198815345764,-0.20588131248950958,-0.08642598241567612
1773150248089644500,6.31964453125,0.05527648702263832,-0.1575356274843216,-0.0632903054356575
1773150248099681500,6.329681640625,0.05626530200242996,-0.0944325178861618,-0.02994190901517868
1773150248109718500,6.339718505859375,0.05167002230882645,-0.06398406624794006,0.035920724272727966
1773150248119755500,6.349755615234375,0.04828378185629845,-0.05189703404903412,0.10380827635526657
1773150248129792800,6.359792724609375,0.041466888040304184,-0.03380085527896881,0.14762340486049652
1773150248139829800,6.369829833984375,0.02958708442747593,-0.02630966156721115,0.16451598703861237
1773150248149865700,6.37986572265625,0.010482367128133774,-0.04674942046403885,0.16802577674388885
1773150248159902500,6.38990234375,-0.020617228001356125,-0.10733342915773392,0.17257829010486603
1773150248169939500,6.399939453125,-0.04471777379512787,-0.1871052235364914,0.17461027204990387
1773150248179976700,6.409976806640625,-0.061826661229133606,-0.25987187027931213,0.16373993456363678
1773150248190013700,6.420013671875,-0.0817662850022316,-0.2888321578502655,0.1400793492794037
1773150248200050700,6.43005078125,-0.10275972634553909,-0.2571921944618225,0.10764362663030624
1773150248210087400,6.44008740234375,-0.10897873342037201,-0.1763114631175995,0.06948665529489517
1773150248220124400,6.45012451171875,-0.11242104321718216,-0.05714522302150726,0.04476746916770935
1773150248230161700,6.46016162109375,-0.1146242767572403,0.07069343328475952,0.045933399349451065
1773150248240198700,6.47019873046875,-0.12299306690692902,0.1963060349225998,0.07180827856063843
1773150248250235600,6.480235595703125,-0.1317463517189026,0.30349424481391907,0.1230754554271698
1773150248260272400,6.4902724609375,-0.13388852775096893,0.389473557472229,0.17311625182628632
1773150248270309600,6.5003095703125,-0.13673359155654907,0.44927242398262024,0.21865524351596832
1773150248280346600,6.5103466796875,-0.1405131220817566,0.4832093417644501,0.24420440196990967
1773150248290383600,6.520383544921875,-0.13462859392166138,0.5003100037574768,0.2586701512336731
1773150248300420600,6.530420654296875,-0.10762184858322144,0.48312076926231384,0.2650042176246643
1773150248310457600,6.54045751953125,-0.07558082789182663,0.42373546957969666,0.2777320146560669
1773150248320494600,6.55049462890625,-0.052415959537029266,0.33305251598358154,0.2937137484550476
1773150248330531600,6.560531494140625,-0.03733687847852707,0.23513716459274292,0.302383154630661
1773150248340568600,6.570568603515625,-0.019644081592559814,0.16658759117126465,0.2926156520843506
1773150248350605600,6.58060546875,0.004196269437670708,0.13063198328018188,0.26716727018356323
1773150248360642600,6.590642578125,0.027559073641896248,0.11748427152633667,0.23414446413516998
1773150248370679600,6.600679443359375,0.033626556396484375,0.14397554099559784,0.20223075151443481
1773150248380716500,6.610716552734375,0.03423637896776199,0.21404200792312622,0.1745559424161911
1773150248390753500,6.62075341796875,0.04082690179347992,0.3331119120121002,0.1621623933315277
1773150248400790800,6.630790771484375,0.06159820780158043,0.48784080147743225,0.1658017337322235
1773150248410827500,6.64082763671875,0.08534375578165054,0.6697767972946167,0.15989910066127777
1773150248420864500,6.650864501953125,0.09634070843458176,0.8571011424064636,0.17022182047367096
1773150248430901500,6.660901611328125,0.09551858901977539,1.0312786102294922,0.20206311345100403
1773150248440938800,6.670938720703125,0.09899424761533737,1.140961766242981,0.2567799985408783
1773150248450975700,6.680975830078125,0.11488159745931625,1.177750587463379,0.3288733661174774
1773150248461012500,6.691012451171875,0.12540681660175323,1.1297904253005981,0.39675068855285645
1773150248471049500,6.701049560546875,0.12495514005422592,1.037298560142517,0.4553881585597992
1773150248481086500,6.71108642578125,0.11064483970403671,0.9263491630554199,0.4933227300643921
1773150248491123700,6.721123779296875,0.09579291939735413,0.8129760026931763,0.5159356594085693
1773150248501160700,6.73116064453125,0.08548562973737717,0.7076044082641602,0.5351055860519409
1773150248511197400,6.741197509765625,0.08243098109960556,0.6332079172134399,0.5643708109855652
1773150248521238000,6.751238037109375,0.09664914011955261,0.6084644198417664,0.6002978086471558
1773150248531275000,6.76127490234375,0.12191055715084076,0.6228566765785217,0.6326160430908203
1773150248541312000,6.77131201171875,0.149985209107399,0.6684131026268005,0.6601643562316895
1773150248551349200,6.781349365234375,0.17169423401355743,0.7227972745895386,0.6797918677330017
1773150248561386000,6.791385986328125,0.19080089032649994,0.7838290929794312,0.6945397853851318
1773150248571423000,6.801423095703125,0.20404371619224548,0.8460133671760559,0.6993957757949829
1773150248581460000,6.8114599609375,0.19979701936244965,0.9004572033882141,0.6812581419944763
1773150248591497200,6.821497314453125,0.1757257729768753,0.9515459537506104,0.6428359150886536
1773150248601534200,6.8315341796875,0.13446907699108124,0.9963417053222656,0.5872284173965454
1773150248611571200,6.8415712890625,0.09162281453609467,1.0362036228179932,0.523736298084259
1773150248621608000,6.85160791015625,0.049881454557180405,1.072370171546936,0.46314099431037903
1773150248631645200,6.861645263671875,0.024443473666906357,1.0671296119689941,0.42583784461021423
1773150248641682200,6.87168212890625,-0.004100245423614979,1.0365251302719116,0.42981886863708496
1773150248651719200,6.88171923828125,-0.02549261972308159,0.9661654829978943,0.47525453567504883
1773150248661756200,6.891756103515625,-0.030289771035313606,0.8488779664039612,0.548770546913147
1773150248671793000,6.90179296875,-0.03929471969604492,0.7202448844909668,0.6246631741523743
1773150248681828900,6.911828857421875,-0.06964404135942459,0.6161069869995117,0.6872056722640991
1773150248691866000,6.9218662109375,-0.11142557859420776,0.5597038865089417,0.7217588424682617
1773150248701903000,6.931903076171875,-0.15270313620567322,0.5317964553833008,0.7253807187080383
1773150248711940000,6.941940185546875,-0.20064376294612885,0.5286299586296082,0.6965922117233276
1773150248721977000,6.95197705078125,-0.23621854186058044,0.5484799146652222,0.6497954726219177
1773150248732014000,6.96201416015625,-0.2505010962486267,0.5784724354743958,0.5992950201034546
1773150248742051000,6.972051025390625,-0.2357006072998047,0.6020528674125671,0.5648105144500732
1773150248752088000,6.982088134765625,-0.2045336216688156,0.6048396229743958,0.5487167239189148
1773150248762125000,6.992125,-0.1777704805135727,0.6068881750106812,0.5617426037788391
1773150248772162300,7.002162353515625,-0.16232042014598846,0.6204620003700256,0.6073393821716309
1773150248782199000,7.012198974609375,-0.14599865674972534,0.6355522274971008,0.6813228726387024
1773150248792236000,7.022236083984375,-0.10913358628749847,0.6432766914367676,0.7666353583335876
1773150248802273000,7.03227294921875,-0.05338359624147415,0.6576682925224304,0.858088493347168
1773150248812310000,7.04231005859375,0.004241613671183586,0.6833992600440979,0.9336618185043335
1773150248822347300,7.05234716796875,0.04164374619722366,0.7441036701202393,0.9619887471199036
1773150248832384000,7.062384033203125,0.05950051546096802,0.8250443339347839,0.9283016324043274
1773150248842421000,7.0724208984375,0.07255780696868896,0.8991357684135437,0.8298059701919556
1773150248852458000,7.0824580078125,0.08227089047431946,0.9146481156349182,0.687660813331604
1773150248862495200,7.0924951171875,0.08124520629644394,0.8187020421028137,0.5465356707572937
1773150248872532200,7.1025322265625,0.09603559970855713,0.6765987277030945,0.4414968490600586
1773150248882569000,7.11256884765625,0.11749573051929474,0.5713017582893372,0.39468514919281006
1773150248892606000,7.12260595703125,0.15805460512638092,0.5028161406517029,0.39262625575065613
1773150248902643200,7.132643310546875,0.19574254751205444,0.5013620853424072,0.4054400324821472
1773150248912680200,7.14268017578125,0.22696305811405182,0.5600249171257019,0.37493619322776794
1773150248922717200,7.15271728515625,0.2505834400653839,0.6489637494087219,0.287477046251297
1773150248932754000,7.16275390625,0.24050551652908325,0.7181758880615234,0.1488235741853714
1773150248942791000,7.172791015625,0.21454757452011108,0.7278698682785034,0.023985909298062325
1773150248952828200,7.182828125,0.174745574593544,0.6637899875640869,-0.049250487238168716
1773150248962865200,7.192865234375,0.13573892414569855,0.5321905016899109,-0.04863865673542023
1773150248972902100,7.202902099609375,0.10599221289157867,0.3573300242424011,-0.0017877956852316856
1773150248982939000,7.21293896484375,0.09892433136701584,0.19245010614395142,0.047341667115688324
1773150248992976100,7.22297607421875,0.09620391577482224,0.06792415678501129,0.07203130424022675
1773150249003013000,7.23301318359375,0.08481350541114807,-0.006799520459026098,0.07904984056949615
1773150249013050000,7.243050048828125,0.06505417823791504,-0.059612929821014404,0.08720070868730545
1773150249023087000,7.253087158203125,0.04758226126432419,-0.11053447425365448,0.10468139499425888
1773150249033124000,7.2631240234375,0.03514663130044937,-0.14834576845169067,0.11455373466014862
1773150249043161000,7.2731611328125,0.02668771892786026,-0.15206629037857056,0.10664200782775879
1773150249053198000,7.283197998046875,0.008473826572299004,-0.1084117591381073,0.06834521889686584
1773150249063235000,7.293235107421875,-0.025262048467993736,-0.031934257596731186,-0.008738620206713676
1773150249073272000,7.30327197265625,-0.06271221488714218,0.028924833983182907,-0.12121296674013138
1773150249083307000,7.31330712890625,-0.09869575500488281,0.04638395458459854,-0.23892149329185486
1773150249093344300,7.32334423828125,-0.11744441092014313,0.024060538038611412,-0.3360142111778259
1773150249103381200,7.33338134765625,-0.11361921578645706,-0.0068111964501440525,-0.3937460780143738
1773150249113418000,7.34341796875,-0.10166055709123611,-0.03666949272155762,-0.4169648587703705
1773150249123455000,7.353455078125,-0.08204542845487595,-0.0508941151201725,-0.4240446090698242
1773150249133492000,7.363491943359375,-0.07599152624607086,-0.040681954473257065,-0.4249112010002136
1773150249143529200,7.373529296875,-0.08747102320194244,-0.029701028019189835,-0.42897453904151917
1773150249153566200,7.383566162109375,-0.11968541890382767,-0.041324127465486526,-0.42261865735054016
1773150249163603000,7.39360302734375,-0.1512344926595688,-0.06988123804330826,-0.4183875322341919
1773150249173640000,7.403639892578125,-0.1845730096101761,-0.11572729051113129,-0.41940537095069885
1773150249183677200,7.41367724609375,-0.21680337190628052,-0.17234854400157928,-0.4338456094264984
1773150249193714200,7.423714111328125,-0.2514747977256775,-0.22011126577854156,-0.464846134185791
1773150249203751200,7.433751220703125,-0.3104148507118225,-0.2581571340560913,-0.5080745220184326
1773150249213788200,7.4437880859375,-0.34471583366394043,-0.25263291597366333,-0.5529043078422546
1773150249223825000,7.453824951171875,-0.30953362584114075,-0.22715257108211517,-0.5982274413108826
1773150249233862100,7.463862060546875,-0.27162858843803406,-0.20720016956329346,-0.6400342583656311
1773150249243899100,7.473899169921875,-0.26696309447288513,-0.21338580548763275,-0.6715970635414124
1773150249253936000,7.48393603515625,-0.28689685463905334,-0.24621805548667908,-0.6960659027099609
1773150249263973000,7.49397314453125,-0.3067467212677002,-0.2807297110557556,-0.7271156907081604
1773150249274010000,7.504010009765625,-0.3163466155529022,-0.28760626912117004,-0.7574376463890076
1773150249284047000,7.514047119140625,-0.31407421827316284,-0.2651520371437073,-0.7741360068321228
1773150249294084000,7.524083984375,-0.31362253427505493,-0.19852612912654877,-0.7769693732261658
1773150249304121000,7.53412109375,-0.3226086497306824,-0.06526172161102295,-0.7750670909881592
1773150249314158000,7.544157958984375,-0.337542861700058,0.10167746245861053,-0.7661287188529968
1773150249324195000,7.554195068359375,-0.3485954701900482,0.28969472646713257,-0.7211212515830994
1773150249334232000,7.564232177734375,-0.3270832598209381,0.44706809520721436,-0.6119223237037659
1773150249344269000,7.57426904296875,-0.27470242977142334,0.5468749403953552,-0.4106613099575043
1773150249354305000,7.584304931640625,-0.16828171908855438,0.5608122944831848,-0.07680024951696396
1773150249364343000,7.594343017578125,-0.02638702280819416,0.5633707046508789,0.26319313049316406
1773150249374379300,7.604379150390625,0.07894232869148254,0.6464986205101013,0.3824201822280884
1773150249384416000,7.614416015625,0.06349904835224152,0.8138751983642578,0.22278378903865814
1773150249394453000,7.624452880859375,-0.005693599581718445,0.992581844329834,-0.03422855958342552
1773150249404490000,7.634489990234375,-0.07238730788230896,1.098177433013916,-0.21126258373260498
1773150249414527200,7.64452734375,-0.047985028475522995,1.1617540121078491,-0.23116466403007507
1773150249424564200,7.654564208984375,0.06323179602622986,1.2631844282150269,-0.13048158586025238
1773150249434601000,7.66460107421875,0.22282226383686066,1.4300514459609985,0.03163594752550125
1773150249444638000,7.674637939453125,0.40641212463378906,1.5942327976226807,0.21247683465480804
1773150249454675200,7.68467529296875,0.5705664157867432,1.6296579837799072,0.38515564799308777
1773150249464712200,7.694712158203125,0.7005714178085327,1.5131893157958984,0.5002407431602478
1773150249474749200,7.704749267578125,0.7194241881370544,1.2000454664230347,0.5392948985099792
1773150249484786000,7.714785888671875,0.6934371590614319,0.8825085163116455,0.5714083909988403
1773150249494823000,7.724822998046875,0.6329431533813477,0.48030754923820496,0.6253030300140381
1773150249504860200,7.734860107421875,0.5251452922821045,-0.08734464645385742,0.6884103417396545
1773150249514897200,7.744897216796875,0.3451659083366394,-0.6618950366973877,0.715721070766449
1773150249524930300,7.754930419921875,0.1643960177898407,-1.0309393405914307,0.6845202445983887
1773150249534967300,7.76496728515625,0.01865798979997635,-1.1626379489898682,0.6254897117614746
1773150249545004300,7.77500439453125,-0.06434159725904465,-1.0913995504379272,0.6016843914985657
1773150249555041300,7.785041259765625,-0.06270880997180939,-0.8100592494010925,0.5843653082847595
1773150249565078300,7.795078369140625,-0.004999903962016106,-0.3524057865142822,0.5586787462234497
1773150249575115500,7.805115478515625,0.10513938963413239,0.16835300624370575,0.5045638084411621
1773150249585152500,7.815152587890625,0.22972407937049866,0.6027397513389587,0.41733449697494507
1773150249595189200,7.825189208984375,0.3234652280807495,0.8371399641036987,0.2972850501537323
1773150249605226200,7.835226318359375,0.3470659852027893,0.8299506306648254,0.18140147626399994
1773150249615263200,7.84526318359375,0.3719859719276428,0.5845978856086731,0.13001364469528198
1773150249625300500,7.855300537109375,0.3981946110725403,0.122354656457901,0.1663929671049118
1773150249635337500,7.86533740234375,0.40325728058815,-0.510247528553009,0.2533891201019287
1773150249645374200,7.875374267578125,0.36107340455055237,-1.1372625827789307,0.31789445877075195
1773150249655411200,7.8854111328125,0.28129735589027405,-1.3596543073654175,0.34497082233428955
1773150249665448400,7.895448486328125,0.2085041105747223,-1.1929972171783447,0.3904091417789459
1773150249675485400,7.9054853515625,0.1577059030532837,-0.8102518916130066,0.4239061176776886
1773150249685522400,7.9155224609375,0.15792402625083923,-0.4895623028278351,0.38825199007987976
1773150249695559200,7.92555908203125,0.20603641867637634,-0.3530569076538086,0.3315146863460541
1773150249705596400,7.935596435546875,0.2297877073287964,-0.2969423830509186,0.3502952754497528
1773150249715633400,7.94563330078125,0.2245761603116989,-0.28045424818992615,0.40456250309944153
1773150249725670400,7.95567041015625,0.19051173329353333,-0.30591174960136414,0.441694051027298
1773150249735707400,7.965707275390625,0.16125823557376862,-0.2911674380302429,0.42182019352912903
1773150249745744100,7.975744140625,0.14667920768260956,-0.17081479728221893,0.35990825295448303
1773150249755781400,7.985781494140625,0.1500193476676941,0.014032556675374508,0.2811364531517029
1773150249765818400,7.995818359375,0.16929756104946136,0.20428864657878876,0.2061353176832199
1773150249775855400,8.00585546875,0.1796327531337738,0.3934098184108734,0.14669941365718842
1773150249785892400,8.015892333984375,0.18599283695220947,0.5449549555778503,0.12225919961929321
1773150249795929300,8.025929443359376,0.1998162418603897,0.6640241146087646,0.15472713112831116
1773150249805966300,8.03596630859375,0.2154819220304489,0.7202914357185364,0.205327570438385
1773150249816003300,8.04600341796875,0.21033723652362823,0.741241455078125,0.22454386949539185
1773150249826040300,8.056040283203124,0.18565146625041962,0.7004896402359009,0.21507208049297333
1773150249836077600,8.06607763671875,0.14180678129196167,0.5636867880821228,0.20410332083702087
1773150249846114300,8.0761142578125,0.08793167024850845,0.37381285429000854,0.2122652679681778
1773150249856151300,8.0861513671875,0.04241505265235901,0.1469072699546814,0.24985551834106445
1773150249866188300,8.096188232421875,-0.006608061026781797,0.0178658626973629,0.31057584285736084
1773150249876225300,8.106225341796875,-0.04718451946973801,0.05600286275148392,0.37993600964546204
1773150249886262500,8.116262451171876,-0.0943378359079361,0.0543830469250679,0.4410783350467682
1773150249896299300,8.12629931640625,-0.13907787203788757,0.021741745993494987,0.46384677290916443
1773150249906336300,8.136336181640624,-0.1631723940372467,-0.06203852966427803,0.4345734119415283
1773150249916373200,8.146373291015625,-0.16034811735153198,-0.15844576060771942,0.38175255060195923
1773150249926410500,8.156410400390625,-0.11611968278884888,-0.25849032402038574,0.32040196657180786
1773150249936447500,8.166447509765625,-0.007909592241048813,-0.32108819484710693,0.35459163784980774
1773150249946484200,8.176484130859375,0.18535840511322021,-0.3542596995830536,0.4815613031387329
1773150249956521200,8.186521240234375,0.42468151450157166,-0.38514330983161926,0.6449816226959229
1773150249966558500,8.196558349609376,0.6778864860534668,-0.39421898126602173,0.9416294097900391
1773150249976595500,8.206595458984374,0.9096107482910156,-0.36284321546554565,1.3593862056732178
1773150249986632400,8.216632568359374,1.0270307064056396,-0.3305719494819641,1.7819995880126953
1773150249996669200,8.226669189453125,1.0173839330673218,-0.5589801073074341,1.9574943780899048
1773150250006706200,8.2367060546875,0.8635255694389343,-1.0712357759475708,1.8246828317642212
1773150250016743400,8.246743408203125,0.6687411665916443,-1.3984323740005493,1.7446905374526978
1773150250026780400,8.256780517578125,0.5193415880203247,-1.329813838005066,1.937231421470642
1773150250036817400,8.2668173828125,0.510269284248352,-1.1074620485305786,2.1281826496124268
1773150250046854100,8.276854248046876,0.6052637696266174,-0.8929990530014038,2.188551187515259
1773150250056891400,8.286891357421876,0.692337691783905,-0.7479004263877869,2.1223316192626953
1773150250066928400,8.296928466796874,0.7331944704055786,-0.5908346176147461,1.963500738143921
1773150250076965400,8.30696533203125,0.7762431502342224,-0.3633522093296051,1.827426791191101
1773150250087002400,8.31700244140625,0.8288064002990723,-0.2145993560552597,1.6747198104858398
1773150250097039400,8.327039306640625,0.9429865479469299,-0.09272005409002304,1.4320176839828491
1773150250107076400,8.337076416015625,1.1831339597702026,0.09616456925868988,1.3253782987594604
1773150250117113300,8.34711328125,1.3337810039520264,0.38047003746032715,1.444068431854248
1773150250127150300,8.357150390625,1.2924466133117676,0.4099571704864502,1.3742256164550781
1773150250137187300,8.367187255859376,1.2528165578842163,0.3364983797073364,1.0469624996185303
1773150250147224300,8.377224365234374,1.25998854637146,0.4299930930137634,0.8511013984680176
1773150250157261300,8.38726123046875,1.2111313343048096,0.3515795171260834,0.9013462066650391
1773150250167298300,8.39729833984375,1.0936516523361206,-0.09682716429233551,0.9997708797454834
1773150250177335300,8.407335205078125,0.9614238739013672,-0.5249228477478027,1.0289818048477173
1773150250187372500,8.41737255859375,0.8047020435333252,-0.7112769484519958,0.9743365049362183
1773150250197409300,8.4274091796875,0.6186925172805786,-0.7087413668632507,0.8555179834365845
1773150250207446300,8.4374462890625,0.453944593667984,-0.6372312307357788,0.6731915473937988
1773150250217483300,8.447483154296876,0.35267817974090576,-0.5539970397949219,0.4551282227039337
1773150250227520300,8.457520263671874,0.3032214045524597,-0.46712610125541687,0.21580898761749268
1773150250237557500,8.4675576171875,0.2746041417121887,-0.40325069427490234,-0.0290183424949646
1773150250247594200,8.47759423828125,0.2520112097263336,-0.36933666467666626,-0.2482576072216034
1773150250257631200,8.48763134765625,0.20658087730407715,-0.33150514960289,-0.41792869567871094
1773150250267668200,8.497668212890625,0.1495719999074936,-0.2553859353065491,-0.5625110864639282
1773150250277705500,8.50770556640625,0.13591371476650238,-0.13908304274082184,-0.7217675447463989
1773150250287742500,8.517742431640626,0.197018101811409,0.03413531929254532,-0.9187538027763367
1773150250297779200,8.527779296875,0.29885685443878174,0.21855255961418152,-1.1386489868164062
1773150250307816200,8.537816162109374,0.42700260877609253,0.472450315952301,-1.3099300861358643
1773150250317853400,8.547853515625,0.550850510597229,0.8078538775444031,-1.4117664098739624
1773150250327890400,8.557890380859375,0.5929668545722961,1.103315830230713,-1.4676783084869385
1773150250337927400,8.567927490234375,0.5173937678337097,1.277700424194336,-1.4409114122390747
1773150250347964200,8.577964111328125,0.3916190266609192,1.4391604661941528,-1.213233232498169
1773150250358001200,8.588001220703125,0.27144548296928406,1.5407888889312744,-1.0059138536453247
1773150250368038400,8.598038330078126,0.11287590116262436,1.3565573692321777,-1.0780647993087769
1773150250378075400,8.608075439453126,0.22013792395591736,0.6473424434661865,-1.3925514221191406
1773150250388112400,8.6181123046875,0.38660967350006104,0.36342498660087585,-1.790260910987854
1773150250398149400,8.6281494140625,0.4053942859172821,0.7191076874732971,-2.1326992511749268
1773150250408186400,8.638186279296875,0.290440171957016,0.3290783166885376,-2.1857473850250244
1773150250418223400,8.648223388671875,0.06265866011381149,-0.49754956364631653,-1.6330583095550537
1773150250428260400,8.65826025390625,-0.15239295363426208,-0.7968508005142212,-0.8990809321403503
1773150250438297300,8.66829736328125,-0.3101828396320343,-1.0734833478927612,-0.3127228915691376
1773150250448334300,8.678334228515626,-0.3312539756298065,-2.0799052715301514,-0.10198734700679779
1773150250458371300,8.688371337890626,-0.36763995885849,-2.783647298812866,-0.2517520785331726
1773150250468408300,8.698408203125,-0.525531530380249,-2.306067943572998,-0.5575074553489685
1773150250478445300,8.7084453125,-0.6616014838218689,-1.236464500427246,-0.876422643661499
1773150250488482300,8.718482421875,-0.6227165460586548,-0.11867443472146988,-1.0699578523635864
1773150250498519300,8.728519287109375,-0.3184191882610321,0.6101853847503662,-1.0839003324508667
1773150250508556300,8.738556396484375,0.0012809624895453453,0.8336659073829651,-1.0568827390670776
1773150250518593500,8.748593505859375,0.12780322134494781,1.0415312051773071,-1.1235935688018799
1773150250528630500,8.758630615234376,0.06097163259983063,1.2017138004302979,-1.2159837484359741
1773150250538667800,8.768667724609376,-0.07775961607694626,1.008456826210022,-1.1766624450683594
1773150250548704500,8.77870458984375,-0.10841663926839828,0.6203774809837341,-1.003032922744751
1773150250558740700,8.78874072265625,-0.03919868543744087,0.4046933948993683,-0.8013792634010315
1773150250568777500,8.798777587890624,-0.00831952691078186,0.4450463056564331,-0.7234057188034058
1773150250578814500,8.808814453125,-0.07424021512269974,0.5773764252662659,-0.7815238833427429
1773150250588851700,8.818851806640625,-0.16510950028896332,0.6898369789123535,-0.8229936361312866
1773150250598888700,8.828888671875,-0.20421428978443146,0.7025330662727356,-0.7496698498725891
1773150250608925700,8.83892578125,-0.17079532146453857,0.6646405458450317,-0.5822476148605347
1773150250618962400,8.84896240234375,-0.1903168261051178,0.455704927444458,-0.5149345993995667
1773150250628999700,8.858999755859376,-0.28847843408584595,0.1503075808286667,-0.5184217095375061
1773150250639036700,8.86903662109375,-0.34938278794288635,-0.09128319472074509,-0.4797406494617462
1773150250649073700,8.87907373046875,-0.39464470744132996,-0.1649726927280426,-0.3863477110862732
1773150250659110700,8.889110595703125,-0.4442242383956909,-0.12804822623729706,-0.2547111213207245
1773150250669147400,8.8991474609375,-0.5058544874191284,-0.08237779140472412,-0.13663068413734436
1773150250679184600,8.9091845703125,-0.5818347334861755,-0.06306029111146927,-0.09504809975624084
1773150250689221600,8.9192216796875,-0.6393184661865234,-0.010914573445916176,-0.09925909340381622
1773150250699258600,8.929258544921876,-0.6652786731719971,0.09487204253673553,-0.098788782954216
1773150250709295600,8.939295654296876,-0.6587709784507751,0.2306479811668396,-0.10593324154615402
1773150250719332600,8.94933251953125,-0.6116160154342651,0.4114920496940613,-0.11121908575296402
1773150250729369600,8.95936962890625,-0.5699750185012817,0.5904143452644348,-0.09909064322710037
1773150250739406600,8.969406494140625,-0.5123137831687927,0.7458305358886719,-0.04827619343996048
1773150250749443600,8.979443603515625,-0.44401171803474426,0.8804322481155396,0.04379621893167496
1773150250759480600,8.98948046875,-0.32669520378112793,0.9797992706298828,0.1447545289993286
1773150250769517600,8.999517578125,-0.20146390795707703,1.0392006635665894,0.21401162445545197
1773150250779554600,9.009554443359375,-0.09074164927005768,1.1102380752563477,0.24571868777275085
1773150250789591600,9.019591552734376,0.012174728326499462,1.2119916677474976,0.2621740698814392
1773150250799628500,9.029628662109374,0.10258664935827255,1.3189647197723389,0.33698439598083496
1773150250809665800,9.039665771484374,0.15097692608833313,1.3953218460083008,0.4189654290676117
1773150250819702500,9.04970263671875,0.1565948724746704,1.4209835529327393,0.41802719235420227
1773150250829739500,9.059739501953125,0.10950081050395966,1.490105390548706,0.2904813289642334
1773150250839776500,9.069776611328125,-0.016450461000204086,1.7990171909332275,0.08644992858171463
1773150250849813800,9.079813720703125,-0.08263100683689117,2.253312110900879,0.007635134272277355
1773150250859850800,9.089850830078126,-0.0345926433801651,2.636960506439209,0.04964330792427063
1773150250869887500,9.099887451171876,0.07427158951759338,2.733391761779785,0.1362105756998062
1773150250879924500,9.109924560546874,0.1332704722881317,2.3144900798797607,0.1447174996137619
1773150250889961500,9.11996142578125,0.1719088852405548,1.5961670875549316,0.14281173050403595
1773150250899998700,9.129998779296875,0.2850780487060547,1.0041775703430176,0.2151051014661789
1773150250910035700,9.14003564453125,0.4082472026348114,0.641944408416748,0.3054158389568329
1773150250920072400,9.150072509765625,0.5021252632141113,0.4795871675014496,0.3584076762199402
1773150250930109400,9.160109375,0.5213682651519775,0.375808447599411,0.31559816002845764
1773150250940146700,9.170146728515626,0.4443056881427765,0.3569974899291992,0.2132166624069214
1773150250950183700,9.18018359375,0.2831880748271942,0.48520806431770325,0.12379251420497894
1773150250960220700,9.190220703125,0.09134966135025024,0.590381383895874,0.0752904862165451
1773150250970257400,9.20025732421875,-0.021473750472068787,0.38529279828071594,0.03172224760055542
1773150250980294700,9.210294677734375,0.007062286138534546,-0.061847422271966934,0.002202172065153718
1773150250990331600,9.22033154296875,0.06764272600412369,-0.40376415848731995,-0.003985968884080648
1773150251000368600,9.23036865234375,0.09865123778581619,-0.4810885190963745,-0.008390570990741253
1773150251010405600,9.240405517578125,0.09273357689380646,-0.42798417806625366,-0.036224864423274994
1773150251020442400,9.2504423828125,0.05560431629419327,-0.29682430624961853,-0.05678606405854225
1773150251030479600,9.260479736328126,0.01354613620787859,-0.24917694926261902,-0.13838636875152588
1773150251040516600,9.2705166015625,-0.013101720251142979,-0.2980603277683258,-0.26471155881881714
1773150251050553600,9.2805537109375,0.002095090225338936,-0.30706048011779785,-0.3389960527420044
1773150251060590600,9.290590576171875,0.048841290175914764,-0.22701945900917053,-0.34089383482933044
1773150251070627600,9.300627685546875,0.09251894056797028,-0.09474045038223267,-0.3027922511100769
1773150251080664600,9.31066455078125,0.0856383889913559,-0.17665715515613556,-0.3421444594860077
1773150251090701600,9.32070166015625,0.06799408048391342,-0.2958199679851532,-0.3844355344772339
1773150251100738600,9.330738525390625,0.061587847769260406,-0.2887660562992096,-0.370265930891037
1773150251110775800,9.34077587890625,0.0739077776670456,-0.2360699474811554,-0.38847798109054565
1773150251120812500,9.3508125,0.09368067979812622,-0.053192537277936935,-0.35878533124923706
1773150251130849500,9.360849609375,0.09641113132238388,0.037079911679029465,-0.3292234539985657
1773150251140886500,9.370886474609375,0.07732638716697693,0.004250860307365656,-0.270626962184906
1773150251150923500,9.380923583984375,0.030221402645111084,-0.10801303386688232,-0.1959306299686432
1773150251160960800,9.390960693359375,-0.003841760568320751,-0.30958929657936096,-0.18072184920310974
1773150251170997500,9.40099755859375,-0.006647239439189434,-0.34791284799575806,-0.14140532910823822
1773150251181034500,9.411034423828125,0.0036994069814682007,-0.2738282382488251,-0.098466657102108
1773150251191071500,9.421071533203126,-0.00787726417183876,-0.12283672392368317,-0.07252492755651474
1773150251201108700,9.431108642578126,-0.0455937534570694,0.035480741411447525,-0.07512789964675903
1773150251211145700,9.441145751953124,-0.08989369869232178,0.10674522817134857,-0.09556994587182999
1773150251221182500,9.451182373046874,-0.11612077802419662,0.17089517414569855,-0.07941041886806488
1773150251231219500,9.461219482421875,-0.11958598345518112,0.1604107767343521,-0.0675652027130127
1773150251241256400,9.47125634765625,-0.10904146730899811,0.19091728329658508,-0.021066943183541298
1773150251251293700,9.481293701171875,-0.10901103913784027,0.16722306609153748,0.024771513417363167
1773150251261330700,9.49133056640625,-0.16386975347995758,0.05484538897871971,0.03620606288313866
1773150251271367400,9.501367431640626,-0.18400938808918,-0.0487142913043499,0.04852424934506416
1773150251281404400,9.511404296875,-0.151451975107193,-0.1501852571964264,0.0420844592154026
1773150251291441700,9.521441650390624,-0.1267445981502533,-0.1723586618900299,0.06829968839883804
1773150251301478700,9.531478759765625,-0.12137115001678467,-0.16067351400852203,0.11132971197366714
1773150251311515600,9.541515625,-0.1397155523300171,-0.16640324890613556,0.12454483658075333
1773150251321552600,9.551552734375,-0.16787715256214142,-0.24017760157585144,0.10279879719018936
1773150251331589600,9.561589599609375,-0.20680062472820282,-0.335337370634079,0.0771297886967659
1773150251341626600,9.571626708984375,-0.23622402548789978,-0.3626326322555542,0.06254366040229797
1773150251351663600,9.58166357421875,-0.24291451275348663,-0.30789926648139954,0.042092446237802505
1773150251361700600,9.59170068359375,-0.2317848950624466,-0.1969333291053772,-0.026071693748235703
1773150251371737600,9.601737548828124,-0.21857702732086182,-0.13175664842128754,-0.1189357191324234
1773150251381774600,9.611774658203124,-0.21499374508857727,-0.12204384058713913,-0.15608789026737213
1773150251391811600,9.6218115234375,-0.22888606786727905,-0.15572702884674072,-0.13112686574459076
1773150251401848600,9.6318486328125,-0.2529647648334503,-0.1701831966638565,-0.11634153872728348
1773150251411885600,9.641885498046875,-0.25524193048477173,-0.12582649290561676,-0.15696631371974945
1773150251421922600,9.651922607421875,-0.25378650426864624,-0.05418054014444351,-0.24786053597927094
1773150251431959600,9.66195947265625,-0.2644694447517395,0.03931180015206337,-0.34071898460388184
1773150251441996500,9.67199658203125,-0.25475263595581055,0.05963784456253052,-0.3413437604904175
1773150251452033500,9.682033447265624,-0.23763054609298706,0.03465914726257324,-0.2771260440349579
1773150251462070800,9.69207080078125,-0.2681064009666443,-0.020430471748113632,-0.27749329805374146
1773150251472107800,9.702107666015625,-0.28387001156806946,-0.08405251055955887,-0.2966243624687195
1773150251482144500,9.71214453125,-0.2971858084201813,-0.15884952247142792,-0.2906831204891205
1773150251492181500,9.722181396484375,-0.338704377412796,-0.17882975935935974,-0.2632022202014923
1773150251502218500,9.732218505859375,-0.38102173805236816,-0.11199294030666351,-0.21069319546222687
1773150251512255700,9.742255859375,-0.4543459713459015,-0.06781778484582901,-0.20671086013317108
1773150251522296800,9.752296875,-0.46444040536880493,-0.13971088826656342,-0.21638664603233337
1773150251532333800,9.762333740234375,-0.4862140119075775,-0.23418907821178436,-0.24638529121875763
1773150251542370800,9.772370849609375,-0.5286461114883423,-0.2657158672809601,-0.2748749852180481
1773150251552407800,9.78240771484375,-0.554050862789154,-0.2557535171508789,-0.2864100933074951
1773150251562444800,9.79244482421875,-0.5550074577331543,-0.19606541097164154,-0.28990522027015686
1773150251572481800,9.802481689453124,-0.5530841946601868,-0.16369277238845825,-0.302262544631958
1773150251582518800,9.812518798828124,-0.5612486004829407,-0.1521596908569336,-0.3406123220920563
1773150251592555800,9.8225556640625,-0.5846443772315979,-0.1387619525194168,-0.37706366181373596
1773150251602593000,9.832593017578125,-0.6452845931053162,-0.1617245227098465,-0.4301220774650574
1773150251612630000,9.842630126953125,-0.6911659240722656,-0.2948746979236603,-0.4530865252017975
1773150251622666800,9.852666748046875,-0.7298907041549683,-0.45269787311553955,-0.4415172040462494
1773150251632703700,9.862703857421875,-0.7778205275535583,-0.5552060008049011,-0.43259578943252563
1773150251642740700,9.87274072265625,-0.8105151057243347,-0.5943648815155029,-0.44667911529541016
1773150251652778000,9.882778076171874,-0.845954954624176,-0.6164212822914124,-0.4723004400730133
1773150251662815000,9.89281494140625,-0.8725610375404358,-0.6215084791183472,-0.48127394914627075
1773150251672851700,9.902851806640625,-0.8838500380516052,-0.6338821649551392,-0.45845428109169006
1773150251682888700,9.912888671875,-0.876474142074585,-0.6784622073173523,-0.4209199547767639
1773150251692926000,9.922926025390625,-0.8724493980407715,-0.6736787557601929,-0.4104422926902771
1773150251702963000,9.932962890625,-0.8745852708816528,-0.5612204074859619,-0.4031923711299896
1773150251713000000,9.943,-0.877467691898346,-0.4283713698387146,-0.4122919738292694
1773150251723036000,9.953035888671875,-0.8818269968032837,-0.36155426502227783,-0.4131700098514557
1773150251733072600,9.96307275390625,-0.8637332916259766,-0.3989386260509491,-0.3832275867462158
1773150251743110000,9.97310986328125,-0.8206382989883423,-0.530109167098999,-0.33674874901771545
1773150251753147000,9.98314697265625,-0.7438490986824036,-0.6410747170448303,-0.32348018884658813
1773150251763183900,9.993183837890625,-0.6433578729629517,-0.7025798559188843,-0.3540029525756836
1773150251773220900,10.003220947265625,-0.5235823392868042,-0.7210938334465027,-0.4013771414756775
1773150251783257900,10.0132578125,-0.41793739795684814,-0.6635589003562927,-0.4715908467769623
1773150251793294800,10.023294921875,-0.290242075920105,-0.49733731150627136,-0.5881364941596985
1773150251803331800,10.033331787109375,-0.14292587339878082,-0.21392028033733368,-0.7155138850212097
1773150251813368800,10.043368896484376,-0.045014943927526474,0.16080954670906067,-0.7967075705528259
1773150251823405800,10.05340576171875,0.06480156630277634,0.4071793556213379,-0.8237906098365784
1773150251833442800,10.06344287109375,0.0696805939078331,0.7440853714942932,-0.763128936290741
1773150251843479800,10.073479736328125,-0.03757183253765106,1.1137478351593018,-0.6339904069900513
1773150251853516800,10.083516845703125,-0.02998100221157074,1.2559665441513062,-0.5240280628204346
1773150251863553800,10.0935537109375,0.07452569901943207,0.9503805041313171,-0.4236322343349457
1773150251873591000,10.103591064453125,0.1711803823709488,0.254866361618042,-0.2662554085254669
1773150251883627800,10.113627685546875,0.19557493925094604,-0.4113931655883789,-0.026530956849455833
1773150251893664800,10.123664794921876,0.17551693320274353,-0.7953422665596008,0.21042512357234955
1773150251903701800,10.13370166015625,0.15253864228725433,-0.9299440383911133,0.3576265573501587
1773150251913738800,10.14373876953125,0.14485183358192444,-0.8937954902648926,0.404893159866333
1773150251923776000,10.15377587890625,0.13501465320587158,-0.7861201167106628,0.37797391414642334
1773150251933812700,10.163812744140625,0.10124480724334717,-0.6742344498634338,0.3182852864265442
1773150251943849700,10.173849609375,0.055673591792583466,-0.6039403080940247,0.2685320973396301
1773150251953886700,10.18388671875,0.027338530868291855,-0.5754425525665283,0.2577681541442871
1773150251963924000,10.193924072265625,0.045867208391427994,-0.5597724914550781,0.25956258177757263
1773150251973961000,10.2039609375,0.10903428494930267,-0.5330192446708679,0.22610874474048615
1773150251983997700,10.213997802734376,0.13908645510673523,-0.5955313444137573,0.12909111380577087
1773150251994034700,10.22403466796875,0.18981507420539856,-0.6125784516334534,0.045407816767692566
1773150252004072000,10.234072021484375,0.24384209513664246,-0.5592292547225952,-0.0030918086413294077
1773150252014109000,10.24410888671875,0.31180840730667114,-0.4834367632865906,0.034479402005672455
1773150252024146000,10.25414599609375,0.405442476272583,-0.4709460139274597,0.18192878365516663
1773150252034183000,10.264182861328125,0.4255109429359436,-0.5160359144210815,0.39747172594070435
1773150252044219600,10.2742197265625,0.3860684633255005,-0.5889511704444885,0.6191079616546631
1773150252054257000,10.2842568359375,0.3221539258956909,-0.6607459783554077,0.7848297357559204
1773150252064294000,10.2942939453125,0.2759914696216583,-0.7121289968490601,0.868858277797699
1773150252074331000,10.304330810546874,0.2403208613395691,-0.7190183997154236,0.8586273193359375
1773150252084368000,10.314367919921875,0.23604781925678253,-0.6841520071029663,0.7727912664413452
1773150252094404900,10.32440478515625,0.22375746071338654,-0.6527017951011658,0.6485944986343384
1773150252104441900,10.33444189453125,0.22418250143527985,-0.6861957907676697,0.53924959897995
1773150252114478800,10.344478759765625,0.21728786826133728,-0.7724918723106384,0.4322472810745239
1773150252124515800,10.354515869140625,0.16085149347782135,-0.8244509100914001,0.3066486120223999
1773150252134552800,10.364552734375,0.06584503501653671,-0.7553432583808899,0.1723569929599762
1773150252144589800,10.37458984375,-0.03139016404747963,-0.5799932479858398,0.04171481356024742
1773150252154626800,10.384626708984374,-0.0945538878440857,-0.38434892892837524,-0.04314788430929184
1773150252164663800,10.394663818359374,-0.127012237906456,-0.18990808725357056,-0.0826452299952507
1773150252174700800,10.40470068359375,-0.11308794468641281,0.014995554462075233,-0.15286225080490112
1773150252184738000,10.414738037109375,0.014511294662952423,0.3233315348625183,-0.33129802346229553
1773150252194774800,10.42477490234375,0.192043736577034,0.7320013046264648,-0.5410459637641907
1773150252204811800,10.434811767578125,0.24305178225040436,1.2830215692520142,-0.5594992637634277
1773150252214848800,10.444848876953126,0.1711401492357254,1.7779370546340942,-0.21903382241725922
1773150252224886000,10.454885986328126,0.05388302728533745,1.8790018558502197,0.42008328437805176
1773150252234923000,10.464923095703124,-0.05372128635644913,1.4337791204452515,0.9363319873809814
1773150252244959700,10.474959716796874,-0.1985596865415573,0.6914629936218262,1.0568361282348633
1773150252254996700,10.484996826171875,-0.3735027611255646,-0.01416228897869587,0.8427451848983765
1773150252265034000,10.495033935546875,-0.48399436473846436,-0.40313321352005005,0.5183258652687073
1773150252275071000,10.505071044921875,-0.525194525718689,-0.3716643154621124,0.2982368469238281
1773150252285108000,10.51510791015625,-0.5590699315071106,-0.09600822627544403,0.29543787240982056
1773150252295144700,10.525144775390626,-0.6112765073776245,0.22753798961639404,0.4550533890724182
1773150252305181700,10.535181640625,-0.6689144968986511,0.43571996688842773,0.6759311556816101
1773150252315219000,10.545218994140624,-0.7022029757499695,0.4696774184703827,0.8731339573860168
1773150252325256000,10.555255859375,-0.7217233777046204,0.4330642819404602,0.9865577220916748
1773150252335293000,10.56529296875,-0.7101950645446777,0.44110435247421265,1.022449016571045
1773150252345329700,10.57532958984375,-0.650701105594635,0.5613660216331482,1.0196468830108643
1773150252355367000,10.585366943359375,-0.5474193692207336,0.7705149054527283,1.0238794088363647
1773150252365404000,10.59540380859375,-0.39743515849113464,0.9580341577529907,1.0713415145874023
1773150252375441000,10.60544091796875,-0.24380721151828766,1.064962387084961,1.1536091566085815
1773150252385478000,10.615477783203126,-0.1599716991186142,1.0520931482315063,1.252442717552185
1773150252395514600,10.6255146484375,-0.11378233134746552,0.8475661277770996,1.3796659708023071
1773150252405551900,10.6355517578125,-0.05419383570551872,0.47092270851135254,1.5238488912582397
1773150252415588900,10.6455888671875,0.041218116879463196,-0.04496772587299347,1.5996959209442139
1773150252425625900,10.6556259765625,0.15774394571781158,-0.37202683091163635,1.6026792526245117
1773150252435662800,10.665662841796875,0.23520241677761078,-0.39657095074653625,1.4807227849960327
1773150252445699800,10.675699951171875,0.22485710680484772,-0.10857085138559341,1.246244192123413
1773150252455736800,10.68573681640625,0.24701006710529327,0.3249044120311737,0.996502161026001
1773150252465773800,10.69577392578125,0.3452397286891937,0.6819251179695129,0.7420147657394409
1773150252475810800,10.705810791015624,0.4781571626663208,0.7370172142982483,0.48124316334724426
1773150252485848000,10.71584814453125,0.5822691917419434,0.3339459300041199,0.1821528822183609
1773150252495884800,10.725884765625,0.5975990891456604,-0.3879416286945343,-0.13906629383563995
1773150252505921800,10.735921875,0.4985845983028412,-1.0219297409057617,-0.43776509165763855
1773150252515958800,10.745958740234375,0.3256450593471527,-1.4869072437286377,-0.6450281143188477
1773150252525995300,10.755995361328125,0.1170249953866005,-1.763568639755249,-0.7399578094482422
1773150252536032300,10.7660322265625,-0.1248587965965271,-1.8592860698699951,-0.7104164361953735
1773150252546069200,10.7760693359375,-0.423437237739563,-1.7761075496673584,-0.4971041977405548
1773150252556106200,10.786106201171876,-0.7723016738891602,-1.6707055568695068,-0.03912438079714775
1773150252566143200,10.796143310546874,-1.0892860889434814,-1.5623561143875122,0.4969917833805084
1773150252576180200,10.80618017578125,-1.25649094581604,-1.3773785829544067,0.8358628749847412
1773150252586217200,10.81621728515625,-1.1524546146392822,-0.9731667041778564,0.6240435838699341
1773150252596254500,10.82625439453125,-0.8013461828231812,-0.5072264075279236,-0.044053610414266586
1773150252606291200,10.836291259765625,-0.3427676558494568,-0.3021710515022278,-0.8531736135482788
1773150252616328200,10.846328125,-0.038490161299705505,-0.4005352854728699,-1.4563167095184326
1773150252626365200,10.856365234375,0.025584960356354713,-0.6402978301048279,-1.7141748666763306
1773150252636402400,10.86640234375,-0.03629777580499649,-0.8790391087532043,-1.6967206001281738
1773150252646439400,10.876439453125,-0.1595131903886795,-0.9917254447937012,-1.4873162508010864
1773150252656476200,10.88647607421875,-0.3059128522872925,-0.9376493096351624,-1.194904088973999
1773150252666513200,10.89651318359375,-0.401030033826828,-0.6839501857757568,-0.965008556842804
1773150252676550100,10.906550048828125,-0.4471561312675476,-0.3262627422809601,-0.9006760120391846
1773150252686587400,10.91658740234375,-0.47200343012809753,0.07616272568702698,-1.0352783203125
1773150252696624400,10.926624267578125,-0.4779320955276489,0.48376399278640747,-1.320927381515503
1773150252706661000,10.9366611328125,-0.4651084542274475,0.7589433789253235,-1.6566393375396729
1773150252716698000,10.946697998046876,-0.4671042263507843,0.8790647387504578,-1.8434128761291504
1773150252726735400,10.9567353515625,-0.49651166796684265,0.845114529132843,-1.665102481842041
1773150252736772400,10.9667724609375,-0.4409404695034027,0.7116879224777222,-1.2054128646850586
1773150252746809300,10.976809326171875,-0.2409738451242447,0.623694658279419,-0.6651283502578735
1773150252756845300,10.98684521484375,0.04627006873488426,0.5945984125137329,-0.17815789580345154
1773150252766882300,10.99688232421875,0.3539471924304962,0.6516997814178467,0.075655996799469
1773150252776919300,11.006919189453125,0.5286719799041748,0.7665600180625916,0.12240073084831238
1773150252786956300,11.016956298828125,0.43287432193756104,0.8929266929626465,0.1795939803123474
1773150252796993300,11.0269931640625,0.08481522649526596,1.0144858360290527,0.35100647807121277
1773150252807030300,11.0370302734375,-0.18515978753566742,0.9632260799407959,0.447596937417984
1773150252817067300,11.0470673828125,-0.18619967997074127,0.5621231198310852,0.37825527787208557
1773150252827104300,11.057104248046874,-0.015611967071890831,-0.12033137679100037,0.22819574177265167
1773150252837141200,11.067141357421875,0.13575893640518188,-0.7378537654876709,0.09587764739990234
1773150252847178200,11.07717822265625,0.2111266553401947,-1.045296549797058,-0.013291719369590282
1773150252857215200,11.08721533203125,0.20944228768348694,-1.0331699848175049,-0.11302217841148376
1773150252867252200,11.097252197265625,0.15968884527683258,-0.7884179353713989,-0.1933060884475708
1773150252877289200,11.107289306640626,0.08065417408943176,-0.47977215051651,-0.21687200665473938
1773150252887326200,11.117326171875,0.05418820679187775,-0.23409822583198547,-0.21724511682987213
1773150252897363200,11.12736328125,0.05552854761481285,-0.03785170987248421,-0.2169332653284073
1773150252907400400,11.137400390625,0.08964923769235611,0.12159387022256851,-0.23160754144191742
1773150252917437400,11.1474375,0.12680000066757202,0.28263288736343384,-0.25925010442733765
1773150252927474200,11.15747412109375,0.1533338725566864,0.43684321641921997,-0.29385387897491455
1773150252937511200,11.16751123046875,0.20251469314098358,0.5939042568206787,-0.3380816578865051
1773150252947548200,11.177548095703125,0.2631269097328186,0.7337260842323303,-0.38868623971939087
1773150252957585400,11.18758544921875,0.2921046018600464,0.8554745316505432,-0.4412388205528259
1773150252967622400,11.197622314453126,0.30506888031959534,0.9246583580970764,-0.49563682079315186
1773150252977659100,11.2076591796875,0.30905890464782715,0.8855564594268799,-0.5319226980209351
1773150252987696000,11.217696044921874,0.30688121914863586,0.7368426322937012,-0.5240799784660339
1773150252997733400,11.2277333984375,0.3097683787345886,0.521992564201355,-0.48418307304382324
1773150253007770400,11.237770263671875,0.325466126203537,0.26570621132850647,-0.4111485481262207
1773150253017807400,11.247807373046875,0.33570563793182373,0.014308645389974117,-0.33127209544181824
1773150253027844000,11.257843994140625,0.3275531828403473,-0.2037603110074997,-0.2612415850162506
1773150253037881300,11.26788134765625,0.30559787154197693,-0.38355913758277893,-0.19465218484401703
1773150253047918300,11.27791845703125,0.27875322103500366,-0.5046688318252563,-0.11773477494716644
1773150253057955300,11.287955322265624,0.2498481571674347,-0.5465447306632996,-0.060847919434309006
1773150253067992300,11.297992431640624,0.22728371620178223,-0.5057511925697327,-0.07295598089694977
1773150253078029000,11.308029052734375,0.23226749897003174,-0.3731784522533417,-0.14437289535999298
1773150253088066300,11.31806640625,0.22434566915035248,-0.2116910219192505,-0.22931335866451263
1773150253098103300,11.328103271484375,0.21110917627811432,-0.037582557648420334,-0.30409932136535645
1773150253108140300,11.338140380859375,0.2175002247095108,0.0820397138595581,-0.34703347086906433
1773150253118177300,11.34817724609375,0.2186262011528015,0.17637899518013,-0.369063138961792
1773150253128214300,11.35821435546875,0.1548815816640854,0.17725224792957306,-0.33729857206344604
1773150253138251300,11.368251220703126,0.025940902531147003,0.0364256389439106,-0.2541089951992035
1773150253148288300,11.378288330078124,-0.06530219316482544,-0.1589188277721405,-0.18728281557559967
1773150253158325200,11.3883251953125,-0.11537496000528336,-0.231207937002182,-0.2150605022907257
1773150253168362200,11.3983623046875,-0.13120585680007935,-0.02200811542570591,-0.31395086646080017
1773150253178399200,11.408399169921875,-0.09280287474393845,0.29164764285087585,-0.3982935845851898
1773150253188436200,11.418436279296875,0.04247798025608063,0.3323040008544922,-0.3710779547691345
1773150253198473200,11.42847314453125,0.19864685833454132,0.005080023780465126,-0.25918909907341003
1773150253208510200,11.43851025390625,0.25921404361724854,-0.4226635992527008,-0.13913460075855255
1773150253218547500,11.44854736328125,0.23711353540420532,-0.7510323524475098,-0.06842154264450073
1773150253228584200,11.458584228515624,0.18480424582958221,-0.978068470954895,-0.012619261629879475
1773150253238621200,11.46862109375,0.1151537299156189,-1.150834560394287,0.0304657481610775
1773150253248658200,11.478658203125,0.023472273722290993,-1.3401395082473755,0.01235358975827694
1773150253258695400,11.4886953125,-0.05657187104225159,-1.5225813388824463,-0.07061745971441269
1773150253268732400,11.498732421875,-0.1243882104754448,-1.6195569038391113,-0.1562546044588089
1773150253278769200,11.50876904296875,-0.16734279692173004,-1.5576778650283813,-0.19214361906051636
1773150253288806100,11.51880615234375,-0.17906737327575684,-1.2912602424621582,-0.15444444119930267
1773150253298843100,11.528843017578126,-0.15554264187812805,-0.8562293648719788,-0.07094116508960724
1773150253308880400,11.53888037109375,-0.09920800477266312,-0.326971173286438,0.0002520527923479676
1773150253318917400,11.54891748046875,-0.022155605256557465,0.22204485535621643,0.013762135058641434
1773150253328954000,11.5589541015625,0.06096377968788147,0.678486704826355,-0.015074307098984718
1773150253338991000,11.5689912109375,0.09772133827209473,1.081674575805664,-0.002167423954233527
1773150253349028400,11.5790283203125,0.09627418220043182,1.4254668951034546,0.06645557284355164
1773150253359065300,11.5890654296875,0.09055671095848083,1.6493927240371704,0.158124640583992
1773150253369102300,11.599102294921876,0.0847475528717041,1.7962770462036133,0.23670893907546997
1773150253379139000,11.60913916015625,0.06779048591852188,1.924519658088684,0.28693389892578125
1773150253389176300,11.61917626953125,0.04385292902588844,1.9230786561965942,0.3053552508354187
1773150253399213300,11.62921337890625,0.021329395473003387,1.596399188041687,0.3369821310043335
1773150253409250300,11.639250244140625,0.008631177246570587,1.0847060680389404,0.3809320330619812
1773150253419287300,11.649287353515625,0.007248016074299812,0.6423317193984985,0.3984399139881134
1773150253429324000,11.659323974609375,0.013510439544916153,0.3626196086406708,0.3715190887451172
1773150253439361300,11.669361328125,0.05646388232707977,0.19525447487831116,0.3158552646636963
1773150253449398300,11.679398193359376,0.10034345835447311,-0.004817359149456024,0.28831472992897034
1773150253459435300,11.689435302734376,0.1011471375823021,-0.2741449177265167,0.307575523853302
1773150253469472300,11.69947216796875,0.033691130578517914,-0.5103228092193604,0.31317269802093506
1773150253479509200,11.70950927734375,-0.02713817171752453,-0.6827680468559265,0.2629932463169098
1773150253489546200,11.719546142578125,0.0017318259924650192,-0.8314952254295349,0.1661364883184433
1773150253499583200,11.729583251953125,0.03840726613998413,-0.996626079082489,0.05019165202975273
1773150253509620200,11.7396201171875,0.00026227906346321106,-0.9831219911575317,-0.052693452686071396
1773150253519657500,11.749657470703125,-0.03041929379105568,-0.788488507270813,-0.13076399266719818
1773150253529694500,11.759694580078126,-0.018795395269989967,-0.5813087224960327,-0.1448230892419815
1773150253539731500,11.7697314453125,-0.004823713563382626,-0.4622448682785034,-0.08668150007724762
1773150253549768400,11.7797685546875,-0.024641893804073334,-0.42601895332336426,0.012156929820775986
1773150253559805400,11.789805419921874,-0.031574055552482605,-0.46425744891166687,0.0815555602312088
1773150253569842700,11.7998427734375,-0.008474329486489296,-0.5522216558456421,0.07108454406261444
1773150253579879400,11.80987939453125,0.014298507943749428,-0.6804417967796326,0.0417327918112278
1773150253589916400,11.81991650390625,0.005068790167570114,-0.8274408578872681,0.05606139823794365
1773150253599953400,11.829953369140625,-0.013877601362764835,-0.9127572178840637,0.10623973608016968
1773150253609990400,11.839990478515626,-0.020508339628577232,-0.9125324487686157,0.15015792846679688
1773150253620027600,11.850027587890626,-0.03488259017467499,-0.8545611500740051,0.18314984440803528
1773150253630065400,11.8600654296875,-0.07147389650344849,-0.7473662495613098,0.20891673862934113
1773150253640102400,11.870102294921875,-0.12103584408760071,-0.585954487323761,0.24449920654296875
1773150253650139600,11.8801396484375,-0.18636319041252136,-0.3780635893344879,0.2846655249595642
1773150253660176600,11.8901767578125,-0.24579638242721558,-0.17955562472343445,0.3293881416320801
1773150253670213400,11.90021337890625,-0.28854677081108093,-0.05604354664683342,0.37976983189582825
1773150253680250400,11.91025048828125,-0.34958770871162415,0.007983624935150146,0.41617655754089355
1773150253690287400,11.920287353515626,-0.4039345681667328,0.04331498220562935,0.4384520351886749
1773150253700324600,11.93032470703125,-0.42786282300949097,0.08213882148265839,0.45939674973487854
1773150253710361600,11.940361572265624,-0.40644487738609314,0.13227975368499756,0.5081720352172852
1773150253720398300,11.9503984375,-0.361912339925766,0.2198258638381958,0.6141956448554993
1773150253730435300,11.960435302734375,-0.2802385091781616,0.39834633469581604,0.7747986316680908
1773150253740472600,11.97047265625,-0.13705521821975708,0.6905243992805481,1.0155487060546875
1773150253750509600,11.980509521484375,0.04886353015899658,1.0878186225891113,1.3630672693252563
1773150253760546600,11.990546630859376,0.25419187545776367,1.4771891832351685,1.7568154335021973
1773150253770583300,12.000583251953126,0.400540292263031,1.810762643814087,2.035440683364868
1773150253780620500,12.01062060546875,0.4558437466621399,1.9311130046844482,2.0913078784942627
1773150253790657500,12.020657470703124,0.4844423532485962,1.7209811210632324,1.9978647232055664
1773150253800694500,12.030694580078125,0.5078975558280945,1.2915964126586914,1.8645801544189453
1773150253810731500,12.0407314453125,0.4953814744949341,0.9334114193916321,1.7970507144927979
1773150253820768300,12.050768310546875,0.46338608860969543,0.7743410468101501,1.8108400106430054
1773150253830805500,12.060805419921875,0.3628650903701782,0.7386733293533325,1.6486128568649292
1773150253840842500,12.070842529296876,0.19804702699184418,0.6562815308570862,1.2741756439208984
1773150253850879500,12.08087939453125,0.01598934829235077,0.4318646788597107,0.7948774099349976
1773150253860916500,12.09091650390625,-0.14861224591732025,0.042804691940546036,0.2843354344367981
1773150253870953500,12.100953369140624,-0.2697237432003021,-0.39617639780044556,-0.16159915924072266
1773150253880990500,12.110990478515625,-0.3054130971431732,-0.7766555547714233,-0.4851301908493042
1773150253891027500,12.12102734375,-0.33459681272506714,-1.0983537435531616,-0.7826095819473267
1773150253901064400,12.131064453125,-0.34198635816574097,-1.3447526693344116,-1.1104356050491333
1773150253911101700,12.141101806640625,-0.3167438507080078,-1.4376381635665894,-1.471034049987793
1773150253921138400,12.151138427734375,-0.29810407757759094,-1.4098875522613525,-1.8154557943344116
1773150253931175400,12.161175537109376,-0.3059212565422058,-1.2905573844909668,-2.0959274768829346
1773150253941212400,12.17121240234375,-0.35916605591773987,-1.0402637720108032,-2.2389659881591797
1773150253951249400,12.18124951171875,-0.4539916217327118,-0.4461421072483063,-2.147911548614502
1773150253961286700,12.19128662109375,-0.5335808992385864,0.29479026794433594,-1.7010858058929443
1773150253971323400,12.201323486328125,-0.507612407207489,0.5456496477127075,-1.1820809841156006
1773150253981360400,12.2113603515625,-0.23719561100006104,0.14498484134674072,-1.0602627992630005
1773150253991397400,12.2213974609375,0.08281728625297546,-0.5323305130004883,-1.1225472688674927
1773150254001434600,12.2314345703125,0.2017396092414856,-1.1393276453018188,-0.9865416884422302
1773150254011471600,12.2414716796875,0.04327459633350372,-1.5088852643966675,-0.5968447923660278
1773150254021508400,12.25150830078125,-0.13877710700035095,-1.5242018699645996,-0.2431749701499939
1773150254031545300,12.26154541015625,-0.15839475393295288,-1.3499493598937988,-0.024938514456152916
1773150254041582600,12.27158251953125,-0.10563623905181885,-1.2271583080291748,0.1963236927986145
1773150254051619600,12.28161962890625,-0.1222788617014885,-1.3582020998001099,0.5029590129852295
1773150254061656600,12.291656494140625,-0.21473316848278046,-1.6493209600448608,0.5612987279891968
1773150254071693300,12.301693359375,-0.3157671093940735,-1.7658004760742188,0.3386499583721161
1773150254081730300,12.311730224609375,-0.4631228446960449,-1.5057679414749146,0.11183517426252365
1773150254091767600,12.321767578125,-0.5507067441940308,-0.908352792263031,0.0563676543533802
1773150254101804500,12.331804443359376,-0.5261146426200867,-0.16257579624652863,0.11090133339166641
1773150254111841500,12.341841552734374,-0.41916021704673767,0.6874761581420898,0.18417660892009735
1773150254121878300,12.351878173828124,-0.24241887032985687,1.2967056035995483,0.20923882722854614
1773150254131915500,12.36191552734375,-0.03354528173804283,1.5814909934997559,0.19209526479244232
1773150254141952500,12.371952392578125,0.158762589097023,1.5711413621902466,0.12274880707263947
1773150254151989500,12.381989501953125,0.2613222599029541,1.4930799007415771,-0.006650194060057402
1773150254162026500,12.392026611328125,0.27139610052108765,1.4905508756637573,-0.15285052359104156
1773150254172063200,12.402063232421876,0.22965958714485168,1.5235066413879395,-0.29203319549560547
1773150254182100500,12.4121005859375,0.09010052680969238,1.508767008781433,-0.36432909965515137
1773150254192137500,12.422137451171874,-0.1044793426990509,1.4020814895629883,-0.3579913079738617
1773150254202174500,12.432174560546875,-0.2692336440086365,1.1311322450637817,-0.3121785521507263
1773150254212211500,12.44221142578125,-0.25991925597190857,0.7533138990402222,-0.31612110137939453
1773150254222248400,12.45224853515625,-0.07397110760211945,0.45237308740615845,-0.41319477558135986
1773150254232285400,12.462285400390625,0.15884244441986084,0.28901079297065735,-0.5314735174179077
1773150254242322400,12.472322509765625,0.3048291802406311,0.16921596229076385,-0.5682111382484436
1773150254252359400,12.482359375,0.3573179543018341,-0.12497144937515259,-0.5223690867424011
1773150254262396700,12.492396728515626,0.33627837896347046,-0.6164101362228394,-0.4261554479598999
1773150254272433400,12.502433349609374,0.2458699345588684,-1.1912318468093872,-0.31641271710395813
1773150254282470400,12.512470458984374,0.11132340133190155,-1.780128836631775,-0.21084125339984894
1773150254292507400,12.52250732421875,-0.02588479034602642,-2.236319065093994,-0.15312176942825317
1773150254302544400,12.53254443359375,-0.15116140246391296,-2.4678752422332764,-0.17711126804351807
1773150254312581600,12.54258154296875,-0.227015420794487,-2.360743761062622,-0.23208530247211456
1773150254322618400,12.552618408203125,-0.23823992908000946,-1.9769078493118286,-0.27742162346839905
1773150254332655400,12.5626552734375,-0.21071936190128326,-1.3304990530014038,-0.24212488532066345
1773150254342692400,12.5726923828125,-0.05629124119877815,-0.4779145419597626,-0.1524105817079544
1773150254352729600,12.5827294921875,0.07367102056741714,0.23772689700126648,-0.0016511667054146528
1773150254362766600,12.5927666015625,0.13415083289146423,0.6391497254371643,0.17302998900413513
1773150254372803300,12.60280322265625,0.15037427842617035,0.7862963080406189,0.32913652062416077
1773150254382840300,12.61284033203125,0.1502290666103363,0.8147053122520447,0.4229465126991272
1773150254392877600,12.622877685546875,0.16955243051052094,0.7886188626289368,0.45436835289001465
1773150254402914600,12.63291455078125,0.2098310887813568,0.7463921308517456,0.42802417278289795
1773150254412951600,12.64295166015625,0.23921586573123932,0.677322268486023,0.36269256472587585
1773150254422988300,12.65298828125,0.23146739602088928,0.5626105666160583,0.2547289729118347
1773150254433025300,12.663025390625,0.18919184803962708,0.44285517930984497,0.13528193533420563
1773150254443062500,12.6730625,0.12591268122196198,0.3343178629875183,0.046221017837524414
1773150254453099500,12.683099609375,0.047217871993780136,0.2735027074813843,0.02170955203473568
1773150254463136500,12.693136474609375,-0.02756410464644432,0.2764589488506317,0.07705298066139221
