time,seconds_elapsed,roll,rotationRateZ,quaternionY,rotationRateY,quaternionZ,quaternionW,yaw,devicelocation,accelerationZ,pitch,gravityX,gravityZ,quaternionX,rotationRateX,accelerationX,gravityY,accelerationY
1773150242665219300,0.89521923828125,-0.13191330156177278,0.05864440277218819,-0.05980336939490854,-0.022874440997838974,7.891860904768459e-17,0.9675108701526374,-0.03340243160805081,right,-0.004163503646850586,-0.4953583272789977,-1.1348336859311907,-8.55291659759581,-0.2456545720700527,-0.02697722055017948,0.0006724447011947632,4.661561485728622,0.00865238904953003
1773150242705219300,0.93521923828125,-0.13039718594103972,0.05222032219171524,-0.0596271383573486,-0.022692890837788582,0.0021969660782015818,0.9673047051583531,-0.02861670758193346,right,0.0019214749336242676,-0.4973975194109289,-1.120626808337122,-8.545184542039037,-0.24649835047066812,-0.03283067047595978,0.000684693455696106,4.679145657736063,0.0014849603176116943
1773150242745219300,0.97521923828125,-0.1300334071078715,0.05585441738367081,-0.0597834504427579,-0.03025549091398716,0.003765043303559038,0.966883569830077,-0.025519666280260044,right,0.0020154714584350586,-0.5008773732673615,-1.1154000866647809,-8.529394267711043,-0.248088374788974,-0.027232620865106583,-0.0003674626350402832,4.709107957540453,0.002847135066986084
1773150242785219000,1.015218994140625,-0.12986021504337286,0.0622592493891716,-0.05995578078430671,-0.030448541045188904,0.004853372526342414,0.9667240379241916,-0.023312144523946046,right,0.0028543472290039062,-0.5021734812410392,-1.113131484145671,-8.52352800602615,-0.24864895233406492,-0.02893528714776039,-0.0014380961656570435,4.720253036411107,0.0044155120849609375
1773150242936543200,1.166543212890625,-0.12659070433151096,0.06496335566043854,-0.0598107876545907,-0.012018122710287571,0.010563362963591628,0.9658628266822071,-0.011133404813771704,right,-0.008884284645318985,-0.5094947266473318,-1.0808657297044992,-8.492612058758736,-0.2518331746936341,-0.018303927034139633,0.0033640889450907707,4.78305874441415,0.013509374111890793
1773150242976543200,1.206543212890625,-0.12647489251446575,0.048469074070453644,-0.06012975321922271,-0.01860850863158703,0.012126119766182646,0.9655949266662799,-0.007996897077812572,right,0.0027431845664978027,-0.5115100421984394,-1.0786641280069946,-8.483157417193055,-0.252712745367483,-0.003929637372493744,0.004514619708061218,4.80030243242085,0.0057954490184783936
1773150243016543200,1.246543212890625,-0.12602197527905395,0.04566413536667824,-0.060181502830969465,-0.016857851296663284,0.013173419197495753,0.9654596764375568,-0.005777326381480741,right,-0.00018447637557983398,-0.5125780133283258,-1.074176826525107,-8.478554307311773,-0.2531643675624731,-0.011604757979512215,0.0011601746082305908,4.8094323720768095,0.003389298915863037
1773150243174150400,1.404150390625,-0.12475959734181587,0.02513185888528824,-0.060380723645140126,-0.02357921190559864,0.016267250206715392,0.9650903474162312,0.0007860905388936054,right,-0.0008382322848774493,-0.5154096700884895,-1.0617739296130835,-8.466357089039683,-0.25434244847006365,0.007976893335580826,0.0010283192386850715,4.8336134581312535,-0.0003837636031676084
1773150243214150700,1.444150634765625,-0.12410226239042844,0.02243144065141678,-0.06026948277516016,-0.013425113633275032,0.016976908548071396,0.9650708087373133,0.0024174200330181785,right,-0.0018251538276672363,-0.5156126030045771,-1.0560870430830867,-8.466079441142082,-0.25439662928323653,0.006318282335996628,0.00213690847158432,4.835344811968505,0.0012607872486114502
1773150243254150700,1.484150634765625,-0.12344444192007806,0.01973102241754532,-0.06015820963866816,-0.003271014429628849,0.017686605738899148,0.9650507587937678,0.004049194648839295,right,-0.002812027931213379,-0.5158146210997016,-1.0503973800741135,-8.46580296228826,-0.254450686039285,0.004659670405089855,0.0032451972365379333,4.837068274760246,0.0029061436653137207
1773150243400281300,1.63028125,-0.12050268686966135,0.011313735507428646,-0.05935929333524009,-0.01458781212568283,0.019651196277704244,0.9651330897514236,0.00891455036223675,right,-0.006914420984685421,-0.5155012713805481,-1.0256706428356468,-8.470360479462146,-0.25418156466367114,0.013052373193204403,0.00384884187951684,4.834394963897765,0.0005654185079038143
1773150243440281300,1.67028125,-0.12026867271839371,0.011709720827639103,-0.05931614368694674,-0.01206017006188631,0.019869841917561158,0.9651779997927762,0.009449279737972143,right,-0.005297422409057617,-0.5151620137026509,-1.023885147658363,-8.472228026899694,-0.2540042547729638,0.009652640670537949,0.0046872422099113464,4.831500119239092,0.0008427202701568604
1773150243480281300,1.71028125,-0.11984115211080874,0.026795173063874245,-0.0592552749648536,-0.018832989037036896,0.02035259660569263,0.9652212217667512,0.010581435356574636,right,-0.008403301239013672,-0.5148325445538223,-1.0204532735135405,-8.474245211941003,-0.25381596384811633,0.013350976631045341,0.0017914772033691406,4.828688276688754,-0.004900753498077393
1773150243520281300,1.75028125,-0.11967143542759621,0.027168866246938705,-0.05935142079840356,-0.012746821157634258,0.02097346269688855,0.9653078482784468,0.011956508082983243,right,0.0002627372741699219,-0.514078933469325,-1.0194492110375315,-8.478028822132945,-0.2534131645044849,0.03167816624045372,0.003092251718044281,4.822254444248974,-0.0015336871147155762
1773150243560281600,1.790281494140625,-0.11897864051537771,0.018558189272880554,-0.059216145559944824,-0.006298654247075319,0.02160992163973361,0.9654103009211703,0.013501794562497726,right,-0.00009578466415405273,-0.5133044437102081,-1.0140184181604535,-8.48243903979063,-0.25300082174920224,0.020951278507709503,0.002920277416706085,4.815639410023391,-0.00032973289489746094
1773150243600281600,1.830281494140625,-0.11828749308886724,0.009947513230144978,-0.05908083429594984,0.0001495140604674816,0.022246411914001823,0.9655121583415028,0.01504589024675281,right,-0.00045484304428100586,-0.5125289923636271,-1.0085959547203034,-8.486843412229419,-0.25258831295791495,0.010224391706287861,0.002749137580394745,4.809013562142849,0.0008753538131713867
1773150243640281300,1.87028125,-0.1180376991212711,0.006381015758961439,-0.059004935543132325,0.004029672592878342,0.022374503571326254,0.9655495203648646,0.015391817694070543,right,-0.0010262131690979004,-0.5122619040898547,-1.0066272119306028,-8.48837018340528,-0.2524519137539513,0.012366598471999168,0.003436341881752014,4.806730711902678,0.0006445944309234619
1773150243680281300,1.91028125,-0.1173401837689407,0.012734750285744667,-0.058790974115380486,0.009459557011723518,0.022760569364841523,0.9655450361808918,0.01636760689066324,right,-0.003812849521636963,-0.5123722888624509,-1.0006440458677708,-8.488543201884626,-0.25248436012150594,0.0013832878321409225,0.003634519875049591,4.807674130232632,-0.0022992193698883057
1773150243720281300,1.95028125,-0.11664249659028174,0.019088484346866608,-0.058576995614615886,0.01488944049924612,0.023146620122259765,0.9655403840813921,0.01734352812879067,right,-0.006599605083465576,-0.5124820397791858,-0.9946600760873406,-8.488715051320195,-0.2525167339657766,-0.009600023739039898,0.003832601010799408,4.808612287865579,-0.005242437124252319
1773150243760281300,1.99028125,-0.11605446936868827,0.013119205832481384,-0.058362886459180495,0.007019828073680401,0.023346502226709486,0.9655269709602953,0.017900731085559236,right,-0.009294629096984863,-0.5126723014896966,-0.9895623145569116,-8.48838947262764,-0.25259915757144247,-0.013368865475058556,0.004526786506175995,4.810238135501742,-0.005020469427108765
1773150243800281600,2.030281494140625,-0.11543307799768969,0.011312216520309448,-0.058170265476202916,0.006589463446289301,0.023669480406663106,0.9655655428814319,0.018745570434684736,right,-0.007015705108642578,-0.5124326670969392,-0.9844202754933387,-8.490147714471817,-0.2524661224861107,-0.010637186467647552,0.004613712430000305,4.808190263061225,-0.003373861312866211
1773150243840281600,2.070281494140625,-0.11481209557646786,0.009505227208137512,-0.05797765216867631,0.006159098818898201,0.02399235959275658,0.965603954405091,0.019589902738870082,right,-0.004736840724945068,-0.5121925785252887,-0.9792800630606711,-8.491904202750325,-0.2523330549768645,-0.007905508391559124,0.0047008320689201355,4.806138006706536,-0.0017268657684326172
1773150243880281300,2.11028125,-0.11419135002402118,0.007698237895965576,-0.05778502366765097,0.005728734191507101,0.024315353438421637,0.9656422287150322,0.02043421818214411,right,-0.0024582743644714355,-0.5119520343582901,-0.9741402890194207,-8.493658937463163,-0.2521999359337744,-0.0051738303154706955,0.004788026213645935,4.804081658698618,-0.00007942318916320801
1773150243920281300,2.15028125,-0.11382642659154335,0.003917641472071409,-0.05764089558994019,0.0034665449056774378,0.024388251775779603,0.9656638407863262,0.020686566906061726,right,-0.00533139705657959,-0.5118404778450618,-0.9711015789106487,-8.494546241691708,-0.2521432118377321,-0.001583019271492958,0.004319220781326294,4.803128011235595,-0.00006142258644104004
1773150243960281300,2.19028125,-0.11345865932241525,0.00137459603138268,-0.05748893418428137,0.00986965000629425,0.02443310314615816,0.9656973583773576,0.0208863165243635,right,-0.002857983112335205,-0.511640167691239,-0.9680863958079368,-8.495858493334055,-0.25204520164110233,0.008534371852874756,0.004274547100067139,4.801415069837868,0.0013493001461029053
1773150244000281300,2.23028125,-0.11290581394710587,0.0007842136546969414,-0.05725773371694776,0.0041234479285776615,0.024477554353630682,0.965795400597574,0.021159028121157622,right,-0.005192995071411133,-0.5109636278544122,-0.9637550886053592,-8.49961755360663,-0.2517173731285919,0.012489122338593006,0.0016525238752365112,4.7956291799128055,-0.003088712692260742
1773150244040281600,2.270281494140625,-0.11296605717282109,0.002341385232284665,-0.05732077610842382,-0.0010889102704823017,0.024592728139765114,0.9658761078955804,0.021418258733342344,right,0.005881011486053467,-0.5102860440088417,-0.9646331866141408,-8.50278624677062,-0.25138188932759875,0.018719065934419632,0.0039187222719192505,4.789831891810894,-0.0053931474685668945
1773150244080281600,2.310281494140625,-0.1122187052790008,0.01631421595811844,-0.05702174288485491,0.017776815220713615,0.024722201120445566,0.9659473255610077,0.021904438953165663,right,0.003324270248413086,-0.5098438397533432,-0.9585154343862086,-8.505608902975917,-0.25116356456603034,0.008398362435400486,0.002246171236038208,4.786047404836118,-0.003915339708328247
1773150244120281300,2.35028125,-0.11084138604180993,0.012059835717082024,-0.05652102278188673,0.008579393848776817,0.0251898563093592,0.9659372280257628,0.023217194392172825,right,-0.00016731023788452148,-0.5101034714074757,-0.946662134180963,-8.505686059865354,-0.2512689341519048,0.0063777221366763115,0.0019564926624298096,4.788269464799762,-0.0001868605613708496
1773150244160281300,2.39028125,-0.10946357986737261,0.007805456407368183,-0.05602031239128661,-0.0006180265918374062,0.025657473908029717,0.9659267107017018,0.024530474158764318,right,-0.003659844398498535,-0.510361533345436,-0.9348070073448121,-8.505753279882668,-0.25137417592162936,0.00435708137229085,0.001666635274887085,4.790477788498998,0.003543078899383545
1773150244200281300,2.43028125,-0.10808507244992452,0.0035510766319930553,-0.055519548744734394,-0.009815447963774204,0.026125176094077936,0.9659157203328703,0.025844579059097157,right,-0.00715327262878418,-0.5106180183326156,-0.9229483003120869,-8.505812316593527,-0.25147929551374093,0.002336441073566675,0.001376427710056305,4.792672375933826,0.0072743892669677734
1773150244240281300,2.47028125,-0.10831744413981247,-0.002141776029020548,-0.05564353394933033,-0.00042246561497449875,0.026195723684621686,0.9659262023529415,0.02593745669307699,right,-0.0020879507064819336,-0.5104743979856587,-0.9249991684272885,-8.506281687670946,-0.25140428622155087,0.009100152179598808,0.0016044005751609802,4.791443710921705,0.003252267837524414
1773150244280281600,2.510281494140625,-0.10848491334143942,0.004012622870504856,-0.05574366908330235,-0.005277782678604126,0.026278840865040926,0.9659759277924078,0.02608869534918591,right,-0.0026733875274658203,-0.5100278448881426,-0.926655265071243,-8.50825269548297,-0.251182134143712,0.013182442635297775,0.0007582008838653564,4.787622106806934,0.0014452934265136719
1773150244320281600,2.550281494140625,-0.10865240749429758,0.010167022235691547,-0.055843804217275056,-0.010133099742233753,0.026361996265317277,0.9660256074939684,0.026240067947662767,right,-0.003259122371673584,-0.5095813694233409,-0.9283120193023234,-8.510221365207434,-0.25095998206587367,0.017264733090996742,-0.00008791685104370117,4.783800502692163,-0.0003616511821746826
1773150244360281300,2.59028125,-0.10881959148764689,0.011503655463457108,-0.05598211397982214,-0.00912691093981266,0.02659312027756905,0.9660699925680711,0.02669741666327044,right,-0.0007396340370178223,-0.5091447610728083,-0.929961540075019,-8.512142104136943,-0.2507339990418967,0.009389318525791168,-0.00010456889867782593,4.780062485207617,0.00030991435050964355
1773150244400281300,2.63028125,-0.1086033114157565,0.014864569529891014,-0.05600790464051478,-0.0066506462171673775,0.02706826147602298,0.9660603248945497,0.027736502895747472,right,-0.0009407401084899902,-0.509158584965587,-0.9281133549250662,-8.51227712869346,-0.2507144989355392,0.007704933639615774,-0.0007087439298629761,4.780180850890279,0.0018952488899230957
1773150244440281300,2.67028125,-0.10838704031381523,0.01822548359632492,-0.056033689662671096,-0.004174381960183382,0.02754338763837972,0.9660504893055016,0.028775580476327774,right,-0.0011417865753173828,-0.5091722279223962,-0.9262653159055858,-8.512412737771868,-0.25069493586086217,0.00602054875344038,-0.0013128966093063354,4.780297755268216,0.003480762243270874
1773150244480281300,2.71028125,-0.10817080349268716,0.021586399525403976,-0.05605948236027969,-0.0016981179360300303,0.028018491246590595,0.9660404018431646,0.029814617064098416,right,-0.0013428330421447754,-0.5091857092145203,-0.9244176422122865,-8.512548931372166,-0.25067534036227185,0.004336164332926273,-0.001917034387588501,4.7804129060804845,0.005066394805908203
1773150244520281300,2.75028125,-0.1080410731485326,0.01490678358823061,-0.056070798892260174,-0.006491608917713165,0.028281929075093297,0.9660666597836588,0.03040596710843812,right,-0.00449061393737793,-0.5089406669112059,-0.9234395909603684,-8.513833125963806,-0.25054216517592637,0.013231721706688404,-0.0020242854952812195,4.778314764757454,0.0016561448574066162
1773150244560281600,2.790281494140625,-0.1079137764955156,0.01480929832905531,-0.05609914944675074,-0.0024082642048597336,0.02859683071210815,0.9661520787993635,0.031127449913177757,right,-0.0037024617195129395,-0.5082094400172817,-0.9227318810824304,-8.517422090366482,-0.25017037100149614,0.008980294689536095,-0.0016984790563583374,4.772051320448518,0.002025097608566284
1773150244600281600,2.830281494140625,-0.10778711316438595,0.014711813069880009,-0.05612748292822922,0.0016750809736549854,0.028911755532883138,0.9662372841616358,0.031848603973740806,right,-0.002914726734161377,-0.5074781256966683,-0.922028189792484,-8.52100579407215,-0.24979850430378275,0.004728867206722498,-0.001372218132019043,4.765784661269188,0.002394348382949829
1773150244640281300,2.87028125,-0.10763203866963446,0.009669833816587925,-0.056116865450789005,0.0033335573971271515,0.02914139682733314,0.9662325044692847,0.032363355738017775,right,-0.00037729740142822266,-0.5074917339460966,-0.9206998637981713,-8.521084704527258,-0.24979287499417344,0.0015377551317214966,0.00024875253438949585,4.76590127338618,0.0029721856117248535
1773150244680281300,2.91028125,-0.10737504382635832,0.0013284562155604362,-0.05602287819253035,0.008917665109038353,0.029224479163188412,0.9662459263450472,0.03260561894677287,right,-0.0031102895736694336,-0.507413816814804,-0.9185497730921953,-8.521690269204974,-0.249752184018775,0.003244314808398485,0.0000046193599700927734,4.765233457127213,0.0039002299308776855
1773150244720281300,2.95028125,-0.10716895065325903,0.0022029373794794083,-0.055943276600006704,0.003344654105603695,0.029273023489492178,0.9662687036390478,0.032766984799204694,right,-0.001044631004333496,-0.5072596141548568,-0.9168720491383224,-8.522609722137451,-0.24967615148316108,0.013738954439759254,0.0000015273690223693848,4.763911853134632,0.001309901475906372
1773150244760281300,2.99028125,-0.10689029409754953,-0.0019084252417087555,-0.05584184932467978,0.010675005614757538,0.02935539049555767,0.9663483286693956,0.033039179804848474,right,0.0008006691932678223,-0.506656216307299,-0.9148036453664302,-8.525721132156253,-0.2493809537710607,0.02314755693078041,0.0024780631065368652,4.758738834410906,0.0027877986431121826
1773150244800281600,3.030281494140625,-0.10640281311038643,-0.007689249236136675,-0.05559120842021887,0.00977199524641037,0.02921569388447866,0.9665008175047629,0.03292951670537848,right,-0.003056466579437256,-0.5055614434231517,-0.9112001409817486,-8.531341310125589,-0.24886189687068053,0.024378975853323936,0.00005310773849487305,4.749348490253091,0.0021799802780151367
1773150244840281600,3.070281494140625,-0.10639352519879382,-0.003298171330243349,-0.055566113711292595,0.005962400697171688,0.029122145007887672,0.9665859969967641,0.032770679640661604,right,-0.002404510974884033,-0.5049015363687308,-0.9114535312209278,-8.534464410582185,-0.24854739142348362,0.02327680215239525,0.00028911978006362915,4.743685642185807,0.0003021657466888428
1773150244880281300,3.11028125,-0.10638408405828195,0.0010929065756499767,-0.055541005688378456,0.00215280638076365,0.02902862683310542,0.966671046793096,0.03261197166759512,right,-0.0017529726028442383,-0.50424162026563,-0.9117051678944379,-8.537584003907442,-0.24823285543188361,0.02217462845146656,0.0005249753594398499,4.738020456030965,-0.001575380563735962
1773150244920281300,3.15028125,-0.10615208244135071,0.005875675939023495,-0.05545836125158622,0.002166277728974819,0.02910193762151081,0.9667601151263313,0.03285698200495985,right,-0.0020960569381713867,-0.5035514105008718,-0.9100706985604018,-8.541044958016276,-0.247895659720205,0.020735470578074455,0.000715985894203186,4.732093111808598,0.0007379353046417236
1773150244960281300,3.19028125,-0.1058321513227127,-0.0018551102839410305,-0.055340012383209854,0.0020309516694396734,0.029187958436504395,0.9668748733489092,0.03316008404050164,right,-0.004060029983520508,-0.502666452018194,-0.9077801034051924,-8.54549667672813,-0.24746394414809056,0.022326963022351265,0.0005688667297363281,4.724490235589444,0.003571748733520508
1773150245000281300,3.23028125,-0.10600430230021345,-0.011306341737508774,-0.05540186900629973,-0.00031833420507609844,0.029103432699518143,0.9670258494283726,0.03300138084352612,right,-0.0023643970489501953,-0.5014338312527771,-0.9098666273556649,-8.551124453482032,-0.24686960633400365,0.03160376474261284,0.0010047554969787598,4.713894022773206,0.00235062837600708
1773150245040281600,3.270281494140625,-0.10621388963992245,0.0013866862282156944,-0.05549371877400895,0.0062463413923978806,0.029061550243518426,0.9672291596354189,0.03294345534832638,right,-0.0013250112533569336,-0.4997548239623057,-0.9124966105330735,-8.55879162710905,-0.24605590632128724,0.05317879468202591,0.0006688088178634644,4.699448733313381,-0.006343036890029907
1773150245080281600,3.310281494140625,-0.10638169334623904,0.006975935772061348,-0.05563531924306357,-0.004334506578743458,0.029283169425404897,0.9674736171188874,0.03346074033455375,right,0.0016150474548339844,-0.4976790332887981,-0.9149666539084166,-8.568319918432831,-0.24503461586302233,0.066164530813694,0.0008042827248573303,4.6815717158392065,-0.002592146396636963
1773150245120281300,3.35028125,-0.10623523455800353,-0.006033256649971008,-0.05559936547141396,-0.003263547085225582,0.02935764905284771,0.9677987858132849,0.033781290052219644,right,-0.0051343441009521484,-0.4950312416161523,-0.9150229141402989,-8.580749776417017,-0.24374622921704153,0.05055290833115578,-0.000774778425693512,4.6587391217842695,0.004776656627655029
1773150245160281300,3.39028125,-0.10642857824624734,-0.014762990176677704,-0.055648424651517626,0.0032770601101219654,0.02916494923141951,0.9680767046091274,0.03344591850096121,right,-0.003184497356414795,-0.49275778949741583,-0.9178046538133173,-8.591081785339117,-0.2426519585341323,0.06317541748285294,-0.0009466186165809631,4.63910883090198,0.008070945739746094
1773150245200281300,3.43028125,-0.10662091816802144,-0.0234927237033844,-0.05569744420446398,0.009817667305469513,0.02897218237716863,0.9683534022583796,0.033111375718151724,right,-0.001239180564880371,-0.4904842951713157,-0.920577114201337,-8.60136995511949,-0.24155736345466683,0.0757979229092598,-0.0011194199323654175,4.619453697839379,0.011367768049240112
1773150245240281300,3.47028125,-0.10693904372465055,-0.04617439955472946,-0.05571239551050727,0.013005385175347328,0.02838759452561111,0.9687820188022289,0.03199694749076916,right,-0.0011542439460754395,-0.4870069371075256,-0.9250223301071673,-8.616996563318372,-0.23989907715847164,0.09385452419519424,0.000014126300811767578,4.589344975301623,0.008622884750366211
1773150245280281600,3.510281494140625,-0.10763545271215183,-0.07416357845067978,-0.05571260509209694,0.027875609695911407,0.026995321987458604,0.9694321643483002,0.029214374583606754,right,0.0008264780044555664,-0.4817543166058358,-0.9335998235121369,-8.640197990685701,-0.23742072502662476,0.13698601722717285,0.006616324186325073,4.543760158951581,0.011592864990234375
1773150245320281600,3.550281494140625,-0.10831353729378977,-0.1021527647972107,-0.05571235182283946,0.042745836079120636,0.0256028164271274,0.9700740369252921,0.026443483545094144,right,0.0027846097946166992,-0.47650007588630383,-0.9420262910738587,-8.66317788425684,-0.23494039377673023,0.18011751770973206,0.01320311427116394,4.498035641869903,0.01457706093788147
1773150245360281300,3.59028125,-0.1082910793885792,-0.11471205949783325,-0.055237245284297985,0.008771408349275589,0.023438322002102528,0.9711272007028273,0.022428059618795074,right,-0.02551555633544922,-0.4679321880811061,-0.9459623153485357,-8.701193434396385,-0.23089271205504308,0.26162436604499817,0.0043584927916526794,4.423208948944509,0.020928561687469482
1773150245400281300,3.63028125,-0.10925262402935124,-0.09838102757930756,-0.05542940851435152,0.014031227678060532,0.021906774354677135,0.9729047037424885,0.019860321602704938,right,-0.013449132442474365,-0.4523804422382692,-0.9617132075142115,-8.767603304371237,-0.22339248709254547,0.578853964805603,0.0178828164935112,4.286563220965862,0.010755717754364014
1773150245440281300,3.67028125,-0.10734077105126376,-0.08090832084417343,-0.05451459609683992,0.0578131340444088,0.02087233521092203,0.9762216460449102,0.01972449353506137,right,-0.02807462215423584,-0.4223250815032721,-0.9583228344235568,-8.893539130026102,-0.20876747764200163,0.921172022819519,0.03070482611656189,4.019573203240335,0.013949483633041382
1773150245480281300,3.71028125,-0.10421319064613332,-0.06314031779766083,-0.053132124313275485,0.07592625170946121,0.020231288695675365,0.980301135538438,0.02108910402622476,right,-0.01637589931488037,-0.38223617976839097,-0.9465133733600377,-9.0495678961277,-0.18914919366219207,1.1041676998138428,0.029763638973236084,3.657843585373461,-0.008882343769073486
1773150245520281300,3.75028125,-0.1015126206392228,-0.01176140084862709,-0.05209805520131246,0.012598469853401184,0.02075258957215023,0.984498105764057,0.024939802289389513,right,-0.015891432762145996,-0.3356536079459093,-0.9383317474048584,-9.211724789720773,-0.1661882499604864,1.2207562923431396,0.01743217557668686,3.230177268001437,0.00017464160919189453
1773150245560281600,3.790281494140625,-0.10073249824082402,-0.039469316601753235,-0.05193282158532271,-0.055856168270111084,0.02180746081187259,0.9882666269828919,0.029568883387096612,right,-0.023274779319763184,-0.2867955293462104,-0.9458984563320875,-9.358418156722188,-0.1419733522356887,1.240357518196106,0.005266003310680389,2.7741064016610384,0.03769466280937195
1773150245600281600,3.830281494140625,-0.10333139820491091,-0.1792609989643097,-0.053077976074997514,-0.08319126069545746,0.021253939094495543,0.9914616713397922,0.030561841568743836,right,-0.009535789489746094,-0.23685372729626641,-0.9832916367895901,-9.482010634121298,-0.11719521559784325,1.267427921295166,0.02289128303527832,2.301085277302563,0.021843478083610535
1773150245640281300,3.87028125,-0.10444563998172936,-0.34619277715682983,-0.053127852237654184,0.04006894677877426,0.017315832315092775,0.9943190492993504,0.02523292427368624,right,0.022034883499145508,-0.183017005929475,-1.0053256278127432,-9.590321371236444,-0.09059321077641963,1.3480545282363892,0.003284960985183716,1.7847814760565757,0.009378686547279358
1773150245680281300,3.91028125,-0.10473986877278181,-0.3935452401638031,-0.052753843232047945,0.010642847046256065,0.011411390669264998,0.996527394240449,0.016187019372912073,right,0.031282782554626465,-0.1279173974315624,-1.0168935352053492,-9.673223526328801,-0.0634025943193593,1.314450740814209,-0.013713553547859192,1.2510232666626573,-0.0014189332723617554
1773150245720281300,3.95028125,-0.1043854734987524,-0.3414308726787567,-0.05223717025737814,0.06279174238443375,0.004763114144533239,0.997916175448101,0.005596829707680399,right,0.025321483612060547,-0.07556144379640677,-1.0188982260912656,-9.725440035778284,-0.03757426703036706,1.2118698358535767,-0.04448673129081726,0.74030004202798,-0.030414901673793793
1773150245760281300,3.99028125,-0.10469803972051821,-0.23904138803482056,-0.05233331539743431,0.0576910562813282,0.0018366659398510825,0.9984781155542756,0.0018582881320153705,right,0.026827871799468994,-0.03474357811090283,-1.0242438249029218,-9.747064423087238,-0.01729850180792272,1.0289751291275024,-0.04942084848880768,0.3406498953612521,-0.015536446124315262
1773150245800281600,4.030281494140625,-0.10485784956030804,-0.1366519033908844,-0.05240747501156448,0.052590373903512955,-0.001090604044112746,0.9986206981546576,-0.0018654125818328053,right,0.02669423818588257,0.00607515878682245,-1.0264020258501172,-9.752606275123357,0.0029845214602762524,0.8460804224014282,-0.054680004715919495,-0.05957629306118469,-0.000599241815507412
1773150245840281600,4.070281494140625,-0.1009943175988302,-0.16462482511997223,-0.05051710376052773,0.08400699496269226,-0.0037070562298576982,0.9985672867395292,-0.005663957680800962,right,0.015156388282775879,0.03483529724432573,-0.9881333046671003,-9.750759770473838,0.017251572935559237,0.7205169796943665,-0.04227042198181152,-0.3415481959078461,0.005892209708690643
1773150245880281300,4.11028125,-0.09701589547705988,-0.19259774684906006,-0.04861592737460599,0.11542361974716187,-0.006322669937972808,0.9983001916716033,-0.009579090936414483,right,0.0027925968170166016,0.06358032260020714,-0.9479899487186223,-9.74081413052082,0.03151493411821738,0.5949535369873047,-0.030052028596401215,-0.6230897399466484,0.012339763343334198
1773150245920281300,4.15028125,-0.09279988667469388,-0.2428852915763855,-0.04673549259056139,0.10190746188163757,-0.011530246825104121,0.9980310640155161,-0.01932194235267915,right,0.0004767775535583496,0.08142715792595633,-0.9057394644230604,-9.732100662711263,0.040208899763433656,0.5158807039260864,-0.01866237074136734,-0.7976452196028083,0.016211435198783875
1773150245960281300,4.19028125,-0.08840254889142231,-0.29317283630371094,-0.044850091309318336,0.08839130401611328,-0.016736535453214407,0.9976558207103533,-0.029155932889423527,right,-0.0021538734436035156,0.09923197718768115,-0.861544933387637,-9.72030033480227,0.04889859261524779,0.4368078112602234,-0.007470950484275818,-0.9715367554575204,0.02001538872718811
1773150246000281300,4.23028125,-0.08382066824134672,-0.3434603810310364,-0.04295992959865747,0.07487514615058899,-0.021941055259488258,0.9971746303012693,-0.039087677387329794,right,-0.005098700523376465,0.11699268355006145,-0.8154253525737672,-9.705418407490848,0.05758309770602218,0.35773491859436035,0.0035241693258285522,-1.144690624687448,0.023744121193885803
1773150246040281600,4.270281494140625,-0.0811307837166386,-0.3338363468647003,-0.04209269492561416,0.02935481071472168,-0.028044710419826976,0.9967296492472837,-0.05104233947907158,right,-0.003252863883972168,0.12834238383387342,-0.7882122784122825,-9.69400269498527,0.06302079077576629,0.27332377433776855,0.02343060076236725,-1.2551562748141587,0.025105006992816925
1773150246080281600,4.310281494140625,-0.07826374554836786,-0.26024389266967773,-0.04115678574683638,-0.04970834404230118,-0.033900248761839884,0.9963085320048225,-0.06264235049702858,right,-0.016072988510131836,0.13727735801086988,-0.7595088195625692,-9.684655605447292,0.06727642204606178,0.20302873849868774,-0.009374193847179413,-1.3420064368799327,0.01237567514181137
1773150246120281300,4.35028125,-0.0777665947117743,-0.23019905388355255,-0.04134454725795844,-0.042446065694093704,-0.03844688867628523,0.9958571246740817,-0.07149853916505738,right,-0.009718656539916992,0.14566417807667606,-0.753793072264269,-9.67347019456625,0.07128054014592833,0.2166624516248703,-0.0052661895751953125,-1.4234312128961086,-0.004060342907905579
1773150246160281300,4.39028125,-0.07719367582616395,-0.20015420019626617,-0.041530782710785565,-0.03518378734588623,-0.042992120490868355,0.9953689883592606,-0.08037019396552093,right,-0.0034275054931640625,0.1540463271422005,-0.7473044408973306,-9.66166460596025,0.07528203026921133,0.23029616475105286,-0.0012369900941848755,-1.5047104429617524,-0.020511195063591003
1773150246200281300,4.43028125,-0.07654466721979959,-0.170109361410141,-0.04171549141901239,-0.027921508997678757,-0.04753578380811188,0.9948440240665015,-0.08925861826844711,right,0.0028005242347717285,0.16242310638108867,-0.7400439483750612,-9.649241177716851,0.07928073763845984,0.2439298927783966,0.0027134865522384644,-1.5858321443781256,-0.036978140473365784
1773150246366019800,4.596019775390625,-0.0695232606533531,-0.029416006058454514,-0.039730236962011424,0.0748443529009819,-0.05435915105440258,0.9927222922353769,-0.10228832871111763,right,0.00996452383697033,0.2039661423656036,-0.6671198011353612,-9.580167641490696,0.0998443569086629,0.276611864566803,-0.006842132657766342,-1.986384244853258,-0.052524134516716
1773150246406020000,4.63602001953125,-0.06655303775519396,-0.019379854202270508,-0.03848553794660749,0.0857245922088623,-0.05408916226213813,0.9922158885678674,-0.10173802815283126,right,0.008550405502319336,0.21489270453144718,-0.637180151554197,-9.559878886699677,0.10535978274911481,0.247009739279747,-0.0054905712604522705,-2.0911954494148493,-0.039728641510009766
1773150246446020000,4.67602001953125,-0.06358170956196323,-0.009343703277409077,-0.037239602803980275,0.0966048315167427,-0.05381750475677201,0.9916775565448678,-0.10121985169112273,right,0.007010102272033691,0.2258208878519808,-0.6072834277993068,-9.538352699068188,0.11087182373862782,0.21740761399269104,-0.004134625196456909,-2.1957724068291484,-0.026957020163536072
1773150246486020000,4.71602001953125,-0.06060855542039312,0.0006924495100975037,-0.03599245796535578,0.10748507082462311,-0.05354398743901871,0.9911070674768528,-0.10073348296138611,right,0.005343914031982422,0.23675046704966474,-0.5774336119260639,-9.515592001205682,0.1163802733112889,0.18780548870563507,-0.002773907035589218,-2.300100357918441,-0.014210790395736694
1773150246526020000,4.75602001953125,-0.05761709668411643,-0.0762363076210022,-0.03471941511064606,0.07386565953493118,-0.05473864204435361,0.9909576963160525,-0.10344695794587096,right,0.005812883377075195,0.23889867894401076,-0.5486797745959833,-9.512322185754776,0.11747814317281305,0.05176912248134613,-0.008927784860134125,-2.3205741138875484,-0.004664510488510132
1773150246566020000,4.79602001953125,-0.05461807542840514,-0.1531650722026825,-0.03344622657976029,0.04024624824523926,-0.0559330848477736,0.9908040746407784,-0.10616850580938751,right,0.006270766258239746,0.24103898634704413,-0.5198773488838225,-9.508943649232387,0.11857551336152759,-0.08426724374294281,-0.015086602419614792,-2.3409619451388717,0.004872992634773254
1773150246606020000,4.83602001953125,-0.05033115866554075,-0.3550753891468048,-0.03185649726762608,0.051228366792201996,-0.06186466759497869,0.9909608567574594,-0.11879527792315062,right,0.0050048828125,0.23336687122768324,-0.47999812376424666,-9.528741990157961,0.11469315350793863,-0.2500304579734802,-0.006995104253292084,-2.267831096345931,0.033532142639160156
1773150246646019800,4.876019775390625,-0.046151714425301436,-0.5569856762886047,-0.030265090367116255,0.06221048906445503,-0.06779285221663789,0.9910653288553349,-0.13136523502303296,right,0.0036714673042297363,0.22564289099400892,-0.4409641903623938,-9.54787865230441,0.11080474835680969,-0.41579365730285645,0.0011825934052467346,-2.1940710097387432,0.062127143144607544
1773150246686020000,4.91602001953125,-0.039205144013435195,-0.7349417805671692,-0.02766542291579417,0.025400113314390182,-0.08122190137690699,0.9911317551569871,-0.1594569855163283,right,0.00747603178024292,0.207105312229854,-0.3761587964421138,-9.58970996133983,0.10146676199082448,-0.5122391581535339,-0.0072801485657691956,-2.016521024441719,-0.014173731207847595
1773150246726020000,4.95602001953125,-0.03719050296574536,-0.657839834690094,-0.02723881046546308,-0.007182326167821884,-0.09352903012295338,0.9908490726060963,-0.18465737725556347,right,0.007874488830566406,0.1914050398316059,-0.3579713613118976,-9.620902971982956,0.09342655165181403,-0.440716028213501,-0.0008246377110481262,-1.8656018564388155,-0.015349477529525757
1773150246766020000,4.99602001953125,-0.03558415763383768,-0.5807378888130188,-0.02680630580570987,-0.03976476937532425,-0.10581587415147563,0.9903520229645097,-0.2097520627276214,right,0.008021175861358643,0.17566010068740653,-0.3435189479915425,-9.649626962164044,0.08536613698731253,-0.369192898273468,0.006011733785271645,-1.7137914386846125,-0.016616076231002808
1773150246806020000,5.03602001953125,-0.03438274280433752,-0.5036359429359436,-0.026367995705592808,-0.07234720885753632,-0.11807984643754191,0.9896406707838901,-0.23475424221818308,right,0.007913529872894287,0.159880541203593,-0.33281379490811375,-9.67585679744184,0.07728725144550341,-0.29766979813575745,0.013230226933956146,-1.5612211424738167,-0.017960160970687866
1773150246846020000,5.07602001953125,-0.03136088667086536,-0.6018626093864441,-0.025462316225862626,-0.07108886539936066,-0.13048889382083195,0.9883469304836165,-0.26012020816031306,right,0.0012305974960327148,0.15377657372722803,-0.3038664077673107,-9.686163087400793,0.07412686846899871,-0.24870765209197998,0.01251901313662529,-1.5020964610710739,-0.009103626012802124
1773150246886019800,5.116019775390625,-0.028499337063990007,-0.7000893354415894,-0.024552398347794994,-0.069830521941185,-0.1428761668777339,0.9868885373465353,-0.2854436285788123,right,-0.00549161434173584,0.14759889935341938,-0.2764069210967049,-9.696083592912554,0.0709541425788717,-0.19974550604820251,0.01195952296257019,-1.442200649165362,-0.00032566487789154053
1773150246926020000,5.15602001953125,-0.02579927026353056,-0.7983160018920898,-0.02363838970581897,-0.06857217103242874,-0.1552397583930803,0.9852659976376726,-0.3107264631985849,right,-0.01225370168685913,0.14135165978449712,-0.25045341854225844,-9.705612468758225,0.06776961064927835,-0.15078334510326385,0.011553601361811161,-1.3815746232889592,0.008377805352210999
1773150246966020000,5.19602001953125,-0.02534979326825035,-0.8556269407272339,-0.02425473767358553,-0.10617940872907639,-0.17200866826554756,0.982611141265869,-0.34484593193103147,right,-0.014357805252075195,0.13764588026804173,-0.24621903237551448,-9.710775550609826,0.0655740544004053,-0.10466845333576202,0.010311642661690712,-1.3455863411933182,0.009682416915893555
1773150247006020000,5.23602001953125,-0.025028354613549526,-0.9129378795623779,-0.02486396365805419,-0.14378663897514343,-0.18872710199053286,0.9796679550159292,-0.37894641464663303,right,-0.016477108001708984,0.13392707225381364,-0.2432211657337844,-9.715788994857668,0.0633592534924455,-0.05855356529355049,0.009195776656270027,-1.309453097669035,0.010972268879413605
1773150247046020000,5.27602001953125,-0.02548981900772226,-1.1316308975219727,-0.026342162228790836,-0.13921579718589783,-0.21132026714324575,0.9751071014755317,-0.4251447363371293,right,0.007583200931549072,0.13198532129141594,-0.24776898349756374,-9.718199563130735,0.061772285879408945,-0.058715932071208954,0.006635775789618492,-1.2905790319815278,0.005264759063720703
1773150247086020000,5.31602001953125,-0.026041133246394663,-1.350324034690857,-0.02780625098933499,-0.13464495539665222,-0.23380012886140586,0.9700236404238927,-0.4713321095429138,right,0.03163427114486694,0.13006676726019306,-0.2531907345516607,-9.720518945989012,0.060152212384092296,-0.058878298848867416,0.0041648950427770615,-1.2719257694378494,-0.0004202127456665039
1773150247126019800,5.356019775390625,-0.02524960609835604,-1.3295965194702148,-0.029020507170269043,-0.16088955104351044,-0.2603533276618033,0.9632540241524583,-0.5263154031951788,right,0.01631331443786621,0.1296996567422849,-0.24550838162181898,-9.721182378333806,0.0592912947983646,-0.022509101778268814,-0.01081991009414196,-1.268355948127061,-0.059812843799591064
1773150247290438700,5.520438720703125,-0.016956035794284834,-0.6233532428741455,-0.030471875775891912,-0.013501567766070366,-0.33563304688544066,0.9395686557628016,-0.6850465358033103,right,-0.012772629968822002,0.13411387618928958,-0.1647810680842027,-9.717191262871026,0.06027098674525326,0.0006216967012733221,-0.041919078677892685,-1.3112686226584016,-0.04963558167219162
1773150247330438700,5.560438720703125,-0.01643274722853084,-0.4383072257041931,-0.03060200466816528,0.00966387614607811,-0.3429089263854432,0.9369591147428833,-0.7005806475657671,right,-0.00010246038436889648,0.1335760512838826,-0.15970771034266798,-9.717979782900214,0.05987015839796865,-0.01018426101654768,-0.037986088544130325,-1.3060415356598793,-0.06015239655971527
1773150247370438700,5.600438720703125,-0.015918000229341676,-0.2532612085342407,-0.030730310736659706,0.032829321920871735,-0.35016430793002273,0.9342935320842847,-0.716113521171465,right,0.012568116188049316,0.13303028506730927,-0.15471671538865192,-9.718771810060739,0.05946575579913882,-0.020990218967199326,-0.03404470533132553,-1.3007368533805013,-0.07067711651325226
1773150247410438700,5.640438720703125,-0.01541190313232956,-0.06821522116661072,-0.030856768704014177,0.05599476769566536,-0.35739864203469607,0.9315719008985712,-0.731644787456277,right,0.02523905038833618,0.13247662794305462,-0.14980913353492506,-9.719567928874492,0.05905778065236417,-0.031796179711818695,-0.03009481355547905,-1.295355160342157,-0.08120971918106079
1773150247450438700,5.680438720703125,-0.014056526489368412,0.09584258496761322,-0.030436626258551848,0.08171328157186508,-0.35541333929907654,0.9322692523040146,-0.7275050679401075,right,0.035224974155426025,0.1343606581432231,-0.13660077459206804,-9.717304075595736,0.060240961834474464,-0.010694773867726326,-0.0225443784147501,-1.3136669159717858,-0.0741368979215622
1773150247490438700,5.720438720703125,-0.012708672677292634,0.25990039110183716,-0.030016291087782396,0.1074317917227745,-0.35342591502791354,0.9329609973531372,-0.7233668903049422,right,0.04520481824874878,0.13625020349603684,-0.12347138090324587,-9.714980016562341,0.06142377004424574,0.010406631976366043,-0.014985887333750725,-1.3320276253096759,-0.06705906987190247
1773150247530438700,5.760438720703125,-0.009117016608924704,0.3887254595756531,-0.028491167618324518,0.08285439759492874,-0.34724736270440976,0.9351716768438778,-0.7104431974885328,right,-0.061245083808898926,0.1394345379100392,-0.08853867227514274,-9.711070149642229,0.06372958039570063,0.020368384197354317,-0.018548140302300453,-1.3629590624071657,-0.10396184027194977
1773150247570438700,5.800438720703125,-0.010818196972597892,0.4469435513019562,-0.029054411085260776,0.049852095544338226,-0.3385906548271617,0.9382572023321964,-0.6918875030982675,right,-0.013230204582214355,0.1415511714657541,-0.10502736806292086,-9.707999071633814,0.06469645876162647,0.0042016953229904175,0.014375855214893818,-1.3835117288313805,-0.0893019288778305
1773150247610438700,5.840438720703125,-0.012559283479502538,0.5051616430282593,-0.029615169168258796,0.01684979349374771,-0.3299049678519094,0.941262314691916,-0.6733226998292813,right,0.03478139638900757,0.14363618581351487,-0.12189317180109209,-9.704896429443359,0.06565779207646587,-0.011964993551373482,0.04733830690383911,-1.4037510915227234,-0.07467395067214966
1773150247650439000,5.88043896484375,-0.013210646781173174,0.5075850486755371,-0.029494215426065548,0.1040663793683052,-0.32013755473773703,0.9445662553363027,-0.6525890131759543,right,0.06406992673873901,0.14522519813867843,-0.12818492888906038,-9.702571785888075,0.06660774096642355,0.02760465256869793,0.08089208602905273,-1.4191718018859625,-0.05224543809890747
1773150247813090300,6.04309033203125,0.0017932525635711192,0.4611702561378479,-0.020635465221324648,-0.056864503771066666,-0.29082824482707564,0.9539337324340498,-0.5919745136650741,right,-0.03890696540474892,0.14749005093946482,0.01739466704252991,-9.700164140224457,0.07073507439329174,-0.14239171147346497,0.056833136826753616,-1.4411448565021157,0.01610022597014904
1773150247853090300,6.08309033203125,-0.0029555572637055853,2.170238494873047,-0.018484749904045278,0.273635596036911,-0.239125474196361,0.9683760102851295,-0.4839719626982834,right,-0.002083718776702881,0.14245314704085268,-0.02869065645035589,-9.707273095446824,0.06873956354875503,0.007007613778114319,0.1720583140850067,-1.392268012869358,-0.0749143660068512
1773150247893090300,6.12309033203125,-0.007125144678915331,3.8793067932128906,-0.01628060989345657,0.6041357517242432,-0.1867315627882502,0.9800193492871793,-0.3760749108142123,right,0.03476154804229736,0.13693930120992068,-0.06921923287373502,-9.714598323768376,0.06654537254880104,0.1564069241285324,0.28671684861183167,-1.338722446773201,-0.16640502214431763
1773150247933090300,6.16309033203125,-0.010668401325113501,5.588375091552734,-0.014029412309457156,0.9346358180046082,-0.1337979065011355,0.9888300610376569,-0.26828509370959197,right,0.07162010669708252,0.1310130578191589,-0.10372283393614924,-9.722054484993219,0.0641588370253348,0.3058062493801117,0.40076103806495667,-1.281126728503406,-0.25830867886543274
1773150248094467000,6.324467041015625,-0.014211258192822183,2.4886538982391357,0.01794022835369598,0.26227009296417236,0.2700242841477851,0.9585113384880471,0.5504909325955231,right,-0.11317698657512665,0.18238717697910883,-0.13704853662587702,-9.643018357679248,0.08956027360782112,0.006438161712139845,0.18585528433322906,-1.7787071245789527,0.32275742292404175
1773150248134467000,6.364467041015625,-0.023942258633416442,1.4627970457077026,0.016407027677822445,-0.005112767219543457,0.3072925514806635,0.947310811589436,0.6295040344623182,right,-0.04247087240219116,0.17948950466283267,-0.23099917834661898,-9.646340195578336,0.08890629434738492,-0.043606359511613846,0.14671452343463898,-1.7507545571617782,0.211813285946846
1773150248174467000,6.404467041015625,-0.03375142711748673,0.8490440249443054,0.013607115356577373,-0.07532165944576263,0.32843794623245615,0.9401762230376595,0.6751826908221887,right,0.0045127272605896,0.1781897707386803,-0.32568562352862207,-9.645876669719815,0.08950987498712364,0.036652009934186935,0.12490684539079666,-1.7382118864528833,0.12038083374500275
1773150248214467000,6.444467041015625,-0.040674980332401606,0.4916742146015167,0.011260917823844314,-0.07715567201375961,0.33640239897100654,0.9372581929167384,0.6928486051968362,right,-0.010271430015563965,0.17882714247863493,-0.39241588456425813,-9.642281275576352,0.09084964197981636,0.02680024690926075,0.10347156971693039,-1.7443629564285277,0.07721952348947525
1773150248254467000,6.484467041015625,-0.04760963732896457,0.13430437445640564,0.008913825194410124,-0.07898968458175659,0.3443402263255334,0.934265871322268,0.7105204987245008,right,-0.025082170963287354,0.1793440463488696,-0.45922885544728487,-9.63842635371387,0.09218221879397648,0.016948483884334564,0.08204472064971924,-1.7493511201046406,0.03393959999084473
1773150248294467300,6.52446728515625,-0.05308881310127303,0.02273038774728775,0.006670195797732229,-0.1681898534297943,0.34545810733142573,0.9337322478232022,0.7135182439258657,right,-0.05014437437057495,0.18035181092424912,-0.5119385552411899,-9.634000353965163,0.09358525598426945,0.042953915894031525,0.06486488878726959,-1.7590744956091044,-0.020765036344528198
1773150248334467000,6.564467041015625,-0.05432700960317586,-0.11815739423036575,0.005909323171873727,-0.13184767961502075,0.3417233798852327,0.9350371607388106,0.7057126948122254,right,-0.03788745403289795,0.18141041869236824,-0.5237655154287815,-9.631493924102186,0.09431620798728163,0.0014776363968849182,0.056260235607624054,-1.7692865314133464,-0.004898965358734131
1773150248374467000,6.604467041015625,-0.05555700820196632,-0.25904518365859985,0.005148343964793554,-0.09550551325082779,0.33798293464586177,0.9363264211422204,0.6979069909172562,right,-0.025634407997131348,0.1824784575316922,-0.5355066239638254,-9.628950084838271,0.09504555625604562,-0.03999864310026169,0.047646816819906235,-1.7795874145448207,0.010976165533065796
1773150248414467000,6.644467041015625,-0.05677875166174493,-0.39993298053741455,0.004387281985199041,-0.05916334316134453,0.3342368821990532,0.9376000826041925,0.6901012719380901,right,-0.013385355472564697,0.183555964997106,-0.5471611867265775,-9.626368836173414,0.09577333039521134,-0.08147493004798889,0.03902457654476166,-1.789977729525417,0.026860401034355164
1773150248454467000,6.684467041015625,-0.055228581798358656,-0.5986548662185669,0.003139873949612976,-0.08687880635261536,0.32184533469607646,0.9421516751480029,0.6633218245498048,right,-0.0013488531112670898,0.17930014243952155,-0.5326537187507375,-9.634724576586484,0.09357297570944706,-0.11157334595918655,0.021592803299427032,-1.7489273417346178,0.03969791531562805
1773150248494467000,6.724467041015625,-0.05379585522976785,-0.7973767518997192,0.0018919040104461323,-0.11459428071975708,0.30939559747284556,0.9465330806382585,0.6365695118683466,right,0.010668277740478516,0.1750050426594177,-0.5192483667979017,-9.642889762863517,0.09135571340622027,-0.14167176187038422,0.004273425787687302,-1.707466035055369,0.05249354988336563
1773150248534467000,6.764467041015625,-0.05248129854815366,-0.9960986971855164,0.0006435986628706619,-0.1423097550868988,0.2968900069402397,0.9507434551273476,0.6098436953754273,right,0.02266526222229004,0.17067377241192122,-0.5069550312075763,-9.650859134307503,0.08912194635872736,-0.17177018523216248,-0.012932579964399338,-1.665623766234517,0.06525030732154846
1773150248574467000,6.804467041015625,-0.048605134030875866,-1.4001259803771973,-0.0005359847981242764,-0.07416772097349167,0.2742892893925221,0.9578382532339693,0.5617995144237448,right,0.011483967304229736,0.16424043843790478,-0.47005390858333557,-9.663254505500197,0.08550351139144688,-0.27930718660354614,-0.013709291815757751,-1.6034169009074568,0.10374721884727478
1773150248614467000,6.844467041015625,-0.03527215242389056,-1.7665278911590576,0.00013646398505157636,-0.06549658626317978,0.2322700085791254,0.9697041414673536,0.4727981466276368,right,0.010068535804748535,0.14733291515864172,-0.3420831795673817,-9.694372112819552,0.07566074459608564,-0.38150089979171753,-0.011168669909238815,-1.4396205695442854,0.07409721612930298
1773150248654467000,6.884467041015625,-0.023539416373656055,-2.132929801940918,0.0008086360905305166,-0.05682545155286789,0.18978525643793118,0.9796268604507224,0.3842475234358438,right,0.008303582668304443,0.1293241730765897,-0.22889391316305846,-9.722063252821565,0.06566635706947653,-0.48369458317756653,-0.0071207620203495026,-1.264704439882189,0.04331328719854355
1773150248694467000,6.924467041015625,-0.013480763631930567,-2.4993317127227783,0.0014791917818204445,-0.0481543131172657,0.14692018251036018,0.9875866831878182,0.29611209028937807,right,0.006166636943817139,0.11036042239129258,-0.13139285808489656,-9.746105222666262,0.05554038614895874,-0.5858882665634155,-0.0014730989933013916,-1.080070268477872,0.011538408696651459
1773150248734467000,6.964467041015625,-0.004577696014001816,-2.34771466255188,0.002201308683560118,-0.03768819943070412,0.10034951193948514,0.9939531828138649,0.20144210540451765,right,-0.0013832449913024902,0.08906516494172584,-0.04471374630366917,-9.767677003005147,0.04452204568359963,-0.5689060688018799,-0.016353648155927658,-0.8722763168908655,0.047341231256723404
1773150248774467000,7.004467041015625,0.0022532067101029766,-2.1960978507995605,0.002918295155318705,-0.027222085744142532,0.053544853943316796,0.998002450519336,0.107125728717976,right,-0.009406864643096924,0.06702908161088383,0.022046768306335434,-9.7846030033648,0.03339990849024418,-0.5519238710403442,-0.029203059151768684,-0.656838353356719,0.08236458152532578
1773150248814467000,7.044467041015625,0.005110442765260381,-2.0814361572265625,0.0027995346126317242,-0.07424105703830719,0.010683347621861655,0.999673618757031,0.021254944516871235,right,-0.022977471351623535,0.046138437666783584,0.05006274721538648,-9.796085935887694,0.023038645897478827,-0.46927395462989807,-0.04460684955120087,-0.4523027094459161,0.0929735004901886
1773150248854467000,7.084467041015625,0.0026059519837030023,-1.868028163909912,0.000891932786227128,-0.2674560546875,-0.02901741108445444,0.9994780988740671,-0.058085643454612326,right,-0.1172327995300293,0.028264127568356386,0.025545371561415956,-9.802699801069497,0.014163455770949027,-0.4312623143196106,-0.09120090305805206,-0.27713921742662784,0.050890497863292694
1773150248894467000,7.124467041015625,-0.008604789771045715,-1.602141261100769,-0.004681039141412963,-0.33182573318481445,-0.0638360124118562,0.9979325736017672,-0.12771017328561526,right,-0.05930173397064209,0.01214544294256177,-0.08437697688527404,-9.805563958328962,0.005785714839579156,-0.3756183087825775,-0.07838070392608643,-0.1191028926285915,0.03620943799614906
1773150248934467000,7.164467041015625,-0.021997653173891123,-1.262669324874878,-0.011001788455556792,-0.3600791394710541,-0.09263726114756385,0.9956390553817548,-0.18553984505429255,right,-0.004422962665557861,0.0010899134196891006,-0.21570585722271352,-9.804271580430864,-0.0004762960489880055,-0.20744092762470245,-0.1020510345697403,-0.010688111758726882,-0.02092461660504341
1773150248974467000,7.204467041015625,-0.035669052797011304,-0.9184191823005676,-0.01755934156990754,-0.28441154956817627,-0.1141561190514135,0.9933018430777368,-0.228897056467914,right,0.05100661516189575,-0.002759710665568929,-0.34971853328403085,-9.800375157514214,-0.0034071817057345554,-0.049924448132514954,-0.08422958850860596,0.02706376535128802,-0.04658746346831322
1773150249014467000,7.244467041015625,-0.045251894639335946,-0.658259391784668,-0.02231396427799559,-0.16834554076194763,-0.1297566193962555,0.9912872402358736,-0.2603555067985477,right,0.06089067459106445,-0.0018280451531324897,-0.44361744481753557,-9.796594469931721,-0.0038428888044892595,0.025822438299655914,-0.07219672203063965,0.017927268090378493,-0.06918750703334808
1773150249054467300,7.28446728515625,-0.05014875153029914,-0.3884841799736023,-0.024793183964685585,-0.12276110798120499,-0.13693237193783003,0.9902629903548359,-0.27483030247117235,right,0.05772954225540161,-0.0006166507973189519,-0.49158521078135814,-9.794319510737061,-0.003739728641143412,0.01120828278362751,-0.06432794034481049,0.0060475548022426665,-0.09098382294178009
1773150249094467000,7.324467041015625,-0.05502756609306066,-0.11870899796485901,-0.027270951799416913,-0.07717667520046234,-0.14410013182335493,0.9891805603372575,-0.28929907237556757,right,0.05454385280609131,0.0006654859234131518,-0.5393638108486309,-9.79180431304574,-0.0036363480605318102,-0.003405870869755745,-0.056478459388017654,-0.006525912332892766,-0.1127094030380249
1773150249134467000,7.364467041015625,-0.056809260121946197,0.07199148833751678,-0.02815337936892133,-0.01051299273967743,-0.1448689592808124,0.989043075151056,-0.2908587042977232,right,0.08383452892303467,0.0007231219618753015,-0.5568089397115633,-9.790826992446183,-0.0037581677819427083,-0.016663270071148872,-0.04979727417230606,-0.007091129017199273,-0.13124582171440125
1773150249174467000,7.404467041015625,-0.05677640193690025,0.27906176447868347,-0.02816614443232805,0.02929026260972023,-0.1414082488187109,0.989544244650895,-0.28385584100377764,right,0.08901727199554443,0.000949975876696722,-0.5564871238786727,-9.790843943580985,-0.00354500297708475,-0.07093821465969086,-0.042744651436805725,-0.009315804487970309,-0.14024724066257477
1773150249214467000,7.444467041015625,-0.05600582572366929,0.44119131565093994,-0.02757300934731733,0.055450521409511566,-0.13421900095325828,0.990555226193816,-0.26942904549815355,right,0.13042110204696655,-0.002570332149262153,-0.5489407636197283,-9.79124141846597,-0.005033526950904007,-0.07754006236791611,-0.012782268226146698,0.025206597743858583,-0.1501787155866623
1773150249254467000,7.484467041015625,-0.054274750514942134,0.5265567898750305,-0.026567715524562004,0.021073870360851288,-0.12441228430242703,0.9918554367267708,-0.24971917455887976,right,0.1629999876022339,-0.005703063753533245,-0.5319836740020663,-9.792050396761297,-0.006207423348476242,0.00005408376455307007,-0.00534529983997345,0.05592793118804693,-0.1514340192079544
1773150249294467300,7.52446728515625,-0.053481114799740666,0.5400637984275818,-0.02625973906573896,0.06610426306724548,-0.1136661328558483,0.993155521216997,-0.22805023102785998,right,0.20321083068847656,-0.005344071324490862,-0.5242132226636633,-9.792488788178563,-0.00569585106494676,0.0627664178609848,0.02972615510225296,0.05240747001089621,-0.10224053263664246
1773150249334467000,7.564467041015625,-0.053358220251142945,0.546011209487915,-0.026451281732715968,0.05409278720617294,-0.10254377323717383,0.9943703353176632,-0.20556577799631878,right,0.24860042333602905,-0.0016355176659470954,-0.5230165602250024,-9.79267992683649,-0.0035501589084564666,0.19139420986175537,0.07862234115600586,0.016039226995717033,-0.0540141761302948
1773150249374467000,7.604467041015625,-0.05180100861731419,0.45264488458633423,-0.025882954215675786,-0.030162185430526733,-0.09249547636299436,0.9953756822623014,-0.1852641718210841,right,0.20766609907150269,0.002084798322734943,-0.507766201459989,-9.793474292084575,-0.0013579373071803268,0.05448003113269806,0.08575760573148727,-0.02044458695683861,-0.003357612295076251
1773150249414467000,7.644467041015625,-0.05274315173614113,0.2949953079223633,-0.026320689912117518,0.00828937441110611,-0.08488319277557466,0.9960417839513639,-0.17000075693430497,right,0.2324007749557495,0.0011164224239533494,-0.5169936466736719,-9.793006674572824,-0.0016826333260136954,-0.07006040960550308,0.1513885259628296,-0.010948075585876358,0.040096744894981384
1773150249454467000,7.684467041015625,-0.05271923498539608,0.1524062305688858,-0.026180423491981776,0.03826284408569336,-0.08098848555190352,0.9963658462850177,-0.1622693376060372,right,0.19247525930404663,-0.002207515054647884,-0.5167584862109273,-9.793001413875817,-0.0032358289805001273,-0.05912279337644577,0.1497093141078949,0.02164859930160455,-0.05828304588794708
1773150249494467000,7.724467041015625,-0.05259199016874086,0.14149153232574463,-0.025915402254651842,0.022158389911055565,-0.07777295314003403,0.9966170088193146,-0.1559591800688307,right,0.15175557136535645,-0.007639842411840812,-0.515498585810326,-9.792805014520884,-0.005855209533719535,-0.15217098593711853,0.13047561049461365,0.07492082378251944,-0.08925975859165192
1773150249534467000,7.764467041015625,-0.048919305209187525,0.09679651260375977,-0.02384311910967886,0.08358462899923325,-0.07555239632549927,0.9968160602762405,-0.1516491249126715,right,0.01704263687133789,-0.014345821610924235,-0.4794939371017739,-9.79391034541428,-0.009002733720172325,-0.22281646728515625,0.1015031486749649,0.14067992453132755,-0.12089183926582336
1773150249574467000,7.804467041015625,-0.047808999333402845,0.09737305343151093,-0.022981094773247456,0.028812140226364136,-0.07346685308645333,0.9969439247482513,-0.14767222328360557,right,0.0038099288940429688,-0.023171433535889435,-0.46854182351995255,-9.792814951393007,-0.013313716470502232,-0.15273255109786987,0.06210040673613548,0.22721410684995352,-0.14904816448688507
1773150249614467000,7.844467041015625,-0.04896027320286015,0.06518366932868958,-0.023344336565462583,-0.035164974629879,-0.07201948885257109,0.9969940758750148,-0.14494427291447273,right,0.03307837247848511,-0.029466381317502007,-0.47973622142504896,-9.79064637518227,-0.016461788767602018,-0.13586947321891785,0.0078386589884758,0.28892496882099655,-0.13767683506011963
1773150249654467000,7.884467041015625,-0.05053254527175425,0.08085693418979645,-0.024118309248211504,-0.03256320580840111,-0.07031007723413067,0.9970885088630808,-0.14156917642360278,right,0.03568190336227417,-0.030525431486046823,-0.4951134579727426,-9.789569101339579,-0.01700561743914444,-0.15769942104816437,-0.025177765637636185,0.2993060410492122,-0.12132693827152252
1773150249694467000,7.924467041015625,-0.05210128426447804,0.09653019160032272,-0.024892188088407884,-0.029961438849568367,-0.06860040870548585,0.9971791950832413,-0.13819567225967935,right,0.03828185796737671,-0.03158977504491682,-0.5104532485868781,-9.788456756183505,-0.01754937831299934,-0.1795293688774109,-0.05819800868630409,0.3097386608015746,-0.10498229414224625
1773150249734467000,7.964467041015625,-0.05285634248171739,0.09085702896118164,-0.025227516371847114,0.05455654114484787,-0.06680653060779443,0.9972736812642642,-0.13466989923023423,right,0.01855367422103882,-0.03371965638017356,-0.5178079221986234,-9.787387665647268,-0.018592685823854826,-0.2247401922941208,-0.04723156988620758,0.330614531298168,-0.08649738132953644
1773150249774467000,8.004467041015625,-0.04922614429198246,0.034525878727436066,-0.023263948962548735,0.20583757758140564,-0.06587587226068663,0.9973357409446958,-0.13286762492284906,right,-0.057187020778656006,-0.038809927776530646,-0.48218536814283575,-9.787395264431833,-0.020988544779028083,-0.24784743785858154,-0.018479403108358383,0.38050015011467037,-0.04841378331184387
1773150249814467000,8.044467041015626,-0.04383639346754664,-0.01462804526090622,-0.020290467925134132,0.17014560103416443,-0.06631315056406364,0.9972815070764898,-0.13382295401703428,right,-0.1426318883895874,-0.04700501768763442,-0.42927590799313037,-9.786408006960153,-0.0249070897135671,-0.36509132385253906,0.011620603501796722,0.46079234190434215,-0.0537605956196785
1773150249854467000,8.084467041015625,-0.036292604662032296,-0.024422403424978256,-0.016015883097765866,0.18463635444641113,-0.06685508268732172,0.9971213348474963,-0.13501539257383538,right,-0.2114086151123047,-0.06167413262524299,-0.35515433112978934,-9.781559397885204,-0.03198032471419706,-0.4595293402671814,0.06150972470641136,0.6044335913261398,-0.03377194330096245
1773150249894467000,8.124467041015626,-0.029463720507756003,0.0020657703280448914,-0.011916806304717496,0.21586108207702637,-0.06750504403400669,0.9967835055440603,-0.13643694545343157,right,-0.26850688457489014,-0.08124899989803888,-0.2879456389274448,-9.77005659161806,-0.04151780459340475,-0.47605201601982117,0.09370346367359161,0.7959045134153216,-0.02832295373082161
1773150249934467000,8.164467041015625,-0.03206543663158179,0.011896375566720963,-0.012595579747134772,0.040990620851516724,-0.06742504525822389,0.9963683785469182,-0.1367242197399931,right,-0.21787410974502563,-0.0989982250906732,-0.3128613228667527,-9.753616913470625,-0.050450773903355596,-0.45441627502441406,0.08314968645572662,0.9692562433049082,0.018367737531661987
1773150249974467000,8.204467041015626,-0.03467727859126384,0.021726980805397034,-0.013273337245975682,-0.1338798552751541,-0.06733957303961081,0.9958730813677517,-0.13705843304312645,right,-0.16756147146224976,-0.11674662847820864,-0.3376854560650885,-9.734038937297463,-0.05937967801372173,-0.43278056383132935,0.07258656620979309,1.1422946694616227,0.06509038060903549
1773150250014467000,8.244467041015625,-0.042343828666495095,0.023839818313717842,-0.016222802953410994,-0.2312648892402649,-0.06782344090012007,0.995033454866901,-0.13907434902164267,right,-0.15352386236190796,-0.13960508948044367,-0.4110883632650599,-9.702536714574695,-0.07102908399863077,-0.6816242933273315,-0.008772660046815872,1.3646158897034824,0.023910805583000183
1773150250054467300,8.28446728515625,-0.049356358566385594,0.04248028248548508,-0.01893722304024946,-0.11706914007663727,-0.06577588744248258,0.9941340853222886,-0.13621113152480244,right,-0.14338576793670654,-0.16474858313718163,-0.4772729731166735,-9.662083708155155,-0.08373898016075777,-0.5442668199539185,-0.027210332453250885,1.6083333145216105,0.021362587809562683
1773150250094467000,8.324467041015625,-0.05632722548833683,0.06112074479460716,-0.021648340207912228,-0.0028733760118484497,-0.06371690457287046,0.9930618068217072,-0.13351459155083248,right,-0.13391751050949097,-0.18991125714781854,-0.5421634149719029,-9.615063013783097,-0.09643431935200837,-0.40690934658050537,-0.04577995836734772,1.8512188185602425,0.018899202346801758
1773150250134467000,8.364467041015626,-0.06479623844621386,-0.14528916776180267,-0.025254596687288394,-0.3070800304412842,-0.06410880303713382,0.9922214346393962,-0.13567500706472888,right,-0.15335500240325928,-0.2039112719333096,-0.6218338946666568,-9.583322890651225,-0.10367604702064312,-0.2497434914112091,-0.02805640548467636,1.9858578828915951,0.11037203669548035
1773150250174467000,8.404467041015625,-0.07390574305209877,-0.21762585639953613,-0.029299005957762143,-0.2435663342475891,-0.06726743756658043,0.9917357003380767,-0.1431014921032466,right,-0.22834831476211548,-0.20627307745352239,-0.7087579256862402,-9.572556581965088,-0.1052473724131873,0.006814092397689819,-0.013355381786823273,2.0085338250800966,0.1262487769126892
1773150250214467000,8.444467041015624,-0.08564456230829011,-0.09993530809879303,-0.034842793899173566,-0.25102031230926514,-0.07053980164451547,0.9914443492861403,-0.15078590664277702,right,-0.2796793580055237,-0.20300184620052358,-0.8216346555426717,-9.570072363933921,-0.10415413032866831,0.1332598179578781,0.004039406776428223,1.9771233722940087,0.08537057042121887
1773150250254467000,8.484467041015625,-0.09925651525507867,-0.11214471608400345,-0.042041694171248506,-0.30951985716819763,-0.07193824253228542,0.991785551652357,-0.15415744899624786,right,-0.28686273097991943,-0.1875536139898136,-0.954734819868952,-9.587253215837478,-0.09704959992174653,0.40312033891677856,-0.02981378138065338,1.828508827971667,0.14065225422382355
1773150250294467300,8.52446728515625,-0.11277733353377699,-0.12435412406921387,-0.049236215669078605,-0.3680194020271301,-0.07332914095601545,0.9920233789405833,-0.15730574977162112,right,-0.2944508194923401,-0.17206198088374938,-1.0873287151735276,-9.600465164110064,-0.08993494886295822,0.6729809045791626,-0.06371858716011047,1.6790385436028241,0.1960211992263794
1773150250334467000,8.564467041015625,-0.1281835888151398,-0.2313692420721054,-0.05806931518255474,-0.31270647048950195,-0.07592914132239069,0.9926314510357541,-0.16165404240402914,right,-0.20909005403518677,-0.13947295233734283,-1.2414388612374663,-9.631746437558531,-0.0744684800107322,1.039433479309082,-0.04559601843357086,1.3633327180251478,0.22017082571983337
1773150250374467000,8.604467041015624,-0.14001450879009594,-0.13087806105613708,-0.0661335900431925,-0.34402140974998474,-0.07688065578780573,0.9936180590646175,-0.1606217210069709,right,-0.13466119766235352,-0.08808319251435354,-1.3632858101435006,-9.673035310280323,-0.04938422880319335,1.5202016830444336,-0.07998207211494446,0.8626848241377622,0.2760847210884094
1773150250414467000,8.644467041015625,-0.15433627350911533,-0.19086849689483643,-0.07600070920375077,-0.28225502371788025,-0.07845008550115773,0.9938766543038117,-0.15918378663306262,right,-0.026359200477600098,-0.021255784215265965,-1.507180047945678,-9.687896779325603,-0.01669156217118976,1.7703495025634766,-0.027724996209144592,0.2084326330830343,0.1827458143234253
1773150250454467000,8.684467041015624,-0.16481304745711386,-0.29402804374694824,-0.08391306187974708,-0.3520231246948242,-0.08040722115490921,0.9930728109761175,-0.15762722847955396,right,-0.030934393405914307,0.04789395709733946,-1.607111809902638,-9.662667645522951,0.01731052167589043,1.585444688796997,0.001020863652229309,-0.4694994530383497,0.2628712058067322
1773150250494467000,8.724467041015625,-0.17536156665862201,-0.4004329442977905,-0.09159798683666394,-0.2192317098379135,-0.08434625945530404,0.9910325933589486,-0.15997450910648214,right,0.07096463441848755,0.11176749597093184,-1.7002340379752219,-9.596000585916638,0.04847622942078382,1.5313822031021118,0.07973256707191467,-1.0937838826622814,0.36998629570007324
1773150250534467000,8.764467041015624,-0.18403607646250794,-0.45651379227638245,-0.09838062897607433,-0.21841716766357422,-0.09127641414913668,0.9879560115258329,-0.16843869744362389,right,0.06624209880828857,0.17098553070784506,-1.7684373672381042,-9.500456391394138,0.07702464834310045,1.3297979831695557,0.09134740382432938,-1.6686365381844341,0.2532894015312195
1773150250574467000,8.804467041015625,-0.18884289536567256,-0.4382990002632141,-0.10317095601194504,-0.2091638743877411,-0.09680620675006238,0.984398541043619,-0.17437428950611725,right,-0.03632986545562744,0.22790393027633418,-1.7933264554314314,-9.38323754068017,0.1046125960085094,1.320482611656189,0.0557451993227005,-2.215676546216756,0.24870672821998596
1773150250614467000,8.844467041015625,-0.1985084489793752,-0.23506397008895874,-0.1100536359225642,-0.29982155561447144,-0.10169821559599297,0.9803250907631443,-0.17889174106599492,right,0.08931195735931396,0.2778597423074868,-1.859766136022657,-9.245314924633503,0.12848472230058675,1.1469296216964722,0.03715601563453674,-2.6899454786792396,0.1289447396993637
1773150250654467000,8.884467041015625,-0.2049488741449708,0.012359485030174255,-0.11454771821855188,-0.07376913726329803,-0.10232151761374536,0.9766845621006098,-0.17537260014453449,right,0.05057179927825928,0.32195587305132883,-1.893272684305161,-9.10807386111021,0.14998760109598785,0.9302585124969482,-0.01821140944957733,-3.1030449260383843,0.052037566900253296
1773150250694467000,8.924467041015625,-0.20923939200719652,0.23529264330863953,-0.11646195217254138,0.08631676435470581,-0.09670768066280656,0.9744768918982005,-0.160395290908627,right,-0.009891688823699951,0.35287681961326517,-1.9114827331259845,-9.00167567961812,0.16576753270011102,0.661178469657898,-0.0319320410490036,-3.3891663452133534,0.17778024077415466
1773150250734467000,8.964467041015626,-0.21513245618405344,-0.06027492880821228,-0.11904950807909562,-0.04482601583003998,-0.0927909359686067,0.9723426090411064,-0.149023212989442,right,0.26834338903427124,0.37760977813973096,-1.9460032807566225,-8.905622366529702,0.17823258163573877,0.8636823296546936,0.0453929603099823,-3.615708909477293,0.3745293617248535
1773150250774467000,9.004467041015625,-0.21007888877322986,-0.08311484009027481,-0.11728510621990713,0.28630495071411133,-0.09241122664846546,0.9687376036125329,-0.14554554325789498,right,0.18685930967330933,0.41755938115898483,-1.8693423581413924,-8.766996570649743,0.19812063466207103,0.9587137699127197,0.025923699140548706,-3.976897844596207,0.2542555332183838
1773150250814467000,9.044467041015626,-0.20199010944079057,-0.1673530638217926,-0.11435103562780562,0.1629447340965271,-0.09450052728132843,0.9665182940950251,-0.1495671955145613,right,0.05772125720977783,0.44043425036961453,-1.779648204821348,-8.690418942403793,0.20936998802094775,0.6386193037033081,0.010350227355957031,-4.180891600182652,0.19702202081680298
1773150250854467000,9.084467041015625,-0.19370833159165302,-0.2515912652015686,-0.11140044846742334,0.03958449512720108,-0.09657617697456883,0.9641593905587194,-0.15384039583426956,right,-0.07192343473434448,0.4632784345717729,-1.688786469026655,-8.608873462617396,0.22058910108505286,0.31852489709854126,-0.00534231960773468,-4.382428610266745,0.13953804969787598
1773150250894467000,9.124467041015626,-0.18882559280012148,-0.4050758481025696,-0.11096875028014108,-0.0705326572060585,-0.10294018077463318,0.9618328909710773,-0.1669463935295624,right,-0.10216975212097168,0.47953834972295994,-1.6331391083456575,-8.545889475437999,0.22796234282739897,0.35913950204849243,0.019430920481681824,-4.524490518075227,0.07944148778915405
1773150250934467000,9.164467041015625,-0.18622349544502753,-0.3830910325050354,-0.1117180244206459,-0.03411676362156868,-0.10938113181190665,0.959216988638837,-0.1797655365617169,right,0.038871049880981445,0.4963515402016904,-1.5965848629303276,-8.474149350351095,0.23549460006274903,0.5645530223846436,0.040372587740421295,-4.670127946282923,0.043293774127960205
1773150250974467000,9.204467041015626,-0.18200050599886236,-0.3042728304862976,-0.11194039175358646,-0.05462261661887169,-0.11533132527026425,0.9556023767626213,-0.19157073999471833,right,0.04852402210235596,0.5210868990585807,-1.5394007942013441,-8.364623976749181,0.2469660080521732,0.6407766342163086,0.004142880439758301,-4.881976799283922,-0.07305777072906494
1773150251014467000,9.244467041015625,-0.18218860707092194,-0.24745959043502808,-0.1137436079301602,0.11843307316303253,-0.11978947700462231,0.952403117937985,-0.1995564159656985,right,0.19820719957351685,0.5413247282747677,-1.5227588714800775,-8.2654627607733,0.2562051652960285,0.4487309455871582,0.08221647143363953,-5.053090029531717,-0.01940053701400757
1773150251054467300,9.28446728515625,-0.17410716942080326,-0.15246735513210297,-0.11027779247357042,0.24472741782665253,-0.11981791022509163,0.9522774480549823,-0.2015941884303748,right,0.1340113878250122,0.5446506491518043,-1.4529936997279524,-8.260900567424297,0.2581667827786179,0.18552660942077637,0.0551053062081337,-5.081014978289604,0.018198668956756592
1773150251094467000,9.324467041015625,-0.16600141264257848,-0.057475119829177856,-0.10681020855229574,0.37102174758911133,-0.11984448374513447,0.9521366319621731,-0.20366759926151454,right,0.06975722312927246,0.5479622939561875,-1.3831978405766188,-8.25576612714529,0.2601242854048426,-0.07767769694328308,0.027991026639938354,-5.108763985958695,0.05577996373176575
1773150251134467000,9.364467041015626,-0.15724834759811632,0.0005302205681800842,-0.10276311688265771,0.1556730717420578,-0.11914731025989099,0.9525400119967858,-0.20459658825426674,right,-0.024634897708892822,0.5479600214570057,-1.3108842995159327,-8.267568208619952,0.2605975111945639,-0.08623465150594711,-0.010686531662940979,-5.1087452812582255,0.01880812644958496
1773150251174467000,9.404467041015625,-0.1497498088872515,-0.05649856850504875,-0.09919290907250676,0.1357511729001999,-0.11835033208125255,0.9530911068988476,-0.2050430812674859,right,-0.12050104141235352,0.5465157683254926,-1.2499528609521686,-8.284452707925439,0.2603290694213954,-0.04646489396691322,-0.015486553311347961,-5.0966503543168304,0.05687117576599121
1773150251214467000,9.444467041015624,-0.14654830402811944,-0.06396745890378952,-0.09782708000653029,0.08096930384635925,-0.11944318955677062,0.9540426401388864,-0.20853635446766808,right,-0.11154431104660034,0.5391864552363028,-1.2288454832546412,-8.325143614754081,0.2568378286469882,-0.1600288599729538,-0.018393367528915405,-5.035107213595509,0.031012624502182007
1773150251254467000,9.484467041015625,-0.14339045574479814,-0.07143635302782059,-0.09645969808751428,0.02618742734193802,-0.12053420236796265,0.9549788592535934,-0.2119874222587703,right,-0.10263901948928833,0.5318478602297172,-1.2077977267898619,-8.365329494670034,0.253342487033853,-0.27359282970428467,-0.02129407972097397,-4.973215113306045,0.00511854887008667
1773150251294467300,9.52446728515625,-0.1407052145310846,0.01098199188709259,-0.09499878958142567,0.14850753545761108,-0.1212962865829233,0.9566098538320346,-0.21482137937210674,right,-0.005230545997619629,0.5192116406865727,-1.1940487490311265,-8.430094520047307,0.247305538128365,-0.3031468689441681,0.018459230661392212,-4.866018767173588,-0.008527040481567383
1773150251334467000,9.564467041015625,-0.1319407437762684,0.00003032572567462921,-0.09043050353715676,0.1317509114742279,-0.12052776986879038,0.958466814361346,-0.2159247567365404,right,-0.14929836988449097,0.5074894063405128,-1.1275455747496337,-8.496199269595742,0.2421501835295236,-0.3550490438938141,-0.031751252710819244,-4.765880815120041,0.035556137561798096
1773150251374467000,9.604467041015624,-0.12834042559693698,-0.020698387175798416,-0.08848870906291151,0.09017665684223175,-0.12141631350420305,0.9601457780417104,-0.21918040145658774,right,-0.15870875120162964,0.49391168050489437,-1.1051300370629875,-8.563595812520385,0.23568594879191368,-0.35497239232063293,-0.03300347179174423,-4.649074636860192,0.02694600820541382
1773150251414467000,9.644467041015625,-0.12481582002291809,-0.04142710193991661,-0.08654256797786333,0.048602402210235596,-0.12229884069498351,0.9617775713110497,-0.22235746846284807,right,-0.1682891845703125,0.4803238673521812,-1.0827047086346895,-8.629324714493752,0.22921012180890535,-0.3548957407474518,-0.03425668925046921,-4.531323578965663,0.018239527940750122
1773150251454467000,9.684467041015624,-0.12136400730443639,-0.06215581297874451,-0.08459217230873554,0.007028151303529739,-0.12317540469708799,0.9633620719917388,-0.22545894756310073,right,-0.1780412197113037,0.46672636658591327,-1.060273388857022,-8.693371946990489,0.2227230334766623,-0.35481908917427063,-0.03551051765680313,-4.412651022312045,0.009439080953598022
1773150251494467000,9.724467041015625,-0.12031813339130944,-0.04809019714593887,-0.08379994589233193,0.009632188826799393,-0.12354541177281377,0.9643809014846766,-0.22677153967436442,right,-0.1517106294631958,0.45769524520667537,-1.0559209658011794,-8.733684083634614,0.21836576715218392,-0.3011586368083954,-0.030769377946853638,-4.333379624937474,0.022273242473602295
1773150251534467000,9.764467041015624,-0.11928997974585535,-0.03402458131313324,-0.08300597332930287,0.012236226350069046,-0.12391289622596378,0.9653797014407021,-0.22806799554888704,right,-0.12545400857925415,0.4486629226411776,-1.051556121655181,-8.773270828613638,0.21400395952545967,-0.24749818444252014,-0.026029497385025024,-4.253744070425629,0.03507030010223389
1773150251574467000,9.804467041015625,-0.11827917520352768,-0.019958969205617905,-0.08221026613282853,0.0148402638733387,-0.12427774339696691,0.9663583346460975,-0.22934846880044193,right,-0.09927159547805786,0.43962926337947916,-1.0471793678756802,-8.812128674796224,0.20963765923236324,-0.1938377320766449,-0.02129083126783371,-4.173749619473517,0.047830730676651
1773150251614467000,9.844467041015625,-0.11844223849487882,0.10285922884941101,-0.08185296739012574,-0.028837885707616806,-0.12383363523354168,0.9672085460580092,-0.22864355611177323,right,-0.07133859395980835,0.4322722257995942,-1.052216339129582,-8.842210509327053,0.20608936952498855,-0.17725256085395813,-0.01426069438457489,-4.108349803324043,0.012656033039093018
1773150251654467000,9.884467041015625,-0.11850554087552993,0.11591824889183044,-0.08094521069625493,-0.010584210976958275,-0.12135653338095244,0.9684957450707681,-0.22382941383924004,right,-0.018045544624328613,0.42310624790831847,-1.0571838984090833,-8.87916515223682,0.2018327409172088,-0.19197946786880493,0.0063278451561927795,-4.026559116604924,0.055073320865631104
1773150251694467000,9.924467041015625,-0.11852036073200807,0.12897726893424988,-0.08003529268237854,0.007669465616345406,-0.11887625224245073,0.969757016208312,-0.21903562483789055,right,0.035176634788513184,0.41394009028705336,-1.0616351787295193,-8.915424798619746,0.19757071396761017,-0.20670638978481293,0.02686373144388199,-3.9444285304069515,0.09745597839355469
1773150251734467000,9.964467041015626,-0.11848728385703064,0.1420362889766693,-0.07912322110265121,0.025923142209649086,-0.11639276111622822,0.9709922297749713,-0.21426091384533652,right,0.08832770586013794,0.40477385393496185,-1.0655695225037634,-8.950987110388278,0.1933033792909479,-0.22143331170082092,0.047346919775009155,-3.8619656435146927,0.13980475068092346
1773150251774467000,10.004467041015625,-0.11658477933609634,0.06380854547023773,-0.07769876848901701,0.0680108591914177,-0.1146437793515898,0.9717015179561668,-0.21120261379333025,right,0.09721070528030396,0.4002962734298581,-1.0505392727628349,-8.97008344052434,0.19135292232247708,-0.08025817573070526,0.06689614057540894,-3.821565244065225,0.13672742247581482
1773150251814467000,10.044467041015626,-0.11467101851926793,-0.014419198036193848,-0.07627356932897546,0.11009857058525085,-0.11289359454987331,0.9724015582658377,-0.20814054102023366,right,0.10607194900512695,0.3958239427780183,-1.0353159846678375,-8.988966420170664,0.18940064241126742,0.0609169602394104,0.08642567694187164,-3.7811359107822176,0.1336471438407898
1773150251854467000,10.084467041015625,-0.1120485618218523,0.01992388814687729,-0.07504519602004212,0.018580913543701172,-0.11237819249055585,0.9722985342438666,-0.20750854270161617,right,0.07119661569595337,0.39818321319748856,-1.010739031163603,-8.982760551267862,0.19072200001442166,0.08741028606891632,0.07985453307628632,-3.802472713321447,0.06282809376716614
1773150251894467000,10.124467041015626,-0.11442846469323235,0.09275732934474945,-0.07597015849043202,-0.06909210979938507,-0.11117369163123379,0.9722549537015572,-0.20452058426685166,right,0.1199083924293518,0.39937567136729063,-1.0315957951009274,-8.975818769305944,0.1912828802453282,-0.010759249329566956,0.07494433224201202,-3.813249251140654,0.04104122519493103
1773150251934467000,10.164467041015625,-0.11200081392972777,0.020825915038585663,-0.07435077240491268,-0.0515739880502224,-0.10997560466932735,0.9730602883991954,-0.20275280018556566,right,0.06368017196655273,0.3932474262872215,-1.0123954200685024,-9.001350100925563,0.1884962531183848,-0.09699045866727829,0.05633716285228729,-3.757809980252385,0.06422045826911926
1773150251974467000,10.204467041015626,-0.10956760048184604,-0.051105499267578125,-0.07273045971467626,-0.03405586630105972,-0.10877610475727056,0.9738535212909952,-0.200973322325587,right,0.0074124932289123535,0.3871231677654139,-0.9929881973523647,-9.026493310010432,0.1857072738499671,-0.18322166800498962,0.03770890086889267,-3.702265495423972,0.0873890221118927
1773150252014467000,10.244467041015625,-0.10712865334574125,-0.12303690612316132,-0.071109254880553,-0.0165377426892519,-0.1075753598105897,0.9746346674130524,-0.19918244232764182,right,-0.04889500141143799,0.38100308885191614,-0.9733746384091675,-9.05124781203866,0.1829160301568621,-0.26945286989212036,0.01905958354473114,-3.646620472830534,0.11054721474647522
1773150252195131600,10.425131591796875,-0.0795262891606887,-0.06082935258746147,-0.05776011734652742,0.10301043838262558,-0.11787998482816615,0.9781760108001902,-0.22641258123279653,right,-0.04229285195469856,0.33493037618572635,-0.7357746735580265,-9.23245368949473,0.16105787130191052,-0.5119436383247375,0.01699286326766014,-3.2234792316675183,-0.003736952319741249
1773150252235131400,10.46513134765625,-0.07230858711679565,-0.17390215396881104,-0.053464950032590566,0.11066817492246628,-0.12006926496297075,0.9799107270633081,-0.23247465607051987,right,-0.03012669086456299,0.31183961313462294,-0.6743176036849617,-9.309292599025369,0.1499988937720045,-0.6935238242149353,0.009959418326616287,-3.008778496366739,0.06704716384410858
1773150252275131400,10.50513134765625,-0.0673074481644373,-0.0966886356472969,-0.050194892240029515,0.0913219004869461,-0.12216547875443173,0.9813809740033425,-0.2378591275545493,right,-0.02364903688430786,0.29002785518540636,-0.6320164121154696,-9.375806513896585,0.13945387073028753,-0.5460091829299927,-0.0066620707511901855,-2.804495110183954,0.042627960443496704
1773150252315131400,10.54513134765625,-0.062459362575738815,-0.01947510987520218,-0.04691839206367636,0.07197561860084534,-0.1242459841049507,0.9827251529015029,-0.24309680131643885,right,-0.01764845848083496,0.2681910590076198,-0.5902369428651407,-9.437641331040858,0.12889094789761707,-0.3984944522380829,-0.023230385035276413,-2.5986405291616914,0.018048584461212158
1773150252476568300,10.706568359375,-0.06287347305810005,-0.0618942528963089,-0.04614851096108567,0.04655726999044418,-0.1289523561570942,0.9838162729066153,-0.2530276354384322,right,-0.05568191409111023,0.24156383960383424,-0.5982816080350428,-9.503100183901191,0.11552941324348337,0.07821124792098999,-0.07409851253032684,-2.345959899556637,-0.07195889949798584
1773150252516568000,10.746568115234375,-0.0678904569476066,-0.0032714754343032837,-0.048568928720117976,0.03536362946033478,-0.126642781291809,0.9837647161180136,-0.247661652111822,right,-0.04228043556213379,0.2459872748216848,-0.6452404892172664,-9.489532846319674,0.11751396769630884,0.1230502724647522,-0.08418387919664383,-2.3880564353995024,-0.039095208048820496
1773150252556568000,10.786568115234376,-0.07293746196141167,0.05535130575299263,-0.050988608587322785,0.024169988930225372,-0.12433132417197158,0.9836982649928604,-0.24226690080520627,right,-0.02891719341278076,0.2503844653311642,-0.6923539033740759,-9.47559083020687,0.1194967502309279,0.1678892970085144,-0.09425347298383713,-2.4298567647747693,-0.006261736154556274
1773150252596568000,10.826568115234375,-0.07801460516659499,0.11397409439086914,-0.05340750948422384,0.012976347468793392,-0.12201798479758116,0.9836169195311562,-0.23684317721483497,right,-0.015592098236083984,0.25475510990344613,-0.7396189278960228,-9.461275304606556,0.12147771749817593,0.2127283215522766,-0.1043076291680336,-2.471358257333934,0.026541292667388916
1773150252636568300,10.866568359375,-0.0829538592951673,0.1748097836971283,-0.05572062706904599,-0.04756598174571991,-0.11871987208819337,0.9835191166791256,-0.22936238339156864,right,-0.03866100311279297,0.26100477091378954,-0.7850462886620313,-9.44193055266738,0.12446180603509926,0.09253913164138794,-0.09832154959440231,-2.5306197168588636,0.021272525191307068
1773150252676568300,10.906568359375,-0.08535787907486007,0.17112551629543304,-0.05674095101959331,-0.009252425283193588,-0.1164501150349159,0.9835549947012177,-0.22436434266280952,right,-0.027496933937072754,0.2638341931638944,-0.8071288680672645,-9.4328441598922,0.1258541717418599,0.1028340607881546,-0.0748712569475174,-2.557417122891545,0.013459965586662292
1773150252716568300,10.946568359375,-0.08777838370327544,0.1674412488937378,-0.05776081856088945,0.029061131179332733,-0.1141793855229378,0.9835828303326472,-0.21935536548485027,right,-0.016344189643859863,0.26665196417973824,-0.8293236756753176,-9.423646707957982,0.12724552067817108,0.11312898993492126,-0.051409512758255005,-2.5840835960209367,0.005634039640426636
1773150252756568300,10.986568359375,-0.09021536136973447,0.16375698149204254,-0.058780210583005206,0.06737469136714935,-0.11190772177211587,0.9836026693113206,-0.2143354476605571,right,-0.005202651023864746,0.2694579757840363,-0.851629834703356,-9.414339365908504,0.1286358299750806,0.12342391163110733,-0.027936413884162903,-2.610618551725149,-0.00220528244972229
1773150252796568000,11.026568115234374,-0.09234109922319553,0.07709743082523346,-0.05953291940861412,0.03171119838953018,-0.10896748524978933,0.9837249204266766,-0.20800388881437565,right,-0.009082019329071045,0.2718285951005866,-0.8710671602968126,-9.406318556538224,0.1298732126035479,0.025180503726005554,0.012980915606021881,-2.6330200608864427,0.04029680788516998
1773150252836568000,11.066568115234375,-0.09005874952536877,0.097545325756073,-0.05817422173129843,0.021642394363880157,-0.10758032039002774,0.9840356244801794,-0.20553453021663828,right,-0.016582846641540527,0.2702472344803233,-0.8499698656018823,-9.412417457935213,0.12929049354335181,-0.0033711623400449753,0.017662085592746735,-2.6180782200813293,0.030811533331871033
1773150252876568300,11.106568359375,-0.08777334639989931,0.11799322068691254,-0.05681527147239299,0.011573592200875282,-0.10619267681896405,0.9843422233805887,-0.20306246545224288,right,-0.02409207820892334,0.2686713110599932,-0.8288171143926679,-9.418433941745757,0.12870722821138889,-0.031922824680805206,0.02233760803937912,-2.6031813874617216,0.021330833435058594
1773150252916568300,11.146568359375,-0.0854848797898182,0.13844111561775208,-0.05545607622864827,0.0015047881752252579,-0.10480456957269532,0.9846445492123794,-0.2005876781263844,right,-0.03160977363586426,0.2671007400753844,-0.8076092719953507,-9.424367423447967,0.12812339084073363,-0.060474492609500885,0.02700749784708023,-2.5883286862447856,0.01185464859008789
1773150252956568300,11.186568359375,-0.08685304858390938,0.1220410019159317,-0.05569184079506931,-0.003984061069786549,-0.10217899256089752,0.9850214915297755,-0.1951365472182835,right,-0.005239605903625488,0.2651480765336933,-0.8209395128853618,-9.428270860627293,0.12724143717307254,-0.06275768578052521,0.03219003230333328,-2.5698537028774617,0.03539249300956726
1773150252996568300,11.226568359375,-0.0882094488509998,0.10564088821411133,-0.05592716806216439,-0.009472910314798355,-0.09955262667163649,0.9853907041038004,-0.18969110762656788,right,0.02112787961959839,0.2631882729183134,-0.8341692890755832,-9.432147409799695,0.12635848960391927,-0.06504088640213013,0.03736235201358795,-2.5513012703597546,0.05892251431941986
1773150253036568000,11.266568115234374,-0.08955409093342634,0.08924076706171036,-0.056162074281242334,-0.014961759559810162,-0.09692551764281834,0.9857521487145963,-0.18425136873382084,right,0.04749250411987305,0.2612214293375604,-0.8472986005660146,-9.43599707096517,0.12547457339096704,-0.06732407957315445,0.04252438247203827,-2.532672557735443,0.08244462311267853
1773150253076568000,11.306568115234375,-0.08900136331787382,0.038875069469213486,-0.055682050815844264,0.05637452378869057,-0.09597857152449688,0.9860046082880538,-0.18247468335420236,right,0.03822791576385498,0.25894751292033535,-0.8425926148321479,-9.442176051861047,0.12442879438391241,-0.006797540932893753,0.051026806235313416,-2.5111229892283675,0.01912112534046173
1773150253116568300,11.346568359375,-0.08741891792877604,0.04610558971762657,-0.05474002902779532,0.02520705945789814,-0.09497997670834503,0.9862133857455136,-0.18068769656337327,right,-0.041731417179107666,0.25773982532613066,-0.8279140280731022,-9.446511450716853,0.12395759230931065,-0.002088341396301985,0.07945941388607025,-2.4996724976703524,-0.01096150279045105
1773150253156568300,11.386568359375,-0.08651271251070013,0.037176135927438736,-0.054037770396211576,-0.011766022071242332,-0.09394033803504319,0.9865454766947155,-0.17879931008573052,right,-0.01831120252609253,0.25440624768945197,-0.8200686483349651,-9.45550724259913,0.12240599382239209,-0.06531746685504913,0.09389358758926392,-2.4680475253507494,0.004799559712409973
1773150253196568300,11.426568359375,-0.0856007486864791,0.0282466821372509,-0.05333528213069016,-0.048739105463027954,-0.09290038856596528,0.9868734775269205,-0.17690957489282033,right,0.005097627639770508,0.251074312076981,-0.8121437736198306,-9.464391975322366,0.12085388814461795,-0.1285465955734253,0.10831965506076813,-2.4364104242019353,0.020559415221214294
1773150253236568300,11.466568359375,-0.08285237654419242,0.037171706557273865,-0.05181879237843684,-0.05222419276833534,-0.09242054646301313,0.9871686528414373,-0.17636821320877416,right,-0.013096749782562256,0.2479700363620312,-0.7867511928837746,-9.47407984112203,0.11946203466835163,-0.08979417383670807,0.11461856961250305,-2.4069106273427603,0.002862274646759033
1773150253276568000,11.506568115234375,-0.08010442336939266,0.04609673097729683,-0.050302076790621826,-0.05570927634835243,-0.09194037789857347,0.9874594404277635,-0.17581869523690027,right,-0.031307756900787354,0.24486730151087768,-0.7613078318085521,-9.483604625314474,0.11806966111776383,-0.05104175582528114,0.12091230601072311,-2.377402354916185,-0.014835700392723083
1773150253316568000,11.546568115234376,-0.07735686059674624,0.055021755397319794,-0.048785139165622896,-0.05919436365365982,-0.09145972247516931,0.987745741292039,-0.1752606798856483,right,-0.04953545331954956,0.24176604922510692,-0.7358144210465252,-9.492965743377804,0.11667675460939193,-0.012289334088563919,0.12720094621181488,-2.3478853146612644,-0.03253459930419922
1773150253356568300,11.586568359375,-0.07981750143909916,0.03552043065428734,-0.04995821227332424,-0.06530239433050156,-0.09111262162093156,0.9877059006298451,-0.17425545924595795,right,-0.018096983432769775,0.24216981255136327,-0.7590953433908522,-9.490180496573448,0.11678883309807937,0.00036152638494968414,0.12275519222021103,-2.3517295689992603,-0.005831792950630188
1773150253396568300,11.626568359375,-0.0822787971366698,0.016019107773900032,-0.05113121360074473,-0.07141042500734329,-0.09076544243813521,0.9876645719116829,-0.17324924067502995,right,0.01333606243133545,0.24257118772430414,-0.7823734892562031,-9.487342058277129,0.11690073854191124,0.013012386858463287,0.11830917000770569,-2.3555505885921417,0.02086864411830902
1773150253436568300,11.666568359375,-0.0847407615835504,-0.003482215106487274,-0.0523041326531659,-0.07751846313476562,-0.09041805523111145,0.9876217858393608,-0.1722417684633686,right,0.04476356506347656,0.24297016225542833,-0.8056490047730505,-9.48444984396696,0.11701247000113216,0.02566324733197689,0.11386287212371826,-2.3593485195703803,0.04756671190261841
1773150253476568300,11.706568359375,-0.08278454370156967,-0.05995090305805206,-0.05149172043572699,-0.0815592110157013,-0.09145359036814614,0.9875396658680565,-0.17455700594200893,right,0.014982402324676514,0.2434143866253073,-0.7870070673409849,-9.484962469664216,0.11726088601302805,0.06700446456670761,0.11292020976543427,-2.363576658659428,-0.0038632601499557495
1773150253516568000,11.746568115234375,-0.08047044246212272,-0.1005411446094513,-0.05076175178639855,0.009612597525119781,-0.09323219802190771,0.9871351207996159,-0.17829866255821145,right,0.015379667282104492,0.24804900635069582,-0.7641670936971903,-9.475737545201182,0.11956209603602705,0.1843872368335724,0.09646257013082504,-2.4076612995795905,-0.02218829095363617
1773150253556568000,11.786568115234376,-0.07722456417336737,-0.08226889371871948,-0.04965823189140865,-0.028437990695238113,-0.09521617135361828,0.9866510895980395,-0.18255738625224005,right,0.04174929857254028,0.2537481215003642,-0.7323354928895831,-9.464333523133396,0.12242285217625686,0.1299835443496704,0.060391124337911606,-2.461800739915669,-0.011268287897109985
1773150253596568000,11.826568115234375,-0.07394881067172111,-0.06399664282798767,-0.04855405250250837,-0.06648857891559601,-0.09719879124995784,0.986153819401792,-0.18684149059476013,right,0.06808221340179443,0.2594338273573091,-0.7002833811990916,-9.452570020103455,0.12528196507551503,0.07557983696460724,0.02429717779159546,-2.515732821111381,-0.0003693997859954834
1773150253763113000,11.993113037109374,-0.05714396942905546,-0.007223958615213633,-0.04106832417033219,0.09874779731035233,-0.10131015297486747,0.9858080268618412,-0.19727210731115122,right,0.04523279890418053,0.26251990106419565,-0.540897048297897,-9.455206798347831,0.12740495967709847,-0.048793718218803406,-0.0653277263045311,-2.544972067338228,0.00944722630083561
1773150253803113000,12.033113037109375,-0.055794942378596994,0.15331526100635529,-0.040129339350442245,0.06744658201932907,-0.0994713624279953,0.9860827329435677,-0.19373225677989453,right,0.05137181282043457,0.2614713876191051,-0.5282897513875737,-9.458586503913999,0.1270272558550872,-0.042138222604990005,-0.124538853764534,-2.5350404559105635,0.01285359263420105
1773150253843113200,12.07311328125,-0.05501882390911278,0.05214386433362961,-0.039331319898306995,0.11187654733657837,-0.0971513711031943,0.9865057002499725,-0.18916946811106086,right,0.032816290855407715,0.25868729149932584,-0.5213347080852836,-9.46600467121601,0.125782121199337,-0.04116206243634224,-0.10758715122938156,-2.5086560145929453,0.02653864026069641
1773150253883113200,12.11311328125,-0.05423015478647039,-0.049027517437934875,-0.03853299292121604,0.15630652010440826,-0.09483058338288344,0.9869210217707687,-0.18460769653022674,right,0.014252543449401855,0.25590665837266385,-0.5142451151505112,-9.473341589975357,0.12453602013112733,-0.04018590226769447,-0.09064917266368866,-2.4822850172787905,0.0402250736951828
1773150253923113200,12.15311328125,-0.05081059638156757,-0.09806941449642181,-0.03698331665006179,0.062182001769542694,-0.09606656113241564,0.9869112682781741,-0.18755794074536244,right,0.012388050556182861,0.25487783203159675,-0.4819769495565444,-9.477589895069599,0.1241355109974328,-0.01251518540084362,-0.08690894395112991,-2.4725229171991345,0.07511129975318909
1773150253963113000,12.193113037109375,-0.051434799988567786,-0.029774539172649384,-0.03741777506232991,0.07254748046398163,-0.09690121713631857,0.9867838669763025,-0.18916290773164915,right,-0.039550602436065674,0.25547221684052773,-0.4878171634847298,-9.47581820922196,0.12436901317489135,0.0069900937378406525,-0.058318667113780975,-2.4781632611736653,0.07574747502803802
1773150254003113000,12.233113037109375,-0.0520581354591903,0.03852032870054245,-0.037852198974418605,0.08291295170783997,-0.0977357039654665,0.9866555195848957,-0.1907675805850484,right,-0.09149014949798584,0.2560675681115291,-0.49364681948628275,-9.474037171024083,0.12460239854012876,0.026495376601815224,-0.02972947433590889,-2.483811496193707,0.0763845145702362
1773150254043113000,12.273113037109376,-0.047940626783515336,-0.05859564244747162,-0.03586134487528367,0.10404361039400101,-0.09758230647632829,0.9866820255322178,-0.1909699399683386,right,-0.0894465446472168,0.25667706502933124,-0.45456068097315727,-9.474475562441349,0.12510059752804145,0.05960672348737717,-0.03455623611807823,-2.489593294465542,0.08925193548202515
1773150254083113200,12.31311328125,-0.04357465110896212,-0.042679376900196075,-0.034071017874542135,0.0030952095985412598,-0.09865732140341851,0.9863527638354384,-0.19366466740505808,right,-0.12003594636917114,0.26086529439481027,-0.41273331746049224,-9.465869646659494,0.12733474567345296,0.10800648480653763,-0.028078027069568634,-2.529298405127227,0.024164527654647827
1773150254123113200,12.35311328125,-0.04961294680554447,0.023421846330165863,-0.03719145735830252,-0.26888519525527954,-0.0990778917935982,0.9860428023346677,-0.19370251247044423,right,-0.04642593860626221,0.2638941303866395,-0.46950109700616444,-9.455510165208578,0.1285299881353424,0.04910916090011597,-0.0471198745071888,-2.557984401385486,0.001132667064666748
1773150254163113200,12.39311328125,-0.06201445394149291,0.0727403312921524,-0.04318578601090665,-0.2998518943786621,-0.09850518305304819,0.9858430337475151,-0.1909034592572824,right,0.058088600635528564,0.26522069294232875,-0.5865137576235457,-9.44556510977745,0.12862808514078566,0.01905948668718338,-0.048312872648239136,-2.5705411006197334,0.03792300820350647
1773150254203113000,12.433113037109376,-0.07212161443429219,0.04810725525021553,-0.048062789063693295,-0.1827234923839569,-0.09811859806388878,0.9856690295559399,-0.1887861133193233,right,0.09555339813232422,0.26592515043033904,-0.6818193576171994,-9.437346732008457,0.12852706999953878,0.03455057740211487,-0.032165251672267914,-2.577207280510664,0.03131332993507385
1773150254243113000,12.473113037109375,-0.07755664007544899,-0.05108252540230751,-0.05070313143911372,-0.05567854642868042,-0.09795985578228551,0.9855411554883723,-0.18773851973245428,right,0.07713907957077026,0.26658972735962677,-0.7329683839656412,-9.431792020490764,0.12861432838444484,-0.009805936366319656,0.018797732889652252,-2.5834946902170777,0.08813562989234924
1773150254406415600,12.63641552734375,-0.07114644571683874,0.02055400237441063,-0.04852603922010277,-0.09221712499856949,-0.10372273282500269,0.9848108777674405,-0.20018858850597143,right,0.006518074311316013,0.270415779165758,-0.6717865508373826,-9.426367657354474,0.130515223015164,0.05096796154975891,0.0005545302992686629,-2.619671042230725,-0.020206311717629433
1773150254446415600,12.67641552734375,-0.07353239585109143,0.025280369445681572,-0.049509139478885224,-0.03758181631565094,-0.10287722755116277,0.9849460245630908,-0.19818605148359691,right,0.030902564525604248,0.2691016341590409,-0.6945278133470565,-9.42816330859959,0.12979329726040184,0.02661707252264023,0.012457199394702911,-2.607249952074885,-0.006125837564468384
1773150254486416000,12.716415771484375,-0.07591477097122036,0.030006736516952515,-0.05049214207241415,0.01705348864197731,-0.10203152865957797,0.9850790805623374,-0.19618758615551093,right,0.05528128147125244,0.26778296485044767,-0.7172473754815757,-9.42990226122141,0.12907110357776486,0.0022661853581666946,0.024357661604881287,-2.594781223385036,0.007949799299240112
1773150254526416000,12.756415771484376,-0.07829354017460603,0.03473310172557831,-0.05147502503214389,0.07168879359960556,-0.10118552900872499,0.9852098245937004,-0.1941929267431719,right,0.07965421676635742,0.2664596656443231,-0.739944798849523,-9.431583930698036,0.12834862148703813,-0.022084703668951988,0.036255862563848495,-2.5822642716392874,0.022020548582077026
1773150254566416000,12.796415771484375,-0.08006537783121202,0.03453831002116203,-0.05216533883546747,0.04662061482667923,-0.10009186465729239,0.9853263043293327,-0.19175802769304237,right,0.1666761040687561,0.26587222618108897,-0.756776033597812,-9.431768639615177,0.12803286291258514,0.005483569577336311,0.03697514161467552,-2.5767063452512025,0.06855086982250214
1773150254606416000,12.836415771484376,-0.08183546918778245,0.03434351831674576,-0.05285556648671556,0.021552439779043198,-0.09899797661592098,0.9854410290996117,-0.18932450692302827,right,0.2536957859992981,0.2652806442953427,-0.7735944088645279,-9.4319317212224,0.12771688504613818,0.03305184096097946,0.03769310563802719,-2.571108379113674,0.11507710814476013
1773150254646415600,12.87641552734375,-0.08360376951531481,0.03414872661232948,-0.05354570798588626,-0.0035157371312379837,-0.09790399458027908,0.985553968202729,-0.18689263199855918,right,0.3407133221626282,0.26468493098147466,-0.7903994131930172,-9.432073760041593,0.12740068788769654,0.06062011420726776,0.03840971738100052,-2.565470373226702,0.161599263548851
1773150254686415600,12.91641552734375,-0.08337583832150627,0.048103637993335724,-0.0537444236563774,-0.10162913054227829,-0.09775033293444993,0.9850409280039792,-0.18637928563518233,right,0.2753693461418152,0.2726253543267967,-0.7865282708480954,-9.411656410434842,0.1313415903271493,0.2835449278354645,0.003088630735874176,-2.6405457802161574,-0.003988355398178101
1773150254726416000,12.956415771484375,-0.08240060632614934,0.002170223742723465,-0.05368225627625029,0.17031115293502808,-0.0968545515397638,0.984245667544404,-0.1843246137834127,right,0.2869056463241577,0.2855871154762001,-0.7744670269805938,-9.377519163033366,0.13783250576827524,0.3116448223590851,0.04120606929063797,-2.7627374509066343,0.07749426364898682
1773150254766416000,12.996415771484376,-0.07808704034865714,-0.015989959239959717,-0.05174912134263224,0.11086434125900269,-0.09601495984068895,0.9839400356106155,-0.18305489201510014,right,0.15164554119110107,0.29213164540465403,-0.7325832571055739,-9.362546050307154,0.14129765044750564,0.18352124094963074,0.008740134537220001,-2.8242583797961474,0.05475062131881714
1773150254806416000,13.036415771484375,-0.07377355144238226,-0.0341501422226429,-0.049815125631248056,0.05141753330826759,-0.0951738198292671,0.9836181428323187,-0.1818122760261822,right,0.01632404327392578,0.2986813484425098,-0.6908130306076258,-9.346970295512676,0.14476044623499423,0.055397674441337585,-0.023714222013950348,-2.885706535710394,0.03199958801269531
1773150254846416000,13.076415771484376,-0.0693200444103457,-0.15402203798294067,-0.04804874138930943,0.24191920459270477,-0.09596567451300692,0.9831441110647869,-0.18394817531301216,right,-0.043004751205444336,0.30497458624234414,-0.6479088316436856,-9.33165231487155,0.14801841929761897,0.25254514813423157,0.025402959436178207,-2.944632187409699,0.056142956018447876
1773150254886415600,13.11641552734375,-0.06935867615880956,0.004529893398284912,-0.04853103795526643,-0.01796339452266693,-0.09719580059368381,0.982509299275769,-0.1863104218394123,right,-0.013424932956695557,0.31164072885719335,-0.646894540034607,-9.311838191854953,0.15123862967421617,0.18504773080348969,0.02669592574238777,-3.0069223471060393,-0.0012643635272979736
1773150254926415600,13.15641552734375,-0.06267195740450324,0.018391713500022888,-0.04574175156524862,0.058698251843452454,-0.09777054570737524,0.9819519722202104,-0.18838481518543188,right,-0.15495824813842773,0.3193433176053825,-0.5831469846041872,-9.292563582542538,0.15530227712363248,0.1218353882431984,-0.06494889408349991,-3.0787305689930915,-0.03982242941856384
1773150254966415600,13.19641552734375,-0.05998496432586603,-0.02657148614525795,-0.04446256502388723,0.14293396472930908,-0.09636250108249834,0.9816929750296437,-0.18586147834600564,right,-0.16306018829345703,0.32478891921381736,-0.5571625023895874,-9.277223974591493,0.158165387673699,0.13598553836345673,0.02935970202088356,-3.1293875740408894,0.03656470775604248
1773150255006416000,13.236415771484374,-0.061991929367556244,0.09499803185462952,-0.04545032791142083,0.11456720530986786,-0.09564740723451853,0.9814520204497014,-0.18402679803832317,right,-0.032794952392578125,0.3282396123827631,-0.5751080185227095,-9.26525413533449,0.15980542469116635,0.27396512031555176,0.060959890484809875,-3.1614395396009085,-0.04517468810081482
1773150255046416000,13.276415771484375,-0.05631413693717673,-0.09280939400196075,-0.043228376970201925,-0.09581822156906128,-0.09703188434649118,0.9808863787706509,-0.18769652087178512,right,-0.18511295318603516,0.33441096733249703,-0.521384757772088,-9.24871450394392,0.1630279355081372,-0.007106870412826538,-0.047234803438186646,-3.218668324254453,-0.06490164995193481
1773150255086416000,13.316415771484374,-0.05972235812893089,-0.024168364703655243,-0.045280057128140254,-0.14128810167312622,-0.09989520044841754,0.9806444689960999,-0.19298482497014666,right,-0.11188405752182007,0.3332941754595924,-0.5531175378477201,-9.25046631604731,0.16219495613935875,-0.0019877832382917404,-0.012177694588899612,-3.2083208255022764,-0.1298356056213379
1773150255126415600,13.35641552734375,-0.06313545697634719,0.044472649693489075,-0.047331125759078545,-0.18675796687602997,-0.10275714056082713,0.9803895721001741,-0.19827495721551858,right,-0.038673222064971924,0.33219436265940927,-0.5849092815689743,-9.252040433496235,0.1613598273942945,0.00313130347058177,0.02288541942834854,-3.198127056007087,-0.19475391507148743
1773150255166415600,13.39641552734375,-0.0598813939246834,-0.08642071485519409,-0.04616621612044924,-0.16216999292373657,-0.10397382164340034,0.9799705925124028,-0.20124041294954056,right,-0.18693411350250244,0.3362522500985982,-0.554018286079727,-9.24086437496543,0.16344949343262155,-0.1259734332561493,-0.06640461087226868,-3.2357191200375555,-0.01966807246208191
1773150255206415600,13.43641552734375,-0.06614693048581077,0.07372133433818817,-0.04886225743186455,0.23333370685577393,-0.10184449432117049,0.9799730907961589,-0.19582613323701809,right,-0.009611129760742188,0.3377507359670406,-0.6115848513202742,-9.232363088601828,0.1639907490321143,0.24000284075737,0.057003118097782135,-3.249587778653204,0.09832495450973511
1773150255246416000,13.476415771484374,-0.07058108502383185,0.06631344556808472,-0.050934989591059195,-0.37187182903289795,-0.1025145022992321,0.9801192837397256,-0.19651615785509427,right,-0.054759442806243896,0.3343070895230151,-0.6533017036631703,-9.240668560132384,0.16205759556930005,-0.12568411231040955,-0.02388511598110199,-3.217705908963084,-0.16009914875030518
1773150255286416000,13.516415771484375,-0.06652191404949934,-0.009787686169147491,-0.04894971465876084,0.05226743221282959,-0.10202677978005768,0.9801797064171891,-0.19618110141447492,right,-0.21568739414215088,0.3349937684023383,-0.6156400084625929,-9.241037393444776,0.16261044739034403,-0.2854827642440796,-0.05407892167568207,-3.2240663839057087,0.014219492673873901
1773150255326416000,13.556415771484374,-0.06986293405554056,0.09720291197299957,-0.04976918847883902,0.5375614166259766,-0.09902562631722707,0.9809723233756075,-0.1896281077846873,right,0.02738058567047119,0.328476958955381,-0.6479639228317886,-9.259691825032233,0.15940558883556297,0.17347869277000427,0.12331316620111465,-3.1636428948640822,0.10626570880413055
1773150255366415600,13.59641552734375,-0.06653542574545622,-0.029482513666152954,-0.047930279706049475,0.3715054988861084,-0.09834273749503243,0.9813631454054402,-0.18883483966074352,right,-0.10319793224334717,0.32520136583520504,-0.6178343767017126,-9.272086611703038,0.1579804659892369,0.01028493046760559,0.031787559390068054,-3.1332205763325094,0.14407384395599365
1773150255406415600,13.63641552734375,-0.06320884112891133,-0.15616793930530548,-0.046091073863669056,0.20544956624507904,-0.097659161307694,0.981747939401304,-0.18803073692375472,right,-0.23379749059677124,0.3219281568078824,-0.5876312904113903,-9.284276231190562,0.1565543485748118,-0.1529088318347931,-0.05974557623267174,-3.1027871518850323,0.18188074231147766
1773150255446415600,13.67641552734375,-0.06857842798460906,0.045672595500946045,-0.04847009762110889,0.1402052342891693,-0.09834838229548637,0.9821568547282322,-0.18871477761331823,right,0.00936424732208252,0.3148462796601223,-0.6389650622095913,-9.302676395756006,0.15279453480307534,0.07898035645484924,0.09644019603729248,-3.036828240548074,0.005562931299209595
1773150255486416000,13.716415771484375,-0.06558625753482623,-0.04083345830440521,-0.04700207314747324,0.16539157927036285,-0.09864006373130013,0.9823217683224009,-0.1898073666065829,right,-0.07105135917663574,0.31298914655186266,-0.6114956021342426,-9.310157691422104,0.15200282056835243,-0.004003249108791351,0.03636425733566284,-3.019505934347212,0.06485545635223389
1773150255526416000,13.756415771484376,-0.0625979889524075,-0.12733951210975647,-0.045533892542290726,0.1905779242515564,-0.09893144377823047,0.9824839044219692,-0.19089344400720698,right,-0.15147781372070312,0.31112886431986775,-0.5840220138730481,-9.317533773148059,0.15121063481650632,-0.08698685467243195,-0.02371210977435112,-3.0021438806578513,0.12414388358592987
1773150255566416000,13.796415771484375,-0.06562921193443179,0.0651014894247055,-0.046862991867184615,0.26273277401924133,-0.09918810272270419,0.9827044158201269,-0.1910176299248973,right,0.029752612113952637,0.30733074579422187,-0.6130062258929014,-9.327031084811686,0.14918984034988458,0.18588440120220184,0.1066698208451271,-2.966663694214821,-0.03758171200752258
1773150255606416000,13.836415771484376,-0.06071665636851281,0.01364661380648613,-0.04463756969654978,-0.44307437539100647,-0.10022101070892063,0.9827168472910512,-0.1938744882796279,right,-0.2595127820968628,0.3067834919980361,-0.5672778728863224,-9.331549439018964,0.14910023738201164,-0.2922953963279724,-0.11331246793270111,-2.9615482508972284,-0.11343178153038025
1773150255646415600,13.87641552734375,-0.05966297942195728,-0.031102217733860016,-0.04380382613368583,0.45280721783638,-0.09739551801800289,0.9828354937305902,-0.18824924543985658,right,-0.203718900680542,0.3091324431694009,-0.5570287564747035,-9.325172305202484,0.15043195298852866,0.06215566396713257,-0.007117792963981628,-2.9834996782034633,0.15530210733413696
1773150255686415600,13.91641552734375,-0.06395780188478017,0.12347964197397232,-0.0456103890263348,-0.00727766752243042,-0.09803785734911866,0.9833341513966998,-0.18904288667779529,right,-0.031549274921417236,0.3009087887503974,-0.5986214344486593,-9.346863328006863,0.1461584515940462,-0.0043225884437561035,0.058266572654247284,-2.906576012998819,-0.13523417711257935
1773150255726416000,13.956415771484375,-0.06254970287835926,0.1443946808576584,-0.044585747512515664,0.16600528359413147,-0.09616268401978693,0.9836631063091994,-0.1854668430490305,right,-0.07634645700454712,0.2992789101269837,-0.5857548655476421,-9.352412778827548,0.14550524172696616,0.10647474974393845,0.05434451997280121,-2.8913068399354813,-0.023957937955856323
1773150255766416000,13.996415771484376,-0.06113621712520696,0.16530971229076385,-0.04356087890857513,0.33928823471069336,-0.09428703071992435,0.9839870250151688,-0.18189021108464712,right,-0.12114906311035156,0.29765384796873856,-0.572821113161929,-9.35790845363438,0.14485128951691553,0.2172721028327942,0.05041562020778656,-2.876074784012139,0.0873221755027771
1773150255806416000,14.036415771484375,-0.06320635521717195,0.055019207298755646,-0.04427759465595349,-0.3381285071372986,-0.09342817994301332,0.9843156280310735,-0.17990832622434494,right,-0.16357308626174927,0.29389266333180153,-0.5928710907610133,-9.367432653304935,0.14294531744505523,-0.05519181489944458,-0.04819545894861221,-2.840791873706877,-0.04072153568267822
1773150255846416000,14.076415771484376,-0.0660513650871341,-0.042578794062137604,-0.04555888245900678,-0.0330868661403656,-0.09205221626293011,0.9841959710139666,-0.17664447193907545,right,-0.22913670539855957,0.2966672273369822,-0.6189964792836458,-9.357806746825576,0.1442533134438864,-0.08041708171367645,-0.036947667598724365,-2.866823556064069,0.13303010165691376
1773150255886415600,14.11641552734375,-0.07255137138230677,0.07436739653348923,-0.04868880444631317,-0.013839801773428917,-0.09252893118576161,0.9841729428101118,-0.17670249619630607,right,-0.04168766736984253,0.2948929703149845,-0.6801764127157628,-9.358644366693497,0.14307810340236998,0.15582159161567688,0.018475811928510666,-2.8501795875161884,-0.0069731175899505615
1773150255926415600,14.15641552734375,-0.07308947767685545,-0.02561134845018387,-0.048979842105943826,-0.057240672409534454,-0.09194082127932772,0.9839953648174845,-0.17535845341263542,right,-0.12278050184249878,0.2979083778081906,-0.6845815888721496,-9.349662603336572,0.14457124242557023,0.03937375545501709,-0.03341604024171829,-2.8784610946267843,0.04639720916748047
1773150255966415600,14.19641552734375,-0.07518911111219759,-0.06177037954330444,-0.05034863037263769,-0.12083671987056732,-0.09309860548877043,0.9834888922845781,-0.17728748259641214,right,-0.09149277210235596,0.30270812628263644,-0.703164927984774,-9.334320072776078,0.14678941440155205,0.08107949793338776,-0.02023257315158844,-2.9234239796862003,0.04289901256561279
1773150256006416000,14.236415771484374,-0.07728221873633072,-0.09792941063642502,-0.05171699531829549,-0.1844327747821808,-0.09425556197127821,0.9829741787436785,-0.17920875793586455,right,-0.06023138761520386,0.30751171123164966,-0.7216086394309997,-9.318719183540344,0.14900634776896873,0.12278524041175842,-0.007063336670398712,-2.968355300563574,0.03939765691757202
1773150256046416000,14.276415771484375,-0.07780496902196113,-0.0750783160328865,-0.05252380134806987,-0.047713831067085266,-0.09578130466513879,0.9821862511921394,-0.18203469003656653,right,-0.11372905969619751,0.31562101176139723,-0.7245850248932838,-9.294036577704547,0.15289629150260126,0.1628897339105606,-0.01806499809026718,-3.044051469799876,0.03565409779548645
1773150256086416000,14.316415771484374,-0.07893631291769225,0.0052397772669792175,-0.0534944961999431,0.01046496257185936,-0.09688544592691117,0.9815496790039093,-0.1839499572155515,right,-0.07147413492202759,0.32199194461779795,-0.7335551708776503,-9.273689370724558,0.15592235929680773,0.22967121005058289,0.006390787661075592,-3.1033804416030644,-0.035654425621032715
1773150256126415600,14.35641552734375,-0.07934049637533923,-0.13608679175376892,-0.05417512889692987,-0.043384894728660583,-0.09797884240123064,0.9808062713117293,-0.18592580922182844,right,-0.11657005548477173,0.32970502125293216,-0.7353843590661883,-9.24925518669188,0.15963800815860232,0.10888662934303284,-0.00373908132314682,-3.175039610408246,0.09061488509178162
1773150256166415600,14.39641552734375,-0.08226157604111317,-0.12325429916381836,-0.05634487089835235,-0.09251756966114044,-0.10090618976939603,0.9798549634880898,-0.1912412064413779,right,-0.13799774646759033,0.33689093389423874,-0.7605045526016503,-9.224090350297093,0.16287273010729333,0.06927958130836487,0.0043867528438568115,-3.2416312666907903,0.07576906681060791
1773150256206415600,14.43641552734375,-0.08514952012870865,-0.1104218065738678,-0.05851323857506021,-0.1416502445936203,-0.10383104706832039,0.9788794821249577,-0.19654783072610046,right,-0.1594831943511963,0.3440914340429236,-0.7851345514673739,-9.19836028123498,0.16610345447923633,0.029672536998987198,0.01246257871389389,-3.3081898974865673,0.060919880867004395
1773150256246416000,14.476415771484374,-0.08744171575508497,-0.06196083128452301,-0.060013557826044804,-0.11002357304096222,-0.10478779168892956,0.9782260297736549,-0.1979604935158455,right,-0.14421230554580688,0.34991402527579485,-0.8045210236564279,-9.17719182099998,0.16879517485482615,-0.02145751193165779,0.008733317255973816,-3.3618867086216806,0.059761613607406616
1773150256286416000,14.516415771484375,-0.08973006185568719,-0.013499855995178223,-0.061513235477826896,-0.07839689403772354,-0.10574341534138214,0.9775619404887169,-0.199361968702754,right,-0.12897783517837524,0.35573966849030525,-0.8237504786528647,-9.155665048846602,0.17148508168521673,-0.07258754968643188,0.004988059401512146,-3.415497302778065,0.05859461426734924
1773150256326416000,14.556415771484374,-0.09088924644320504,-0.043946195393800735,-0.06220971196822085,0.006653681397438049,-0.10662861529287565,0.9774570069478036,-0.20097485297363746,right,-0.08648782968521118,0.35555600269792825,-0.8344199759010225,-9.155328364238143,0.17128373534056787,0.02096536010503769,0.034283094108104706,-3.4138089112997054,-0.018955767154693604
1773150256366415600,14.59641552734375,-0.09294336735448756,-0.02026483416557312,-0.06345290565262994,-0.21538512408733368,-0.10831566606150521,0.9772777179401909,-0.2040837387975884,right,-0.13188743591308594,0.35497591230063663,-0.8534080233570188,-9.155565095603466,0.17079172367359785,-0.054818205535411835,-0.054848916828632355,-3.40847544131726,-0.06838300824165344
1773150256406415600,14.63641552734375,-0.10025746709649531,-0.021669834852218628,-0.06702604677341632,-0.011884987354278564,-0.10881411126406215,0.9770087091421238,-0.20381103518031612,right,-0.004277169704437256,0.3554770827952907,-0.9201781780116259,-9.147377697494626,0.17064888886196772,0.1351453959941864,0.024411864578723907,-3.413083519634604,-0.00803530216217041
1773150256446415600,14.67641552734375,-0.10291101974359432,-0.012815093621611595,-0.0687125582146125,-0.025694046169519424,-0.11039935644101191,0.9764513128274194,-0.2064772218819797,right,0.09382021427154541,0.35901457084437965,-0.9432017645940184,-9.132836546444892,0.17214384042355368,0.06828238070011139,0.0390019454061985,-3.445584105744958,0.01495775580406189
1773150256486416000,14.716415771484375,-0.10555800256146892,-0.003960351459681988,-0.07039853265430666,-0.039503104984760284,-0.1119838127404964,0.9758861867693487,-0.20913709792038723,right,0.1918984055519104,0.3625586825391403,-0.96608017055206,-9.11810717934668,0.17363743476356466,0.00141935795545578,0.05357722193002701,-3.478102227512002,0.03795263171195984
1773150256526416000,14.756415771484376,-0.10819846602511489,0.004894389770925045,-0.07208394714484676,-0.053312160074710846,-0.11356731976503809,0.975313231974053,-0.21179035433080756,right,0.2899574637413025,0.3661092567139579,-0.9888130305595696,-9.103190180721878,0.1751296328010882,-0.06544365733861923,0.06813766062259674,-3.5106361313700676,0.06094899773597717
1773150256566416000,14.796415771484375,-0.10824917408040373,-0.024308793246746063,-0.0721485493639469,-0.04655446857213974,-0.11446411499895885,0.9754530739542442,-0.21371352497562182,right,0.40045231580734253,0.36340356868562756,-0.99029720470272,-9.11254954521954,0.1737350289699788,-0.1291009783744812,0.04479186236858368,-3.485848019333184,0.11770610511302948
1773150256606416000,14.836415771484376,-0.10629084046617872,-0.036482468247413635,-0.07089398136852078,0.01445433497428894,-0.11435321384106348,0.9761367787313325,-0.2140680289072434,right,0.3783436417579651,0.35648807899226426,-0.9749841194324195,-9.138223500180244,0.1704532448435189,-0.15194061398506165,0.046920835971832275,-3.4223762486368416,0.101705402135849
1773150256646415600,14.87641552734375,-0.1043400662863947,-0.04865614324808121,-0.0696384888839966,0.07546314597129822,-0.11424085336549795,0.9768079543957173,-0.21440723334325834,right,0.3561874032020569,0.3495719215221424,-0.9595979689259082,-9.163430422151087,0.16716926215865754,-0.1747802495956421,0.04904237389564514,-3.3587349665924906,0.08568739891052246
1773150256686415600,14.91641552734375,-0.10239667671649806,-0.06082981824874878,-0.06838211110933903,0.1364719420671463,-0.11412698783435739,0.977466639167255,-0.21473118832754368,right,0.33398330211639404,0.34265518652557153,-0.944140141422674,-9.188167973044514,0.16388314525400066,-0.19761988520622253,0.051156602799892426,-3.2949273880705237,0.06965252757072449
1773150256859167000,15.0891669921875,-0.07493998115359178,0.07107999920845032,-0.055912064272275755,0.23386253416538239,-0.11832682895837139,0.977780089553446,-0.2279907333824736,right,-0.05939926952123642,0.33999497299995923,-0.6921930137239396,-9.219332926636934,0.16376410288913104,-0.001313825836405158,0.025899188593029976,-3.2703447354778645,0.12955927848815918
1773150256899167000,15.1291669921875,-0.07298292664158655,0.041264720261096954,-0.05484964350234138,0.1859114021062851,-0.11819604753470067,0.978012412070685,-0.2280873839344798,right,-0.025175929069519043,0.3378525527941242,-0.674658379946649,-9.227636644601821,0.16282809032370651,0.02414327673614025,0.02533344179391861,-3.2505297356784344,0.07308238744735718
1773150256939167000,15.1691669921875,-0.07102756776309428,0.011449441313743591,-0.05378711543348802,0.1379602700471878,-0.11806502675537914,0.9782426820113782,-0.2281795262458574,right,0.009039521217346191,0.3357099538664657,-0.6571065027736127,-9.23586379019916,0.16189174020509142,0.049600377678871155,0.024765949696302414,-3.2306983692660927,0.016603827476501465
1773150256979167000,15.2091669921875,-0.06907383375750387,-0.01836583763360977,-0.05272447051075011,0.09000913798809052,-0.1179338505781692,0.9784709068935746,-0.22826735452221023,right,0.0432472825050354,0.3335671660724892,-0.639537163009122,-9.24401494795084,0.16095504109880934,0.07505747675895691,0.024196673184633255,-3.2108506362408398,-0.03987643122673035
1773150257019167000,15.2491669921875,-0.06523543343095695,-0.017971506342291832,-0.05098804828051634,0.03008360043168068,-0.11806905839733912,0.97840794647433,-0.22915828145211373,right,0.018923401832580566,0.33486745421665914,-0.6037776116354391,-9.242228064534068,0.1617953783096762,0.017719391733407974,0.0013379380106925964,-3.222896463343501,0.005855947732925415
1773150257059167000,15.2891669921875,-0.06483300645710331,-0.001916985958814621,-0.051055327738609595,-0.030039604753255844,-0.11863067759674498,0.9780822638924062,-0.23033278305560054,right,0.007908105850219727,0.3380041822445683,-0.5994003098666668,-9.232336785116791,0.16332542683141718,0.01713573932647705,-0.010406814515590668,-3.251932588213682,-0.004663318395614624
1773150257099167200,15.329167236328125,-0.0644262796365695,0.01413753442466259,-0.05112248258866917,-0.09016281366348267,-0.11919190393145666,0.9777538802555956,-0.2315097845275676,right,-0.0031162500381469727,0.3411404863356206,-0.5949856717621907,-9.222356073850392,0.1648550357507245,0.016552088782191277,-0.02215537056326866,-3.280933057248592,-0.01518625020980835
