time,seconds_elapsed,z,y,x
1773150241880453000,0.110453125,-15.94671630859375,115.64027404785156,-119.56002807617188
1773150241890548200,0.12054833984375,-16.0313720703125,115.970703125,-119.32420349121094
1773150241900642000,0.13064208984375,-16.873367309570312,115.962646484375,-119.25390625
1773150241910737200,0.140737060546875,-16.658538818359375,116.14117431640625,-119.07366943359375
1773150241920832300,0.150832275390625,-17.031753540039062,115.94075012207031,-118.80574035644531
1773150241930927000,0.160927001953125,-17.541107177734375,115.846435546875,-118.52479553222656
1773150241941028000,0.171028076171875,-17.828857421875,115.32546997070312,-118.12654113769531
1773150241951118300,0.181118408203125,-18.018661499023438,115.15251159667969,-118.15670776367188
1773150241961213200,0.191213134765625,-17.174423217773438,114.68074035644531,-117.89456176757812
1773150241971309300,0.201309326171875,-17.3394775390625,114.81517028808594,-118.34217834472656
1773150241981404200,0.211404052734375,-17.773971557617188,114.84559631347656,-118.43251037597656
1773150241991499300,0.221499267578125,-17.639328002929688,115.10475158691406,-118.58885192871094
1773150242001595100,0.23159521484375,-17.214065551757812,115.36967468261719,-118.76402282714844
1773150242011690200,0.241690185546875,-16.961090087890625,115.4356689453125,-118.62025451660156
1773150242021786000,0.2517861328125,-16.962890625,115.34844970703125,-118.69639587402344
1773150242031881200,0.261881103515625,-16.840316772460938,115.14628601074219,-118.60848999023438
1773150242041976300,0.271976318359375,-17.093780517578125,115.39944458007812,-118.62919616699219
1773150242052076000,0.282075927734375,-17.20562744140625,115.28114318847656,-118.72456359863281
1773150242062171100,0.292171142578125,-17.220855712890625,115.22032165527344,-118.35710144042969
1773150242072260000,0.302260009765625,-17.3687744140625,115.29156494140625,-118.75978088378906
1773150242082359000,0.312359130859375,-17.353408813476562,115.16154479980469,-118.65638732910156
1773150242092449300,0.32244921875,-17.39453125,114.86781311035156,-118.59672546386719
1773150242102548200,0.33254833984375,-16.900588989257812,115.07386779785156,-118.60966491699219
1773150242112637000,0.342636962890625,-17.16094970703125,114.78375244140625,-118.62648010253906
1773150242122735000,0.352735107421875,-16.92132568359375,115.12467956542969,-119.01487731933594
1773150242132828200,0.362828125,-16.74432373046875,115.28602600097656,-119.13542175292969
1773150242142918100,0.372918212890625,-16.713272094726562,115.10453796386719,-119.05288696289062
1773150242153013200,0.38301318359375,-16.164138793945312,115.31094360351562,-119.07917785644531
1773150242163108000,0.393108154296875,-16.34185791015625,114.80877685546875,-119.28439331054688
1773150242173208300,0.403208251953125,-15.980010986328125,114.90469360351562,-119.43360900878906
1773150242183303200,0.41330322265625,-16.266921997070312,114.91139221191406,-119.56654357910156
1773150242193394200,0.423394287109375,-16.4241943359375,114.54679870605469,-119.468017578125
1773150242203489000,0.433489013671875,-15.992706298828125,114.34773254394531,-119.44953918457031
1773150242213584100,0.443584228515625,-16.312332153320312,114.42366027832031,-119.50735473632812
1773150242223683000,0.45368310546875,-16.247283935546875,114.39920043945312,-119.49551391601562
1773150242233773300,0.463773193359375,-16.309356689453125,114.31668090820312,-119.41551208496094
1773150242243873000,0.473873046875,-15.74468994140625,114.22340393066406,-119.63792419433594
1773150242253967000,0.483967041015625,-15.855514526367188,114.33538818359375,-119.86163330078125
1773150242264058000,0.49405810546875,-15.393936157226562,114.20332336425781,-120.09574890136719
1773150242274153200,0.5041533203125,-14.755508422851562,114.10140991210938,-120.31559753417969
1773150242284254000,0.51425390625,-14.729766845703125,113.853515625,-120.58601379394531
1773150242294348300,0.524348388671875,-13.557937622070312,114.14010620117188,-120.64707946777344
1773150242304443100,0.534443115234375,-13.835235595703125,113.92147827148438,-121.11721801757812
1773150242314537000,0.544536865234375,-13.412002563476562,114.14515686035156,-121.25491333007812
1773150242324632000,0.554632080078125,-13.320404052734375,113.99331665039062,-121.53599548339844
1773150242334722000,0.56472216796875,-13.032470703125,113.7900390625,-121.54986572265625
1773150242344822300,0.574822265625,-12.736007690429688,113.63967895507812,-121.55155944824219
1773150242354911000,0.584910888671875,-12.015533447265625,113.70314025878906,-121.54946899414062
1773150242365010000,0.595010009765625,-11.957962036132812,113.91429138183594,-121.71134948730469
1773150242375106000,0.60510595703125,-11.90264892578125,113.90522766113281,-121.93882751464844
1773150242385196300,0.6151962890625,-12.345169067382812,113.58572387695312,-122.06892395019531
1773150242395292200,0.625292236328125,-11.968597412109375,113.72682189941406,-121.97013854980469
1773150242405392100,0.63539208984375,-11.98480224609375,113.51251220703125,-121.96235656738281
1773150242415482000,0.645482177734375,-12.513275146484375,113.47966003417969,-121.96656799316406
1773150242425583000,0.6555830078125,-12.392562866210938,113.12617492675781,-121.84024047851562
1773150242435678200,0.66567822265625,-12.095138549804688,113.03926086425781,-121.82929992675781
1773150242445772300,0.675772216796875,-12.30718994140625,112.97410583496094,-121.80854797363281
1773150242455865000,0.685864990234375,-12.11944580078125,113.05934143066406,-122.02960205078125
1773150242465959200,0.695959228515625,-11.868133544921875,112.74436950683594,-121.97837829589844
1773150242476052000,0.706052001953125,-11.970046997070312,112.88386535644531,-122.16375732421875
1773150242486146300,0.716146240234375,-11.635574340820312,112.77310180664062,-121.87771606445312
1773150242496235000,0.726235107421875,-11.818023681640625,112.86152648925781,-122.12754821777344
1773150242506329000,0.7363291015625,-11.535629272460938,112.27964782714844,-122.16093444824219
1773150242516429300,0.74642919921875,-11.316024780273438,112.58718872070312,-122.43170166015625
1773150242526519300,0.756519287109375,-11.558807373046875,112.6876220703125,-122.25933837890625
1773150242536619300,0.766619384765625,-11.1597900390625,112.74411010742188,-122.26097106933594
1773150242546709200,0.776709228515625,-11.570068359375,112.68486022949219,-122.50825500488281
1773150242556808200,0.78680810546875,-11.191619873046875,112.8319091796875,-122.61483764648438
1773150242566903000,0.796903076171875,-10.922515869140625,112.66453552246094,-122.43829345703125
1773150242576997400,0.806997314453125,-11.114578247070312,112.47695922851562,-122.3343505859375
1773150242587090200,0.817090087890625,-11.040374755859375,112.7498779296875,-122.57015991210938
1773150242597184300,0.827184326171875,-11.052871704101562,112.72770690917969,-122.50543212890625
1773150242607271200,0.837271240234375,-11.162673950195312,112.76641845703125,-122.72161865234375
1773150242617366300,0.8473662109375,-11.244491577148438,112.59268188476562,-122.54621887207031
1773150242627460400,0.85746044921875,-10.774307250976562,112.79695129394531,-122.34405517578125
1773150242637561300,0.867561279296875,-10.83489990234375,112.74855041503906,-122.67520141601562
1773150242647655200,0.8776552734375,-10.843917846679688,112.69136047363281,-122.66644287109375
1773150242657748200,0.887748291015625,-10.833099365234375,112.86172485351562,-122.67192077636719
1773150242667842000,0.897842041015625,-11.033767700195312,112.48191833496094,-122.50044250488281
1773150242677937200,0.907937255859375,-11.003494262695312,112.65237426757812,-122.29830932617188
1773150242688032300,0.9180322265625,-11.278778076171875,112.58139038085938,-122.34140014648438
1773150242698122200,0.928122314453125,-11.309982299804688,112.52140808105469,-122.27241516113281
1773150242708218400,0.93821826171875,-11.521499633789062,112.78169250488281,-122.46392822265625
1773150242718318300,0.948318359375,-11.408447265625,112.90567016601562,-122.37947082519531
1773150242728411100,0.9584111328125,-11.507156372070312,112.70933532714844,-122.11764526367188
1773150242738500000,0.9685,-11.541366577148438,112.72100830078125,-122.48289489746094
1773150242748598000,0.978597900390625,-11.498458862304688,112.70732116699219,-122.28919982910156
1773150242758692400,0.9886923828125,-11.729721069335938,112.79670715332031,-122.42813110351562
1773150242768784400,0.998784423828125,-11.89666748046875,112.88301086425781,-122.421875
1773150242778878200,1.008878173828125,-11.491531372070312,112.882568359375,-122.19929504394531
1773150242788972000,1.018971923828125,-11.390823364257812,112.70730590820312,-122.29548645019531
1773150242799065000,1.029065185546875,-11.576766967773438,112.89788818359375,-122.2545166015625
1773150242809161200,1.0391611328125,-11.655349731445312,112.68536376953125,-122.26922607421875
1773150242819256300,1.04925634765625,-11.670364379882812,112.83280944824219,-122.38897705078125
1773150242829351200,1.05935107421875,-11.732315063476562,112.81935119628906,-122.13041687011719
1773150242839446300,1.0694462890625,-12.02423095703125,112.49684143066406,-122.34800720214844
1773150242849540400,1.079540283203125,-11.806686401367188,112.72264099121094,-122.41629028320312
1773150242859634200,1.08963427734375,-11.741729736328125,112.48211669921875,-122.19288635253906
1773150242869728300,1.099728271484375,-11.643173217773438,112.47369384765625,-121.93341064453125
1773150242879823000,1.109822998046875,-11.618087768554688,112.54707336425781,-121.95347595214844
1773150242889917200,1.119917236328125,-11.59161376953125,112.42033386230469,-122.16099548339844
1773150242900011300,1.13001123046875,-12.009140014648438,112.4241943359375,-122.05026245117188
1773150242910105300,1.140105224609375,-12.044342041015625,112.42359924316406,-122.08207702636719
1773150242920194000,1.150194091796875,-11.728866577148438,112.54428100585938,-121.86802673339844
1773150242930293200,1.160293212890625,-12.188186645507812,112.49433898925781,-122.06230163574219
1773150242940382200,1.17038232421875,-12.222244262695312,112.38699340820312,-122.02189636230469
1773150242950483200,1.180483154296875,-12.188751220703125,112.39279174804688,-122.08317565917969
1773150242960573200,1.1905732421875,-12.053298950195312,112.80523681640625,-122.00990295410156
1773150242970674200,1.200674072265625,-12.263839721679688,112.34649658203125,-121.90447998046875
1773150242980768300,1.210768310546875,-12.195114135742188,112.55598449707031,-121.92601013183594
1773150242990858200,1.220858154296875,-12.396652221679688,112.44764709472656,-121.9912109375
1773150243000954000,1.2309541015625,-12.326919555664062,112.34721374511719,-121.75569152832031
1773150243011054300,1.241054443359375,-12.235198974609375,112.42060852050781,-121.90504455566406
1773150243021150200,1.251150146484375,-12.169342041015625,112.24609375,-121.85395812988281
1773150243031240200,1.261240234375,-12.42816162109375,112.56927490234375,-121.855712890625
1773150243041336300,1.27133642578125,-12.419586181640625,112.39166259765625,-121.88551330566406
1773150243051437000,1.28143701171875,-12.4061279296875,112.59602355957031,-122.08738708496094
1773150243061531400,1.291531494140625,-12.190994262695312,112.56411743164062,-121.76063537597656
1773150243071626200,1.301626220703125,-12.210464477539062,112.56248474121094,-122.09835815429688
1773150243081720000,1.311719970703125,-12.21392822265625,112.90313720703125,-122.09371948242188
1773150243091813400,1.3218134765625,-12.126800537109375,112.58782958984375,-122.11378479003906
1773150243101907200,1.3319072265625,-12.164169311523438,112.70968627929688,-122.163330078125
1773150243112002000,1.342001953125,-12.174468994140625,112.60768127441406,-121.87379455566406
1773150243122096400,1.352096435546875,-11.985443115234375,112.58879089355469,-122.09877014160156
1773150243132186000,1.36218603515625,-11.981704711914062,112.63409423828125,-122.07662963867188
1773150243142285000,1.37228515625,-11.944808959960938,112.66357421875,-121.95347595214844
1773150243152380200,1.382380126953125,-12.2034912109375,112.59922790527344,-122.0826416015625
1773150243162474200,1.39247412109375,-12.268753051757812,112.38400268554688,-121.91773986816406
1773150243172565200,1.402565185546875,-12.059707641601562,112.61558532714844,-121.92236328125
1773150243182659000,1.4126591796875,-12.227005004882812,112.60472106933594,-122.01803588867188
1773150243192753400,1.42275341796875,-12.1328125,112.52458190917969,-121.93547058105469
1773150243202842000,1.432842041015625,-12.072723388671875,112.49653625488281,-121.89437866210938
1773150243212942000,1.442942138671875,-12.031585693359375,112.61959838867188,-122.03816223144531
1773150243223036400,1.453036376953125,-12.067306518554688,112.34031677246094,-121.8212890625
1773150243233130200,1.463130126953125,-12.338470458984375,112.485107421875,-121.96383666992188
1773150243243219200,1.47321923828125,-12.234588623046875,112.6094970703125,-122.03829956054688
1773150243253320200,1.4833203125,-12.17108154296875,112.398193359375,-121.65159606933594
1773150243263410400,1.493410400390625,-11.722976684570312,112.47221374511719,-121.99855041503906
1773150243273509400,1.50350927734375,-12.395675659179688,112.69499206542969,-122.08592224121094
1773150243283602200,1.513602294921875,-12.3140869140625,112.65544128417969,-122.11996459960938
1773150243293695200,1.5236953125,-12.174041748046875,112.42689514160156,-122.04862976074219
1773150243303789000,1.5337890625,-12.203536987304688,112.41035461425781,-121.89736938476562
1773150243313883400,1.54388330078125,-12.2677001953125,112.40986633300781,-122.0098876953125
1773150243323976200,1.55397607421875,-12.162109375,112.50065612792969,-122.09066772460938
1773150243334070300,1.5640703125,-12.228378295898438,112.54811096191406,-122.14096069335938
1773150243344163000,1.5741630859375,-12.3167724609375,112.35121154785156,-122.04109191894531
1773150243354257200,1.584257080078125,-12.335296630859375,112.14816284179688,-122.025390625
1773150243364352300,1.594352294921875,-12.244491577148438,112.20941162109375,-121.99783325195312
1773150243374447000,1.604447021484375,-12.213119506835938,112.2327880859375,-122.07742309570312
1773150243384541200,1.614541259765625,-12.013534545898438,112.39422607421875,-122.03558349609375
1773150243394636000,1.624635986328125,-11.981292724609375,112.31938171386719,-121.91474914550781
1773150243404725200,1.634725341796875,-12.332122802734375,112.314453125,-122.07296752929688
1773150243414825200,1.6448251953125,-12.226882934570312,112.3350830078125,-121.93722534179688
1773150243424919000,1.6549189453125,-12.421188354492188,112.52265930175781,-122.04231262207031
1773150243435014100,1.66501416015625,-12.240158081054688,112.47787475585938,-122.02079772949219
1773150243445107200,1.675107177734375,-11.871658325195312,112.47776794433594,-121.76420593261719
1773150243455201000,1.685200927734375,-12.340438842773438,112.26220703125,-122.03005981445312
1773150243465295400,1.69529541015625,-12.117919921875,112.51246643066406,-121.96929931640625
1773150243475389200,1.70538916015625,-12.307876586914062,112.46498107910156,-121.95124816894531
1773150243485479200,1.715479248046875,-12.412628173828125,112.34233093261719,-121.93885803222656
1773150243495574300,1.72557421875,-11.9217529296875,112.32270812988281,-121.79656982421875
1773150243505669000,1.735669189453125,-12.250152587890625,112.45783996582031,-121.98881530761719
1773150243515769000,1.74576904296875,-12.36767578125,112.34555053710938,-122.04251098632812
1773150243525864000,1.755864013671875,-12.262359619140625,112.39085388183594,-121.93460083007812
1773150243535953200,1.765953125,-12.228118896484375,112.43345642089844,-122.0087890625
1773150243546052900,1.776052978515625,-12.371246337890625,112.35572814941406,-121.99385070800781
1773150243556147000,1.78614697265625,-12.302566528320312,112.46485900878906,-121.90744018554688
1773150243566237000,1.79623681640625,-12.30828857421875,112.30079650878906,-121.90904235839844
1773150243576331800,1.806331787109375,-12.294387817382812,112.53364562988281,-121.96723937988281
1773150243586432000,1.816431884765625,-12.416610717773438,112.24137878417969,-121.85238647460938
1773150243596526800,1.82652685546875,-12.166351318359375,112.1807861328125,-121.84210205078125
1773150243606620200,1.8366201171875,-12.188796997070312,112.46713256835938,-122.07395935058594
1773150243616713000,1.846712890625,-12.396774291992188,112.15695190429688,-122.09423828125
1773150243626802000,1.856802001953125,-12.506454467773438,112.22665405273438,-121.78385925292969
1773150243636900900,1.86690087890625,-12.251632690429688,112.397216796875,-121.87554931640625
1773150243646995000,1.876994873046875,-12.346817016601562,112.25283813476562,-121.90663146972656
1773150243657088000,1.887087890625,-12.088516235351562,112.34947204589844,-121.97245788574219
1773150243667181000,1.89718115234375,-12.408355712890625,112.2257080078125,-121.80911254882812
1773150243677274000,1.907274169921875,-12.403121948242188,112.09922790527344,-121.86056518554688
1773150243687368000,1.917367919921875,-11.892654418945312,112.17854309082031,-121.79034423828125
1773150243697461000,1.9274609375,-12.50665283203125,112.13763427734375,-121.96615600585938
1773150243707553800,1.9375537109375,-12.271438598632812,112.04820251464844,-121.99349975585938
1773150243717647000,1.947647216796875,-12.465240478515625,112.34445190429688,-122.08309936523438
1773150243727741000,1.957740966796875,-12.341720581054688,112.1820068359375,-121.97592163085938
1773150243737835000,1.9678349609375,-12.419830322265625,112.11991882324219,-122.04057312011719
1773150243747927800,1.977927734375,-12.239883422851562,112.06169128417969,-121.88565063476562
1773150243758017000,1.98801708984375,-12.401458740234375,112.15887451171875,-122.05787658691406
1773150243768116000,1.998115966796875,-12.416473388671875,111.99528503417969,-121.98992919921875
1773150243778206000,2.0082060546875,-11.921951293945312,112.03073120117188,-121.62347412109375
1773150243788304000,2.018303955078125,-12.248931884765625,111.98385620117188,-121.88978576660156
1773150243798397200,2.028397216796875,-12.349273681640625,112.17015075683594,-121.8836669921875
1773150243808489000,2.038489013671875,-12.221466064453125,111.9990234375,-121.73861694335938
1773150243818582000,2.04858203125,-12.321990966796875,112.01951599121094,-121.97950744628906
1773150243828675000,2.058675048828125,-11.973739624023438,111.82115173339844,-121.57536315917969
1773150243838768000,2.06876806640625,-12.286773681640625,111.91073608398438,-122.05792236328125
1773150243848860000,2.07885986328125,-12.500442504882812,112.01335144042969,-122.04385375976562
1773150243858953000,2.088952880859375,-12.43817138671875,112.01841735839844,-121.86109924316406
1773150243869047000,2.099047119140625,-12.157257080078125,112.20475769042969,-121.83761596679688
1773150243879140900,2.109140869140625,-12.37335205078125,112.20486450195312,-121.81689453125
1773150243889232000,2.11923193359375,-12.415786743164062,112.09170532226562,-122.09053039550781
1773150243899323000,2.129322998046875,-12.339920043945312,112.11715698242188,-121.93838500976562
1773150243909410000,2.13941015625,-12.528564453125,112.02214050292969,-121.92430114746094
1773150243919507000,2.1495068359375,-12.255203247070312,111.94953918457031,-122.05638122558594
1773150243929600000,2.15960009765625,-12.442901611328125,112.09529113769531,-122.00755310058594
1773150243939693000,2.169693115234375,-12.461578369140625,112.01277160644531,-121.86042785644531
1773150243949785000,2.17978515625,-12.531402587890625,111.92741394042969,-121.923095703125
1773150243959878000,2.1898779296875,-12.515045166015625,111.86563110351562,-122.07749938964844
1773150243969970000,2.199969970703125,-12.438995361328125,111.88682556152344,-121.83464050292969
1773150243980063000,2.21006298828125,-11.931015014648438,112.03193664550781,-121.93939208984375
1773150243990154000,2.220154052734375,-12.305862426757812,111.99603271484375,-122.07081604003906
1773150244000247000,2.2302470703125,-12.358245849609375,111.97122192382812,-121.99038696289062
1773150244010340000,2.240340087890625,-12.466033935546875,112.18330383300781,-121.97792053222656
1773150244020427000,2.250427001953125,-12.063796997070312,111.92343139648438,-121.67851257324219
1773150244030524000,2.26052392578125,-12.265380859375,111.93171691894531,-121.96792602539062
1773150244040616000,2.270615966796875,-12.44659423828125,112.11061096191406,-122.15620422363281
1773150244050708000,2.2807080078125,-12.502777099609375,112.202880859375,-122.03327941894531
1773150244060800000,2.290800048828125,-12.436355590820312,112.22047424316406,-121.90766906738281
1773150244070891800,2.300891845703125,-12.275283813476562,112.04695129394531,-121.8297119140625
1773150244080983800,2.31098388671875,-12.619888305664062,112.15870666503906,-121.88796997070312
1773150244091075800,2.321075927734375,-12.4952392578125,112.15299987792969,-122.09832763671875
1773150244101167900,2.33116796875,-12.153549194335938,112.03581237792969,-122.13102722167969
1773150244111260000,2.341260009765625,-12.391311645507812,112.41146850585938,-122.02099609375
1773150244121352000,2.35135205078125,-12.186798095703125,112.1636962890625,-122.04206848144531
1773150244131443000,2.36144287109375,-12.67938232421875,111.92243957519531,-121.81575012207031
1773150244141535000,2.371534912109375,-12.584136962890625,112.14326477050781,-121.99107360839844
1773150244151628000,2.3816279296875,-11.98663330078125,112.03575134277344,-121.96534729003906
1773150244161721000,2.39172119140625,-12.320281982421875,112.07283020019531,-121.85737609863281
1773150244171814000,2.40181396484375,-12.259414672851562,111.88996887207031,-122.03564453125
1773150244181907000,2.411906982421875,-12.341476440429688,112.20509338378906,-121.99513244628906
1773150244191995000,2.421994873046875,-12.248214721679688,112.19122314453125,-121.98460388183594
1773150244202092800,2.4320927734375,-12.225570678710938,112.099853515625,-121.76504516601562
1773150244212185900,2.442185791015625,-12.18328857421875,111.97132873535156,-121.60536193847656
1773150244222279200,2.452279052734375,-12.435272216796875,111.87789916992188,-122.04653930664062
1773150244232372000,2.4623720703125,-12.474807739257812,112.02140808105469,-121.84304809570312
1773150244242464000,2.472464111328125,-12.502777099609375,112.14662170410156,-122.12005615234375
1773150244252558000,2.48255810546875,-12.683364868164062,112.18002319335938,-121.86967468261719
1773150244262651000,2.49265087890625,-12.291671752929688,111.99942016601562,-121.69703674316406
1773150244272744000,2.502743896484375,-12.4786376953125,112.27444458007812,-121.86497497558594
1773150244282837000,2.5128369140625,-12.435989379882812,111.9771728515625,-121.82038879394531
1773150244292929800,2.5229296875,-12.572402954101562,112.24024963378906,-122.04405212402344
1773150244303024000,2.533024169921875,-12.542404174804688,112.13859558105469,-121.97906494140625
1773150244313118000,2.543117919921875,-12.646286010742188,112.26310729980469,-121.75042724609375
1773150244323207000,2.55320703125,-12.452178955078125,112.23251342773438,-121.92080688476562
1773150244333302000,2.563302001953125,-12.66473388671875,112.09941101074219,-121.88682556152344
1773150244343395800,2.573395751953125,-12.440536499023438,112.43606567382812,-122.04153442382812
1773150244353494000,2.583493896484375,-12.46807861328125,112.034423828125,-121.75437927246094
1773150244363586000,2.5935859375,-12.47705078125,112.00161743164062,-121.88255310058594
1773150244373677000,2.603677001953125,-12.481307983398438,112.05343627929688,-122.06048583984375
1773150244383770000,2.61377001953125,-12.359512329101562,112.13883972167969,-121.96151733398438
1773150244393862000,2.62386181640625,-12.261306762695312,112.12422180175781,-121.81321716308594
1773150244403954000,2.633953857421875,-12.320144653320312,112.27760314941406,-121.529296875
1773150244414046000,2.6440458984375,-12.45233154296875,112.30055236816406,-121.72590637207031
1773150244424137000,2.654136962890625,-12.364944458007812,112.22314453125,-121.79342651367188
1773150244434228000,2.66422802734375,-12.318084716796875,112.43128967285156,-121.92842102050781
1773150244444320000,2.674320068359375,-12.490203857421875,112.42762756347656,-121.93646240234375
1773150244454413800,2.684413818359375,-12.23980712890625,112.26103210449219,-121.7208251953125
1773150244464505900,2.694505859375,-12.162857055664062,112.25202941894531,-121.88529968261719
1773150244474600200,2.70460009765625,-12.406387329101562,112.19789123535156,-121.85093688964844
1773150244484694000,2.714694091796875,-12.269256591796875,112.25698852539062,-121.85719299316406
1773150244494787000,2.724787109375,-12.428421020507812,112.28648376464844,-121.73344421386719
1773150244504881000,2.734880859375,-12.202117919921875,112.3424072265625,-121.8646240234375
1773150244514972400,2.744972412109375,-12.725936889648438,112.21856689453125,-121.90713500976562
1773150244525065500,2.7550654296875,-12.537582397460938,112.23695373535156,-121.91363525390625
1773150244535157500,2.765157470703125,-12.45355224609375,111.91552734375,-121.66012573242188
1773150244545248500,2.77524853515625,-12.194900512695312,112.18228149414062,-121.63533020019531
1773150244555341600,2.785341552734375,-12.232421875,112.01564025878906,-121.83712768554688
1773150244565433600,2.79543359375,-12.59796142578125,112.29510498046875,-121.85670471191406
1773150244575526400,2.8055263671875,-12.264801025390625,112.32865905761719,-121.84355163574219
1773150244585618400,2.815618408203125,-12.303512573242188,112.2823486328125,-121.91775512695312
1773150244595711500,2.82571142578125,-12.0302734375,112.20272827148438,-121.54301452636719
1773150244605804500,2.835804443359375,-12.255020141601562,112.29541015625,-122.11395263671875
1773150244615896600,2.845896484375,-12.263137817382812,112.34463500976562,-121.99691772460938
1773150244625989400,2.8559892578125,-12.4107666015625,112.3380126953125,-121.90696716308594
1773150244636081400,2.866081298828125,-12.662322998046875,112.12089538574219,-121.86572265625
1773150244646173400,2.87617333984375,-12.270477294921875,112.0465087890625,-121.71438598632812
1773150244656266500,2.8862666015625,-12.415878295898438,112.45272827148438,-121.77777099609375
1773150244666358500,2.896358642578125,-12.31890869140625,112.22056579589844,-121.93724060058594
1773150244676452400,2.906452392578125,-12.378753662109375,112.28994750976562,-121.92227172851562
1773150244686545400,2.91654541015625,-12.373092651367188,112.31376647949219,-121.90476989746094
1773150244696638500,2.926638427734375,-12.356979370117188,112.24432373046875,-121.9354248046875
1773150244706731500,2.9367314453125,-12.204330444335938,112.19606018066406,-121.96525573730469
1773150244716824600,2.946824462890625,-12.351211547851562,112.20429992675781,-121.81243896484375
1773150244726917600,2.956917724609375,-12.403579711914062,112.31326293945312,-121.79887390136719
1773150244737010400,2.967010498046875,-12.23828125,112.08889770507812,-121.66485595703125
1773150244747102500,2.9771025390625,-12.247650146484375,112.09574890136719,-121.86711120605469
1773150244757190400,2.9871904296875,-12.346389770507812,112.17874145507812,-121.91108703613281
1773150244767289300,2.997289306640625,-12.3831787109375,112.31150817871094,-121.74543762207031
1773150244777377300,3.007377197265625,-12.255584716796875,112.21037292480469,-122.02825927734375
1773150244787476500,3.0174765625,-12.314056396484375,112.32310485839844,-121.64732360839844
1773150244797569500,3.027569580078125,-12.370651245117188,112.33799743652344,-121.88827514648438
1773150244807658500,3.037658447265625,-12.718994140625,112.22355651855469,-121.91549682617188
1773150244817751300,3.047751220703125,-12.594635009765625,112.34922790527344,-121.84486389160156
1773150244827845600,3.057845703125,-12.454803466796875,112.28141784667969,-121.76504516601562
1773150244837942300,3.0679423828125,-12.420623779296875,112.3121337890625,-121.62164306640625
1773150244848035600,3.07803564453125,-12.712234497070312,112.1566162109375,-121.79911804199219
1773150244858129400,3.08812939453125,-12.388961791992188,112.02731323242188,-121.61607360839844
1773150244868218400,3.09821826171875,-12.572738647460938,112.21641540527344,-121.95664978027344
1773150244878312400,3.1083125,-12.431930541992188,112.32933044433594,-121.89604187011719
1773150244888411600,3.11841162109375,-12.49920654296875,112.15969848632812,-121.79728698730469
1773150244898505500,3.12850537109375,-12.630233764648438,112.30606079101562,-121.81411743164062
1773150244908596500,3.138596435546875,-12.314956665039062,112.5723876953125,-121.99411010742188
1773150244918695400,3.1486953125,-12.279129028320312,112.40695190429688,-121.87727355957031
1773150244928784400,3.158784423828125,-12.649612426757812,112.245849609375,-121.84053039550781
1773150244938883600,3.168883544921875,-12.386688232421875,112.23651123046875,-121.80709838867188
1773150244948975600,3.1789755859375,-12.500320434570312,112.2562255859375,-121.51258850097656
1773150244959068400,3.189068359375,-12.551040649414062,112.39387512207031,-121.63136291503906
1773150244969162500,3.19916259765625,-12.8883056640625,112.39987182617188,-121.55400085449219
1773150244979255600,3.209255615234375,-12.642349243164062,112.45753479003906,-121.39955139160156
1773150244989344300,3.21934423828125,-12.430877685546875,112.63026428222656,-121.57337951660156
1773150244999443500,3.229443359375,-12.619613647460938,112.53277587890625,-121.62867736816406
1773150245009531400,3.239531494140625,-12.471832275390625,112.61451721191406,-121.51676940917969
1773150245019624400,3.24962451171875,-12.739761352539062,112.55256652832031,-121.64312744140625
1773150245029723400,3.259723388671875,-12.500198364257812,112.30416870117188,-121.51567077636719
1773150245039815400,3.2698154296875,-12.212417602539062,112.31864929199219,-121.47068786621094
1773150245049908500,3.279908447265625,-12.737640380859375,112.11882019042969,-121.50775146484375
1773150245060001300,3.290001220703125,-12.443084716796875,112.48689270019531,-121.56690979003906
1773150245070093300,3.30009326171875,-12.551116943359375,112.25332641601562,-121.63633728027344
1773150245080188400,3.3101884765625,-12.411331176757812,112.59945678710938,-121.46737670898438
1773150245090282500,3.320282470703125,-12.206466674804688,112.42481994628906,-121.41854858398438
1773150245100376300,3.330376220703125,-12.739959716796875,112.32369995117188,-121.61972045898438
1773150245110469600,3.3404697265625,-12.892532348632812,112.61430358886719,-121.54261779785156
1773150245120558600,3.35055859375,-12.686203002929688,112.44816589355469,-121.55563354492188
1773150245130656500,3.360656494140625,-12.690902709960938,112.41993713378906,-121.57675170898438
1773150245140745500,3.370745361328125,-12.969009399414062,112.56330871582031,-121.55328369140625
1773150245150844700,3.3808447265625,-12.835342407226562,112.79042053222656,-121.6907958984375
1773150245160938500,3.3909384765625,-12.583343505859375,112.78414916992188,-121.61677551269531
1773150245171032300,3.4010322265625,-12.694747924804688,112.71115112304688,-121.30952453613281
1773150245181126400,3.41112646484375,-13.02752685546875,112.88002014160156,-121.53518676757812
1773150245191215600,3.421215576171875,-12.75421142578125,113.00001525878906,-121.59027099609375
1773150245201314600,3.431314453125,-13.143157958984375,113.32083129882812,-121.49476623535156
1773150245211409700,3.44140966796875,-13.102783203125,113.31924438476562,-121.13705444335938
1773150245221505300,3.45150537109375,-12.817047119140625,113.72044372558594,-121.27137756347656
1773150245231593500,3.461593505859375,-13.180145263671875,113.80769348144531,-121.288330078125
1773150245241692400,3.4716923828125,-13.186233520507812,113.69041442871094,-121.29693603515625
1773150245251787500,3.48178759765625,-13.360122680664062,114.03956604003906,-121.49461364746094
1773150245261881300,3.49188134765625,-13.124130249023438,114.1318359375,-121.24560546875
1773150245271974700,3.501974609375,-13.056533813476562,114.18707275390625,-121.57196044921875
1773150245282068500,3.512068359375,-12.985610961914062,114.38819885253906,-121.4249267578125
1773150245292162300,3.522162353515625,-13.008148193359375,114.33505249023438,-121.24440002441406
1773150245302256600,3.532256591796875,-13.264022827148438,114.34652709960938,-121.39332580566406
1773150245312351500,3.5423515625,-13.130172729492188,114.45620727539062,-120.89033508300781
1773150245322445300,3.5524453125,-13.810211181640625,114.43878173828125,-121.04312133789062
1773150245332538400,3.562538330078125,-14.516738891601562,114.63169860839844,-120.83857727050781
1773150245342631700,3.572631591796875,-14.594223022460938,114.77072143554688,-120.46159362792969
1773150245352725500,3.5827255859375,-15.25360107421875,115.1739501953125,-120.29902648925781
1773150245362819300,3.5928193359375,-15.081130981445312,115.194091796875,-119.68093872070312
1773150245372912400,3.602912353515625,-16.127166748046875,115.36863708496094,-119.59657287597656
1773150245383006500,3.61300634765625,-16.424575805664062,115.80928039550781,-119.09722900390625
1773150245393099500,3.623099609375,-17.167205810546875,115.98239135742188,-118.65278625488281
1773150245403193600,3.633193603515625,-18.052719116210938,116.26176452636719,-118.028076171875
1773150245413285400,3.643285400390625,-18.926605224609375,116.29103088378906,-116.990478515625
1773150245423378400,3.65337841796875,-20.130783081054688,116.51429748535156,-116.31439208984375
1773150245433471500,3.663471435546875,-21.36505126953125,116.54946899414062,-114.79817199707031
1773150245443560400,3.673560546875,-22.337539672851562,116.71690368652344,-113.72581481933594
1773150245453661400,3.683661376953125,-23.322128295898438,117.01417541503906,-112.62785339355469
1773150245463751700,3.693751708984375,-23.894027709960938,117.44181823730469,-111.40313720703125
1773150245473851400,3.703851318359375,-24.728927612304688,118.15328979492188,-110.33700561523438
1773150245483941600,3.713941650390625,-25.00164794921875,118.8468017578125,-109.558349609375
1773150245494041300,3.724041259765625,-25.090591430664062,119.89495849609375,-109.0521240234375
1773150245504136400,3.734136474609375,-24.999481201171875,120.38999938964844,-108.78546142578125
1773150245514231800,3.744231689453125,-25.397811889648438,121.1014404296875,-108.65408325195312
1773150245524327000,3.754326904296875,-24.978118896484375,121.36009216308594,-108.64643859863281
1773150245534422000,3.764422119140625,-25.171661376953125,121.53669738769531,-108.61183166503906
1773150245544516900,3.774516845703125,-24.687820434570312,122.06292724609375,-109.01762390136719
1773150245554612000,3.784612060546875,-24.155792236328125,122.27735900878906,-108.97221374511719
1773150245564708000,3.7947080078125,-24.085174560546875,122.86759948730469,-109.48735046386719
1773150245574803000,3.804802978515625,-23.90618896484375,123.28984069824219,-109.82736206054688
1773150245584896800,3.814896728515625,-23.806793212890625,123.28955078125,-110.13969421386719
1773150245594990800,3.824990966796875,-23.947433471679688,123.31210327148438,-110.24195861816406
1773150245605086000,3.8350859375,-23.791656494140625,123.07234191894531,-110.40493774414062
1773150245615179800,3.8451796875,-23.785202026367188,122.54129028320312,-110.47872924804688
1773150245625273900,3.85527392578125,-23.51416015625,121.97987365722656,-110.91777038574219
1773150245635363800,3.86536376953125,-23.487930297851562,121.69331359863281,-111.20811462402344
1773150245645464800,3.87546484375,-23.156951904296875,121.1529541015625,-111.63865661621094
1773150245655559000,3.885558837890625,-22.6805419921875,120.9599609375,-112.40151977539062
1773150245665654000,3.895654052734375,-22.179656982421875,120.31071472167969,-112.765625
1773150245675750000,3.90575,-21.730880737304688,120.28839111328125,-113.51699829101562
1773150245685845000,3.915844970703125,-21.009613037109375,120.44229125976562,-113.95675659179688
1773150245695934700,3.925934814453125,-20.480926513671875,120.76821899414062,-114.33660888671875
1773150245706031900,3.936031982421875,-20.574676513671875,121.56660461425781,-114.74577331542969
1773150245716128000,3.9461279296875,-19.952499389648438,122.58070373535156,-114.42494201660156
1773150245726223000,3.95622314453125,-19.741256713867188,123.51869201660156,-114.28608703613281
1773150245736318700,3.966318603515625,-19.854934692382812,124.53443908691406,-113.86282348632812
1773150245746419000,3.9764189453125,-19.154571533203125,125.65316772460938,-113.218505859375
1773150245756512800,3.9865126953125,-19.021255493164062,127.1822509765625,-113.068359375
1773150245766606800,3.99660693359375,-18.555648803710938,128.62730407714844,-112.92550659179688
1773150245776700000,4.006699951171875,-17.996383666992188,129.7374725341797,-112.73822021484375
1773150245786794000,4.0167939453125,-17.421646118164062,131.1896514892578,-112.53654479980469
1773150245796887000,4.026886962890625,-16.479202270507812,132.30384826660156,-112.19549560546875
1773150245806979800,4.036979736328125,-15.743789672851562,133.67721557617188,-112.15449523925781
1773150245817073000,4.047072998046875,-15.14593505859375,134.97532653808594,-111.74822998046875
1773150245827166700,4.057166748046875,-14.18353271484375,136.26263427734375,-111.11396789550781
1773150245837261800,4.06726171875,-14.183181762695312,137.7249755859375,-110.35240173339844
1773150245847356000,4.07735595703125,-13.625274658203125,138.33900451660156,-108.87089538574219
1773150245857448700,4.08744873046875,-13.734710693359375,139.6788787841797,-107.61752319335938
1773150245867543000,4.09754296875,-13.72186279296875,140.64454650878906,-105.85618591308594
1773150245877636900,4.107636962890625,-13.884002685546875,141.10604858398438,-104.14314270019531
1773150245887731700,4.117731689453125,-14.21875,141.49307250976562,-102.34397888183594
1773150245897826800,4.127826904296875,-14.88409423828125,141.48977661132812,-101.13050842285156
1773150245907920000,4.137919921875,-15.745025634765625,141.57838439941406,-100.15371704101562
1773150245918013700,4.148013671875,-16.335006713867188,141.13192749023438,-99.13240051269531
1773150245928106800,4.158106689453125,-17.112747192382812,140.695068359375,-98.37217712402344
1773150245938197800,4.16819775390625,-17.609573364257812,140.34982299804688,-97.67446899414062
1773150245948298000,4.178298095703125,-18.435348510742188,139.69903564453125,-97.28172302246094
1773150245958392800,4.188392822265625,-18.839614868164062,139.14466857910156,-96.83413696289062
1773150245968488000,4.198488037109375,-19.573516845703125,138.86781311035156,-96.0283203125
1773150245978582000,4.20858203125,-19.953872680664062,138.23236083984375,-95.06539916992188
1773150245988670000,4.218669921875,-20.181198120117188,138.2793426513672,-94.06846618652344
1773150245998769000,4.228768798828125,-20.422348022460938,138.10134887695312,-93.06805419921875
1773150246008863000,4.238863037109375,-20.594253540039062,137.60948181152344,-92.24024963378906
1773150246018956000,4.2489560546875,-20.454010009765625,137.5880584716797,-91.42073059082031
1773150246029045800,4.259045654296875,-20.545135498046875,137.33335876464844,-90.8641357421875
1773150246039145000,4.26914501953125,-21.137710571289062,137.2563934326172,-90.61531066894531
1773150246049238000,4.279238037109375,-21.067459106445312,137.1476593017578,-90.52439880371094
1773150246059332900,4.289332763671875,-21.02911376953125,137.32501220703125,-90.35482788085938
1773150246069426000,4.299426025390625,-20.857177734375,137.27203369140625,-90.74714660644531
1773150246079520000,4.30952001953125,-20.443145751953125,137.50479125976562,-90.82577514648438
1773150246089613000,4.319613037109375,-20.577499389648438,137.57318115234375,-90.93157958984375
1773150246099703800,4.329703857421875,-20.585006713867188,137.65716552734375,-91.009033203125
1773150246109803000,4.339802978515625,-20.6373291015625,137.44090270996094,-91.04447937011719
1773150246119896800,4.349896728515625,-20.468719482421875,137.59963989257812,-91.05172729492188
1773150246129990000,4.359989990234375,-20.325653076171875,137.54116821289062,-90.60440063476562
1773150246140086000,4.3700859375,-20.278900146484375,137.6033935546875,-90.71195983886719
1773150246150179800,4.380179931640625,-20.459396362304688,137.55262756347656,-90.64924621582031
1773150246160273700,4.390273681640625,-20.4501953125,137.39688110351562,-90.69949340820312
1773150246170368000,4.400367919921875,-20.255859375,137.65306091308594,-90.84368896484375
1773150246180457000,4.41045703125,-20.1544189453125,137.67977905273438,-90.99447631835938
1773150246190555000,4.420554931640625,-20.367813110351562,137.63197326660156,-91.34849548339844
1773150246200642800,4.430642822265625,-20.60137939453125,137.31871032714844,-91.81161499023438
1773150246210740700,4.44074072265625,-20.302215576171875,137.77865600585938,-92.22109985351562
1773150246220835000,4.4508349609375,-20.261474609375,137.77841186523438,-92.45457458496094
1773150246230923800,4.460923828125,-20.276519775390625,137.8036346435547,-92.73646545410156
1773150246241022700,4.471022705078125,-20.242416381835938,138.13827514648438,-92.95640563964844
1773150246251117000,4.481116943359375,-19.977508544921875,138.2960205078125,-92.79161071777344
1773150246261203700,4.49120361328125,-19.81787109375,137.9849853515625,-92.80207824707031
1773150246271304000,4.501303955078125,-20.009857177734375,138.0264434814453,-92.9483642578125
1773150246281400000,4.511400146484375,-19.85467529296875,138.02586364746094,-93.3662109375
1773150246291494000,4.521493896484375,-20.089706420898438,137.97918701171875,-94.05123901367188
1773150246301582800,4.531582763671875,-20.259506225585938,138.01441955566406,-94.91650390625
1773150246311682800,4.541682861328125,-19.853805541992188,137.8050079345703,-95.7044677734375
1773150246321777000,4.55177685546875,-19.977279663085938,137.28067016601562,-96.32083129882812
1773150246331865900,4.561865966796875,-20.126235961914062,137.55477905273438,-97.40419006347656
1773150246341965000,4.571965087890625,-20.134307861328125,137.25003051757812,-98.44500732421875
1773150246352059000,4.582058837890625,-20.251388549804688,137.23025512695312,-99.62455749511719
1773150246362149000,4.592149169921875,-19.994979858398438,136.51731872558594,-101.1087646484375
1773150246372244000,4.602243896484375,-19.496963500976562,136.29107666015625,-102.68299865722656
1773150246382339000,4.612339111328125,-18.805404663085938,136.0049285888672,-104.32398986816406
1773150246392438800,4.622438720703125,-18.357498168945312,135.84213256835938,-106.03857421875
1773150246402527700,4.63252783203125,-17.640518188476562,135.61651611328125,-107.45274353027344
1773150246412627000,4.642626953125,-17.288055419921875,135.2923126220703,-108.05097961425781
1773150246422720000,4.652719970703125,-17.543670654296875,135.03810119628906,-108.40142822265625
1773150246432813000,4.66281298828125,-17.647567749023438,134.8544158935547,-108.22500610351562
1773150246442905900,4.67290576171875,-17.856201171875,134.5153045654297,-108.00445556640625
1773150246452999000,4.6829990234375,-18.099639892578125,134.48287963867188,-107.92948913574219
1773150246463091000,4.693091064453125,-17.299118041992188,134.40269470214844,-107.85894775390625
1773150246473184800,4.703184814453125,-17.54608154296875,134.3861541748047,-108.36968994140625
1773150246483279000,4.713279052734375,-17.308578491210938,134.56956481933594,-108.50456237792969
1773150246493373000,4.723373046875,-17.484512329101562,134.76226806640625,-108.07353210449219
1773150246503466000,4.733466064453125,-17.434371948242188,134.60153198242188,-107.57101440429688
1773150246513558800,4.743558837890625,-17.673828125,134.482177734375,-107.01036071777344
1773150246523650000,4.753650146484375,-18.132461547851562,134.5784454345703,-106.83541870117188
1773150246533743000,4.7637431640625,-18.0758056640625,134.58261108398438,-106.389892578125
1773150246543836200,4.773836181640625,-18.431686401367188,134.39942932128906,-106.41432189941406
1773150246553929200,4.78392919921875,-18.489395141601562,134.14527893066406,-106.40318298339844
1773150246564023300,4.794023193359375,-18.253860473632812,133.9406280517578,-106.22645568847656
1773150246574116400,4.804116455078125,-18.378753662109375,133.49952697753906,-106.52523803710938
1773150246584207400,4.814207275390625,-18.567123413085938,133.34019470214844,-106.957763671875
1773150246594300200,4.824300048828125,-18.791336059570312,133.0140380859375,-107.3740234375
1773150246604393200,4.834393310546875,-18.762741088867188,132.66526794433594,-107.78933715820312
1773150246614487300,4.8444873046875,-18.800765991210938,132.09620666503906,-108.24740600585938
1773150246624581000,4.8545810546875,-18.8768310546875,131.35801696777344,-108.74983215332031
1773150246634674400,4.86467431640625,-18.9730224609375,131.1695556640625,-108.98379516601562
1773150246644768300,4.874768310546875,-19.1019287109375,130.7357940673828,-109.16903686523438
1773150246654861300,4.884861328125,-19.069015502929688,130.2611541748047,-109.14901733398438
1773150246664954000,4.8949541015625,-19.180267333984375,129.85203552246094,-109.22843933105469
1773150246675048200,4.905048095703125,-19.51861572265625,129.6815185546875,-109.09857177734375
1773150246685141200,4.915141357421875,-19.665176391601562,129.52804565429688,-108.73377990722656
1773150246695235300,4.9252353515625,-19.88629150390625,129.1068878173828,-108.31863403320312
1773150246705327400,4.935327392578125,-20.045272827148438,129.31204223632812,-107.76863098144531
1773150246715416300,4.945416259765625,-20.50750732421875,129.212646484375,-107.49246215820312
1773150246725514200,4.95551416015625,-20.794387817382812,129.32473754882812,-107.1328125
1773150246735602200,4.965602294921875,-20.481460571289062,129.37692260742188,-107.01890563964844
1773150246745700000,4.9757001953125,-20.014724731445312,129.82330322265625,-107.14126586914062
1773150246755788300,4.985788330078125,-19.503753662109375,130.0553436279297,-107.3299560546875
1773150246765886200,4.99588623046875,-18.993881225585938,130.52272033691406,-107.64285278320312
1773150246775980300,5.005980224609375,-18.8138427734375,130.87179565429688,-108.01438903808594
1773150246786068200,5.016068115234375,-18.687850952148438,131.15310668945312,-107.88941955566406
1773150246796166100,5.026166259765625,-18.799545288085938,131.26025390625,-107.67451477050781
1773150246806260200,5.03626025390625,-18.865707397460938,131.2686004638672,-107.59877014160156
1773150246816349200,5.04634912109375,-18.782974243164062,131.38983154296875,-107.34649658203125
1773150246826446300,5.0564462890625,-19.331405639648438,131.04083251953125,-107.13368225097656
1773150246836538400,5.066538330078125,-19.256134033203125,130.9762725830078,-107.126953125
1773150246846631200,5.076631103515625,-18.78619384765625,130.65118408203125,-107.23049926757812
1773150246856723200,5.08672314453125,-18.476943969726562,130.6293182373047,-108.24559020996094
1773150246866817300,5.0968173828125,-17.623382568359375,130.65989685058594,-109.186279296875
1773150246876910300,5.106910400390625,-16.647354125976562,130.79660034179688,-110.15583801269531
1773150246887002000,5.117002197265625,-15.530776977539062,131.19273376464844,-111.43362426757812
1773150246897095200,5.12709521484375,-14.392013549804688,131.33767700195312,-112.01443481445312
1773150246907189200,5.137189208984375,-13.7354736328125,131.30174255371094,-112.93019104003906
1773150246917283300,5.147283447265625,-12.995651245117188,131.5415802001953,-113.35969543457031
1773150246927376400,5.15737646484375,-12.31109619140625,132.01588439941406,-113.85868835449219
1773150246937470200,5.16747021484375,-11.614059448242188,132.42442321777344,-113.91014099121094
1773150246947564000,5.17756396484375,-11.089614868164062,132.61842346191406,-114.13204956054688
1773150246957657000,5.187656982421875,-11.175689697265625,132.39833068847656,-114.28831481933594
1773150246967750400,5.19775048828125,-10.835708618164062,132.45980834960938,-114.18365478515625
1773150246977843200,5.20784326171875,-11.33563232421875,132.24302673339844,-114.18806457519531
1773150246987936300,5.217936279296875,-11.387298583984375,132.34173583984375,-114.08018493652344
1773150246998029300,5.228029296875,-11.794357299804688,132.45556640625,-113.98304748535156
1773150247008122000,5.2381220703125,-12.34710693359375,132.2923126220703,-113.75999450683594
1773150247018215200,5.248215087890625,-12.850784301757812,132.3212432861328,-113.1898193359375
1773150247028307200,5.25830712890625,-12.966400146484375,132.26168823242188,-112.73838806152344
1773150247038399200,5.268399169921875,-13.211318969726562,132.03680419921875,-112.09120178222656
1773150247048492300,5.2784921875,-13.761978149414062,132.38861083984375,-111.78660583496094
1773150247058585000,5.288585205078125,-14.196945190429688,132.27146911621094,-111.3624267578125
1773150247068677000,5.298677001953125,-14.807083129882812,132.02029418945312,-110.94984436035156
1773150247078770200,5.308770263671875,-15.177536010742188,132.12733459472656,-110.38487243652344
1773150247088863200,5.31886328125,-15.5894775390625,132.22561645507812,-109.86181640625
1773150247098957300,5.328957275390625,-16.01690673828125,132.15208435058594,-109.60310363769531
1773150247109050400,5.33905029296875,-16.69195556640625,132.04762268066406,-109.12445068359375
1773150247119142400,5.349142333984375,-17.030899047851562,131.87672424316406,-108.53746032714844
1773150247129236200,5.359236328125,-17.59796142578125,131.62384033203125,-108.18099975585938
1773150247139329300,5.369329345703125,-17.85211181640625,131.54150390625,-107.79696655273438
1773150247149424400,5.37942431640625,-17.927017211914062,131.60653686523438,-107.62193298339844
1773150247159513300,5.389513427734375,-17.90423583984375,131.63661193847656,-107.56979370117188
1773150247169613000,5.399613037109375,-18.080123901367188,131.7183837890625,-107.53807067871094
1773150247179708200,5.409708251953125,-18.223419189453125,131.4932403564453,-107.39776611328125
1773150247189804300,5.41980419921875,-18.527267456054688,131.31089782714844,-107.38008117675781
1773150247199894300,5.429894287109375,-18.730514526367188,131.43350219726562,-107.103515625
1773150247209990100,5.439990234375,-18.824859619140625,131.13619995117188,-106.87461853027344
1773150247220086300,5.450086181640625,-19.383819580078125,131.16217041015625,-106.64857482910156
1773150247230181000,5.46018115234375,-19.336746215820312,131.0648193359375,-106.15380859375
1773150247240277200,5.47027734375,-20.12335205078125,130.70606994628906,-105.95989990234375
1773150247250372000,5.4803720703125,-19.98577880859375,130.77627563476562,-105.65614318847656
1773150247260472300,5.490472412109375,-20.6875,130.49130249023438,-105.32093811035156
1773150247270562000,5.50056201171875,-21.090408325195312,130.2665252685547,-105.06233215332031
1773150247280657400,5.510657470703125,-20.924285888671875,129.99398803710938,-104.74925231933594
1773150247290752300,5.520752197265625,-21.471298217773438,129.8365020751953,-104.59043884277344
1773150247300848000,5.53084814453125,-21.531661987304688,129.86419677734375,-104.45689392089844
1773150247310944300,5.5409443359375,-21.347213745117188,129.80621337890625,-104.16983032226562
1773150247321040100,5.5510400390625,-21.80731201171875,129.87319946289062,-104.17755126953125
1773150247331140400,5.561140380859375,-21.750228881835938,129.75924682617188,-103.97735595703125
1773150247341230000,5.57122998046875,-21.9996337890625,129.3320770263672,-103.96768188476562
1773150247351331300,5.581331298828125,-22.21209716796875,129.31402587890625,-103.815673828125
1773150247361422300,5.59142236328125,-22.454574584960938,128.867431640625,-103.61805725097656
1773150247371518200,5.601518310546875,-22.617965698242188,128.79562377929688,-103.39955139160156
1773150247381614300,5.6116142578125,-22.576583862304688,129.07049560546875,-103.57768249511719
1773150247391708200,5.621708251953125,-22.932083129882812,128.93121337890625,-103.60968017578125
1773150247401804300,5.63180419921875,-22.511703491210938,129.13999938964844,-103.49705505371094
1773150247411897000,5.64189697265625,-22.061386108398438,129.028076171875,-103.42578125
1773150247421996000,5.65199609375,-21.886749267578125,129.6361083984375,-103.29167175292969
1773150247432091100,5.662091064453125,-22.113662719726562,129.2736358642578,-103.49058532714844
1773150247442180000,5.67218017578125,-22.17254638671875,129.42312622070312,-103.5030517578125
1773150247452280300,5.6822802734375,-22.347076416015625,129.76995849609375,-103.4927978515625
1773150247462374100,5.6923740234375,-21.972183227539062,130.04090881347656,-103.50106811523438
1773150247472468200,5.70246826171875,-21.589767456054688,129.9735870361328,-102.97575378417969
1773150247482562300,5.712562255859375,-21.5706787109375,130.3212432861328,-103.17918395996094
1773150247492656000,5.72265625,-21.545318603515625,130.29580688476562,-103.26864624023438
1773150247502749200,5.732749267578125,-21.242111206054688,130.7563934326172,-103.25440979003906
1773150247512843000,5.742843017578125,-21.163925170898438,130.9502716064453,-103.28927612304688
1773150247522936600,5.7529365234375,-20.82183837890625,130.9919891357422,-103.40422058105469
1773150247533030400,5.763030517578125,-20.533126831054688,131.30836486816406,-103.61772155761719
1773150247543124700,5.773124755859375,-20.2913818359375,131.4932403564453,-103.61399841308594
1773150247553217500,5.783217529296875,-20.03240966796875,131.57032775878906,-103.57212829589844
1773150247563310600,5.793310546875,-20.019744873046875,131.9629364013672,-103.48493957519531
1773150247573403600,5.803403564453125,-19.69451904296875,132.08050537109375,-103.38284301757812
1773150247583497500,5.81349755859375,-19.407058715820312,132.58766174316406,-103.34136962890625
1773150247593591800,5.823591796875,-18.877212524414062,132.6380157470703,-103.22004699707031
1773150247603683600,5.83368359375,-19.281387329101562,132.82986450195312,-103.251220703125
1773150247613771800,5.843771728515625,-18.881759643554688,133.1184539794922,-103.00151062011719
1773150247623870700,5.85387060546875,-18.672836303710938,133.20086669921875,-103.29597473144531
1773150247633958700,5.863958740234375,-18.708892822265625,133.2601318359375,-103.45187377929688
1773150247644057600,5.8740576171875,-18.783203125,133.26112365722656,-103.67599487304688
1773150247654151700,5.884151611328125,-18.869491577148438,133.68206787109375,-103.87530517578125
1773150247664240600,5.89424072265625,-18.216445922851562,133.41705322265625,-104.12423706054688
1773150247674335500,5.90433544921875,-18.150802612304688,133.3497772216797,-104.45909118652344
1773150247684430600,5.9144306640625,-17.848709106445312,133.2878875732422,-105.13272094726562
1773150247694526700,5.924526611328125,-17.643844604492188,133.4447021484375,-105.59686279296875
1773150247704621600,5.93462158203125,-17.4371337890625,133.34262084960938,-106.14193725585938
1773150247714715400,5.94471533203125,-17.051803588867188,133.38331604003906,-106.48088073730469
1773150247724809700,5.954809814453125,-16.616973876953125,133.60888671875,-107.1005859375
1773150247734904600,5.964904541015625,-16.501358032226562,134.00416564941406,-107.3992919921875
1773150247744998700,5.97499853515625,-15.950576782226562,133.74111938476562,-107.37429809570312
1773150247755097600,5.98509765625,-15.583328247070312,133.68858337402344,-107.46467590332031
1773150247765191700,5.995191650390625,-15.462799072265625,134.079833984375,-107.62165832519531
1773150247775284500,6.005284423828125,-15.454391479492188,133.95835876464844,-107.42037963867188
1773150247785373700,6.015373779296875,-15.348526000976562,134.29360961914062,-107.76106262207031
1773150247795465700,6.0254658203125,-15.3878173828125,134.2093505859375,-107.5950927734375
1773150247805564700,6.035564697265625,-15.137725830078125,134.53378295898438,-107.24224853515625
1773150247815657700,6.04565771484375,-15.35565185546875,134.5913543701172,-107.19097900390625
1773150247825750500,6.05575048828125,-15.319549560546875,134.74790954589844,-106.98654174804688
1773150247835844600,6.0658447265625,-15.252227783203125,134.8288116455078,-107.13813781738281
1773150247845937400,6.0759375,-15.097213745117188,135.14190673828125,-107.13352966308594
1773150247856026600,6.086026611328125,-14.78814697265625,135.11216735839844,-107.11404418945312
1773150247866120700,6.09612060546875,-14.4962158203125,135.03256225585938,-107.35020446777344
1773150247876219400,6.106219482421875,-14.365707397460938,135.14013671875,-107.82333374023438
1773150247886313700,6.116313720703125,-14.339920043945312,135.3559112548828,-108.36203002929688
1773150247896406500,6.126406494140625,-13.968276977539062,135.10256958007812,-108.3463134765625
1773150247906494700,6.13649462890625,-13.670928955078125,135.09716796875,-108.63995361328125
1773150247916588500,6.146588623046875,-13.462890625,135.1182861328125,-108.76596069335938
1773150247926687500,6.1566875,-13.203659057617188,135.26559448242188,-109.10134887695312
1773150247936780800,6.16678076171875,-12.562255859375,135.22715759277344,-109.38258361816406
1773150247946869500,6.176869384765625,-12.463226318359375,135.30711364746094,-109.59213256835938
1773150247956967700,6.1869677734375,-12.247711181640625,135.3323974609375,-109.72105407714844
1773150247967061500,6.1970615234375,-12.063308715820312,135.33932495117188,-109.85606384277344
1773150247977150700,6.207150634765625,-11.658065795898438,135.58494567871094,-110.05760192871094
1773150247987243800,6.217243896484375,-11.359237670898438,135.70404052734375,-110.19120788574219
1773150247997342500,6.227342529296875,-11.007003784179688,135.8213348388672,-110.07907104492188
1773150248007435500,6.237435546875,-10.911727905273438,135.9222412109375,-110.41560363769531
1773150248017529600,6.247529541015625,-10.935256958007812,135.8731689453125,-110.34974670410156
1773150248027622700,6.25762255859375,-10.5855712890625,135.89291381835938,-110.24085998535156
1773150248037716700,6.267716796875,-10.763717651367188,135.81150817871094,-110.19242858886719
1773150248047810600,6.277810546875,-10.307449340820312,136.07301330566406,-110.08522033691406
1773150248057898500,6.2878984375,-10.674774169921875,135.92996215820312,-110.4097900390625
1773150248067996400,6.297996337890625,-10.3251953125,135.97598266601562,-110.27400207519531
1773150248078090800,6.3080908203125,-10.29864501953125,136.07102966308594,-110.42875671386719
1773150248088179700,6.3181796875,-10.3779296875,135.9629669189453,-110.24945068359375
1773150248098278400,6.3282783203125,-10.286941528320312,135.8275604248047,-110.31069946289062
1773150248108372700,6.338372802734375,-10.387649536132812,135.85887145996094,-110.51734924316406
1773150248118460700,6.348460693359375,-10.006011962890625,135.99192810058594,-110.45895385742188
1773150248128553700,6.3585537109375,-10.111557006835938,135.8404541015625,-110.26487731933594
1773150248138651600,6.368651611328125,-10.223907470703125,136.1050567626953,-110.41253662109375
1773150248148743700,6.37874365234375,-10.412704467773438,135.84405517578125,-110.34938049316406
1773150248158833400,6.38883349609375,-10.586837768554688,135.74388122558594,-110.40888977050781
1773150248168925400,6.398925537109375,-10.67974853515625,135.6581573486328,-110.57798767089844
1773150248179018500,6.4090185546875,-10.258148193359375,135.70907592773438,-110.3857421875
1773150248189106700,6.419106689453125,-10.26983642578125,135.62863159179688,-110.33535766601562
1773150248199205600,6.42920556640625,-10.360809326171875,135.6782989501953,-110.62149047851562
1773150248209298700,6.439298583984375,-10.4619140625,135.72059631347656,-110.68931579589844
1773150248219387600,6.4493876953125,-10.652816772460938,135.70130920410156,-110.8355712890625
1773150248229486600,6.459486572265625,-10.537017822265625,135.61752319335938,-110.76614379882812
1773150248239574800,6.46957470703125,-10.440338134765625,135.5492401123047,-110.67599487304688
1773150248249667600,6.47966748046875,-10.99066162109375,135.6443328857422,-110.767822265625
1773150248259766500,6.4897666015625,-11.073272705078125,135.67095947265625,-110.774169921875
1773150248269858600,6.499858642578125,-11.132400512695312,135.54930114746094,-110.65562438964844
1773150248279952600,6.50995263671875,-10.69573974609375,135.5442657470703,-110.61273193359375
1773150248290045400,6.52004541015625,-11.554977416992188,135.52822875976562,-110.565673828125
1773150248300132600,6.530132568359375,-11.5755615234375,134.9192657470703,-110.38462829589844
1773150248310229500,6.5402294921875,-11.532241821289062,135.1875,-110.45423889160156
1773150248320321500,6.550321533203125,-11.625442504882812,134.99813842773438,-110.35623168945312
1773150248330413600,6.56041357421875,-11.645751953125,134.84866333007812,-110.29119873046875
1773150248340505600,6.570505615234375,-11.995040893554688,134.72152709960938,-110.23439025878906
1773150248350597600,6.58059765625,-11.793792724609375,134.74380493164062,-110.29217529296875
1773150248360689700,6.590689697265625,-12.098648071289062,134.5951385498047,-110.14132690429688
1773150248370781700,6.60078173828125,-12.091415405273438,134.6802520751953,-110.28469848632812
1773150248380873700,6.610873779296875,-11.765762329101562,134.5762176513672,-110.03012084960938
1773150248390960600,6.620960693359375,-12.53564453125,134.40463256835938,-109.98098754882812
1773150248401053700,6.6310537109375,-12.391128540039062,134.31979370117188,-110.089599609375
1773150248411147500,6.6411474609375,-12.58795166015625,134.55177307128906,-109.96624755859375
1773150248421245700,6.65124560546875,-12.737380981445312,134.368408203125,-109.77920532226562
1773150248431337500,6.66133740234375,-12.713531494140625,134.39442443847656,-109.47975158691406
1773150248441430500,6.671430419921875,-13.242050170898438,134.1040802001953,-109.37666320800781
1773150248451521500,6.681521484375,-13.543869018554688,134.150634765625,-109.15492248535156
1773150248461614600,6.691614501953125,-13.821823120117188,134.15939331054688,-108.82733154296875
1773150248471703600,6.70170361328125,-14.234298706054688,133.9748077392578,-108.69911193847656
1773150248481801500,6.711801513671875,-14.255340576171875,133.74557495117188,-108.36302185058594
1773150248491889400,6.721889404296875,-14.700347900390625,133.552734375,-108.24835205078125
1773150248501983700,6.731983642578125,-15.126617431640625,133.3398895263672,-108.0087890625
1773150248512078600,6.74207861328125,-15.084121704101562,133.19927978515625,-108.0162353515625
1773150248522177000,6.752177001953125,-15.407608032226562,133.09735107421875,-107.77354431152344
1773150248532274000,6.76227392578125,-15.482696533203125,133.07843017578125,-107.57255554199219
1773150248542369000,6.772369140625,-15.8310546875,132.78384399414062,-107.51438903808594
1773150248552461000,6.7824609375,-15.930877685546875,132.62966918945312,-107.44241333007812
1773150248562553000,6.792552978515625,-16.254959106445312,132.47802734375,-107.14764404296875
1773150248572647200,6.802647216796875,-16.317596435546875,132.4469757080078,-106.76335144042969
1773150248582739200,6.8127392578125,-16.811264038085938,132.23106384277344,-106.86288452148438
1773150248592832000,6.82283203125,-17.184494018554688,132.09255981445312,-106.62802124023438
1773150248602925000,6.832925048828125,-17.357757568359375,131.8448944091797,-106.29226684570312
1773150248613018000,6.84301806640625,-17.476348876953125,131.79811096191406,-106.07060241699219
1773150248623107000,6.853107177734375,-17.842803955078125,131.47439575195312,-105.69329833984375
1773150248633201200,6.863201171875,-17.912673950195312,131.56155395507812,-105.65603637695312
1773150248643299000,6.873299072265625,-18.410079956054688,131.68971252441406,-105.65431213378906
1773150248653393200,6.88339306640625,-18.705108642578125,131.30076599121094,-105.33586120605469
1773150248663486000,6.89348583984375,-18.794052124023438,131.15101623535156,-105.11941528320312
1773150248673575200,6.9035751953125,-19.145919799804688,130.92276000976562,-105.00859069824219
1773150248683674000,6.913674072265625,-19.328140258789062,130.90695190429688,-104.75808715820312
1773150248693763000,6.92376318359375,-18.889678955078125,130.5049591064453,-104.80860900878906
1773150248703855900,6.93385595703125,-19.696945190429688,130.46774291992188,-104.72261047363281
1773150248713955000,6.943955078125,-19.683807373046875,130.3074493408203,-104.51664733886719
1773150248724043000,6.95404296875,-19.906494140625,129.95169067382812,-104.567138671875
1773150248734136000,6.964135986328125,-20.392333984375,129.84359741210938,-104.43360900878906
1773150248744231000,6.97423095703125,-20.636871337890625,129.45513916015625,-104.39695739746094
1773150248754330000,6.984330078125,-21.003494262695312,129.61268615722656,-104.41465759277344
1773150248764423200,6.994423095703125,-20.762893676757812,129.2057647705078,-103.99288940429688
1773150248774511000,7.004510986328125,-21.075912475585938,129.16200256347656,-104.19367980957031
1773150248784609000,7.014609130859375,-21.281402587890625,129.17869567871094,-103.96609497070312
1773150248794699300,7.02469921875,-21.250991821289062,128.6582794189453,-103.85800170898438
1773150248804798200,7.034798095703125,-21.643234252929688,128.54452514648438,-103.67984008789062
1773150248814887200,7.04488720703125,-21.313995361328125,128.242919921875,-103.22734069824219
1773150248824980000,7.05497998046875,-22.048965454101562,127.81755065917969,-103.25894165039062
1773150248835075000,7.065074951171875,-22.08447265625,127.60238647460938,-102.98518371582031
1773150248845174000,7.075174072265625,-22.6494140625,127.5169677734375,-102.76512145996094
1773150248855263000,7.085262939453125,-22.767959594726562,127.07032775878906,-102.64059448242188
1773150248865359000,7.095359130859375,-22.989593505859375,127.27227783203125,-102.28738403320312
1773150248875453000,7.105452880859375,-23.029067993164062,127.36451721191406,-102.39790344238281
1773150248885541000,7.115541015625,-22.956283569335938,127.021240234375,-102.00132751464844
1773150248895638000,7.125637939453125,-23.13970947265625,126.83038330078125,-101.92829895019531
1773150248905727200,7.135727294921875,-23.040374755859375,126.6375732421875,-101.57606506347656
1773150248915821000,7.145821044921875,-23.539016723632812,126.58464050292969,-101.58915710449219
1773150248925919000,7.1559189453125,-23.555450439453125,126.63693237304688,-101.47917175292969
1773150248936009200,7.16600927734375,-23.833221435546875,126.53276062011719,-101.21943664550781
1773150248946103000,7.17610302734375,-23.943801879882812,126.43833923339844,-101.02667236328125
1773150248956197000,7.186197021484375,-23.972000122070312,126.57698059082031,-100.48764038085938
1773150248966296300,7.19629638671875,-24.16827392578125,126.62387084960938,-100.44223022460938
1773150248976390100,7.20639013671875,-23.990432739257812,126.53297424316406,-100.57772827148438
1773150248986484000,7.21648388671875,-24.13525390625,126.34657287597656,-100.31039428710938
1773150248996579000,7.2265791015625,-24.00372314453125,126.33380126953125,-100.29013061523438
1773150249006672100,7.236672119140625,-24.199600219726562,126.14723205566406,-100.20561218261719
1773150249016765200,7.24676513671875,-24.277572631835938,126.27711486816406,-100.39703369140625
1773150249026855000,7.25685498046875,-24.32769775390625,126.33949279785156,-100.33938598632812
1773150249036954000,7.2669541015625,-24.382598876953125,126.40077209472656,-100.38040161132812
1773150249047043000,7.27704296875,-24.3983154296875,126.22483825683594,-100.57740783691406
1773150249057143300,7.287143310546875,-24.365585327148438,126.10330200195312,-100.48402404785156
1773150249067233000,7.29723291015625,-24.190155029296875,126.28788757324219,-100.54286193847656
1773150249077332000,7.30733203125,-23.9935302734375,126.14067077636719,-100.48544311523438
1773150249087426300,7.31742626953125,-23.982376098632812,126.3592529296875,-100.52137756347656
1773150249097517000,7.32751708984375,-24.205947875976562,126.4232177734375,-100.48823547363281
1773150249107616300,7.3376162109375,-24.122756958007812,126.392578125,-100.68992614746094
1773150249117706000,7.3477060546875,-24.147598266601562,126.54570007324219,-100.69320678710938
1773150249127801000,7.357801025390625,-24.287750244140625,126.62757873535156,-100.732666015625
1773150249137900000,7.367900146484375,-24.090499877929688,126.69932556152344,-100.83395385742188
1773150249147990000,7.377989990234375,-24.01318359375,126.79624938964844,-100.61175537109375
1773150249158085000,7.388085205078125,-23.695037841796875,126.93852233886719,-100.89996337890625
1773150249168186000,7.39818603515625,-23.772201538085938,127.19036865234375,-101.0081787109375
1773150249178279200,7.408279052734375,-23.860000610351562,127.08270263671875,-100.8778076171875
1773150249188372200,7.418372314453125,-23.830459594726562,127.26174926757812,-101.13131713867188
1773150249198467000,7.428467041015625,-23.185104370117188,127.40762329101562,-101.40162658691406
1773150249208556300,7.438556396484375,-23.177871704101562,127.42147827148438,-101.46551513671875
1773150249218655200,7.4486552734375,-23.293914794921875,127.48822021484375,-101.58219909667969
1773150249228749000,7.4587490234375,-23.169403076171875,127.76600646972656,-101.70927429199219
1773150249238843100,7.468843017578125,-23.32379150390625,127.92721557617188,-102.01274108886719
1773150249248938000,7.47893798828125,-22.8284912109375,128.0299530029297,-101.96989440917969
1773150249259033000,7.489033203125,-22.790283203125,128.334716796875,-102.1812744140625
1773150249269122000,7.4991220703125,-22.266342163085938,128.5348663330078,-102.348388671875
1773150249279217000,7.509216796875,-22.19873046875,128.63697814941406,-102.66648864746094
1773150249289313000,7.51931298828125,-22.003738403320312,129.00259399414062,-102.6395263671875
1773150249299409200,7.5294091796875,-21.823287963867188,129.0863494873047,-103.03883361816406
1773150249309510000,7.539510009765625,-21.711624145507812,129.653076171875,-103.14027404785156
1773150249319605000,7.54960498046875,-21.920867919921875,129.74884033203125,-103.07212829589844
1773150249329701000,7.559701171875,-21.921844482421875,129.9352264404297,-103.11636352539062
1773150249339796000,7.5697958984375,-21.538375854492188,130.08486938476562,-102.97810363769531
1773150249349886200,7.57988623046875,-21.582992553710938,130.26925659179688,-103.09400939941406
1773150249359986200,7.589986083984375,-21.687881469726562,130.2074432373047,-102.97830200195312
1773150249370080000,7.600080078125,-21.779281616210938,130.07174682617188,-102.71211242675781
1773150249380175000,7.610175048828125,-21.618988037109375,130.091552734375,-102.58331298828125
1773150249390265000,7.62026513671875,-21.706146240234375,130.36138916015625,-102.50541687011719
1773150249400360200,7.630360107421875,-21.713241577148438,130.19224548339844,-102.27098083496094
1773150249410455000,7.640455078125,-21.5833740234375,130.3787841796875,-102.08694458007812
1773150249420555000,7.650554931640625,-21.790313720703125,130.67825317382812,-101.86824035644531
1773150249430650000,7.660650146484375,-21.945144653320312,130.6876983642578,-101.54493713378906
1773150249440740000,7.670739990234375,-22.025222778320312,130.63540649414062,-101.102783203125
1773150249450836200,7.680836181640625,-22.122665405273438,130.9246063232422,-100.77128601074219
1773150249460933000,7.69093310546875,-22.54327392578125,130.65476989746094,-100.10484313964844
1773150249471029000,7.701029052734375,-22.708541870117188,130.52407836914062,-99.64260864257812
1773150249481125000,7.711125,-22.5548095703125,130.31825256347656,-99.19241333007812
1773150249491221200,7.72122119140625,-22.988616943359375,130.3818359375,-98.83749389648438
1773150249501316000,7.731316162109375,-23.23345947265625,130.50473022460938,-98.77859497070312
1773150249511412200,7.741412109375,-23.2816162109375,130.3625946044922,-98.76593017578125
1773150249521503500,7.75150341796875,-23.236129760742188,130.25997924804688,-98.93003845214844
1773150249531599400,7.761599365234375,-22.8529052734375,130.39724731445312,-98.90452575683594
1773150249541695200,7.7716953125,-23.2628173828125,130.0645294189453,-99.46826171875
1773150249551791400,7.781791259765625,-23.323654174804688,129.85789489746094,-99.70851135253906
1773150249561886200,7.79188623046875,-23.137832641601562,129.84815979003906,-100.02041625976562
1773150249571981300,7.801981201171875,-23.585037231445312,129.74720764160156,-100.02949523925781
1773150249582081300,7.812081298828125,-23.1590576171875,129.6833953857422,-99.65193176269531
1773150249592175400,7.82217529296875,-23.554519653320312,129.5652618408203,-99.61302185058594
1773150249602268400,7.832268310546875,-23.701095581054688,129.7819366455078,-99.30111694335938
1773150249612358400,7.8423583984375,-23.746109008789062,129.77069091796875,-99.12568664550781
1773150249622458400,7.852458251953125,-23.761383056640625,129.78273010253906,-98.88417053222656
1773150249632553200,7.86255322265625,-23.757568359375,129.69137573242188,-98.68795776367188
1773150249642646300,7.872646240234375,-23.586166381835938,129.5071258544922,-98.86721801757812
1773150249652740400,7.882740234375,-23.572647094726562,129.4833221435547,-99.00131225585938
1773150249662828500,7.89282861328125,-23.568435668945312,129.35015869140625,-99.11502075195312
1773150249672922400,7.90292236328125,-23.570648193359375,129.19241333007812,-99.37281799316406
1773150249683021300,7.913021240234375,-23.385726928710938,129.14300537109375,-99.64247131347656
1773150249693111300,7.923111328125,-23.503433227539062,129.12545776367188,-99.72752380371094
1773150249703205400,7.933205322265625,-23.429107666015625,129.04925537109375,-99.90946960449219
1773150249713301500,7.943301513671875,-23.419708251953125,128.9581298828125,-99.81175231933594
1773150249723401200,7.953401123046875,-23.166641235351562,128.91665649414062,-99.55537414550781
1773150249733490200,7.963490234375,-23.436233520507812,128.7415008544922,-99.83714294433594
1773150249743585300,7.973585205078125,-23.510147094726562,128.60931396484375,-99.83634948730469
1773150249753680100,7.98368017578125,-23.325653076171875,128.5311737060547,-99.80039978027344
1773150249763781400,7.993781494140625,-23.774459838867188,128.6931610107422,-99.76960754394531
1773150249773873400,8.003873291015625,-23.42303466796875,128.29351806640625,-99.36607360839844
1773150249783969300,8.01396923828125,-23.795455932617188,128.3214874267578,-99.21260070800781
1773150249794069200,8.0240693359375,-23.630691528320312,128.3052215576172,-98.87887573242188
1773150249804164400,8.034164306640625,-23.398513793945312,128.2220458984375,-98.73277282714844
1773150249814254300,8.04425439453125,-23.793960571289062,128.19200134277344,-98.34661865234375
1773150249824349400,8.054349365234375,-23.809524536132812,128.1143035888672,-98.18302917480469
1773150249834449400,8.064449462890625,-23.547073364257812,128.00396728515625,-97.77151489257812
1773150249844544500,8.07454443359375,-23.833084106445312,127.99749755859375,-97.59722900390625
1773150249854634200,8.08463427734375,-23.805404663085938,127.73011779785156,-97.30429077148438
1773150249864729300,8.094729248046875,-23.14349365234375,127.82489013671875,-97.3828125
1773150249874830300,8.104830322265625,-23.626800537109375,127.67503356933594,-97.25091552734375
1773150249884924400,8.11492431640625,-23.840988159179688,127.76455688476562,-97.3275146484375
1773150249895019300,8.125019287109374,-24.085418701171875,127.34284973144531,-97.11344909667969
1773150249905109500,8.135109619140625,-24.056594848632812,127.25291442871094,-97.1624755859375
1773150249915205000,8.145205078125,-23.746307373046875,127.1815185546875,-97.08740234375
1773150249925301200,8.15530126953125,-23.957275390625,126.88255310058594,-97.14895629882812
1773150249935396400,8.165396240234376,-23.777633666992188,126.73492431640625,-97.05612182617188
1773150249945491200,8.1754912109375,-23.91265869140625,126.52064514160156,-96.99580383300781
1773150249955586600,8.185586669921875,-24.274444580078125,126.48770141601562,-97.06964111328125
1773150249965686300,8.195686279296876,-23.587738037109375,126.27293395996094,-96.91978454589844
1773150249975775200,8.205775146484376,-23.946685791015625,125.54750061035156,-96.90792846679688
1773150249985875500,8.21587548828125,-24.3541259765625,125.25700378417969,-96.75067138671875
1773150249995971300,8.225971435546874,-24.442855834960938,124.64404296875,-96.70018005371094
1773150250006060300,8.236060302734375,-24.37286376953125,123.96932983398438,-96.48910522460938
1773150250016159200,8.2461591796875,-24.683792114257812,123.36051940917969,-96.90518188476562
1773150250026248400,8.25624853515625,-24.906417846679688,122.95428466796875,-97.31582641601562
1773150250036348400,8.266348388671876,-25.281829833984375,121.86962890625,-97.28990173339844
1773150250046442200,8.276442138671875,-25.315093994140625,121.2703857421875,-97.58012390136719
1773150250056537300,8.286537353515625,-25.672470092773438,120.73983764648438,-97.65968322753906
1773150250066631400,8.29663134765625,-25.92498779296875,120.22030639648438,-97.77864074707031
1773150250076721400,8.306721435546875,-26.110153198242188,119.44789123535156,-97.83135986328125
1773150250086820400,8.3168203125,-26.392425537109375,118.92457580566406,-97.81442260742188
1773150250096909300,8.326909423828125,-26.322097778320312,118.47029113769531,-97.85575866699219
1773150250107008500,8.337008544921876,-26.216323852539062,118.03489685058594,-97.5869140625
1773150250117098200,8.34709814453125,-26.442276000976562,117.72010803222656,-97.62532043457031
1773150250127197200,8.357197265625,-26.439041137695312,117.35197448730469,-97.27220153808594
1773150250137291500,8.36729150390625,-26.576492309570312,117.0823974609375,-97.16184997558594
1773150250147385300,8.37738525390625,-26.950912475585938,116.68699645996094,-97.00982666015625
1773150250157480200,8.387480224609375,-27.036590576171875,116.42770385742188,-96.76885986328125
1773150250167570400,8.3975703125,-27.084487915039062,116.14772033691406,-96.79946899414062
1773150250177670100,8.407670166015626,-27.22528076171875,115.80078125,-96.86048889160156
1773150250187760400,8.417760498046874,-27.2650146484375,115.28802490234375,-97.02961730957031
1773150250197860400,8.4278603515625,-27.3770751953125,115.0853271484375,-97.30473327636719
1773150250207949300,8.43794921875,-27.543869018554688,114.9825439453125,-97.53811645507812
1773150250218048300,8.44804833984375,-27.374588012695312,114.65191650390625,-97.67344665527344
1773150250228138500,8.458138427734376,-27.344528198242188,114.49101257324219,-97.78289794921875
1773150250238239200,8.4682392578125,-27.489013671875,114.55538940429688,-98.03642272949219
1773150250248334300,8.478334228515624,-27.108139038085938,114.52597045898438,-97.73675537109375
1773150250258429200,8.48842919921875,-27.363693237304688,114.72010803222656,-98.17784118652344
1773150250268523500,8.4985234375,-27.153900146484375,115.22061157226562,-98.24827575683594
1773150250278618400,8.508618408203125,-26.961181640625,115.29278564453125,-98.24739074707031
1773150250288711400,8.51871142578125,-26.963775634765625,115.5966796875,-98.13710021972656
1773150250298805200,8.52880517578125,-26.566070556640625,115.87322998046875,-97.97123718261719
1773150250308898600,8.538898681640624,-26.786026000976562,116.28768920898438,-97.81721496582031
1773150250318993400,8.548993408203126,-26.842880249023438,116.8082275390625,-97.49911499023438
1773150250329087200,8.559087158203125,-26.61297607421875,117.35160827636719,-97.12178039550781
1773150250339182300,8.569182373046875,-26.506668090820312,117.89875793457031,-96.79751586914062
1773150250349275400,8.579275390625,-26.074325561523438,118.44914245605469,-96.29489135742188
1773150250359368400,8.589368408203125,-26.27606201171875,118.68838500976562,-95.72503662109375
1773150250369460200,8.599460205078126,-25.989791870117188,119.15507507324219,-95.20193481445312
1773150250379552300,8.60955224609375,-25.831375122070312,119.3734130859375,-94.97109985351562
1773150250389645300,8.619645263671876,-25.571121215820312,119.8953857421875,-94.83270263671875
1773150250399740400,8.629740478515625,-25.088821411132812,120.87284851074219,-94.71601867675781
1773150250409835300,8.639835205078125,-24.87628173828125,121.49200439453125,-94.62174987792969
1773150250419929300,8.649929443359374,-24.952301025390625,121.95155334472656,-94.810302734375
1773150250430025200,8.660025146484376,-24.786911010742188,122.49198913574219,-95.17350769042969
1773150250440114200,8.6701142578125,-24.381515502929688,122.29576110839844,-95.19207763671875
1773150250450215400,8.68021533203125,-24.5887451171875,122.74955749511719,-96.20610046386719
1773150250460309200,8.690309326171874,-24.130340576171875,122.53848266601562,-96.93861389160156
1773150250470403300,8.7004033203125,-23.872756958007812,122.72711181640625,-97.56814575195312
1773150250480497400,8.710497314453125,-23.672821044921875,122.96917724609375,-97.89485168457031
1773150250490591200,8.72059130859375,-23.6219482421875,123.09124755859375,-98.04890441894531
1773150250500686300,8.730686279296876,-23.42095947265625,123.44468688964844,-98.2474365234375
1773150250510780400,8.740780517578125,-23.117874145507812,123.95614624023438,-98.14707946777344
1773150250520875800,8.750875732421875,-23.206161499023438,124.26258850097656,-97.87278747558594
1773150250530969600,8.760969482421874,-22.8975830078125,124.77424621582031,-97.50706481933594
1773150250541062700,8.771062744140625,-22.683425903320312,124.91331481933594,-97.03642272949219
1773150250551156500,8.781156494140625,-22.282028198242188,125.218017578125,-97.03463745117188
1773150250561251600,8.79125146484375,-22.170913696289062,125.64405822753906,-96.90925598144531
1773150250571344600,8.8013447265625,-22.142913818359375,125.71617126464844,-96.92265319824219
1773150250581437700,8.811437744140624,-22.055099487304688,126.06390380859375,-96.72853088378906
1773150250591530500,8.821530517578125,-21.655838012695312,126.23416137695312,-96.6595458984375
1773150250601623600,8.83162353515625,-21.668701171875,126.52786254882812,-96.52828979492188
1773150250611716600,8.841716552734376,-21.483566284179688,126.72480773925781,-96.23365783691406
1773150250621809400,8.851809326171875,-21.593887329101562,126.97447204589844,-96.21353149414062
1773150250631902700,8.86190283203125,-21.292984008789062,127.27867126464844,-96.08148193359375
1773150250641996500,8.87199658203125,-21.020187377929688,127.39404296875,-96.36968994140625
1773150250652089600,8.882089599609374,-20.890106201171875,127.45271301269531,-96.54397583007812
1773150250662183400,8.892183349609375,-20.701690673828125,127.53872680664062,-96.7623291015625
1773150250672276500,8.9022763671875,-20.917221069335938,127.49833679199219,-96.78507995605469
1773150250682368500,8.912368408203125,-20.527252197265625,127.32527160644531,-96.64546203613281
1773150250692462600,8.922462646484375,-20.552505493164062,127.60362243652344,-97.02592468261719
1773150250702555600,8.9325556640625,-20.67095947265625,127.51974487304688,-97.20899963378906
1773150250712648700,8.942648681640625,-20.269805908203125,127.52523803710938,-97.31689453125
1773150250722741500,8.952741455078124,-20.354598999023438,127.57025146484375,-97.29521179199219
1773150250732834600,8.96283447265625,-20.267623901367188,127.32501220703125,-97.13137817382812
1773150250742928400,8.972928466796875,-20.086761474609375,127.56924438476562,-97.174072265625
1773150250753022700,8.983022705078126,-20.206741333007812,127.52702331542969,-97.10824584960938
1773150250763116500,8.993116455078125,-20.14306640625,127.59629821777344,-97.04266357421875
1773150250773208600,9.00320849609375,-20.242507934570312,127.5372314453125,-96.67720031738281
1773150250783298600,9.013298583984374,-20.022720336914062,127.296142578125,-96.46441650390625
1773150250793397800,9.023397705078125,-20.156875610351562,127.05967712402344,-96.36418151855469
1773150250803492600,9.03349267578125,-20.119369506835938,127.11470031738281,-95.94329833984375
1773150250813586400,9.04358642578125,-20.357818603515625,126.73463439941406,-95.5845947265625
1773150250823679700,9.0536796875,-20.021881103515625,126.88877868652344,-95.13374328613281
1773150250833774600,9.063774658203124,-20.12982177734375,126.91493225097656,-94.86116027832031
1773150250843867600,9.07386767578125,-19.917617797851562,126.41316223144531,-94.32977294921875
1773150250853960400,9.08396044921875,-20.398025512695312,126.75045776367188,-93.93959045410156
1773150250864053500,9.094053466796876,-19.808074951171875,126.57350158691406,-93.26449584960938
1773150250874148600,9.104148681640625,-19.720870971679688,126.83158874511719,-92.47966003417969
1773150250884242400,9.114242431640625,-19.767684936523438,126.72802734375,-91.92530822753906
1773150250894336800,9.124336669921876,-19.5118408203125,126.69709777832031,-91.64314270019531
1773150250904429600,9.1344296875,-20.031707763671875,126.58110046386719,-91.42117309570312
1773150250914522600,9.144522705078124,-19.698455810546875,126.55186462402344,-91.12095642089844
1773150250924615700,9.15461572265625,-19.263107299804688,126.57670593261719,-91.03868103027344
1773150250934707700,9.164707763671874,-19.881500244140625,126.10307312011719,-90.85758972167969
1773150250944800500,9.174800537109375,-19.319793701171875,125.92996215820312,-90.81829833984375
1773150250954892500,9.184892578125,-19.606430053710938,125.9249267578125,-90.42938232421875
1773150250964986600,9.194986572265625,-19.00433349609375,125.92344665527344,-90.38339233398438
1773150250975079400,9.205079345703124,-19.392364501953125,125.58625793457031,-90.33714294433594
1773150250985172500,9.21517236328125,-19.120223999023438,125.78717041015625,-90.4647216796875
1773150250995266600,9.2252666015625,-19.18310546875,125.66287231445312,-90.54965209960938
1773150251005359600,9.235359619140626,-19.094329833984375,125.43734741210938,-90.63986206054688
1773150251015452700,9.24545263671875,-18.82403564453125,125.54188537597656,-90.58775329589844
1773150251025541600,9.255541748046875,-19.204299926757812,125.35722351074219,-90.96952819824219
1773150251035641600,9.2656416015625,-18.823394775390625,125.31069946289062,-91.01327514648438
1773150251045735700,9.275735595703125,-18.843658447265625,125.16908264160156,-91.00746154785156
1773150251055829500,9.28582958984375,-18.6710205078125,125.29962158203125,-91.17855834960938
1773150251065923600,9.295923583984376,-18.4676513671875,125.35641479492188,-91.04560852050781
1773150251076016600,9.3060166015625,-18.446258544921875,125.52777099609375,-91.42216491699219
1773150251086104600,9.3161044921875,-18.257492065429688,125.2593994140625,-91.45962524414062
1773150251096203500,9.32620361328125,-18.067276000976562,125.178466796875,-91.28018188476562
1773150251106293800,9.336293701171876,-18.424209594726562,125.2904052734375,-91.47245788574219
1773150251116392700,9.346392822265624,-17.964553833007812,125.432373046875,-91.68365478515625
1773150251126487600,9.356487548828126,-18.07659912109375,125.36587524414062,-91.62335205078125
1773150251136580600,9.36658056640625,-17.94256591796875,125.2291259765625,-91.72023010253906
1773150251146673700,9.376673583984376,-17.70501708984375,125.26762390136719,-91.69467163085938
1773150251156767500,9.386767578125,-17.700775146484375,125.40423583984375,-91.71836853027344
1773150251166856400,9.3968564453125,-17.516647338867188,125.35289001464844,-91.842529296875
1773150251176954600,9.40695458984375,-17.5179443359375,125.29837036132812,-91.84774780273438
1773150251187048700,9.417048583984375,-17.635940551757812,125.1531982421875,-91.85748291015625
1773150251197141800,9.427141845703124,-17.369476318359375,125.18017578125,-91.89918518066406
1773150251207233800,9.43723388671875,-17.343460083007812,125.37213134765625,-91.84117126464844
1773150251217325600,9.44732568359375,-17.5802001953125,125.16903686523438,-91.97494506835938
1773150251227418600,9.457418701171875,-17.39447021484375,125.131103515625,-91.9422607421875
1773150251237510700,9.4675107421875,-17.357986450195312,125.37118530273438,-91.95518493652344
1773150251247602700,9.477602783203125,-17.281600952148438,125.6290283203125,-92.00462341308594
1773150251257690600,9.487690673828125,-16.861907958984375,125.25015258789062,-91.72993469238281
1773150251267789600,9.49778955078125,-17.156845092773438,125.43264770507812,-92.10003662109375
1773150251277877500,9.50787744140625,-17.1702880859375,125.39663696289062,-91.9832763671875
1773150251287976400,9.5179765625,-17.205902099609375,125.52702331542969,-92.08309936523438
1773150251298069500,9.528069580078125,-17.316116333007812,125.48997497558594,-92.16856384277344
1773150251308163600,9.53816357421875,-17.2137451171875,125.17134094238281,-92.11277770996094
1773150251318253600,9.548253662109374,-17.220443725585938,125.32460021972656,-92.26011657714844
1773150251328352800,9.558352783203125,-17.48406982421875,125.4876708984375,-92.546875
1773150251338442500,9.5684423828125,-17.455902099609375,125.27397155761719,-92.57862854003906
1773150251348542700,9.578542724609376,-17.2406005859375,125.60357666015625,-92.70219421386719
1773150251358631700,9.588631591796876,-17.394866943359375,125.69831848144531,-92.67352294921875
1773150251368728600,9.598728515625,-17.659881591796875,125.61665344238281,-92.796875
1773150251378820600,9.608820556640625,-17.312240600585938,125.77641296386719,-92.8978271484375
1773150251388913700,9.61891357421875,-17.60821533203125,125.94357299804688,-92.87690734863281
1773150251399006700,9.6290068359375,-17.344818115234375,125.79988098144531,-92.68788146972656
1773150251409100500,9.6391005859375,-17.732894897460938,125.91921997070312,-93.08247375488281
1773150251419189800,9.649189697265625,-17.797866821289062,126.24267578125,-93.195068359375
1773150251429282600,9.659282470703126,-17.770370483398438,126.18231201171875,-93.40879821777344
1773150251439378400,9.66937841796875,-17.7366943359375,126.46769714355469,-93.33734130859375
1773150251449471500,9.679471435546875,-17.7978515625,126.50924682617188,-93.22845458984375
1773150251459564800,9.689564697265626,-18.032806396484375,126.32986450195312,-93.43771362304688
1773150251469653500,9.699653564453126,-18.182769775390625,126.5697021484375,-93.61067199707031
1773150251479747600,9.70974755859375,-18.138275146484375,126.64170837402344,-93.69062805175781
1773150251489846800,9.7198466796875,-18.508224487304688,126.64462280273438,-93.69145202636719
1773150251499936500,9.7299365234375,-18.5218505859375,126.77584838867188,-93.58587646484375
1773150251510035500,9.740035400390624,-18.556930541992188,126.93266296386719,-93.94132995605469
1773150251520132900,9.7501328125,-18.812744140625,127.11146545410156,-93.94631958007812
1773150251530227000,9.76022705078125,-18.510971069335938,127.05915832519531,-94.17376708984375
1773150251540320000,9.770320068359375,-18.935775756835938,127.22196960449219,-94.15142822265625
1773150251550412000,9.780412109375,-18.935867309570312,127.46125793457031,-94.43641662597656
1773150251560504800,9.7905048828125,-19.014816284179688,127.35479736328125,-94.50889587402344
1773150251570599700,9.800599609375,-19.122711181640625,127.58050537109375,-94.49961853027344
1773150251580694000,9.810694091796876,-19.065689086914062,127.61314392089844,-94.7127685546875
1773150251590787800,9.820787841796875,-19.070892333984375,128.01214599609375,-94.62127685546875
1773150251600881000,9.830880859375,-19.455703735351562,127.85511779785156,-94.86271667480469
1773150251610974700,9.840974609375,-19.444610595703125,128.01417541503906,-95.07351684570312
1773150251621069000,9.851069091796875,-19.5394287109375,128.16729736328125,-95.24076843261719
1773150251631163000,9.861162841796874,-19.797653198242188,128.4639892578125,-95.54965209960938
1773150251641256000,9.871255859375,-19.417953491210938,128.32737731933594,-95.52450561523438
1773150251651349800,9.881349853515625,-19.6448974609375,128.5185089111328,-95.95487976074219
1773150251661443800,9.89144384765625,-19.720993041992188,128.340576171875,-96.32566833496094
1773150251671538000,9.901537841796875,-19.763427734375,128.87002563476562,-96.66050720214844
1773150251681631700,9.9116318359375,-19.749588012695312,128.8653106689453,-96.89675903320312
1773150251691720700,9.921720703125,-19.911178588867188,129.14939880371094,-97.283203125
1773150251701817900,9.93181787109375,-19.842041015625,129.1945343017578,-97.53948974609375
1773150251711910700,9.94191064453125,-19.9373779296875,129.57846069335938,-97.92623901367188
1773150251722005800,9.952005859375,-20.129745483398438,129.26927185058594,-98.03799438476562
1773150251732099800,9.962099853515625,-19.855133056640625,129.5687255859375,-98.18708801269531
1773150251742189800,9.97218994140625,-19.975250244140625,129.583251953125,-98.49673461914062
1773150251752289800,9.982289794921876,-19.829483032226562,129.58856201171875,-98.78245544433594
1773150251762382800,9.9923828125,-19.381927490234375,129.7983856201172,-98.94479370117188
1773150251772471800,10.002471923828125,-19.639404296875,129.76307678222656,-99.31315612792969
1773150251782570000,10.012570068359375,-19.584014892578125,130.04672241210938,-99.22708129882812
1773150251792662800,10.022662841796874,-19.698211669921875,130.006591796875,-99.65049743652344
1773150251802750700,10.032750732421874,-19.385467529296875,130.39244079589844,-99.59165954589844
1773150251812849700,10.042849609375,-19.153549194335938,130.40158081054688,-99.69670104980469
1773150251822940000,10.05293994140625,-19.1767578125,130.7662353515625,-99.75593566894531
1773150251833033700,10.06303369140625,-18.969711303710938,130.9044189453125,-99.44839477539062
1773150251843128800,10.07312890625,-19.068328857421875,130.8010711669922,-99.35589599609375
1773150251853223700,10.0832236328125,-19.055282592773438,131.02247619628906,-98.96368408203125
1773150251863317800,10.09331787109375,-18.908737182617188,131.1179962158203,-98.71812438964844
1773150251873411800,10.103411865234374,-18.754257202148438,130.9849853515625,-98.69694519042969
1773150251883510800,10.1135107421875,-18.579925537109375,131.06869506835938,-98.59870910644531
1773150251893599700,10.123599853515625,-18.606842041015625,131.07058715820312,-98.66474914550781
1773150251903699000,10.133698974609375,-19.02923583984375,130.9653778076172,-98.98089599609375
1773150251913788700,10.14378857421875,-18.900283813476562,130.78099060058594,-99.2637939453125
1773150251923887600,10.1538876953125,-19.041015625,130.58692932128906,-99.22331237792969
1773150251933982000,10.16398193359375,-18.884552001953125,130.5946807861328,-99.43476867675781
1773150251944076800,10.174076904296875,-18.82733154296875,130.73265075683594,-99.6810302734375
1773150251954171000,10.1841708984375,-19.006988525390625,130.41807556152344,-99.87222290039062
1773150251964259800,10.194259765625,-18.812179565429688,130.40606689453125,-99.86300659179688
1773150251974353700,10.204353759765626,-18.648483276367188,130.5738983154297,-99.73454284667969
1773150251984455000,10.214454833984375,-18.814346313476562,130.53736877441406,-99.98728942871094
1773150251994548700,10.224548828125,-19.38458251953125,130.2522430419922,-100.05311584472656
1773150252004641800,10.234641845703125,-19.02001953125,130.16714477539062,-100.25830078125
1773150252014734800,10.24473486328125,-19.014862060546875,130.29238891601562,-100.2418212890625
1773150252024827000,10.254826904296875,-18.700057983398438,130.09593200683594,-100.1864013671875
1773150252034919700,10.264919677734374,-19.041519165039062,130.2761993408203,-100.34059143066406
1773150252045011700,10.27501171875,-18.902328491210938,130.119873046875,-100.27804565429688
1773150252055103700,10.285103759765626,-19.142929077148438,129.91986083984375,-100.47956848144531
1773150252065197800,10.29519775390625,-19.297805786132812,129.6015167236328,-100.43548583984375
1773150252075291000,10.305290771484374,-19.475601196289062,129.26715087890625,-100.43798828125
1773150252085383000,10.3153828125,-19.459854125976562,129.264892578125,-100.46598815917969
1773150252095477000,10.32547705078125,-19.309646606445312,129.0243377685547,-100.68917846679688
1773150252105570800,10.33557080078125,-19.467117309570312,128.8311767578125,-100.76829528808594
1773150252115662800,10.345662841796875,-19.52496337890625,128.65675354003906,-100.713623046875
1773150252125758000,10.355758056640624,-19.837081909179688,128.64471435546875,-101.02549743652344
1773150252135852800,10.365852783203126,-19.695648193359375,128.69554138183594,-101.17147827148438
1773150252145946600,10.375946533203125,-19.6737060546875,128.7364959716797,-101.27461242675781
1773150252156040000,10.3860400390625,-19.572265625,128.68785095214844,-101.40742492675781
1773150252166133800,10.3961337890625,-19.487579345703125,128.7892608642578,-101.19963073730469
1773150252176227800,10.406227783203125,-19.740402221679688,128.48106384277344,-101.45375061035156
1773150252186324000,10.416323974609375,-19.513092041015625,128.44444274902344,-101.33052062988281
1773150252196413000,10.426412841796875,-19.592941284179688,128.79237365722656,-101.06929016113281
1773150252206508800,10.4365087890625,-19.723556518554688,128.53099060058594,-100.79078674316406
1773150252216605000,10.44660498046875,-19.53173828125,128.63461303710938,-100.12417602539062
1773150252226705000,10.456704833984375,-19.771942138671875,128.65296936035156,-99.77157592773438
1773150252236801000,10.466801025390625,-20.161376953125,128.5737762451172,-99.36827087402344
1773150252246890800,10.476890869140625,-20.670028686523438,128.33326721191406,-99.20820617675781
1773150252256991700,10.48699169921875,-20.48175048828125,128.15023803710938,-99.33026123046875
1773150252267086800,10.4970869140625,-20.788604736328125,128.0283966064453,-99.41635131835938
1773150252277181000,10.507180908203125,-20.77703857421875,127.94088745117188,-99.61848449707031
1773150252287274000,10.51727392578125,-21.0379638671875,127.96786499023438,-99.74241638183594
1773150252297362700,10.52736279296875,-21.35406494140625,127.67939758300781,-99.80534362792969
1773150252307463000,10.537462890625,-21.3106689453125,127.38249206542969,-99.57481384277344
1773150252317557800,10.547557861328125,-21.557693481445312,127.27688598632812,-99.67759704589844
1773150252327650800,10.55765087890625,-21.971221923828125,127.09574890136719,-99.67790222167969
1773150252337745000,10.567744873046875,-22.221939086914062,126.89930725097656,-99.61344909667969
1773150252347839700,10.57783984375,-22.310867309570312,126.39439392089844,-99.62149047851562
1773150252357935900,10.587935791015624,-22.459915161132812,126.25523376464844,-99.20323181152344
1773150252368024800,10.59802490234375,-22.962982177734375,126.25492858886719,-99.30642700195312
1773150252378121000,10.608120849609374,-23.286666870117188,125.74618530273438,-98.85650634765625
1773150252388221700,10.6182216796875,-23.396926879882812,125.44210815429688,-98.79490661621094
1773150252398315000,10.62831494140625,-23.68267822265625,125.0755615234375,-98.44749450683594
1773150252408409900,10.638409912109376,-23.873626708984375,124.5609130859375,-98.22892761230469
1773150252418499800,10.648499755859374,-24.233306884765625,124.04319763183594,-98.29667663574219
1773150252428599800,10.658599853515625,-24.245330810546875,123.84941101074219,-98.38688659667969
1773150252438694000,10.66869384765625,-24.422470092773438,123.37428283691406,-98.40202331542969
1773150252448788000,10.6787880859375,-24.68450927734375,122.87884521484375,-98.42132568359375
1773150252458881000,10.688881103515625,-24.91046142578125,122.664794921875,-98.23432922363281
1773150252468973800,10.698973876953126,-24.754684448242188,122.48570251464844,-98.0552978515625
1773150252479065900,10.70906591796875,-25.1104736328125,122.45599365234375,-97.87750244140625
1773150252489153800,10.71915380859375,-25.047561645507812,122.27923583984375,-97.49612426757812
1773150252499253800,10.729253662109375,-25.011001586914062,122.61697387695312,-97.55145263671875
1773150252509348900,10.739348876953125,-24.838455200195312,122.88191223144531,-98.03385925292969
1773150252519442000,10.74944189453125,-24.840438842773438,123.174560546875,-98.47708129882812
1773150252529534500,10.759534423828125,-24.647247314453125,123.00404357910156,-98.88636779785156
1773150252539628300,10.769628173828124,-24.554977416992188,123.39018249511719,-99.47389221191406
1773150252549721300,10.779721435546875,-23.916656494140625,123.46327209472656,-99.83915710449219
1773150252559815200,10.789815185546875,-24.063308715820312,123.4248046875,-100.59495544433594
1773150252569904400,10.799904296875,-23.898269653320312,122.85824584960938,-100.95199584960938
1773150252580003300,10.81000341796875,-23.987869262695312,122.36241149902344,-101.3895263671875
1773150252590097200,10.82009716796875,-23.893753051757812,122.28231811523438,-101.78306579589844
1773150252600192300,10.830192138671874,-23.49017333984375,122.03048706054688,-101.99266052246094
1773150252610283300,10.840283203125,-23.709716796875,122.3677978515625,-102.14817810058594
1773150252620384300,10.85038427734375,-23.63079833984375,122.90336608886719,-102.24290466308594
1773150252630474200,10.86047412109375,-23.375961303710938,123.355224609375,-102.47459411621094
1773150252640574200,10.87057421875,-22.830612182617188,123.92489624023438,-102.84202575683594
1773150252650669300,10.88066943359375,-22.449020385742188,124.38592529296875,-102.97085571289062
1773150252660764200,10.89076416015625,-22.394073486328125,124.65603637695312,-103.40142822265625
1773150252670859300,10.900859375,-21.977645874023438,124.868408203125,-103.55593872070312
1773150252680955100,10.910955078125,-21.894561767578125,125.00997924804688,-103.83058166503906
1773150252691050200,10.92105029296875,-21.8828125,125.23655700683594,-103.58430480957031
1773150252701144300,10.931144287109374,-21.656784057617188,125.7906494140625,-103.55331420898438
1773150252711239400,10.941239501953126,-21.399566650390625,125.95030212402344,-103.27737426757812
1773150252721334300,10.951334228515625,-21.236602783203125,126.4677734375,-103.25021362304688
1773150252731429400,10.961429443359375,-21.100173950195312,126.82270812988281,-103.17234802246094
1773150252741524200,10.971524169921874,-20.579971313476562,127.10447692871094,-102.85260009765625
1773150252751618000,10.9816181640625,-20.676651000976562,127.46202087402344,-102.85273742675781
1773150252761708300,10.991708251953124,-20.8851318359375,127.67135620117188,-102.60462951660156
1773150252771804400,11.001804443359376,-21.019088745117188,127.57514953613281,-102.3802490234375
1773150252781903400,11.0119033203125,-21.427703857421875,127.75430297851562,-102.18827819824219
1773150252791997200,11.0219970703125,-21.328231811523438,127.89698791503906,-101.93533325195312
1773150252802091300,11.03209130859375,-21.745651245117188,127.87863159179688,-101.74331665039062
1773150252812181200,11.04218115234375,-21.865234375,127.57891845703125,-101.50006103515625
1773150252822275000,11.052275146484375,-21.70355224609375,127.84886169433594,-101.5201416015625
1773150252832371200,11.06237109375,-21.640243530273438,127.69874572753906,-101.56230163574219
1773150252842473200,11.07247314453125,-21.777786254882812,127.77754211425781,-101.73918151855469
1773150252852568000,11.082568115234375,-21.804595947265625,127.83186340332031,-101.95259094238281
1773150252862658300,11.092658203125,-21.756698608398438,128.14427185058594,-102.15864562988281
1773150252872758300,11.10275830078125,-21.810440063476562,128.2693328857422,-102.32814025878906
1773150252882852400,11.112852294921876,-21.474472045898438,128.31809997558594,-102.39215087890625
1773150252892945400,11.1229453125,-21.511077880859375,128.31239318847656,-102.53543090820312
1773150252903039200,11.133039306640624,-21.690399169921875,128.4678497314453,-102.48287963867188
1773150252913134300,11.14313427734375,-21.52850341796875,128.27513122558594,-102.27598571777344
1773150252923224300,11.153224365234376,-21.26519775390625,128.6342010498047,-102.31632995605469
1773150252933318400,11.163318359375,-20.987533569335938,128.8214874267578,-101.99566650390625
1773150252943413200,11.173413330078125,-21.539459228515625,129.17588806152344,-102.01583862304688
1773150252953512200,11.18351220703125,-21.085494995117188,129.19113159179688,-101.63020324707031
1773150252963607300,11.193607177734375,-20.978729248046875,129.41233825683594,-101.60037231445312
1773150252973696300,11.2036962890625,-20.998916625976562,129.48727416992188,-101.22943115234375
1773150252983796500,11.21379638671875,-21.045181274414062,129.58001708984375,-100.75825500488281
1773150252993891300,11.223891357421875,-21.2291259765625,130.0394744873047,-100.65583801269531
1773150253003985200,11.233985107421875,-20.939422607421875,130.19618225097656,-100.64210510253906
1773150253014080300,11.244080322265624,-20.753128051757812,130.34463500976562,-100.45779418945312
1773150253024175000,11.254175048828126,-20.878768920898438,130.40716552734375,-100.36454772949219
1773150253034269400,11.26426953125,-20.945541381835938,130.59356689453125,-100.44773864746094
1773150253044364300,11.2743642578125,-20.78887939453125,130.7128448486328,-100.58970642089844
1773150253054457000,11.28445703125,-20.613494873046875,130.63026428222656,-100.64103698730469
1773150253064551400,11.294551513671875,-20.60723876953125,130.67453002929688,-100.72236633300781
1773150253074640400,11.304640380859375,-20.597320556640625,131.14405822753906,-100.84324645996094
1773150253084735200,11.3147353515625,-20.350067138671875,130.74456787109375,-100.7762451171875
1773150253094834400,11.32483447265625,-20.426132202148438,131.2936248779297,-100.86872863769531
1773150253104927200,11.33492724609375,-20.446029663085938,131.38836669921875,-100.9991455078125
1773150253115020300,11.345020263671875,-20.31829833984375,131.66595458984375,-100.68075561523438
1773150253125114000,11.355114013671875,-20.049819946289062,131.8303680419922,-100.54197692871094
1773150253135207200,11.365207275390626,-19.972671508789062,131.717529296875,-100.61138916015625
1773150253145300200,11.37530029296875,-19.999374389648438,131.96961975097656,-100.78897094726562
1773150253155394300,11.385394287109374,-20.084381103515625,132.1057586669922,-100.86248779296875
1773150253165489200,11.3954892578125,-19.918045043945312,131.96218872070312,-100.90687561035156
1773150253175584300,11.405584228515625,-19.676345825195312,131.9426727294922,-100.6361083984375
1773150253185678300,11.41567822265625,-20.066421508789062,132.06739807128906,-100.64588928222656
1773150253195772200,11.425772216796876,-19.89068603515625,132.2419891357422,-100.70381164550781
1773150253205867300,11.4358671875,-19.926010131835938,132.53334045410156,-100.75846862792969
1773150253215962000,11.445962158203125,-19.8570556640625,132.4616241455078,-100.73258972167969
1773150253226052400,11.45605224609375,-19.628494262695312,132.3755340576172,-100.86665344238281
1773150253236152000,11.466152099609374,-19.836105346679688,132.47743225097656,-101.147216796875
1773150253246247200,11.4762470703125,-19.344985961914062,132.49038696289062,-101.60670471191406
1773150253256342300,11.48634228515625,-19.369857788085938,132.49761962890625,-101.79560852050781
1773150253266432300,11.496432373046876,-19.127609252929688,132.7076416015625,-102.34269714355469
1773150253276527000,11.506527099609375,-18.708938598632812,132.85430908203125,-102.7093505859375
1773150253286627300,11.51662744140625,-18.878952026367188,132.79518127441406,-103.01200866699219
1773150253296718300,11.52671826171875,-18.559280395507812,132.72738647460938,-103.360595703125
1773150253306813200,11.536813232421874,-18.554931640625,132.73902893066406,-103.61630249023438
1773150253316908300,11.546908203125,-17.976913452148438,132.6486053466797,-103.34471130371094
1773150253327003100,11.557003173828125,-18.869049072265625,132.61459350585938,-103.49664306640625
1773150253337104400,11.5671044921875,-18.51495361328125,132.75265502929688,-103.23582458496094
1773150253347193300,11.577193359375,-18.90020751953125,132.64686584472656,-102.99664306640625
1773150253357289200,11.587289306640624,-19.005340576171875,132.7976531982422,-102.61349487304688
1773150253367384300,11.59738427734375,-19.2376708984375,132.66441345214844,-102.16598510742188
1773150253377483300,11.607483154296874,-19.782150268554688,132.62730407714844,-101.75843811035156
1773150253387573200,11.6175732421875,-19.978973388671875,132.68157958984375,-101.24266052246094
1773150253397668400,11.62766845703125,-19.960433959960938,132.6858367919922,-100.72541809082031
1773150253407768300,11.637768310546875,-20.523117065429688,132.33216857910156,-100.3857421875
1773150253417863400,11.647863525390624,-20.5667724609375,132.29173278808594,-100.21186828613281
1773150253427957200,11.657957275390626,-20.570343017578125,132.5900421142578,-100.25308227539062
1773150253438053400,11.668053466796875,-20.514404296875,132.15093994140625,-99.89985656738281
1773150253448144100,11.67814404296875,-20.608230590820312,132.12075805664062,-99.97958374023438
1773150253458245400,11.688245361328125,-20.337844848632812,131.90184020996094,-99.72935485839844
1773150253468335000,11.698335205078125,-20.531402587890625,131.86953735351562,-100.102294921875
1773150253478430200,11.70843017578125,-20.418411254882812,131.5792236328125,-100.11471557617188
1773150253488529200,11.718529052734375,-20.347091674804688,131.6001434326172,-100.23100280761719
1773150253498619400,11.728619384765626,-20.44598388671875,131.57806396484375,-100.47016906738281
1773150253508719000,11.738718994140624,-20.392318725585938,131.51231384277344,-100.79817199707031
1773150253518814200,11.748814208984374,-20.173477172851562,131.3621368408203,-100.85165405273438
1773150253528909600,11.75890966796875,-20.34033203125,131.18072509765625,-101.0909423828125
1773150253539004700,11.769004638671875,-20.42138671875,131.20631408691406,-101.27217102050781
1773150253549098500,11.779098388671875,-20.14410400390625,131.1878204345703,-101.33549499511719
1773150253559192300,11.7891923828125,-20.147109985351562,131.08497619628906,-101.3577880859375
1773150253569287400,11.799287353515625,-19.97381591796875,130.7835693359375,-101.43760681152344
1773150253579382500,11.809382568359375,-20.090377807617188,130.9375762939453,-101.72531127929688
1773150253589472500,11.819472412109375,-19.957504272460938,130.64291381835938,-101.68563842773438
1773150253599572500,11.829572509765624,-19.906021118164062,130.4990997314453,-101.90458679199219
1773150253609662500,11.839662353515624,-19.757095336914062,130.407958984375,-102.20585632324219
1773150253619761400,11.849761474609375,-19.787216186523438,130.30349731445312,-102.4083251953125
1773150253629856500,11.8598564453125,-19.828338623046875,130.41017150878906,-102.59596252441406
1773150253639951400,11.869951416015626,-19.589675903320312,129.91424560546875,-102.6527099609375
1773150253650047500,11.880047607421876,-19.555023193359375,130.09727478027344,-102.59611511230469
1773150253660142300,11.890142333984375,-19.8037109375,129.8015899658203,-102.92436218261719
1773150253670236400,11.900236328125,-19.927047729492188,129.38706970214844,-102.92391967773438
1773150253680325600,11.91032568359375,-19.865036010742188,129.29148864746094,-103.02459716796875
1773150253690425300,11.92042529296875,-20.038772583007812,129.32089233398438,-103.1602783203125
1773150253700520400,11.9305205078125,-19.75811767578125,129.16322326660156,-102.98143005371094
1773150253710615300,11.940615234375,-20.287933349609375,128.81106567382812,-103.30984497070312
1773150253720709600,11.950709716796876,-20.3985595703125,128.56411743164062,-103.26005554199219
1773150253730803500,11.960803466796875,-20.642837524414062,128.37152099609375,-103.11543273925781
1773150253740897500,11.9708974609375,-20.53167724609375,128.0739288330078,-103.04611206054688
1773150253750991600,11.98099169921875,-20.999984741210938,127.77235412597656,-102.78634643554688
1773150253761085400,11.99108544921875,-21.538009643554688,127.05015563964844,-102.34385681152344
1773150253771180300,12.00118017578125,-22.2427978515625,126.9886474609375,-101.89466857910156
1773150253781274600,12.011274658203124,-22.613357543945312,126.29837036132812,-101.42115783691406
1773150253791369500,12.021369384765626,-23.039566040039062,125.74049377441406,-100.64784240722656
1773150253801463300,12.03146337890625,-23.446365356445312,125.34642028808594,-100.37127685546875
1773150253811556600,12.041556640625,-23.830673217773438,124.94265747070312,-100.16500854492188
1773150253821644500,12.05164453125,-24.10821533203125,124.29292297363281,-99.82005310058594
1773150253831743500,12.061743408203125,-24.202346801757812,124.02976989746094,-99.66867065429688
1773150253841831400,12.07183154296875,-24.359130859375,123.71536254882812,-99.21195983886719
1773150253851930400,12.081930419921875,-24.539566040039062,123.3931884765625,-99.04258728027344
1773150253862025500,12.092025390625,-25.153091430664062,123.404052734375,-99.17796325683594
1773150253872120300,12.102120361328126,-25.266220092773438,123.21064758300781,-99.24215698242188
1773150253882215400,12.11221533203125,-24.8779296875,123.67158508300781,-99.6591796875
1773150253892305400,12.122305419921876,-24.53924560546875,123.80648803710938,-99.70851135253906
1773150253902400500,12.132400390625,-24.501754760742188,123.995361328125,-100.30844116210938
1773150253912500500,12.14250048828125,-24.005722045898438,124.21310424804688,-100.74716186523438
1773150253922590500,12.152590576171875,-23.747833251953125,124.70222473144531,-101.19894409179688
1773150253932691500,12.16269140625,-23.607208251953125,125.48065185546875,-101.39704895019531
1773150253942781400,12.172781494140626,-23.035568237304688,125.80769348144531,-101.83041381835938
1773150253952882400,12.18288232421875,-22.230026245117188,126.41758728027344,-102.07034301757812
1773150253962978300,12.192978271484375,-21.911300659179688,126.829345703125,-102.06678771972656
1773150253973073400,12.203073486328124,-21.73883056640625,127.23146057128906,-101.97196960449219
1773150253983168300,12.213168212890626,-21.40728759765625,127.43223571777344,-101.83514404296875
1773150253993264400,12.223264404296875,-21.229721069335938,127.68037414550781,-102.12298583984375
1773150254003359500,12.233359375,-20.804107666015625,127.656005859375,-102.17556762695312
1773150254013454300,12.243454345703125,-21.037094116210938,128.2927703857422,-102.63873291015625
1773150254023548400,12.25354833984375,-20.9342041015625,128.1683807373047,-103.17344665527344
1773150254033642500,12.263642578125,-20.436996459960938,127.93460083007812,-103.19021606445312
1773150254043736600,12.273736572265625,-20.623077392578125,127.835693359375,-103.6934814453125
1773150254053831700,12.283831787109374,-20.594375610351562,127.7291259765625,-104.05378723144531
1773150254063925500,12.293925537109375,-20.0333251953125,127.54167175292969,-104.60997009277344
1773150254074019300,12.304019287109375,-20.293548583984375,127.50456237792969,-105.39680480957031
1773150254084109600,12.314109619140625,-19.740676879882812,127.45729064941406,-105.6353759765625
1773150254094208500,12.32420849609375,-19.880996704101562,127.38833618164062,-106.14985656738281
1773150254104299500,12.334299560546874,-19.999542236328125,127.32049560546875,-106.15223693847656
1773150254114394400,12.344394287109376,-19.957107543945312,127.24577331542969,-106.18574523925781
1773150254124491500,12.354491455078126,-20.057861328125,127.09614562988281,-105.88670349121094
1773150254134587600,12.364587646484376,-20.475799560546875,127.07926940917969,-105.29109191894531
1773150254144689700,12.374689697265625,-20.739852905273438,127.30519104003906,-105.04592895507812
1773150254154780400,12.384780517578125,-20.762557983398438,127.42642211914062,-104.65119934082031
1773150254164880600,12.394880615234374,-21.126739501953125,127.18051147460938,-104.08926391601562
1773150254174971600,12.4049716796875,-20.976806640625,127.56442260742188,-103.65879821777344
1773150254185067500,12.415067626953125,-21.214279174804688,127.85148620605469,-103.29408264160156
1773150254195164400,12.425164306640625,-21.269744873046875,128.0247039794922,-103.01847839355469
1773150254205265400,12.435265380859375,-21.4052734375,127.85333251953125,-102.67466735839844
1773150254215360500,12.445360595703125,-21.47955322265625,128.02110290527344,-102.48689270019531
1773150254225454600,12.45545458984375,-21.12841796875,128.05125427246094,-102.36570739746094
1773150254235548400,12.46554833984375,-21.290695190429688,128.21505737304688,-102.38072204589844
1773150254245643300,12.475643310546875,-21.039871215820312,128.13064575195312,-102.24813842773438
1773150254255733500,12.4857333984375,-21.196487426757812,128.1204071044922,-101.97514343261719
1773150254265834500,12.49583447265625,-21.077072143554688,128.81703186035156,-102.32557678222656
1773150254275928600,12.505928466796876,-20.757354736328125,128.4202117919922,-102.35052490234375
1773150254286022400,12.5160224609375,-20.544830322265625,128.53013610839844,-103.00819396972656
1773150254296111600,12.526111572265625,-20.3453369140625,128.49130249023438,-103.48997497558594
1773150254306210600,12.53621044921875,-20.105911254882812,128.50010681152344,-104.08450317382812
1773150254316299500,12.546299560546874,-19.835769653320312,128.40199279785156,-104.63180541992188
1773150254326398500,12.5563984375,-19.289260864257812,128.41769409179688,-105.20932006835938
1773150254336489500,12.566489501953125,-19.400909423828125,128.7001495361328,-105.66632080078125
1773150254346585600,12.576585693359375,-19.13232421875,128.61602783203125,-105.71417236328125
1773150254356685300,12.586685302734375,-19.393310546875,128.5077667236328,-105.43914794921875
1773150254366779600,12.596779541015625,-19.40875244140625,128.5533447265625,-105.1378173828125
1773150254376869400,12.606869384765625,-19.421096801757812,128.59742736816406,-105.31709289550781
1773150254386969600,12.616969482421876,-19.60150146484375,128.50672912597656,-104.8984375
1773150254397063400,12.6270634765625,-19.656631469726562,128.65576171875,-104.66770935058594
1773150254407157500,12.637157470703125,-19.879776000976562,128.36569213867188,-104.57098388671875
1773150254417251300,12.647251220703126,-19.8060302734375,128.44740295410156,-104.06840515136719
1773150254427340500,12.657340576171874,-20.448928833007812,128.42349243164062,-104.29861450195312
1773150254437440500,12.6674404296875,-20.527923583984375,128.32472229003906,-103.86856079101562
1773150254447530500,12.677530517578125,-20.166671752929688,128.4534149169922,-103.96047973632812
1773150254457629400,12.68762939453125,-20.520401000976562,128.66978454589844,-103.79513549804688
1773150254467721500,12.697721435546875,-20.24029541015625,128.75390625,-103.77268981933594
1773150254477820400,12.7078203125,-20.579055786132812,128.76565551757812,-103.67234802246094
1773150254487914500,12.71791455078125,-20.971267700195312,128.66860961914062,-103.73065185546875
1773150254498005500,12.728005615234375,-20.714752197265625,128.6205291748047,-103.79803466796875
1773150254508101400,12.738101318359375,-20.684326171875,128.6505889892578,-103.67230224609375
1773150254518198500,12.748198486328125,-20.692779541015625,128.73524475097656,-103.71490478515625
1773150254528289300,12.758289306640625,-20.893417358398438,128.427490234375,-103.60212707519531
1773150254538385400,12.768385498046875,-20.860794067382812,128.39779663085938,-103.51200866699219
1773150254548482300,12.778482421875,-20.842208862304688,128.32223510742188,-103.37664794921875
1773150254558577400,12.788577392578125,-20.885543823242188,128.1193389892578,-103.14570617675781
1773150254568674300,12.79867431640625,-21.038558959960938,128.3710479736328,-103.10221862792969
1773150254578770400,12.8087705078125,-21.266143798828125,128.06051635742188,-103.19471740722656
1773150254588866300,12.8188662109375,-21.459793090820312,127.84201049804688,-103.12107849121094
1773150254598966300,12.82896630859375,-21.574310302734375,127.59504699707031,-103.27166748046875
1773150254609061000,12.83906103515625,-21.1353759765625,127.34046936035156,-103.33631896972656
1773150254619151400,12.8491513671875,-21.507965087890625,127.24687194824219,-103.68107604980469
1773150254629251300,12.859251220703126,-21.705429077148438,127.0186767578125,-103.98469543457031
