time,seconds_elapsed,z,y,x,local_time
1775952488362800600,0.087800537109375,0.16626315986812112,-0.038055005367100235,-0.06475106991715729,2026-04-11T19:08:08.362-05:00
1775952488372858600,0.097858642578125,0.2295429151237011,-0.05001403096914291,-0.06345167775638401,2026-04-11T19:08:08.372-05:00
1775952488382915800,0.107915771484375,0.22162205899655818,-0.048400458292663096,-0.08705978622846305,2026-04-11T19:08:08.382-05:00
1775952488392973800,0.117973876953125,0.11476795043051242,-0.07241437108665705,-0.06257153392098844,2026-04-11T19:08:08.392-05:00
1775952488403031600,0.128031494140625,-0.02205634898543358,-0.060036535550653934,0.04188552344068885,2026-04-11T19:08:08.403-05:00
1775952488413088500,0.138088623046875,-0.09760755679309367,-0.007784078004956245,0.13807875645644963,2026-04-11T19:08:08.413-05:00
1775952488423146800,0.148146728515625,-0.1589051983207464,0.019272271224856377,0.151388612145558,2026-04-11T19:08:08.423-05:00
1775952488433204700,0.158204833984375,-0.21156769797205924,0.044482700327038764,0.11195040879175067,2026-04-11T19:08:08.433-05:00
1775952488443262700,0.1682626953125,-0.1990641902297735,0.05491144762188196,0.03795475986301899,2026-04-11T19:08:08.443-05:00
1775952488453319700,0.178319580078125,-0.1278875442445278,0.04152998800128698,0.022281389912962912,2026-04-11T19:08:08.453-05:00
1775952488463377700,0.188377685546875,-0.11996084289848803,-0.05389613309949636,0.014511559629067777,2026-04-11T19:08:08.463-05:00
1775952488473435600,0.198435546875,-0.05562018041312694,-0.06800152308046817,-0.00906542305238545,2026-04-11T19:08:08.473-05:00
1775952488483492600,0.20849267578125,0.05789163247644901,-0.03253770325034857,-0.0694463881265372,2026-04-11T19:08:08.483-05:00
1775952488493550600,0.218550537109375,0.19350714062452315,-0.03267418911159038,-0.15233429549783467,2026-04-11T19:08:08.493-05:00
1775952488503608800,0.22860888671875,0.23207681751549242,-0.05432487990558147,-0.16490443873554467,2026-04-11T19:08:08.503-05:00
1775952488513666600,0.23866650390625,0.14102818084657193,-0.019543197120726108,-0.01664331096075475,2026-04-11T19:08:08.513-05:00
1775952488523723800,0.248723876953125,-0.034766777476668356,0.007803074966371059,0.1043984590422362,2026-04-11T19:08:08.523-05:00
1775952488533781500,0.258781494140625,-0.08552081315815448,-0.024324001656472683,0.09480930437669158,2026-04-11T19:08:08.533-05:00
1775952488543839700,0.26883984375,-0.03502572067379951,-0.02317687744796276,0.00942234673127532,2026-04-11T19:08:08.543-05:00
1775952488553896700,0.278896728515625,0.0529728807747364,-0.014158873733878134,-0.00526069700717926,2026-04-11T19:08:08.553-05:00
1775952488563954700,0.28895458984375,0.14383680852651595,0.015841712254285812,-0.04550583282969892,2026-04-11T19:08:08.563-05:00
1775952488574012700,0.2990126953125,0.10136018732488154,0.006027297465503215,-0.021606047934666275,2026-04-11T19:08:08.574-05:00
1775952488584070700,0.309070556640625,0.08421382221281527,-0.009514262798428534,0.010098638557642698,2026-04-11T19:08:08.584-05:00
1775952488594127600,0.319127685546875,0.08896013995707035,0.04681786527633667,-0.022264146517217157,2026-04-11T19:08:08.594-05:00
1775952488604185600,0.329185546875,0.0294710091561079,0.05170125340372324,-0.02652640707157552,2026-04-11T19:08:08.604-05:00
1775952488614243600,0.33924365234375,-0.022279636347293852,0.015354513259232044,0.034233766578510405,2026-04-11T19:08:08.614-05:00
1775952488624301800,0.3493017578125,-0.018988193586468697,-0.01031184291690588,0.06121851187683641,2026-04-11T19:08:08.624-05:00
1775952488634358800,0.35935888671875,-0.055959787631034846,-0.041942075933516024,0.09010733723081647,2026-04-11T19:08:08.634-05:00
1775952488644416300,0.369416259765625,-0.09844985283613204,-0.006781038442254066,0.0893858180232346,2026-04-11T19:08:08.644-05:00
1775952488654474500,0.379474609375,-0.07853285396695137,0.008762275387346745,0.03499064936041832,2026-04-11T19:08:08.654-05:00
1775952488664531500,0.389531494140625,-0.063926820987463,0.03231909206360578,-0.016648936983942986,2026-04-11T19:08:08.664-05:00
1775952488674589400,0.39958935546875,0.025857494834065436,0.036468320697546006,0.029783143845200536,2026-04-11T19:08:08.674-05:00
1775952488684647400,0.4096474609375,0.1426847158819437,0.025411212371289727,0.03632292087748647,2026-04-11T19:08:08.684-05:00
1775952488694705700,0.41970556640625,0.20333646072149275,0.005743219827115536,-0.006436462788283825,2026-04-11T19:08:08.694-05:00
1775952488704762600,0.4297626953125,0.15758008719682692,-0.01248597208559513,0.015440364911779761,2026-04-11T19:08:08.704-05:00
1775952488714820400,0.4398203125,0.0833849701732397,-0.0022559622332453725,0.044532603883370755,2026-04-11T19:08:08.714-05:00
1775952488724878300,0.44987841796875,0.026324527823925015,-0.020051731164753436,0.010773688274994492,2026-04-11T19:08:08.724-05:00
1775952488734935600,0.459935546875,0.008501870885491371,-0.021810849791765213,-0.010023162168636917,2026-04-11T19:08:08.734-05:00
1775952488744993500,0.46999365234375,-0.031899697607755656,-0.012883154709637164,-0.0002323474511504173,2026-04-11T19:08:08.744-05:00
1775952488755051500,0.480051513671875,-0.12135434308350085,-0.02954378213137388,0.06043496028371155,2026-04-11T19:08:08.755-05:00
1775952488765109200,0.490109130859375,-0.11124679056704044,0.0001686345651745796,0.09444244382567703,2026-04-11T19:08:08.765-05:00
1775952488775166500,0.50016650390625,-0.04641512969434261,0.031158231590688226,0.03512793893925845,2026-04-11T19:08:08.775-05:00
1775952488785224400,0.510224365234375,-0.05545943689346313,0.05945318270474672,-0.04768295767307281,2026-04-11T19:08:08.785-05:00
1775952488795282400,0.520282470703125,-0.06908698022961617,0.012688216659426689,-0.05536174867264926,2026-04-11T19:08:08.795-05:00
1775952488805339400,0.53033935546875,-0.02801321156322956,-0.05111790055781602,-0.040079789192974564,2026-04-11T19:08:08.805-05:00
1775952488815397600,0.540397705078125,0.05124912572205066,-0.05062339503914118,-0.0008468260876834392,2026-04-11T19:08:08.815-05:00
1775952488825455400,0.550455322265625,0.11543605895042419,-0.030113983234763143,0.0746871383242309,2026-04-11T19:08:08.825-05:00
1775952488835513300,0.560513427734375,0.18002222062945364,-0.024911153894662856,0.05001826875284314,2026-04-11T19:08:08.835-05:00
1775952488845570300,0.5705703125,0.22331541891098022,0.019927520263195036,-0.012612740270420909,2026-04-11T19:08:08.845-05:00
1775952488855628500,0.580628662109375,0.22109540477395057,0.024018296708166596,-0.0360875777516514,2026-04-11T19:08:08.855-05:00
1775952488865686500,0.5906865234375,0.1453431214362383,0.014897417141497135,-0.04191920651458204,2026-04-11T19:08:08.865-05:00
1775952488875743500,0.600743408203125,0.0738256991893053,0.03903466405421495,-0.003961597107350826,2026-04-11T19:08:08.875-05:00
1775952488885801500,0.610801513671875,0.005381693038344383,0.020027181245386598,0.03651844344958663,2026-04-11T19:08:08.885-05:00
1775952488895859500,0.620859375,-0.13403320739269256,0.023401041592657566,0.08178754491396248,2026-04-11T19:08:08.895-05:00
1775952488905917400,0.63091748046875,-0.1535772812962532,0.053908700320124625,0.0957526496414095,2026-04-11T19:08:08.905-05:00
1775952488915974400,0.640974365234375,-0.03256254543066025,0.07993746006786823,0.04097724948935211,2026-04-11T19:08:08.915-05:00
1775952488926032400,0.651032470703125,0.037136429217457766,0.026769933503866195,0.039605815005674956,2026-04-11T19:08:08.926-05:00
1775952488936090600,0.661090576171875,0.11757891619801521,0.04630494731813669,0.01777246112115681,2026-04-11T19:08:08.936-05:00
1775952488946147600,0.671147705078125,0.12767828540802,0.03666793492287397,-0.016471534590423106,2026-04-11T19:08:08.946-05:00
1775952488956205300,0.681205322265625,0.04368307438194752,-0.014466916769742965,-0.023771263144537806,2026-04-11T19:08:08.956-05:00
1775952488966263300,0.69126318359375,-0.013992869517207145,-0.021174013192951677,-0.02255005078651011,2026-04-11T19:08:08.966-05:00
1775952488976321500,0.701321533203125,-0.022893384331464765,-0.00802782363295555,0.00005962123274803161,2026-04-11T19:08:08.976-05:00
1775952488986378500,0.71137841796875,0.020377602118253707,-0.019803893883526325,0.003149915398284793,2026-04-11T19:08:08.986-05:00
1775952488996436500,0.7214365234375,0.07842004124224186,-0.012500000610947607,0.019338906720280647,2026-04-11T19:08:08.996-05:00
1775952489006494500,0.731494384765625,0.08700257614850998,-0.034404666166007514,0.03985299469977617,2026-04-11T19:08:09.006-05:00
1775952489016551400,0.741551513671875,0.06640460927784443,0.00044803602844476696,0.02990413987636566,2026-04-11T19:08:09.016-05:00
1775952489026609400,0.751609375,0.01556815600991249,0.011708265711367129,-0.026466347447410225,2026-04-11T19:08:09.026-05:00
1775952489036667400,0.76166748046875,-0.03269990807473659,0.015842004515230653,0.0038412586633116003,2026-04-11T19:08:09.036-05:00
1775952489046725600,0.7717255859375,-0.08723989203572273,0.0295668707460165,0.003998056660220027,2026-04-11T19:08:09.046-05:00
1775952489056782600,0.781782470703125,-0.15244564691781998,0.026671149304509163,0.01705320693589747,2026-04-11T19:08:09.056-05:00
1775952489066840600,0.791840576171875,-0.2524830612063408,-0.003420622098445892,0.003581438683345914,2026-04-11T19:08:09.066-05:00
1775952489076898300,0.801898193359375,-0.28626258121132847,-0.025412965936958787,-0.016447496127709745,2026-04-11T19:08:09.076-05:00
1775952489086955300,0.811955322265625,-0.20954875936508177,-0.02638356453478336,0.04607976026013493,2026-04-11T19:08:09.086-05:00
1775952489097013500,0.822013427734375,-0.03863222073316574,-0.02909019314497709,0.0302885360840708,2026-04-11T19:08:09.097-05:00
1775952489107071500,0.832071533203125,0.1123597202450037,0.012696984487771987,-0.04029650068357587,2026-04-11T19:08:09.107-05:00
1775952489117129500,0.84212939453125,0.23073066360354422,0.02922843257188797,-0.10518800198473036,2026-04-11T19:08:09.117-05:00
1775952489127186400,0.8521865234375,0.23532208304703234,0.021324819840490818,-0.09915493236556648,2026-04-11T19:08:09.127-05:00
1775952489137244400,0.862244384765625,0.2014092920511961,0.01564443611651659,-0.054802799615636465,2026-04-11T19:08:09.137-05:00
1775952489147302400,0.872302490234375,0.13117138822078703,0.06772124483436345,0.02475800915956497,2026-04-11T19:08:09.147-05:00
1775952489157359400,0.882359375,0.108612350410223,0.05297171173095703,-0.0032073446739464997,2026-04-11T19:08:09.157-05:00
1775952489167417600,0.89241748046875,0.11667056918144225,0.0071603931486606594,-0.008072247296571732,2026-04-11T19:08:09.167-05:00
1775952489177475600,0.9024755859375,0.10722352640032767,0.004925765964388847,0.04687580600865185,2026-04-11T19:08:09.177-05:00
1775952489187533300,0.912533203125,0.06042436582446098,0.02305705046057701,0.09877112067975104,2026-04-11T19:08:09.187-05:00
1775952489197590500,0.922590576171875,0.012075637719035148,0.017234920178353784,0.10660101058781146,2026-04-11T19:08:09.197-05:00
1775952489207648500,0.9326484375,-0.04705985733866691,-0.008183598716557026,0.04799801497161388,2026-04-11T19:08:09.207-05:00
1775952489217706500,0.94270654296875,-0.0792716896355152,-0.00113806411921978,-0.004109992602095007,2026-04-11T19:08:09.217-05:00
1775952489227763500,0.952763427734375,-0.12561959931254385,-0.028493980817496774,-0.057891194085031746,2026-04-11T19:08:09.227-05:00
1775952489237821400,0.962821533203125,-0.14115385305285452,-0.03839899649918079,-0.03845898305810988,2026-04-11T19:08:09.237-05:00
1775952489247879700,0.972879638671875,-0.07992752319574356,0.006615326486527919,-0.019774886984750627,2026-04-11T19:08:09.247-05:00
1775952489257937400,0.9829375,0.009301496830582618,0.007640285620093345,0.010904767308756709,2026-04-11T19:08:09.257-05:00
1775952489267994400,0.992994384765625,0.06455342845320701,0.012766834853589534,0.062442792974784965,2026-04-11T19:08:09.267-05:00
1775952489278052400,1.00305224609375,0.11689561010897159,0.025007307745516297,0.028754093058407305,2026-04-11T19:08:09.278-05:00
1775952489288110600,1.013110595703125,0.15954700335562227,0.020865093374252318,-0.014043576791137456,2026-04-11T19:08:09.288-05:00
1775952489298167600,1.02316748046875,0.17486264590919018,-0.008381167115271091,-0.023166867510601877,2026-04-11T19:08:09.298-05:00
1775952489308225500,1.0332255859375,0.1584609616845846,-0.020000585499405858,-0.06904796339347959,2026-04-11T19:08:09.308-05:00
1775952489318283300,1.043283203125,0.15367080479860304,0.01846037032008171,-0.08557407771535218,2026-04-11T19:08:09.318-05:00
1775952489328341500,1.053341552734375,0.09022679889202118,0.007460837399959563,-0.07675313094332814,2026-04-11T19:08:09.328-05:00
1775952489338398500,1.0633984375,0.014523030871152877,-0.00831628518551588,-0.05605762198232114,2026-04-11T19:08:09.338-05:00
1775952489348456400,1.07345654296875,-0.11478314799964427,-0.036062662506103516,0.03559248771108687,2026-04-11T19:08:09.348-05:00
1775952489358514400,1.083514404296875,-0.2316641450613737,-0.11129092196971177,0.10329758512824773,2026-04-11T19:08:09.358-05:00
1775952489368571600,1.093571533203125,-0.25289339557290075,-0.08245908749997616,0.03873626562952995,2026-04-11T19:08:09.368-05:00
1775952489378629400,1.10362939453125,-0.2515261988729238,-0.08303074990808963,-0.021060031424462795,2026-04-11T19:08:09.378-05:00
1775952489388687400,1.113687255859375,-0.11103344007730484,-0.04457359348088503,-0.12856405526660383,2026-04-11T19:08:09.388-05:00
1775952489398745300,1.123745361328125,0.09239303701519966,0.06528028142303229,-0.20712182447910307,2026-04-11T19:08:09.398-05:00
1775952489408802600,1.133802490234375,0.2039350111365318,0.009558394201099872,-0.10495696970783173,2026-04-11T19:08:09.408-05:00
1775952489418860500,1.143860595703125,0.23770167165994643,-0.030586276921629903,0.01507196999080479,2026-04-11T19:08:09.418-05:00
1775952489428918500,1.15391845703125,0.16205577130615711,-0.026819617864489553,0.07573986224755644,2026-04-11T19:08:09.428-05:00
1775952489438975500,1.1639755859375,-0.006913724911212921,-0.022269114953279493,0.04940737031288445,2026-04-11T19:08:09.438-05:00
1775952489449033500,1.174033447265625,-0.09184709357023238,-0.010597381860017775,0.01457118086181581,2026-04-11T19:08:09.449-05:00
1775952489459091500,1.184091552734375,-0.08757949925363064,0.02100713219344616,0.04451170722581446,2026-04-11T19:08:09.459-05:00
1775952489469149400,1.1941494140625,-0.13007833228707313,0.05450900430083275,0.08555055070929228,2026-04-11T19:08:09.469-05:00
1775952489479206400,1.204206298828125,-0.13328326580822467,0.04344926562607288,0.08210486723482609,2026-04-11T19:08:09.479-05:00
1775952489489264600,1.2142646484375,-0.06606909371316433,0.04709609769582748,0.06794986595846712,2026-04-11T19:08:09.489-05:00
1775952489499322400,1.224322265625,0.027045827835798262,0.054335693560540674,0.041301220746710894,2026-04-11T19:08:09.499-05:00
1775952489509379300,1.23437939453125,0.14525368958711624,0.05419102439284324,0.05649287159442901,2026-04-11T19:08:09.509-05:00
1775952489519437300,1.244437255859375,0.15217735137045382,0.06824380740374326,0.01613105058968067,2026-04-11T19:08:09.519-05:00
1775952489529495600,1.25449560546875,0.09518529808223247,0.07470949628651141,0.024320494525134562,2026-04-11T19:08:09.529-05:00
1775952489539553500,1.264553466796875,0.029001638078689572,0.058032502251863474,0.03930515155866742,2026-04-11T19:08:09.539-05:00
1775952489549610500,1.274610595703125,0.03819616740345955,0.06519055731296539,-0.04665836386568844,2026-04-11T19:08:09.549-05:00
1775952489559668500,1.28466845703125,0.08405541678071021,0.043513563033938406,-0.057079000919312235,2026-04-11T19:08:09.559-05:00
1775952489569726500,1.2947265625,0.0828536397755146,0.0002148117944598198,-0.04443279677070677,2026-04-11T19:08:09.569-05:00
1775952489579783400,1.304783447265625,0.01703998212814331,-0.03464724275022745,-0.04887633217610419,2026-04-11T19:08:09.579-05:00
1775952489589841400,1.31484130859375,-0.06861994723975658,-0.019257950438559053,-0.014022460937872528,2026-04-11T19:08:09.589-05:00
1775952489599899400,1.3248994140625,-0.11625555863976478,-0.044323125851154326,0.008933540301024914,2026-04-11T19:08:09.599-05:00
1775952489609957600,1.33495751953125,-0.07356383338272571,-0.042105742062628265,0.1012139837872237,2026-04-11T19:08:09.609-05:00
1775952489620014600,1.3450146484375,-0.2732055312395096,-0.07484744345247744,0.42070765734054144,2026-04-11T19:08:09.620-05:00
1775952489630072300,1.355072265625,-0.6223217512488365,-0.1738131368562579,0.5148725993990898,2026-04-11T19:08:09.630-05:00
1775952489640130600,1.365130615234375,-0.592933744201064,-0.18518880961239337,0.5137796165306121,2026-04-11T19:08:09.640-05:00
1775952489650187500,1.3751875,-0.26093700129687786,-0.11198971788883208,0.3876061827275902,2026-04-11T19:08:09.650-05:00
1775952489660245500,1.38524560546875,0.21140169375538825,0.021914017905294896,0.031517712552845474,2026-04-11T19:08:09.660-05:00
1775952489670303700,1.3953037109375,0.26074936977028845,0.07056728191524744,-0.377398896163702,2026-04-11T19:08:09.670-05:00
1775952489680361500,1.405361572265625,0.021088380736112595,-0.06289221724271774,-0.36992110762894154,2026-04-11T19:08:09.680-05:00
1775952489690418400,1.41541845703125,-0.07429390122294426,0.07854395988285541,-0.24355595064610241,2026-04-11T19:08:09.690-05:00
1775952489700476700,1.4254765625,-0.11176935313642024,0.15140022951811552,-0.1553818465001881,2026-04-11T19:08:09.700-05:00
1775952489710534700,1.43553466796875,-0.17558511496484278,0.1179609012529254,-0.09393201008550822,2026-04-11T19:08:09.710-05:00
1775952489720591600,1.445591552734375,-0.6366781933814287,-0.0030126258194446563,0.18439122949391604,2026-04-11T19:08:09.720-05:00
1775952489730649600,1.455649658203125,-1.6077467468053102,-0.25908815855979916,0.8223590242944657,2026-04-11T19:08:09.730-05:00
1775952489740707600,1.46570751953125,-1.8315818056762216,-0.2863625344544649,1.2655540424488485,2026-04-11T19:08:09.740-05:00
1775952489750765600,1.475765625,-1.2558487871229649,-0.08487871586233377,0.9462267384383827,2026-04-11T19:08:09.750-05:00
1775952489760822500,1.485822509765625,-0.2477595398157835,0.14111001391112804,0.15785137841887772,2026-04-11T19:08:09.760-05:00
1775952489770880500,1.495880615234375,0.2559276487022638,0.09458703992813824,-0.3906041954997927,2026-04-11T19:08:09.770-05:00
1775952489780938800,1.505938720703125,0.259689047062397,-0.11214198584109544,-0.26274887302443384,2026-04-11T19:08:09.780-05:00
1775952489790995700,1.51599560546875,0.6486486171603203,-0.2579088856473565,-0.06707008744925261,2026-04-11T19:08:09.790-05:00
1775952489801053700,1.5260537109375,1.2242208921939133,-0.18883710298687217,-0.2004217057859525,2026-04-11T19:08:09.801-05:00
1775952489811111400,1.536111328125,1.3676970507144928,0.2112055866613984,-0.014485256144031882,2026-04-11T19:08:09.811-05:00
1775952489821169700,1.546169677734375,1.1926152090966702,0.34105303280204535,0.17614673090297728,2026-04-11T19:08:09.821-05:00
1775952489831226600,1.5562265625,-0.05356090979576111,-0.0015945757150650024,0.8903701919861138,2026-04-11T19:08:09.831-05:00
1775952489841284600,1.56628466796875,-0.9720546418517827,-0.8078036985889077,1.2906672947868705,2026-04-11T19:08:09.841-05:00
1775952489851342600,1.576342529296875,-0.48081718506217,0.3570119416952133,0.5555222974345088,2026-04-11T19:08:09.851-05:00
1775952489861399800,1.58639990234375,1.1789181076556443,1.081912608408928,-0.9374923739712685,2026-04-11T19:08:09.861-05:00
1775952489871457500,1.59645751953125,3.4605087031543253,1.0115294508889316,-2.5532576651245353,2026-04-11T19:08:09.871-05:00
1775952489881515500,1.606515625,3.740056881418824,1.1872785242438315,-3.8843919948562977,2026-04-11T19:08:09.881-05:00
1775952489891573500,1.616573486328125,3.184533122679591,1.4259215684071183,-3.849296131555736,2026-04-11T19:08:09.891-05:00
1775952489901630700,1.626630615234375,2.8543665178120134,1.4860501661553978,-3.5367645521000024,2026-04-11T19:08:09.901-05:00
1775952489911688700,1.636688720703125,0.9131751673817634,0.8559487208157778,-1.604095530821383,2026-04-11T19:08:09.911-05:00
1775952489921746400,1.646746337890625,-0.7124971122145652,0.47668519982397556,-0.1733573559127748,2026-04-11T19:08:09.921-05:00
1775952489931803400,1.656803466796875,-0.6068073712527752,0.10774871931821108,0.03490306240851059,2026-04-11T19:08:09.931-05:00
1775952489941861600,1.666861572265625,-0.3424409800291061,-0.3029875060409307,0.26555225827367973,2026-04-11T19:08:09.941-05:00
1775952489951919600,1.676919677734375,-0.1505184782475233,-0.4018310343697667,0.6769972712229937,2026-04-11T19:08:09.951-05:00
1775952489961977600,1.6869775390625,-0.07801613661646843,-0.47795448910742994,1.2010178573913872,2026-04-11T19:08:09.961-05:00
1775952489972034600,1.69703466796875,-0.08124562005698681,-0.6644874068051576,1.4667624051004646,2026-04-11T19:08:09.972-05:00
1775952489982092500,1.707092529296875,-0.09562018236815929,-1.0298378455176949,0.967005176442489,2026-04-11T19:08:09.982-05:00
1775952489992150500,1.717150634765625,-0.7670277438253164,-0.7383133982554078,0.7246965955089777,2026-04-11T19:08:09.992-05:00
1775952490002207500,1.72720751953125,-0.6854694045573473,0.1559159533768892,0.4644812595501542,2026-04-11T19:08:10.002-05:00
1775952490012265500,1.737265380859375,-0.5588222157627344,0.7894596481248736,0.690903923761472,2026-04-11T19:08:10.012-05:00
1775952490022323700,1.74732373046875,-1.9823270784169433,0.6553337940126657,1.1535503690999,2026-04-11T19:08:10.022-05:00
1775952490032381700,1.757381591796875,-2.6773575075238942,-0.068059683008492,1.124536821387708,2026-04-11T19:08:10.032-05:00
1775952490042438700,1.767438720703125,-2.263589659383893,-0.4728486904010176,0.07427928817570209,2026-04-11T19:08:10.042-05:00
1775952490052496400,1.777496337890625,0.02728898894190788,0.010874445235729217,-2.0433773210547863,2026-04-11T19:08:10.052-05:00
1775952490062554600,1.7875546875,1.540278307688236,-0.39785190160572526,-3.082129563781619,2026-04-11T19:08:10.062-05:00
1775952490072611600,1.797611572265625,2.6760171988308428,-0.8127443698614836,-3.266734436026215,2026-04-11T19:08:10.072-05:00
1775952490082669600,1.807669677734375,3.6101603354394434,-0.594828764167428,-3.3080624717146154,2026-04-11T19:08:10.082-05:00
1775952490092727600,1.8177275390625,4.293631259655952,-0.4422404939085245,-4.210186960510909,2026-04-11T19:08:10.092-05:00
1775952490102784800,1.82778466796875,4.980382520717382,0.13878420131206512,-5.31433565838635,2026-04-11T19:08:10.102-05:00
1775952490112842500,1.837842529296875,5.612262373906374,1.1945309795901178,-5.6370735745579,2026-04-11T19:08:10.112-05:00
1775952490122900500,1.847900390625,6.073439623475075,1.4513982472300528,-5.007234287285804,2026-04-11T19:08:10.122-05:00
1775952490132958700,1.857958740234375,6.122396254345774,0.6033227440074086,-3.617958734230697,2026-04-11T19:08:10.132-05:00
1775952490143015700,1.868015625,0.6149363171726465,-0.7661527145564556,0.9482845477510243,2026-04-11T19:08:10.143-05:00
1775952490153073700,1.87807373046875,-6.720543933802842,-2.8530794006109237,6.106704764217138,2026-04-11T19:08:10.153-05:00
1775952490163131600,1.888131591796875,-2.994875058698654,-2.0263892152443526,1.7213688882015645,2026-04-11T19:08:10.163-05:00
1775952490173188600,1.898188720703125,-1.853054801815748,-0.4565133494108915,0.42876141913235183,2026-04-11T19:08:10.173-05:00
1775952490183246600,1.90824658203125,0.12111878076195716,0.3574725449442863,-1.9251026776775717,2026-04-11T19:08:10.183-05:00
1775952490193304600,1.9183046875,3.2105542836427685,0.5325239914238452,-4.7922646719157695,2026-04-11T19:08:10.193-05:00
1775952490203362600,1.928362548828125,6.038337914955616,1.254630643504858,-5.1964469455868,2026-04-11T19:08:10.203-05:00
1775952490213419500,1.93841943359375,8.571968504068256,2.073780204233527,-1.3948442930981515,2026-04-11T19:08:10.213-05:00
1775952490223477800,1.948477783203125,10.404342336905001,0.9941191741436719,4.2240529887780545,2026-04-11T19:08:10.223-05:00
1775952490233535500,1.958535400390625,7.362498021760582,0.6101876613408327,4.917507839131355,2026-04-11T19:08:10.233-05:00
1775952490243592400,1.968592529296875,3.275444981226325,1.110595974318683,4.177842441745102,2026-04-11T19:08:10.243-05:00
1775952490253650400,1.978650390625,0.7841279317080974,2.1105653357952834,3.3983293103560803,2026-04-11T19:08:10.253-05:00
1775952490263708700,1.988708740234375,1.5200164409041403,2.6944273002684116,1.3696844251394271,2026-04-11T19:08:10.263-05:00
1775952490273766700,1.9987666015625,0.9475579139769077,2.707990546196699,0.8341194585844874,2026-04-11T19:08:10.273-05:00
1775952490283823600,2.00882373046875,0.9042810823082923,3.5035020417064424,1.0826672261685133,2026-04-11T19:08:10.283-05:00
1775952490293881600,2.018881591796875,2.6981460285305974,4.968743520849943,1.1704060076370835,2026-04-11T19:08:10.293-05:00
1775952490303939600,2.028939697265625,5.052399709179997,5.734598129242658,1.2016945876091718,2026-04-11T19:08:10.303-05:00
1775952490313996500,2.03899658203125,5.276221908569336,6.64346829290688,1.568820511561632,2026-04-11T19:08:10.313-05:00
1775952490324054500,2.049054443359375,5.059122295433283,7.871846889302134,2.505359603396058,2026-04-11T19:08:10.324-05:00
1775952490334112800,2.05911279296875,3.958240198138356,6.9075155351787805,1.8992571655422448,2026-04-11T19:08:10.334-05:00
1775952490344169700,2.069169677734375,2.308543484354019,6.23570290005207,1.7022288650542496,2026-04-11T19:08:10.344-05:00
1775952490354227700,2.079227783203125,1.5538357083976269,7.1981608615189785,1.8544716828763483,2026-04-11T19:08:10.354-05:00
1775952490364285400,2.089285400390625,1.3968015646457672,8.680265797179937,1.6075503474503754,2026-04-11T19:08:10.364-05:00
1775952490374343700,2.09934375,1.300780108000338,9.474040678155422,2.683068286386132,2026-04-11T19:08:10.374-05:00
1775952490384400600,2.109400634765625,1.2893556276664138,9.539445170480013,3.760292444717884,2026-04-11T19:08:10.384-05:00
1775952490394458600,2.119458740234375,1.0126520251780748,9.573763619667291,3.759419169014692,2026-04-11T19:08:10.394-05:00
1775952490404516600,2.1295166015625,0.9115212626948952,9.774172794765233,2.696134688708186,2026-04-11T19:08:10.404-05:00
1775952490414573600,2.139573486328125,0.5768707904115319,9.590191607376932,1.488739259108901,2026-04-11T19:08:10.414-05:00
1775952490424631600,2.149631591796875,-0.45191170083433385,9.01838365331292,0.6691957306265831,2026-04-11T19:08:10.424-05:00
1775952490434689500,2.159689453125,-2.2792981006473303,8.47706611458063,0.0856026462227106,2026-04-11T19:08:10.434-05:00
1775952490444747500,2.16974755859375,-4.302312578761577,8.170935634338855,-0.6120376731216907,2026-04-11T19:08:10.444-05:00
1775952490454804500,2.179804443359375,-5.685697027951479,7.866841628360747,-2.4569693742364644,2026-04-11T19:08:10.454-05:00
1775952490464862700,2.18986279296875,-6.423441394147276,6.776262313893437,-4.98070342323482,2026-04-11T19:08:10.464-05:00
1775952490474920400,2.19992041015625,-6.243689807152748,6.238270120191574,-6.817371738395094,2026-04-11T19:08:10.474-05:00
1775952490484977400,2.209977294921875,-5.658400440225005,5.948752336576581,-7.808061522611975,2026-04-11T19:08:10.484-05:00
1775952490495035600,2.22003564453125,-4.916910457760095,5.729477132967114,-7.635421228927373,2026-04-11T19:08:10.495-05:00
1775952490505093600,2.23009375,-4.406726308438182,5.460079761838912,-6.486766742110252,2026-04-11T19:08:10.505-05:00
1775952490515151600,2.240151611328125,-3.6830502150833606,4.977639359489083,-5.043614345178008,2026-04-11T19:08:10.515-05:00
1775952490525208600,2.25020849609375,-2.937321279874444,4.3370095058724285,-5.3037996513247485,2026-04-11T19:08:10.525-05:00
1775952490535266800,2.260266845703125,-2.14381016440168,2.9395415862724183,-8.757799703237414,2026-04-11T19:08:10.535-05:00
1775952490545324500,2.270324462890625,-1.0292565384984016,1.639458666756004,-10.210706601464748,2026-04-11T19:08:10.545-05:00
1775952490555381500,2.280381591796875,-0.4864910659801215,0.5569746881999075,-10.065279893398284,2026-04-11T19:08:10.555-05:00
1775952490565439500,2.290439453125,0.022433292539045212,-0.4482259980589151,-9.040805328479408,2026-04-11T19:08:10.565-05:00
1775952490575497700,2.300497802734375,0.14448212069272995,-0.24992022498100994,-6.8500675548166035,2026-04-11T19:08:10.575-05:00
1775952490585554700,2.3105546875,-0.19408523277342318,0.6940569078996777,-4.986402511659264,2026-04-11T19:08:10.585-05:00
1775952490595612700,2.32061279296875,-0.37480420349538324,0.7395140062168241,-3.9825159767389295,2026-04-11T19:08:10.595-05:00
1775952490605670400,2.33067041015625,0.19382044435739515,0.03525894490778446,-4.505695216712355,2026-04-11T19:08:10.605-05:00
1775952490615728600,2.340728759765625,-0.4788479308158159,-1.4536214762374757,-10.810109249418973,2026-04-11T19:08:10.615-05:00
1775952490625785600,2.35078564453125,-2.8845547353267667,-3.8354081837177274,-14.407346974921225,2026-04-11T19:08:10.625-05:00
1775952490635843600,2.360843505859375,-3.149057320150733,-5.900563182947039,-13.109079434263705,2026-04-11T19:08:10.635-05:00
1775952490645902000,2.370902099609375,-0.2667693607121706,-5.7169841466188425,-12.351723774147032,2026-04-11T19:08:10.645-05:00
1775952490655959000,2.380958984375,2.5057582473248243,-3.9597389122635125,-11.953077507293223,2026-04-11T19:08:10.655-05:00
1775952490666016800,2.391016845703125,3.425506947878003,-2.8406308379262684,-10.739446398174762,2026-04-11T19:08:10.666-05:00
1775952490676075000,2.401074951171875,2.0931692337058485,-4.2846407284706824,-8.137530792865157,2026-04-11T19:08:10.676-05:00
1775952490686132000,2.411132080078125,0.3104477589190006,-5.3736763206273315,-6.8763447363674635,2026-04-11T19:08:10.686-05:00
1775952490696190000,2.42118994140625,-0.771227679733187,-5.519380676591396,-7.821985418546199,2026-04-11T19:08:10.696-05:00
1775952490706248000,2.431248046875,-1.0218220045834778,-6.5003340796917675,-10.213865357756614,2026-04-11T19:08:10.706-05:00
1775952490716306000,2.441305908203125,-0.4494201762795448,-7.792352496826648,-13.558964889967442,2026-04-11T19:08:10.716-05:00
1775952490726363000,2.45136279296875,1.4323551085859536,-8.252181254395841,-14.552520000487565,2026-04-11T19:08:10.726-05:00
1775952490736420900,2.4614208984375,3.637338265222311,-8.788748383730649,-12.010849312782288,2026-04-11T19:08:10.736-05:00
1775952490746478800,2.471478759765625,5.962544130563735,-8.40843798403442,-8.566365861755608,2026-04-11T19:08:10.746-05:00
1775952490756535800,2.481535888671875,7.288819037565588,-8.09198192461133,-6.926119113361835,2026-04-11T19:08:10.756-05:00
1775952490766594000,2.491593994140625,7.656530067929625,-7.625176898288727,-6.398465358322858,2026-04-11T19:08:10.766-05:00
1775952490776652000,2.501652099609375,7.58992146051228,-6.64872782087028,-6.14124182459116,2026-04-11T19:08:10.776-05:00
1775952490786709800,2.511709716796875,6.213185363295674,-4.889685766226053,-5.227695485809445,2026-04-11T19:08:10.786-05:00
1775952490796766700,2.5217666015625,4.186549187552929,-3.199160198447108,-1.7927455868035553,2026-04-11T19:08:10.796-05:00
1775952490806825000,2.531824951171875,3.957416022273898,-1.87046098690778,2.268386246010661,2026-04-11T19:08:10.806-05:00
1775952490816883000,2.541883056640625,5.696061770099401,0.6791749805882573,4.488996595367789,2026-04-11T19:08:10.816-05:00
1775952490826940000,2.55193994140625,6.016316052761674,2.3765026295974847,5.415773587122559,2026-04-11T19:08:10.826-05:00
1775952490836998100,2.561998046875,4.340283120715618,0.6451075835525989,3.5156378851801153,2026-04-11T19:08:10.836-05:00
1775952490847056000,2.572055908203125,2.6995857059448958,-0.7643214074760675,1.6619401092857122,2026-04-11T19:08:10.847-05:00
1775952490857112800,2.58211279296875,1.5018459934413433,-4.105301229408383,-0.9366834687411785,2026-04-11T19:08:10.857-05:00
1775952490867170800,2.5921708984375,-0.29141050202641633,-5.11901240825057,-0.7151777296006679,2026-04-11T19:08:10.867-05:00
1775952490877229000,2.60222900390625,-1.7147189287930726,-1.3570187125727533,0.44331893679499623,2026-04-11T19:08:10.877-05:00
1775952490887287000,2.612287109375,-0.998290906870365,2.513530342631042,0.2204009927690029,2026-04-11T19:08:10.887-05:00
1775952490897344000,2.622343994140625,-3.550408169788122,-0.13868833972215652,-0.6808844148546457,2026-04-11T19:08:10.897-05:00
1775952490907401700,2.632401611328125,-3.1446494405806065,0.8574256615005433,1.101774662220478,2026-04-11T19:08:10.907-05:00
1775952490917460000,2.6424599609375,-1.1738730992257593,2.068914936284721,2.2150445319235326,2026-04-11T19:08:10.917-05:00
1775952490927517000,2.652516845703125,2.775146266102791,3.6649440650284286,5.597046100074053,2026-04-11T19:08:10.927-05:00
1775952490937575000,2.662574951171875,-1.5004560003876686,0.4659827501542866,3.7463533512145277,2026-04-11T19:08:10.937-05:00
1775952490947633000,2.6726328125,-4.880855978560447,3.272061184006929,0.6210299578726292,2026-04-11T19:08:10.947-05:00
1775952490957691000,2.68269091796875,-7.3956830830037585,1.5396386946104466,-2.3991209963798523,2026-04-11T19:08:10.957-05:00
1775952490967748000,2.692748046875,-3.862777836680412,1.9495484060175716,-2.324898991349339,2026-04-11T19:08:10.967-05:00
1775952490977805800,2.702805908203125,-0.33112697433233257,1.0057675263613461,-0.4179799128770828,2026-04-11T19:08:10.977-05:00
1775952490987863800,2.71286376953125,1.040012910312414,-0.16371464442908762,0.9688380178928375,2026-04-11T19:08:10.987-05:00
1775952490997920800,2.722920654296875,0.4442003958046436,-0.5568703510425984,0.8655524154633283,2026-04-11T19:08:10.997-05:00
1775952491007979000,2.73297900390625,-1.0257049834966658,1.518214798309654,1.9335382053285837,2026-04-11T19:08:11.007-05:00
1775952491018037000,2.743037109375,-1.0806804362654685,2.810659478032589,2.7776544495314357,2026-04-11T19:08:11.018-05:00
1775952491028094000,2.753093994140625,0.1232921792782843,2.578696642285585,3.089583971440792,2026-04-11T19:08:11.028-05:00
1775952491038152000,2.76315185546875,1.603344858584553,2.055660025653243,3.1976860342413187,2026-04-11T19:08:11.038-05:00
1775952491048210000,2.7732099609375,-1.3867442810118198,3.057076371067762,3.762432963877916,2026-04-11T19:08:11.048-05:00
1775952491058268000,2.783267822265625,-7.028472403377294,4.799838906562328,-0.7452519653469324,2026-04-11T19:08:11.058-05:00
1775952491068324900,2.793324951171875,-6.920397813105583,4.634741867864132,-5.031791220915317,2026-04-11T19:08:11.068-05:00
1775952491078383000,2.803383056640625,-4.497885419744253,4.745547344404459,-4.157420123702288,2026-04-11T19:08:11.078-05:00
1775952491088440800,2.81344091796875,-1.2162883456289768,2.4616481797024607,-2.1313503496706483,2026-04-11T19:08:11.088-05:00
1775952491098497800,2.823497802734375,1.1358896977901458,1.1753582962822169,1.037661378750205,2026-04-11T19:08:11.098-05:00
1775952491108555800,2.8335556640625,1.9778338586509228,1.8696020319908857,0.45255496717393395,2026-04-11T19:08:11.108-05:00
1775952491118614000,2.843614013671875,2.2164602439403533,2.211078550902009,-0.33342005370557304,2026-04-11T19:08:11.118-05:00
1775952491128672000,2.853672119140625,2.561408822876215,2.321989825904369,-0.06725041245222091,2026-04-11T19:08:11.128-05:00
1775952491138729000,2.86372900390625,2.8990812733292577,2.2348805745109916,-1.1444868457436561,2026-04-11T19:08:11.138-05:00
1775952491148787000,2.873786865234375,3.0232962665408847,2.28617543907091,-1.581196593531966,2026-04-11T19:08:11.148-05:00
1775952491158845000,2.883844970703125,2.405400515040755,1.885961046117544,-2.6864538371711966,2026-04-11T19:08:11.158-05:00
1775952491168902000,2.89390185546875,2.030722568273544,0.8872017910830676,-3.3913445660352703,2026-04-11T19:08:11.168-05:00
1775952491178960000,2.9039599609375,2.693621829104423,1.3602693849317729,-2.5308605398774144,2026-04-11T19:08:11.178-05:00
1775952491189017900,2.914017822265625,3.658673898717761,2.348972379245609,-1.3749445376247167,2026-04-11T19:08:11.189-05:00
1775952491199075000,2.924074951171875,4.10967169957757,3.5075825890183445,-0.9349176281124353,2026-04-11T19:08:11.199-05:00
1775952491209133000,2.934133056640625,3.9472377426087855,4.298714846530556,-2.840145100235939,2026-04-11T19:08:11.209-05:00
1775952491219190800,2.944190673828125,0.8972621434569358,3.196122730447352,-6.988803825333714,2026-04-11T19:08:11.219-05:00
1775952491229248800,2.954248779296875,-1.3181914076589047,2.2557930141583085,-9.598768881586194,2026-04-11T19:08:11.229-05:00
1775952491239306000,2.964305908203125,-1.6472456673704088,2.5524720677047967,-9.707552496910095,2026-04-11T19:08:11.239-05:00
1775952491249364000,2.974364013671875,-2.0948276684373615,2.0806796083584427,-8.59864432954788,2026-04-11T19:08:11.249-05:00
1775952491259422000,2.984421875,-2.5352792331025005,1.2529285157620906,-5.388624298912286,2026-04-11T19:08:11.259-05:00
1775952491269479000,2.99447900390625,-2.613858556559682,1.0963590669125318,-2.5182810442894694,2026-04-11T19:08:11.269-05:00
1775952491279537000,3.004536865234375,-2.392267184962332,1.54895290479213,-1.026570075893402,2026-04-11T19:08:11.279-05:00
1775952491289595000,3.014594970703125,-3.2636469914048907,2.1799378549680113,-1.9140397241324185,2026-04-11T19:08:11.289-05:00
1775952491299651800,3.02465185546875,-4.077973662021756,2.8595304764464498,-0.3568026828587055,2026-04-11T19:08:11.299-05:00
1775952491309709800,3.034709716796875,-3.3976340215682983,1.380031923891604,-0.18123101189732552,2026-04-11T19:08:11.309-05:00
1775952491319768000,3.04476806640625,-1.7738684523761272,0.6680404231116175,-0.08416063072085381,2026-04-11T19:08:11.319-05:00
1775952491329826000,3.054825927734375,0.4053881423294544,0.7100510342366994,0.9412269573897123,2026-04-11T19:08:11.329-05:00
1775952491339883000,3.064883056640625,2.8150229339390993,0.30447818299010393,2.177346377170086,2026-04-11T19:08:11.339-05:00
1775952491349940700,3.074940673828125,4.3164317050069565,-0.718771370178461,2.54371885240674,2026-04-11T19:08:11.349-05:00
1775952491359999000,3.0849990234375,4.661100882479548,-1.4452964232236145,2.175161434346437,2026-04-11T19:08:11.359-05:00
1775952491370056000,3.095055908203125,3.5667806279182432,-1.1463535163983702,1.8496733426839111,2026-04-11T19:08:11.370-05:00
1775952491380114000,3.105114013671875,1.469331963327527,-0.7471388020068407,1.872695321831107,2026-04-11T19:08:11.380-05:00
1775952491390172000,3.115171875,0.48817163947820663,-0.3667833941251039,2.5060078381717203,2026-04-11T19:08:11.390-05:00
1775952491400229000,3.12522900390625,0.007638532054424285,0.4438078893557191,3.0575586016267535,2026-04-11T19:08:11.400-05:00
1775952491410286800,3.135286865234375,-0.7810539310902357,1.4356933130979537,3.618172376981377,2026-04-11T19:08:11.410-05:00
1775952491420344800,3.1453447265625,-1.1434119099885225,1.1710530733689666,2.784409769010544,2026-04-11T19:08:11.420-05:00
1775952491430402800,3.15540283203125,0.316553090056777,1.2705679250881075,1.9681541761577128,2026-04-11T19:08:11.430-05:00
1775952491440460000,3.1654599609375,2.4836931305110452,1.203471534153819,1.269688511905074,2026-04-11T19:08:11.440-05:00
1775952491450518000,3.17551806640625,3.5550527807235714,0.5109501652583479,0.6399772349268198,2026-04-11T19:08:11.450-05:00
1775952491460575700,3.18557568359375,5.324777557423711,0.5927905363380909,0.7242565235912799,2026-04-11T19:08:11.460-05:00
1775952491470633000,3.195633056640625,6.064703359311819,2.023297971230745,1.0722861174076794,2026-04-11T19:08:11.470-05:00
1775952491480691000,3.20569091796875,6.760024295797944,-0.5807321420148015,1.7964228140115737,2026-04-11T19:08:11.480-05:00
1775952491490749000,3.2157490234375,7.462468216031789,0.3444932363837957,2.631536836591363,2026-04-11T19:08:11.490-05:00
1775952491500806000,3.225805908203125,6.147886669433117,2.634039174801111,6.224612766239047,2026-04-11T19:08:11.500-05:00
1775952491510864000,3.23586376953125,5.539712686002254,2.3031360723525283,8.266849831217527,2026-04-11T19:08:11.510-05:00
1775952491520922000,3.245922119140625,4.4598155090689655,4.306825672271848,9.11435630238056,2026-04-11T19:08:11.520-05:00
1775952491530979800,3.255979736328125,1.2077543260395527,5.8636138007342815,10.013093779087066,2026-04-11T19:08:11.530-05:00
1775952491541036800,3.266036865234375,0.5232873765230178,0.4564700947910547,5.473257223320007,2026-04-11T19:08:11.541-05:00
1775952491551094800,3.2760947265625,-0.04218436025679111,0.3351280266672373,4.161991961662471,2026-04-11T19:08:11.551-05:00
1775952491561153000,3.286153076171875,0.028876550394296645,0.9293366131097078,6.514882829526067,2026-04-11T19:08:11.561-05:00
1775952491571210000,3.2962099609375,1.3767536328732966,0.7879051121592521,8.40123608983159,2026-04-11T19:08:11.571-05:00
1775952491581268000,3.30626806640625,1.3382856627911328,0.3036567836046219,8.571464061677455,2026-04-11T19:08:11.581-05:00
1775952491591325700,3.31632568359375,0.8180670261889695,-0.3090489980369806,5.480368516629934,2026-04-11T19:08:11.591-05:00
1775952491601383000,3.3263828125,-0.7519540933340787,-0.5321206713199615,2.7828055486842986,2026-04-11T19:08:11.601-05:00
1775952491611441000,3.33644091796875,-3.2015745661124586,-1.4037795869648455,1.065759638248384,2026-04-11T19:08:11.611-05:00
1775952491621499000,3.346498779296875,-3.019729513970017,-2.0834622248142955,2.4008377371698617,2026-04-11T19:08:11.621-05:00
1775952491631557000,3.35655712890625,-1.9230548052370546,-1.7897803072571754,3.965853011229634,2026-04-11T19:08:11.631-05:00
1775952491641613300,3.36661328125,-1.8560791180729865,-1.6957628839105368,2.5314161279335616,2026-04-11T19:08:11.641-05:00
1775952491651671300,3.37667138671875,-1.992359519870579,-1.6654419799268245,-0.9660516020447015,2026-04-11T19:08:11.651-05:00
1775952491661729300,3.386729248046875,-1.397706404531002,-1.921340402534604,-3.7790710872069,2026-04-11T19:08:11.661-05:00
1775952491671786200,3.3967861328125,-3.025881022337079,-4.069288835784793,-6.482346587580442,2026-04-11T19:08:11.671-05:00
1775952491681844200,3.40684423828125,-4.4700919884115455,-4.97363596906662,-7.618445544207096,2026-04-11T19:08:11.681-05:00
1775952491691902500,3.41690234375,-5.537938077545165,-5.2143835842937225,-8.079525763142108,2026-04-11T19:08:11.691-05:00
1775952491701960400,3.42696044921875,-2.4256425080806014,-3.5698528749704357,-6.451553389909863,2026-04-11T19:08:11.701-05:00
1775952491712017400,3.437017333984375,-0.6094394733220339,-4.21329164852798,-7.065639812254905,2026-04-11T19:08:11.712-05:00
1775952491722075400,3.447075439453125,4.881100600971282,-5.029802677446604,-9.131376410764455,2026-04-11T19:08:11.722-05:00
1775952491732133400,3.45713330078125,13.760898498153686,-5.51069994200766,-12.349371658062934,2026-04-11T19:08:11.732-05:00
1775952491742190300,3.4671904296875,15.034964494490623,-3.3928234064161775,-6.658046853357553,2026-04-11T19:08:11.742-05:00
1775952491752248300,3.477248291015625,9.656215108382701,1.0977087279558182,-1.8130442784667014,2026-04-11T19:08:11.752-05:00
1775952491762306300,3.487306396484375,3.4265386290132995,1.8180647369772194,-0.976789269158244,2026-04-11T19:08:11.762-05:00
1775952491772363300,3.49736328125,-0.3013191344372928,-2.818708344453573,0.6195148771345615,2026-04-11T19:08:11.772-05:00
1775952491782421500,3.50742138671875,0.8698223478674888,-3.642882455345988,-0.062251581251621245,2026-04-11T19:08:11.782-05:00
1775952491792479200,3.517479248046875,1.4117232394456862,-5.822946274781227,-0.817784702116251,2026-04-11T19:08:11.792-05:00
1775952491802537200,3.527537109375,-0.2768207991272211,-9.691797293895483,-2.7327579077064987,2026-04-11T19:08:11.802-05:00
1775952491812594200,3.53759423828125,0.06225695154648274,-8.472579324555397,-6.08463789383769,2026-04-11T19:08:11.812-05:00
1775952491822652400,3.54765234375,1.8833049786508083,1.5481678918942807,-5.411677257719636,2026-04-11T19:08:11.822-05:00
1775952491832710400,3.55771044921875,0.10249825144410132,1.1079802388623357,-3.5841467732608314,2026-04-11T19:08:11.832-05:00
1775952491842767400,3.567767333984375,0.05107439020965248,1.794208645093441,-2.545854110869765,2026-04-11T19:08:11.842-05:00
1775952491852825300,3.577825439453125,-0.9065642248094081,0.3062555679261684,-2.6818308535456654,2026-04-11T19:08:11.852-05:00
1775952491862883300,3.58788330078125,-2.4148797065258023,-1.7160200745195149,-4.352375125047565,2026-04-11T19:08:11.862-05:00
1775952491872940300,3.597940185546875,-0.9286918854653835,0.62295858784765,-2.2260212684899567,2026-04-11T19:08:11.872-05:00
1775952491882998300,3.607998291015625,-3.0056384447753426,-1.0593354504197836,-0.4409346720069647,2026-04-11T19:08:11.882-05:00
1775952491893056500,3.618056396484375,-6.067286946064233,-2.0509631000086666,-2.9551421832472085,2026-04-11T19:08:11.893-05:00
1775952491903114500,3.628114501953125,-5.991265198135376,-1.3745099455997347,-6.401682566803693,2026-04-11T19:08:11.903-05:00
1775952491913171500,3.63817138671875,-4.903882633882761,0.9028221156716346,-5.223569345790147,2026-04-11T19:08:11.913-05:00
1775952491923229200,3.648229248046875,-7.139449729353189,2.074429023531079,-4.445587661752104,2026-04-11T19:08:11.923-05:00
1775952491933287400,3.658287353515625,-6.491136627757549,2.6220962235510346,-2.42320212919116,2026-04-11T19:08:11.933-05:00
1775952491943344400,3.668344482421875,-3.103376057688892,4.731608835422993,-0.24854455271363257,2026-04-11T19:08:11.943-05:00
1775952491953402400,3.67840234375,-0.29460575440376996,5.389522709056735,1.9068021740943193,2026-04-11T19:08:11.953-05:00
1775952491963460400,3.68846044921875,0.6277192263782024,5.786672599872946,2.477591891026497,2026-04-11T19:08:11.963-05:00
1775952491973517300,3.698517333984375,1.1745754022762178,6.122394500780105,4.285566611143946,2026-04-11T19:08:11.973-05:00
1775952491983575300,3.7085751953125,1.2023942603111266,7.612576944434642,3.658409110301733,2026-04-11T19:08:11.983-05:00
1775952491993633300,3.71863330078125,-0.6089186643183231,8.233854739588498,1.5888953313410281,2026-04-11T19:08:11.993-05:00
1775952492003690200,3.728690185546875,-2.6688313789799807,6.559512244847417,0.28122341800034045,2026-04-11T19:08:12.003-05:00
1775952492013748200,3.738748291015625,-1.533717341737449,4.632560724432766,-1.8167185830652712,2026-04-11T19:08:12.013-05:00
1775952492023806500,3.748806396484375,-0.3957040759220719,4.151695024053752,-0.4861164605140686,2026-04-11T19:08:12.023-05:00
1775952492033864200,3.7588642578125,-1.6081787084817885,4.4003655412346125,2.7802403743714095,2026-04-11T19:08:12.033-05:00
1775952492043921400,3.76892138671875,-1.8102748137533664,5.542297441798448,4.411004424148798,2026-04-11T19:08:12.043-05:00
1775952492053979400,3.7789794921875,-0.9845933670379221,6.7290399594694374,2.7204180660933255,2026-04-11T19:08:12.053-05:00
1775952492064037400,3.789037353515625,-0.2951426377594471,5.589436794114112,0.38220132800936696,2026-04-11T19:08:12.064-05:00
1775952492074094300,3.79909423828125,0.7362098501048981,4.630081182576716,-2.0262100592851637,2026-04-11T19:08:12.074-05:00
1775952492084152300,3.80915234375,0.377581193928048,5.468298724129796,-4.836122518342733,2026-04-11T19:08:12.084-05:00
1775952492094210600,3.81921044921875,-0.23394429188780486,6.490517034554481,-6.060761928209662,2026-04-11T19:08:12.094-05:00
1775952492104268300,3.829268310546875,-1.8001731064558029,6.662023940294981,-5.001918645220995,2026-04-11T19:08:12.104-05:00
1775952492114325200,3.8393251953125,-3.7758787209063764,3.2887615589171646,-1.6853788525402544,2026-04-11T19:08:12.114-05:00
1775952492124383200,3.84938330078125,-6.435366809740662,-2.40975520311892,-1.7319523876667022,2026-04-11T19:08:12.124-05:00
1775952492134441500,3.85944140625,-1.256974576282501,-2.8487773195028305,-5.769404069685936,2026-04-11T19:08:12.134-05:00
1775952492144498400,3.86949853515625,0.7760463320612907,-1.4604063140720127,-6.275667830693721,2026-04-11T19:08:12.144-05:00
1775952492154556400,3.879556396484375,0.6299070918112993,-2.9610259805887935,-5.694405819585919,2026-04-11T19:08:12.154-05:00
1775952492164614100,3.8896142578125,1.743377452522516,-3.522304357331991,-5.583755241346359,2026-04-11T19:08:12.164-05:00
1775952492174671000,3.899671142578125,0.9733096103489398,-2.6758108626037833,-6.059968147483468,2026-04-11T19:08:12.174-05:00
1775952492184729300,3.909729248046875,2.177547452700138,-2.6187697094768283,-6.186489664071798,2026-04-11T19:08:12.184-05:00
1775952492194787300,3.919787353515625,3.7849341340214013,-3.6987405361682173,-4.972394444572926,2026-04-11T19:08:12.194-05:00
1775952492204844300,3.92984423828125,5.001746211263537,-5.018046188679337,-4.187046031159162,2026-04-11T19:08:12.204-05:00
1775952492214902500,3.939902587890625,4.89961387052238,-6.547296906396746,-5.01953379688859,2026-04-11T19:08:12.214-05:00
1775952492224960300,3.949960205078125,4.285098116849363,-8.125899976304172,-6.18270020866096,2026-04-11T19:08:12.224-05:00
1775952492235018200,3.960018310546875,5.990390753388405,-9.45904769168496,-4.225796325314045,2026-04-11T19:08:12.235-05:00
1775952492245075200,3.9700751953125,5.999452596244216,-8.890873125687241,-2.463932198986411,2026-04-11T19:08:12.245-05:00
1775952492255133400,3.980133544921875,4.576904011401534,-8.610364577957988,-1.8105846103549001,2026-04-11T19:08:12.255-05:00
1775952492265191400,3.99019140625,3.0453429709151387,-6.544264406833053,-1.3361018890112637,2026-04-11T19:08:12.265-05:00
1775952492275248400,4.000248291015625,1.8412594423428177,-3.087318949118256,-0.95587156881392,2026-04-11T19:08:12.275-05:00
1775952492285306400,4.010306396484375,-2.603354698202014,-1.0703887593537569,-3.3550749827802178,2026-04-11T19:08:12.285-05:00
1775952492295364400,4.0203642578125,-5.728257235783338,2.322370934176445,-2.0436632983893155,2026-04-11T19:08:12.295-05:00
1775952492305421300,4.03042138671875,-4.836727498498559,6.6340767797052855,4.033034450098872,2026-04-11T19:08:12.305-05:00
1775952492315479300,4.040479248046875,-4.051584252268076,9.153472507238387,9.236460002526641,2026-04-11T19:08:12.315-05:00
1775952492325537300,4.050537353515625,-5.60669363386333,9.273551423558592,12.208948457372188,2026-04-11T19:08:12.325-05:00
1775952492335595500,4.060595458984375,-5.186528778162598,9.268431596326828,12.280416779780387,2026-04-11T19:08:12.335-05:00
1775952492345652500,4.070652587890625,-0.6773333713095635,7.595718164092302,7.3135495741963386,2026-04-11T19:08:12.345-05:00
1775952492355710200,4.080710205078125,5.12613656104207,4.594747418867051,0.9934972428530454,2026-04-11T19:08:12.355-05:00
1775952492365768200,4.090768310546875,5.5190784787744285,1.1872732635468244,0.67151394444108,2026-04-11T19:08:12.365-05:00
1775952492375825400,4.100825439453125,4.284158497911691,-1.8290645621582864,3.698320264929533,2026-04-11T19:08:12.375-05:00
1775952492385883400,4.11088330078125,2.784422043970227,-2.5307316528007386,6.210214238530397,2026-04-11T19:08:12.385-05:00
1775952492395941400,4.12094140625,2.496836689722538,-1.2014394438043237,5.206633993080258,2026-04-11T19:08:12.395-05:00
1775952492405998300,4.130998291015625,2.4736183112204073,1.9040876544386147,2.734363589337468,2026-04-11T19:08:12.405-05:00
1775952492416056300,4.141056396484375,0.9033739043354988,2.438316403953731,-0.1737064616113901,2026-04-11T19:08:12.416-05:00
1775952492426114300,4.1511142578125,0.1384182906091213,0.23814210890382526,-3.1648820812702176,2026-04-11T19:08:12.426-05:00
1775952492436172300,4.16117236328125,-1.2645043872654438,-0.827227068722248,-3.0933295877099036,2026-04-11T19:08:12.436-05:00
1775952492446229200,4.171229248046875,-1.3793793052017689,-0.837641202969849,-3.52840442777276,2026-04-11T19:08:12.446-05:00
1775952492456287500,4.18128759765625,1.0396265413433312,1.094769751894474,-3.2235464516848324,2026-04-11T19:08:12.456-05:00
1775952492466345500,4.191345458984375,3.010237463003397,4.212612434092164,-1.2483499558001756,2026-04-11T19:08:12.466-05:00
1775952492476402400,4.20140234375,3.479489297956228,5.920248711147904,0.7925526457041502,2026-04-11T19:08:12.476-05:00
1775952492486460200,4.211460205078125,2.9295822100549933,5.33919537435472,2.213576797458529,2026-04-11T19:08:12.486-05:00
1775952492496518400,4.221518310546875,1.8801584973186254,4.25881596686244,2.161516355353594,2026-04-11T19:08:12.496-05:00
1775952492506575400,4.231575439453125,0.4658816278673708,2.9994881054520603,0.7268482936501502,2026-04-11T19:08:12.506-05:00
1775952492516633300,4.24163330078125,-1.4021768279433249,1.9273861124396323,-1.9088439090549945,2026-04-11T19:08:12.516-05:00
1775952492526691300,4.25169140625,-2.9319898557186126,0.43596389785706996,-4.098647032216191,2026-04-11T19:08:12.526-05:00
1775952492536748300,4.261748291015625,-3.5450025113523003,-1.6418103444486856,-4.607241866520047,2026-04-11T19:08:12.536-05:00
1775952492546806300,4.27180615234375,-3.33304493727982,-2.7380922544717787,-4.084862837013602,2026-04-11T19:08:12.546-05:00
1775952492556864300,4.2818642578125,-2.503611882945895,-3.018797201555967,-2.7403923481076955,2026-04-11T19:08:12.556-05:00
1775952492566922200,4.291922119140625,-1.028812740253657,-2.9007155965328213,-1.737284980866313,2026-04-11T19:08:12.566-05:00
1775952492576979500,4.3019794921875,0.4263914751306176,-2.4662948364645243,-1.1506412767201661,2026-04-11T19:08:12.576-05:00
1775952492587037400,4.312037353515625,0.9682125794708728,-2.0729864235073325,-0.7333014153122901,2026-04-11T19:08:12.587-05:00
1775952492597095400,4.322095458984375,1.4463311730988322,-2.2312509858369824,-0.5659761791706085,2026-04-11T19:08:12.597-05:00
1775952492607152400,4.33215234375,1.564202788633108,-2.515057990589738,-0.19510931512415408,2026-04-11T19:08:12.607-05:00
1775952492617210400,4.34221044921875,-0.05662716549858451,-2.204134430852532,0.8941291061282157,2026-04-11T19:08:12.617-05:00
1775952492627268400,4.352268310546875,-1.3876670949451624,-1.064767412340641,1.2787275584071873,2026-04-11T19:08:12.627-05:00
1775952492637325300,4.3623251953125,-0.5034720844626427,-1.3430986160308123,0.9867454305052756,2026-04-11T19:08:12.637-05:00
1775952492647383800,4.3723837890625,0.017179244468361138,-1.2551438537240027,1.8039748368263244,2026-04-11T19:08:12.647-05:00
1775952492657441800,4.38244189453125,0.12058935006037354,-0.9936989029049873,2.276385428071022,2026-04-11T19:08:12.657-05:00
1775952492667499500,4.39249951171875,-0.5530266812264919,-0.7507569925040006,2.3357588235378266,2026-04-11T19:08:12.667-05:00
1775952492677556700,4.402556640625,-1.4476976391464471,-0.4580295991927385,2.109120397683978,2026-04-11T19:08:12.677-05:00
1775952492687614700,4.41261474609375,-3.1531957351297137,0.05483224490582943,0.6238461843371391,2026-04-11T19:08:12.687-05:00
1775952492697672700,4.422672607421875,-4.126582502368092,0.437569579488039,-2.164118062284589,2026-04-11T19:08:12.697-05:00
1775952492707729700,4.432729736328125,-3.9445635549634694,0.2094604965597391,-3.643182899597287,2026-04-11T19:08:12.707-05:00
1775952492717788000,4.442787841796875,-3.1688807955175635,-0.1891267335832119,-2.6539994282901285,2026-04-11T19:08:12.717-05:00
1775952492727845600,4.452845703125,-2.055941765204072,-0.8011106306910515,-0.8369137654781341,2026-04-11T19:08:12.727-05:00
1775952492737902600,4.462902587890625,-0.9634200114320963,-0.8704939635187386,0.35855624852776524,2026-04-11T19:08:12.737-05:00
1775952492747960600,4.472960693359375,0.07850055913254618,-0.8962240325808525,0.5816156468510627,2026-04-11T19:08:12.747-05:00
1775952492758018800,4.483018798828125,0.5844196714211255,-1.5610948857456444,0.5931476792126894,2026-04-11T19:08:12.758-05:00
1775952492768075800,4.49307568359375,0.9891244345963001,-1.6687211477279662,0.7525918067157268,2026-04-11T19:08:12.768-05:00
1775952492778133800,4.5031337890625,0.6928934170782566,-1.9231459906518458,0.5600567259937524,2026-04-11T19:08:12.778-05:00
1775952492788191500,4.51319140625,-0.11021920108497142,-2.555285956081748,0.30081776078641415,2026-04-11T19:08:12.788-05:00
1775952492798249700,4.523249755859375,-0.9963554087631403,-3.3059827428311106,0.5842021562129259,2026-04-11T19:08:12.798-05:00
1775952492808306700,4.533306640625,-1.0512507820330559,-3.8085184232264755,1.3161398819565773,2026-04-11T19:08:12.808-05:00
1775952492818364700,4.54336474609375,-1.0162905278109013,-3.9484085399538276,1.86396139575541,2026-04-11T19:08:12.818-05:00
1775952492828422700,4.553422607421875,-0.8177430549316108,-4.288648210546374,2.1657097153902054,2026-04-11T19:08:12.828-05:00
1775952492838480000,4.56347998046875,-0.4584643373481929,-4.687423072215914,2.424091186985373,2026-04-11T19:08:12.838-05:00
1775952492848537900,4.573537841796875,-0.07106017999872564,-4.867304423069954,2.4335920057803393,2026-04-11T19:08:12.848-05:00
1775952492858595600,4.583595703125,0.3778663675449788,-4.676680144405364,2.2728198445439336,2026-04-11T19:08:12.858-05:00
1775952492868652500,4.593652587890625,2.1281569604568182,-3.965360259276628,1.8992834690272806,2026-04-11T19:08:12.868-05:00
1775952492878710800,4.603710693359375,6.298086583250761,-2.5288316643983126,1.0511071357786654,2026-04-11T19:08:12.878-05:00
1775952492888768800,4.613768798828125,4.924540806508064,-2.366358544462919,1.0591109940141439,2026-04-11T19:08:12.888-05:00
1775952492898826800,4.62382666015625,1.195208878851682,-3.5999569213330744,1.8742232620507477,2026-04-11T19:08:12.898-05:00
1775952492908883700,4.6338837890625,-0.0721352618843317,-4.82180523917675,2.3637007234305143,2026-04-11T19:08:12.908-05:00
1775952492918941700,4.643941650390625,-0.4023643740614876,-5.577230223491788,2.5424866802632806,2026-04-11T19:08:12.918-05:00
1775952492928999700,4.653999755859375,-0.5003986318340524,-5.891943238639831,2.397283844080567,2026-04-11T19:08:12.928-05:00
1775952492939056600,4.664056640625,-0.47543490750193595,-6.036749184459447,2.1530356733866034,2026-04-11T19:08:12.939-05:00
1775952492949114600,4.674114501953125,-0.46095162411928176,-6.104713882660866,1.5501187337011098,2026-04-11T19:08:12.949-05:00
1775952492959172900,4.6841728515625,-0.3734475281894207,-5.4784027695149184,0.7740173104517162,2026-04-11T19:08:12.959-05:00
1775952492969229800,4.694229736328125,-0.49745381055381144,-1.649817709815502,0.47666561834067106,2026-04-11T19:08:12.969-05:00
1775952492979287600,4.70428759765625,-1.1254922224164008,2.1380460479170083,0.1800753025235608,2026-04-11T19:08:12.979-05:00
1775952492989345500,4.714345458984375,-1.792285568076372,5.003036835595965,-0.0699682931087911,2026-04-11T19:08:12.989-05:00
1775952492999402800,4.72440283203125,-1.371999131822586,11.578431709229946,1.0315045366209,2026-04-11T19:08:12.999-05:00
1775952493009460700,4.734460693359375,-1.7558190009444952,18.824902720409632,1.435133633388579,2026-04-11T19:08:13.009-05:00
1775952493019518700,4.744518798828125,-3.3791765738576647,24.016681089663503,1.9107108719706534,2026-04-11T19:08:13.019-05:00
1775952493029576700,4.75457666015625,-4.509572350406646,25.261439158451555,2.9956071723654865,2026-04-11T19:08:13.029-05:00
1775952493039634000,4.764634033203125,-4.4954432872891426,21.54387526386976,3.190516288742423,2026-04-11T19:08:13.039-05:00
1775952493049691600,4.774691650390625,-3.214335555747151,14.283279865747689,2.873092261070013,2026-04-11T19:08:13.049-05:00
1775952493059749600,4.78474951171875,-1.632874173799157,7.066437100112438,1.8152768598243594,2026-04-11T19:08:13.059-05:00
1775952493069806600,4.794806640625,-0.6947403601191937,2.1077000094920395,1.1354034486431628,2026-04-11T19:08:13.069-05:00
1775952493079864800,4.80486474609375,-0.02344159279875457,-1.127817450493574,0.6717382547162473,2026-04-11T19:08:13.079-05:00
1775952493089922800,4.8149228515625,0.3941160760782659,-3.215324566784501,0.314540215864405,2026-04-11T19:08:13.089-05:00
1775952493099979800,4.824979736328125,-0.6896897987313568,-5.511766109934449,0.2934043427247554,2026-04-11T19:08:13.099-05:00
1775952493110037500,4.83503759765625,-0.5364006867267191,-7.416238964298367,0.24634704266935586,2026-04-11T19:08:13.110-05:00
1775952493120095700,4.845095703125,1.7738491631537674,-6.708275988382101,-0.40126419426724313,2026-04-11T19:08:13.120-05:00
1775952493130153700,4.85515380859375,3.3303272027537223,-5.273467056903243,-1.0507249315280467,2026-04-11T19:08:13.130-05:00
1775952493140210700,4.865210693359375,4.083693793234229,-3.354914239260554,-1.5177522953644393,2026-04-11T19:08:13.140-05:00
1775952493150268700,4.8752685546875,4.744118772906065,-1.5154618463397025,-1.453050690612197,2026-04-11T19:08:13.150-05:00
1775952493160326700,4.88532666015625,5.432867929786443,0.3591898702561855,-0.9915876098394394,2026-04-11T19:08:13.160-05:00
1775952493170383600,4.895383544921875,5.9303591862738125,2.119956264474988,-0.30447204551026225,2026-04-11T19:08:13.170-05:00
1775952493180441600,4.905441650390625,5.5501119149416684,3.046901598533988,0.38149332587048407,2026-04-11T19:08:13.180-05:00
1775952493190499600,4.91549951171875,4.147749793559313,2.899457705426216,1.066998678524047,2026-04-11T19:08:13.190-05:00
1775952493200556800,4.925556884765625,2.513662736839056,2.2789561553418634,1.4768763873577118,2026-04-11T19:08:13.200-05:00
1775952493210614800,4.93561474609375,1.3575417135335504,1.5461100825816392,1.4361805120930076,2026-04-11T19:08:13.210-05:00
1775952493220672800,4.9456728515625,0.6885192936472594,0.7364286074221134,0.9630803311489522,2026-04-11T19:08:13.220-05:00
1775952493230729700,4.955729736328125,0.12084595516994595,0.10909341192543506,0.2684090907432139,2026-04-11T19:08:13.230-05:00
1775952493240787700,4.96578759765625,-0.44214755492806435,-0.09849427649974822,-0.31800898795351384,2026-04-11T19:08:13.240-05:00
1775952493250845700,4.975845703125,-0.9457705191034823,0.06269990954101086,-0.6298791808910668,2026-04-11T19:08:13.250-05:00
1775952493260903700,4.985903564453125,-1.3506722661554813,0.34776305183470246,-0.719361883417517,2026-04-11T19:08:13.260-05:00
1775952493270960600,4.995960693359375,-1.7254034044146538,0.5489326899111271,-0.6609776451185345,2026-04-11T19:08:13.270-05:00
1775952493281019000,5.006018798828125,-1.9559388377070426,0.5588666394263505,-0.4420569540351629,2026-04-11T19:08:13.281-05:00
1775952493291076600,5.01607666015625,-2.0055144772589206,0.32981998338699337,-0.3089671649724245,2026-04-11T19:08:13.291-05:00
1775952493301133600,5.026133544921875,-2.018904120185971,-0.00008884732723236084,-0.3685872286766767,2026-04-11T19:08:13.301-05:00
1775952493311191600,5.036191650390625,-2.2631115204781294,-0.04731178627312183,-0.1458630536571145,2026-04-11T19:08:13.311-05:00
1775952493321249800,5.046249755859375,-2.3138562038093804,-0.12168284438550471,-0.2287720768816769,2026-04-11T19:08:13.321-05:00
1775952493331306800,5.056306640625,-2.3094600146770476,-0.15807985341250896,-0.34783655546233055,2026-04-11T19:08:13.331-05:00
1775952493341364700,5.06636474609375,-2.1995359971463677,-0.21953590037226675,-0.5016996679626405,2026-04-11T19:08:13.341-05:00
1775952493351422700,5.076422607421875,-1.9569629200577734,-0.23423721041977405,-0.5578885881744324,2026-04-11T19:08:13.351-05:00
1775952493361480000,5.08647998046875,-1.7684569487214088,-0.2120183643490076,-0.5204483537048101,2026-04-11T19:08:13.361-05:00
1775952493371537700,5.09653759765625,-1.5980921987533567,-0.124214993211627,-0.48452583032175894,2026-04-11T19:08:13.371-05:00
1775952493381595600,5.106595703125,-1.4414502691894768,-0.08256020978689194,-0.4734492866426706,2026-04-11T19:08:13.381-05:00
1775952493391654000,5.11665380859375,-1.304258305504918,-0.06053191785216331,-0.5318250493742526,2026-04-11T19:08:13.391-05:00
1775952493401710800,5.1267109375,-1.1783657344698906,-0.06685118400156498,-0.6300863939009607,2026-04-11T19:08:13.401-05:00
1775952493411768800,5.136768798828125,-1.1125205126404762,-0.045258945396542544,-0.6779962921977043,2026-04-11T19:08:13.411-05:00
1775952493421826600,5.14682666015625,-1.0453045869797468,0.007754851910471916,-0.7546067997999489,2026-04-11T19:08:13.421-05:00
1775952493431883500,5.156883544921875,-0.8999608810216188,0.02011515178978443,-0.9003203619837761,2026-04-11T19:08:13.431-05:00
1775952493441941800,5.166941650390625,-0.6086123748481274,-0.024292729735374448,-1.034316598366946,2026-04-11T19:08:13.441-05:00
1775952493451999700,5.176999755859375,-0.2612824172010645,-0.06107786129713058,-1.1152436539940536,2026-04-11T19:08:13.451-05:00
1775952493462056700,5.187056640625,0.031208829266764222,0.01438391466140747,-1.151209285866469,2026-04-11T19:08:13.462-05:00
1775952493472114700,5.19711474609375,0.16936057789418846,0.13537293156385422,-1.0345962920911609,2026-04-11T19:08:13.472-05:00
1775952493482172700,5.207172607421875,0.2627450005669147,0.36203240020573135,-0.875403947392106,2026-04-11T19:08:13.482-05:00
1775952493492229600,5.217229736328125,0.32488902979083356,0.6725690064519644,-0.7088306986615062,2026-04-11T19:08:13.492-05:00
1775952493502287600,5.22728759765625,0.50754269490242,0.9252619110167026,-0.5256142120353877,2026-04-11T19:08:13.502-05:00
1775952493512345600,5.237345703125,0.8416267654746771,1.05169574932158,-0.36135990777164695,2026-04-11T19:08:13.512-05:00
1775952493522403800,5.24740380859375,1.2664436847649514,1.0032546667575835,-0.13892740917503832,2026-04-11T19:08:13.522-05:00
1775952493532460800,5.257460693359375,1.7032593771457671,0.8038011849492788,0.06245557939112186,2026-04-11T19:08:13.532-05:00
1775952493542518800,5.267518798828125,2.0879852551966906,0.5321113189697265,0.2779647084653377,2026-04-11T19:08:13.542-05:00
1775952493552576500,5.277576416015625,2.325850592985749,0.19572890832722187,0.5609646346189081,2026-04-11T19:08:13.552-05:00
1775952493562633700,5.2876337890625,2.4092536833375693,-0.20397300505936145,0.7742153172418474,2026-04-11T19:08:13.562-05:00
1775952493572691700,5.297691650390625,2.1670260586857792,-0.5061766672462225,0.9801208977989851,2026-04-11T19:08:13.572-05:00
1775952493582749700,5.307749755859375,1.673393231192231,-0.6007213293373584,1.1344044276684522,2026-04-11T19:08:13.582-05:00
1775952493592806700,5.317806640625,1.152148174151778,-0.5303869793951511,1.2425953377962111,2026-04-11T19:08:13.592-05:00
1775952493602865000,5.327864990234375,0.6081038408041,-0.19728841272890565,1.3629142003521322,2026-04-11T19:08:13.602-05:00
1775952493612922600,5.337922607421875,0.11017536194324493,0.367782926556468,1.5364526119202375,2026-04-11T19:08:13.612-05:00
1775952493622979600,5.3479794921875,-0.34363691181540484,0.9967208810746669,1.6988316238313912,2026-04-11T19:08:13.622-05:00
1775952493633037600,5.35803759765625,-0.7690601264357566,1.651990377679467,1.935629186258465,2026-04-11T19:08:13.633-05:00
1775952493643095800,5.368095703125,-1.157611773319915,2.373036122530699,2.255685462130606,2026-04-11T19:08:13.643-05:00
1775952493653153800,5.37815380859375,-1.449443606030941,3.062130731847882,2.6085139806613324,2026-04-11T19:08:13.653-05:00
1775952493663210800,5.388210693359375,-1.6593465856611729,3.5271021130025386,3.0197438347563144,2026-04-11T19:08:13.663-05:00
1775952493673268700,5.398268798828125,-1.7895745555520057,3.9124920079201457,3.398341293054819,2026-04-11T19:08:13.673-05:00
1775952493683326700,5.40832666015625,-1.6576222460865973,3.7724791415959595,3.429506831169128,2026-04-11T19:08:13.683-05:00
1775952493693383700,5.4183837890625,-1.2637844024278222,3.0660990509569643,3.2454525785446164,2026-04-11T19:08:13.693-05:00
1775952493703441700,5.428441650390625,-0.7976176009435206,3.0538509792804716,3.6730589824229476,2026-04-11T19:08:13.703-05:00
1775952493713499600,5.438499755859375,0.24205504456385968,2.9162247158318757,4.016052920159697,2026-04-11T19:08:13.713-05:00
1775952493723556600,5.448556640625,1.5333178210258482,2.551196056419611,4.427736363241076,2026-04-11T19:08:13.723-05:00
1775952493733614800,5.45861474609375,2.6961636225417256,1.9744775339603422,4.610005486014485,2026-04-11T19:08:13.733-05:00
1775952493743672600,5.468672607421875,3.679471772074699,1.2728525288939476,4.080042284989357,2026-04-11T19:08:13.743-05:00
1775952493753729500,5.4787294921875,4.094820167404413,0.5762807155638933,3.134500387009978,2026-04-11T19:08:13.753-05:00
1775952493763787500,5.48878759765625,2.3385692047834397,0.5236299063503742,2.257540734608471,2026-04-11T19:08:13.763-05:00
1775952493773845800,5.498845703125,0.4903732411757111,0.5086018485665321,1.4945251490339635,2026-04-11T19:08:13.773-05:00
1775952493783903700,5.50890380859375,-1.085847317509353,0.2535784552276134,0.6377488913528621,2026-04-11T19:08:13.783-05:00
1775952493793960700,5.518960693359375,-2.5159336043804883,0.0662269146233797,-0.12124635266438126,2026-04-11T19:08:13.793-05:00
1775952493804018700,5.529018798828125,-3.352313409112394,-0.3364239116966724,-1.0460942760527134,2026-04-11T19:08:13.804-05:00
1775952493814076700,5.53907666015625,-3.742027596969902,-0.7097369998514652,-1.612442357275635,2026-04-11T19:08:13.814-05:00
1775952493824133600,5.549133544921875,-3.9075656574338673,-1.153069965171814,-1.978664756517112,2026-04-11T19:08:13.824-05:00
1775952493834191600,5.559191650390625,-3.78006857381165,-1.52535137219131,-2.2449837431132793,2026-04-11T19:08:13.834-05:00
1775952493844249900,5.569249755859375,-3.4525840476348995,-1.8364742538928984,-2.3770941657498477,2026-04-11T19:08:13.844-05:00
1775952493854306800,5.579306884765625,-2.6976795800626276,-2.183144834315777,-2.597179224437475,2026-04-11T19:08:13.854-05:00
1775952493864364800,5.58936474609375,-1.1562120625898242,-2.4293337638139723,-2.777620547261834,2026-04-11T19:08:13.864-05:00
1775952493874422500,5.599422607421875,0.4936345810592174,-2.716276143983006,-2.4365251366227865,2026-04-11T19:08:13.874-05:00
1775952493884479500,5.6094794921875,0.41252486234158275,-3.0148335586220023,-1.3238959029108286,2026-04-11T19:08:13.884-05:00
1775952493894537700,5.619537841796875,-0.507156618194282,-3.387514778614044,-0.5535492437958717,2026-04-11T19:08:13.894-05:00
1775952493904595700,5.629595703125,-1.299773269045353,-3.5106104124069213,-0.28320611625015735,2026-04-11T19:08:13.904-05:00
1775952493914652700,5.639652587890625,-1.6747615969359875,-3.53603302295506,-0.20836773288697003,2026-04-11T19:08:13.914-05:00
1775952493924710700,5.649710693359375,-1.6716659690082072,-3.4305186385601756,0.0324056013032794,2026-04-11T19:08:13.924-05:00
1775952493934768600,5.6597685546875,-1.166699262073636,-3.1828198890209194,0.47677638523876664,2026-04-11T19:08:13.934-05:00
1775952493944826600,5.66982666015625,-0.6898296455934644,-2.7842168767869473,0.9490499061003327,2026-04-11T19:08:13.944-05:00
1775952493954883600,5.679883544921875,-0.5781739819645881,-2.322141801595688,1.0688412376508116,2026-04-11T19:08:13.954-05:00
1775952493964941600,5.689941650390625,-0.8553791042342781,-1.8893512730777262,0.7073287696659565,2026-04-11T19:08:13.964-05:00
1775952493974999800,5.699999755859375,-1.4232032493591307,-1.624509665557742,-0.04994885677844286,2026-04-11T19:08:13.974-05:00
1775952493985056800,5.710056884765625,-1.8269181977793574,-1.5657979488700626,-0.7439093185663223,2026-04-11T19:08:13.985-05:00
1775952493995114500,5.720114501953125,-1.9422738849699497,-1.6048627158015965,-1.0823919163584708,2026-04-11T19:08:13.995-05:00
1775952494005172700,5.7301728515625,-1.9316832251116631,-1.8156261116534471,-1.2208531693264841,2026-04-11T19:08:14.005-05:00
1775952494015229700,5.740229736328125,-1.8545666676834225,-2.1431483394920825,-1.269986910329759,2026-04-11T19:08:14.015-05:00
1775952494025287700,5.75028759765625,-1.5813208044335245,-2.4557921471506354,-1.182611409215629,2026-04-11T19:08:14.025-05:00
1775952494035345700,5.760345703125,-1.2432865349307656,-2.5041706858724355,-1.0117737810388208,2026-04-11T19:08:14.035-05:00
1775952494045402600,5.770402587890625,-0.7745584315910935,-2.2797604574620722,-0.7803498744741082,2026-04-11T19:08:14.045-05:00
1775952494055460900,5.7804609375,-0.23960136780142782,-1.938500211650133,-0.5561807613432407,2026-04-11T19:08:14.055-05:00
1775952494065518600,5.7905185546875,0.3527273962438106,-1.5320143372118473,-0.4891746790409088,2026-04-11T19:08:14.065-05:00
1775952494075576600,5.80057666015625,0.8465501933515072,-1.1735744085401296,-0.5037003402605652,2026-04-11T19:08:14.075-05:00
1775952494085633500,5.810633544921875,0.8145707085058093,-0.9158949477344751,-0.6999234618455171,2026-04-11T19:08:14.085-05:00
1775952494095691800,5.82069189453125,0.4535518692567944,-0.9182570006906986,-1.1282692859143018,2026-04-11T19:08:14.095-05:00
1775952494105749800,5.830749755859375,0.2881456184789538,-1.0900310329347849,-1.6624907289057969,2026-04-11T19:08:14.105-05:00
1775952494115806700,5.840806640625,0.2854848748371005,-1.2060504447311162,-2.1495774957567453,2026-04-11T19:08:14.115-05:00
1775952494125864400,5.850864501953125,0.38943800126463174,-1.2946931893020868,-2.2497166168540716,2026-04-11T19:08:14.125-05:00
1775952494135922700,5.860922607421875,0.596378623957932,-1.177519931295514,-1.4499343121573327,2026-04-11T19:08:14.135-05:00
1775952494145979600,5.870979736328125,0.7269615447662771,-0.7253314593464135,-0.03634849371016025,2026-04-11T19:08:14.145-05:00
1775952494156037600,5.88103759765625,0.9148958536945283,-0.6847814222931862,0.426961383973062,2026-04-11T19:08:14.156-05:00
1775952494166096000,5.891095947265625,1.3448983589291572,-1.3948685507565737,-0.4334373019888997,2026-04-11T19:08:14.166-05:00
1775952494176152800,5.90115283203125,1.3992428203180431,-1.8991209719419477,-1.3760790946125983,2026-04-11T19:08:14.176-05:00
1775952494186210600,5.91121044921875,0.9180524180293083,-1.9363661222308872,-1.5536790565311909,2026-04-11T19:08:14.186-05:00
1775952494196268500,5.9212685546875,0.2472607965134084,-1.8232868555396795,-1.164176173336804,2026-04-11T19:08:14.196-05:00
1775952494206325500,5.931325439453125,-0.6330338455297052,-1.6298463504105805,-0.5965715161815285,2026-04-11T19:08:14.206-05:00
1775952494216383700,5.9413837890625,-1.4272798511482774,-1.4338807107180356,-0.1835951106801629,2026-04-11T19:08:14.216-05:00
1775952494226441700,5.951441650390625,-1.776786531779915,-1.2070271808087825,0.1665761713400483,2026-04-11T19:08:14.226-05:00
1775952494236499700,5.961499755859375,-1.4940870498776435,-0.9433493563711642,0.5674278392836452,2026-04-11T19:08:14.236-05:00
1775952494246556700,5.971556640625,0.27585093118175863,-0.15040215839147567,1.341333067663014,2026-04-11T19:08:14.246-05:00
1775952494256614700,5.98161474609375,7.843080813544988,1.9388035785108804,2.5031965801432725,2026-04-11T19:08:14.256-05:00
1775952494266672600,5.991672607421875,13.958733438849448,4.7232653699696066,3.304283245436847,2026-04-11T19:08:14.266-05:00
1775952494276729600,6.0017294921875,8.94199599468112,6.054675886294246,3.9800191914871332,2026-04-11T19:08:14.276-05:00
1775952494286787600,6.01178759765625,3.2486195181429385,6.795393130820989,4.409345843286812,2026-04-11T19:08:14.286-05:00
1775952494296845800,6.021845703125,1.2658978874504565,7.044692301294207,4.553709890557825,2026-04-11T19:08:14.296-05:00
1775952494306902800,6.03190283203125,1.5951869788311421,6.927620165574551,4.493339008486271,2026-04-11T19:08:14.306-05:00
1775952494316960500,6.04196044921875,2.9227836359560486,6.700664344334602,4.337776398591697,2026-04-11T19:08:14.316-05:00
1775952494327018800,6.052018798828125,3.427804703426361,5.980867138239741,3.3898598804354667,2026-04-11T19:08:14.327-05:00
1775952494337075700,6.06207568359375,1.7298028084173798,4.475404123345017,2.2816610303863882,2026-04-11T19:08:14.337-05:00
1775952494347133700,6.0721337890625,0.0528182747349143,2.3627578896224497,1.7322689062699674,2026-04-11T19:08:14.347-05:00
1775952494357191700,6.082191650390625,-0.920792656648159,0.022553192591667173,1.202889350351691,2026-04-11T19:08:14.357-05:00
1775952494367248600,6.09224853515625,-2.3210826479315756,-1.863454615277052,0.19031682015061377,2026-04-11T19:08:14.367-05:00
1775952494377306600,6.102306640625,-3.737745681867003,-3.0023826578497883,-0.8005965436890721,2026-04-11T19:08:14.377-05:00
1775952494387364600,6.112364501953125,-3.6755750568971037,-3.8885441460996866,-1.3047586562424898,2026-04-11T19:08:14.387-05:00
1775952494397421600,6.122421630859375,-2.262934118084609,-4.443127409118413,-1.8238456584662197,2026-04-11T19:08:14.397-05:00
1775952494407479600,6.1324794921875,-0.9833423440635204,-4.2100650876969095,-2.723649303099513,2026-04-11T19:08:14.407-05:00
1775952494417537800,6.142537841796875,-0.8853931342259049,-2.7513720072835683,-3.2246146654382346,2026-04-11T19:08:14.417-05:00
1775952494427595800,6.152595703125,-1.0680661616250873,-0.6306897666215896,-2.583930451285839,2026-04-11T19:08:14.427-05:00
1775952494437652700,6.16265283203125,-1.3279866793558002,1.3665285914570093,-1.7403624886155127,2026-04-11T19:08:14.437-05:00
1775952494447710500,6.17271044921875,-1.3576950043991207,2.856202501067519,-1.3794170068636535,2026-04-11T19:08:14.447-05:00
1775952494457768700,6.182768798828125,-0.8652356045991182,3.679244977581501,-1.6134268382683394,2026-04-11T19:08:14.457-05:00
1775952494467825700,6.19282568359375,-0.21987141593694687,3.9494121640384194,-2.1433765952900052,2026-04-11T19:08:14.467-05:00
1775952494477883600,6.202883544921875,-0.24985095913708208,3.644995501977205,-2.6466981653660535,2026-04-11T19:08:14.477-05:00
1775952494487941600,6.212941650390625,-0.5958908404409885,2.9395249273985624,-2.910464544869959,2026-04-11T19:08:14.487-05:00
1775952494497998800,6.222998779296875,-0.15464023435264826,2.0568506967425346,-2.6457334119871256,2026-04-11T19:08:14.497-05:00
1775952494508056600,6.233056640625,-0.09009235885739326,1.1220429587453604,-2.248992101971805,2026-04-11T19:08:14.508-05:00
1775952494518114600,6.243114501953125,-0.3992401410937309,0.25960721399784087,-1.6590601699352263,2026-04-11T19:08:14.518-05:00
1775952494528171500,6.253171630859375,-0.14143500808179377,-0.3660392977595329,-0.8589438109785318,2026-04-11T19:08:14.528-05:00
1775952494538229800,6.263229736328125,-0.1688862018480897,-0.7067939321368932,-0.11650719531327486,2026-04-11T19:08:14.538-05:00
1775952494548287700,6.273287841796875,-0.29795418804883955,-1.0313660779982805,0.18235212488174438,2026-04-11T19:08:14.548-05:00
1775952494558344700,6.2833447265625,-0.519387446475029,-1.2389321391135453,-0.05765285528451204,2026-04-11T19:08:14.558-05:00
1775952494568402700,6.293402587890625,-0.9604454526007175,-1.0966396374195813,-0.3379176573857665,2026-04-11T19:08:14.568-05:00
1775952494578460700,6.303460693359375,-0.9504644490733742,-0.7800824557095766,-0.5256923918381333,2026-04-11T19:08:14.578-05:00
1775952494588517600,6.313517578125,-0.5087804200038314,-0.3897673793494701,-0.6345967109322548,2026-04-11T19:08:14.588-05:00
1775952494598575600,6.32357568359375,-0.0962163946956396,0.04169043926000595,-0.8070832753598689,2026-04-11T19:08:14.598-05:00
1775952494608633600,6.333633544921875,-0.200820093986392,0.37461481840312477,-1.0614642791420221,2026-04-11T19:08:14.608-05:00
1775952494618691800,6.34369189453125,-0.32636136736571786,0.6162421390742063,-1.0817544952377676,2026-04-11T19:08:14.618-05:00
1775952494628748800,6.353748779296875,-0.15644348438233135,0.8980611848801374,-1.3520613824263215,2026-04-11T19:08:14.628-05:00
1775952494638806500,6.363806640625,-0.46133916213214393,1.0737725565731524,-1.6201616994813084,2026-04-11T19:08:14.638-05:00
1775952494648864800,6.37386474609375,-0.7914496528983116,1.1071318053394554,-1.745983251106739,2026-04-11T19:08:14.648-05:00
1775952494658921700,6.383921630859375,-0.544361728733778,0.9852601603835821,-1.5425541436657308,2026-04-11T19:08:14.658-05:00
1775952494668980000,6.39397998046875,-0.5207324313431978,0.7496048998594284,-1.2569532412335276,2026-04-11T19:08:14.668-05:00
1775952494679038000,6.404037841796875,-0.4057920469552278,0.3999725470215082,-0.7750301407560706,2026-04-11T19:08:14.679-05:00
1775952494689095000,6.414094970703125,-0.3128857997208834,0.07550035440325736,-0.24706395876705645,2026-04-11T19:08:14.689-05:00
1775952494699152600,6.424152587890625,-0.3284267754629254,-0.12584931641519068,0.07101561020463705,2026-04-11T19:08:14.699-05:00
1775952494709211000,6.4342109375,-0.07583996162116527,-0.20672142698466778,0.2728527722790837,2026-04-11T19:08:14.709-05:00
1775952494719267800,6.444267822265625,0.16346154645085334,-0.27892215532064435,0.34240327836722134,2026-04-11T19:08:14.719-05:00
1775952494729325800,6.454325927734375,0.3620642566487193,-0.3480184879004955,0.3987789533227682,2026-04-11T19:08:14.729-05:00
1775952494739383800,6.4643837890625,0.4905459673941135,-0.3050532063990831,0.5014411631569266,2026-04-11T19:08:14.739-05:00
1775952494749440800,6.474440673828125,0.2727344065964222,-0.21480010402202604,0.3575213525220752,2026-04-11T19:08:14.749-05:00
1775952494759499000,6.4844990234375,0.18884967020750046,-0.08521335464417934,0.008973872311413288,2026-04-11T19:08:14.759-05:00
1775952494769556700,6.494556640625,0.3229302238732576,0.1553203255712986,-0.46694852644652124,2026-04-11T19:08:14.769-05:00
1775952494779613700,6.50461376953125,-0.053096799415349956,0.5094798004448413,-0.8669602364346385,2026-04-11T19:08:14.779-05:00
1775952494789672000,6.514671875,-0.6322153687536716,0.8479583065837621,-1.1699231925562024,2026-04-11T19:08:14.789-05:00
1775952494799730000,6.52472998046875,-0.4342494951546192,1.1628870103091,-1.4868544682756066,2026-04-11T19:08:14.799-05:00
1775952494809787000,6.534786865234375,-0.5384837766110897,1.2942957144171,-1.7185028312459587,2026-04-11T19:08:14.809-05:00
1775952494819844900,6.544844970703125,-0.5929769988209009,1.1388590689897538,-2.0005930952087043,2026-04-11T19:08:14.819-05:00
1775952494829902800,6.55490283203125,-0.458610613951087,0.7992401606440543,-2.0342095336064694,2026-04-11T19:08:14.829-05:00
1775952494839960800,6.5649609375,-0.519566310173273,0.24460195256769657,-1.647721614319086,2026-04-11T19:08:14.839-05:00
1775952494850017800,6.575017822265625,-0.25541560752689835,-0.11986498130857944,-1.2829945682018995,2026-04-11T19:08:14.850-05:00
1775952494860075800,6.58507568359375,-0.4429010036438703,-0.15947569168508052,-1.0185139029487966,2026-04-11T19:08:14.860-05:00
1775952494870134000,6.595134033203125,-0.10882336281239986,-0.005586275699734688,-0.7227548868566751,2026-04-11T19:08:14.870-05:00
1775952494880191000,6.60519091796875,0.18853461290895937,0.12887012554109095,-0.12573971856087446,2026-04-11T19:08:14.880-05:00
1775952494890248700,6.615248779296875,0.12236088977754116,0.15973580392599104,0.38492929166853423,2026-04-11T19:08:14.890-05:00
1775952494900306700,6.625306640625,-0.35596097133755683,-0.24972061075568197,0.689170012640953,2026-04-11T19:08:14.900-05:00
1775952494910363600,6.63536376953125,0.06822539496421813,-0.9492927749454975,0.7191390344470739,2026-04-11T19:08:14.910-05:00
1775952494920422000,6.645421875,0.26457448101639747,-1.3355337337344884,0.9095064157411455,2026-04-11T19:08:14.920-05:00
1775952494930479900,6.65547998046875,0.5361825139313936,-1.1555308023273945,0.21213673003166914,2026-04-11T19:08:14.930-05:00
1775952494940536800,6.665536865234375,0.16592647525966167,-0.42058746502697464,-0.5170388375222683,2026-04-11T19:08:14.940-05:00
1775952494950595000,6.675594970703125,0.5128770416676998,0.2929612020671368,-0.9978317649260162,2026-04-11T19:08:14.950-05:00
1775952494960652800,6.68565283203125,0.4648223280727863,0.9605430677562952,-0.440128324060142,2026-04-11T19:08:14.960-05:00
1775952494970709800,6.695709716796875,0.1855973904132843,0.7967787389665841,1.1717167979747056,2026-04-11T19:08:14.970-05:00
1775952494980767700,6.705767822265625,-0.09405074109435081,0.24957506480515002,2.7728672152549025,2026-04-11T19:08:14.980-05:00
1775952494990826000,6.715825927734375,-0.15241525177955625,0.3242594266504049,3.6305183560743925,2026-04-11T19:08:14.990-05:00
1775952495000883000,6.725883056640625,-0.07179740823209285,0.9006699060738086,3.496870056346059,2026-04-11T19:08:15.000-05:00
1775952495010941000,6.73594091796875,-0.38919045624434945,1.5457272207438946,2.919456245099008,2026-04-11T19:08:15.010-05:00
1775952495020998700,6.74599853515625,-1.1024936241447925,1.9449229381740092,2.0612845875367523,2026-04-11T19:08:15.020-05:00
1775952495031055600,6.7560556640625,-1.2097592361211775,2.0683932504981755,1.065578436462581,2026-04-11T19:08:15.031-05:00
1775952495041113900,6.76611376953125,-0.8732730728432535,2.0508868199020625,0.18928367771059273,2026-04-11T19:08:15.041-05:00
1775952495051171800,6.776171875,-0.3627589609146118,1.9111936870515345,-0.48831776995062826,2026-04-11T19:08:15.051-05:00
1775952495061228800,6.786228759765625,-0.24490122777521608,1.483317818582058,-1.0383379628375171,2026-04-11T19:08:15.061-05:00
1775952495071286800,6.796286865234375,-0.8034630390360951,0.6520622249960899,-1.2162778242349623,2026-04-11T19:08:15.071-05:00
1775952495081344800,6.8063447265625,-0.9639479077637195,-0.017325228810310362,-0.7183367781534791,2026-04-11T19:08:15.081-05:00
1775952495091402000,6.816402099609375,-0.6621417204618454,-0.4596984091877937,0.19775018502175806,2026-04-11T19:08:15.091-05:00
1775952495101459700,6.826459716796875,-0.6046750353991985,-0.7731728224515915,1.069649631424248,2026-04-11T19:08:15.101-05:00
1775952495111517700,6.836517578125,-0.4288596188098192,-0.867971751564741,1.9418948225244879,2026-04-11T19:08:15.111-05:00
1775952495121575000,6.846574951171875,-0.2232856082946062,-0.8074936097264289,2.6122023137852546,2026-04-11T19:08:15.121-05:00
1775952495131633000,6.8566328125,-0.6048229194372892,-0.8052847015053033,2.8478169500380752,2026-04-11T19:08:15.131-05:00
1775952495141691000,6.86669091796875,-0.2939835308521986,-0.8981617226451635,3.005393530103564,2026-04-11T19:08:15.141-05:00
1775952495151748900,6.876748779296875,0.04635813881009817,-1.128074640125036,2.994271539847553,2026-04-11T19:08:15.151-05:00
1775952495161805800,6.886805908203125,-0.23149814084470272,-1.4664590382397173,2.5617417080923914,2026-04-11T19:08:15.161-05:00
1775952495171863800,6.89686376953125,-0.6067863284647464,-1.6840087332308291,1.9987173644647,2026-04-11T19:08:15.171-05:00
1775952495181921800,6.906921875,-0.6799743142724036,-1.7395447424918413,1.590484646359086,2026-04-11T19:08:15.181-05:00
1775952495191978800,6.916978759765625,-0.7480795899882913,-1.6110025337308644,1.2254685541674495,2026-04-11T19:08:15.191-05:00
1775952495202037000,6.927037109375,-0.6237701964914798,-1.4925503418296575,0.6645832683950662,2026-04-11T19:08:15.202-05:00
1775952495212094700,6.9370947265625,-0.1406649004921317,-1.319131464987993,0.011518588358163833,2026-04-11T19:08:15.212-05:00
1775952495222151700,6.947151611328125,0.04705401211977005,-1.0075386276870966,-0.4932867905348539,2026-04-11T19:08:15.222-05:00
1775952495232209700,6.957209716796875,-0.16236322982013224,-0.5839385368406772,-0.8426920566186309,2026-04-11T19:08:15.232-05:00
1775952495242268000,6.967267822265625,-0.11596125186830758,-0.2406535072028637,-1.0052990320667623,2026-04-11T19:08:15.242-05:00
1775952495252324900,6.977324951171875,0.48170536607354875,-0.059175827068090436,-1.1860165414839983,2026-04-11T19:08:15.252-05:00
1775952495262382800,6.9873828125,1.164060145741701,0.031927170136570926,-1.5323697265207767,2026-04-11T19:08:15.262-05:00
1775952495272440800,6.99744091796875,1.3621329868465661,0.12871873437166212,-1.776857989580929,2026-04-11T19:08:15.272-05:00
1775952495282498000,7.007498046875,1.0592848892763256,0.25845921300649644,-1.9723460748896002,2026-04-11T19:08:15.282-05:00
1775952495292555800,7.0175556640625,1.0062029951691627,0.24932898108959198,-2.2990964415729045,2026-04-11T19:08:15.292-05:00
1775952495302613800,7.02761376953125,1.3720505697488783,0.5739771147966385,-2.424598844246566,2026-04-11T19:08:15.302-05:00
1775952495312670700,7.037670654296875,1.5684414491161702,1.1657494140028952,-2.3250421992123127,2026-04-11T19:08:15.312-05:00
1775952495322729000,7.04772900390625,1.7245403578445315,1.7442168259561062,-2.1301944576337934,2026-04-11T19:08:15.322-05:00
1775952495332787000,7.057786865234375,1.8734062465794383,2.2803251056075093,-1.7109613298252224,2026-04-11T19:08:15.332-05:00
1775952495342844000,7.067843994140625,1.7903914248928428,2.4570383478194473,-0.8799538657814264,2026-04-11T19:08:15.342-05:00
1775952495352901600,7.077901611328125,1.5999895568072795,2.40410521453321,-0.23888415944278238,2026-04-11T19:08:15.352-05:00
1775952495362960000,7.0879599609375,1.4590940624296664,1.9567782111406324,-0.07697276504337787,2026-04-11T19:08:15.362-05:00
1775952495373016800,7.098016845703125,1.3351673846401273,1.2991063295692205,0.16640432190448046,2026-04-11T19:08:15.373-05:00
1775952495383074800,7.10807470703125,1.4404818625487386,0.826139858007431,0.3621560265854001,2026-04-11T19:08:15.383-05:00
1775952495393132800,7.1181328125,1.6494798561632633,0.3163327253043651,0.6159434483885765,2026-04-11T19:08:15.393-05:00
1775952495403190000,7.12818994140625,1.497372062897682,-0.1893225484162569,1.044718603785336,2026-04-11T19:08:15.403-05:00
1775952495413248000,7.138248046875,1.1625088246464728,-0.49982466787099833,1.3688812920629978,2026-04-11T19:08:15.413-05:00
1775952495423305700,7.1483056640625,0.8895805029131472,-0.7784913871258496,1.4189777406185864,2026-04-11T19:08:15.423-05:00
1775952495433362700,7.15836279296875,0.6561293283045292,-1.312132399880886,1.211633213299513,2026-04-11T19:08:15.433-05:00
1775952495443421000,7.1684208984375,0.5433399114053696,-2.0435031393915413,0.8298208846077323,2026-04-11T19:08:15.443-05:00
1775952495453479000,7.17847900390625,0.5079389276783913,-2.7126743200987575,0.3341369698032737,2026-04-11T19:08:15.453-05:00
1775952495463537000,7.188536865234375,0.5092681304555386,-3.098843967217207,-0.06182984870821237,2026-04-11T19:08:15.463-05:00
1775952495473593900,7.19859375,0.4587199926096946,-3.3909348161906,-0.4168310351029038,2026-04-11T19:08:15.473-05:00
1775952495483651800,7.20865185546875,0.37668461041450496,-3.608417291164398,-0.7713792170330882,2026-04-11T19:08:15.483-05:00
1775952495493709800,7.218709716796875,0.2928139025509357,-3.539544245946407,-1.110131863938272,2026-04-11T19:08:15.493-05:00
1775952495503766800,7.228766845703125,0.1680640718102455,-3.072854370436072,-1.3224679159343242,2026-04-11T19:08:15.503-05:00
1775952495513824800,7.23882470703125,-0.06849310598969459,-2.314461768487096,-1.253091889630258,2026-04-11T19:08:15.513-05:00
1775952495523883000,7.248883056640625,-0.3064940528571605,-1.0571499230742454,-0.8202689201474189,2026-04-11T19:08:15.523-05:00
1775952495533940000,7.25893994140625,-0.4551368368932977,0.39943887853622434,-0.33933453844636674,2026-04-11T19:08:15.533-05:00
1775952495543997700,7.268997802734375,-0.45983522384259845,1.7581331231057642,0.05843523783385753,2026-04-11T19:08:15.543-05:00
1775952495554055700,7.2790556640625,-0.3830944774568081,2.6788392705142496,0.25435762290656566,2026-04-11T19:08:15.554-05:00
1775952495564113000,7.28911279296875,-0.2250748115326278,2.7221032427012917,0.18272446532547473,2026-04-11T19:08:15.564-05:00
1775952495574171000,7.2991708984375,0.020510873109102247,1.2963333577245473,-0.07741261776536702,2026-04-11T19:08:15.574-05:00
1775952495584228900,7.309228759765625,0.2695931859612465,-0.04675824404358864,-0.234641991828382,2026-04-11T19:08:15.584-05:00
1775952495594285800,7.319285888671875,0.48852293713390826,-0.24501170241236686,-0.06866904707849025,2026-04-11T19:08:15.594-05:00
1775952495604344000,7.329343994140625,0.7914075673222541,0.01903846246898174,0.21535510755628345,2026-04-11T19:08:15.604-05:00
1775952495614401800,7.33940185546875,1.2207353881657124,0.41265784107148645,0.2797238270923495,2026-04-11T19:08:15.614-05:00
1775952495624458800,7.349458740234375,1.7678367709964513,0.49083121407628055,-0.04519961642473936,2026-04-11T19:08:15.624-05:00
1775952495634516700,7.359516845703125,2.3124217870920893,0.18024141633808613,-0.7325584879904985,2026-04-11T19:08:15.634-05:00
1775952495644574200,7.36957421875,2.7749416834414005,-0.22439386179745197,-1.3717971795096993,2026-04-11T19:08:15.644-05:00
1775952495654631200,7.379631103515625,3.114630734413862,-0.3147714673370123,-1.801215308985114,2026-04-11T19:08:15.654-05:00
1775952495664689200,7.389689208984375,3.198203336113691,0.0211012402176857,-1.8454697535142301,2026-04-11T19:08:15.664-05:00
1775952495674747400,7.399747314453125,2.859664039698243,0.9100982441544532,-1.4759671635583043,2026-04-11T19:08:15.674-05:00
1775952495684804400,7.409804443359375,2.23962952260375,1.8138538412839174,-1.0468331117212772,2026-04-11T19:08:15.684-05:00
1775952495694862000,7.419862060546875,1.5904811392277478,2.2879326580017803,-0.9352224562779068,2026-04-11T19:08:15.694-05:00
1775952495704920000,7.429920166015625,1.020716162233427,2.142128933316469,-1.1447501728549598,2026-04-11T19:08:15.704-05:00
1775952495714977000,7.43997705078125,0.4751156854849308,1.646923157417774,-1.474975229911506,2026-04-11T19:08:15.714-05:00
1775952495725035300,7.45003515625,-0.1559820043504238,1.27661509629786,-1.5928671575814484,2026-04-11T19:08:15.725-05:00
1775952495735093200,7.46009326171875,-0.8050035464763641,1.302415892508626,-1.5274036285459995,2026-04-11T19:08:15.735-05:00
1775952495745150200,7.470150146484375,-1.418290342876315,1.553749199157953,-1.0533258347414434,2026-04-11T19:08:15.745-05:00
1775952495755208200,7.480208251953125,-2.067896406891942,1.5982470970541238,-0.6147435710795224,2026-04-11T19:08:15.755-05:00
1775952495765266200,7.49026611328125,-2.798055432525277,1.278668521696329,-0.16299597476571798,2026-04-11T19:08:15.765-05:00
1775952495775324200,7.50032421875,-2.848857399001717,0.3731102590590715,0.2956605241537094,2026-04-11T19:08:15.775-05:00
1775952495785381000,7.510381103515625,-2.6610616217613217,-0.7607347811609506,0.5165984002783894,2026-04-11T19:08:15.785-05:00
1775952495795439000,7.520439208984375,-2.2492016530692576,-1.8598393473893402,0.5562168555699288,2026-04-11T19:08:15.795-05:00
1775952495805497300,7.530497314453125,-1.7017752760678528,-2.671419934168458,0.7229854807421565,2026-04-11T19:08:15.805-05:00
1775952495815554300,7.54055419921875,-1.2257698752015829,-3.058645227819681,1.186223754493892,2026-04-11T19:08:15.815-05:00
1775952495825612000,7.550612060546875,-0.7878975133746862,-2.767806424733996,2.0522085700251163,2026-04-11T19:08:15.825-05:00
1775952495835670300,7.560670166015625,-0.4790507599115371,-1.8968238009154796,3.0539503480017185,2026-04-11T19:08:15.835-05:00
1775952495845727200,7.570727294921875,-0.2743552857965231,-0.9839537539601325,3.7202509417086835,2026-04-11T19:08:15.845-05:00
1775952495855785200,7.58078515625,-0.015308664823509751,-0.3158516637891531,3.6815173064276574,2026-04-11T19:08:15.855-05:00
1775952495865843200,7.59084326171875,0.2629319379737601,-0.2765682856708765,2.600202079389989,2026-04-11T19:08:15.865-05:00
1775952495875900200,7.600900146484375,0.3562047169655561,-0.44145431196689605,1.3159531272128224,2026-04-11T19:08:15.875-05:00
1775952495885958100,7.610958251953125,0.1353133103311062,-0.19565525856912136,0.6233014099359512,2026-04-11T19:08:15.885-05:00
1775952495896016100,7.62101611328125,-0.3162216661453247,0.16170622721612452,0.24417642063200473,2026-04-11T19:08:15.896-05:00
1775952495906073000,7.631072998046875,-0.8692851722508669,0.4855605801969766,-0.1962469408519566,2026-04-11T19:08:15.906-05:00
1775952495916131000,7.641131103515625,-1.324905956736207,0.8416425475656986,-0.7898020318217575,2026-04-11T19:08:15.916-05:00
1775952495926189300,7.651189208984375,-1.5649579909145832,1.0448416456431149,-1.478163650689274,2026-04-11T19:08:15.926-05:00
1775952495936246300,7.661246337890625,-1.5443945108354091,1.112315929979086,-2.1491819205678997,2026-04-11T19:08:15.936-05:00
1775952495946304300,7.67130419921875,-1.2993185110151766,1.0017781644642352,-2.6418168230652808,2026-04-11T19:08:15.946-05:00
1775952495956362000,7.681362060546875,-1.0655483335852622,0.605069587674737,-2.9807670383691787,2026-04-11T19:08:15.956-05:00
1775952495966419200,7.691419189453125,-0.9694260469138621,0.1844686786442995,-3.149056735628843,2026-04-11T19:08:15.966-05:00
1775952495976477200,7.701477294921875,-1.0485855083465576,-0.049155368313193316,-3.2647184200286863,2026-04-11T19:08:15.976-05:00
1775952495986535200,7.71153515625,-1.1322177312791346,-0.15570201836526393,-3.289659969061613,2026-04-11T19:08:15.986-05:00
1775952495996592000,7.721592041015625,-1.1475070703476666,-0.10506605610549449,-3.2481311501041055,2026-04-11T19:08:15.996-05:00
1775952496006650400,7.731650390625,-1.2494798366129398,-0.08659107273817061,-2.8813714291155335,2026-04-11T19:08:16.006-05:00
1775952496016708000,7.7417080078125,-1.3950772250711918,0.2683592602521181,-2.3698712287589907,2026-04-11T19:08:16.016-05:00
1775952496026765000,7.75176513671875,-1.4749813673913479,0.8612135094761848,-1.476671658565849,2026-04-11T19:08:16.026-05:00
1775952496036823000,7.761822998046875,-1.614569286301732,1.4232844979017971,-0.363507295063883,2026-04-11T19:08:16.036-05:00
1775952496046881300,7.77188134765625,-1.7697668622761964,1.686758324199915,0.5798068438634276,2026-04-11T19:08:16.046-05:00
1775952496056938200,7.781938232421875,-1.7986936815530061,1.776556084024906,1.2570479337796567,2026-04-11T19:08:16.056-05:00
1775952496066996200,7.791996337890625,-1.4889081859350204,1.888902360266447,1.7021550691656768,2026-04-11T19:08:16.066-05:00
1775952496077054000,7.802053955078125,-0.9593500585794448,1.9642086534023284,2.2436730989061293,2026-04-11T19:08:16.077-05:00
1775952496087111200,7.812111083984375,-0.2635936532855034,1.9781769730001686,3.04174962259829,2026-04-11T19:08:16.087-05:00
1775952496097169200,7.822169189453125,0.44065581853296604,2.047580764093995,4.066374994164705,2026-04-11T19:08:16.097-05:00
1775952496107227100,7.83222705078125,1.1808856083363295,2.4156273100227117,5.29467701819241,2026-04-11T19:08:16.107-05:00
1775952496117284000,7.8422841796875,2.1448656648039814,3.256832635214925,6.803520907697081,2026-04-11T19:08:16.117-05:00
1775952496127342300,7.85234228515625,3.65045084477365,4.399944685474038,8.531286365067958,2026-04-11T19:08:16.127-05:00
1775952496137400300,7.862400390625,5.379990910601616,5.234305259338021,9.698221189463139,2026-04-11T19:08:16.137-05:00
1775952496147457300,7.872457275390625,6.7368345588684075,4.98101964957714,9.30934345242977,2026-04-11T19:08:16.147-05:00
1775952496157515000,7.882514892578125,7.239699909609556,3.455888057616353,6.857168326732516,2026-04-11T19:08:16.157-05:00
1775952496167573200,7.8925732421875,6.52101271058321,1.6652233687400817,3.8112639225423335,2026-04-11T19:08:16.167-05:00
1775952496177630200,7.902630126953125,4.787176993387937,0.44431905374825,1.9197835284814238,2026-04-11T19:08:16.177-05:00
1775952496187688200,7.912688232421875,2.7923639428853986,-0.4795487725615501,0.8280641040682792,2026-04-11T19:08:16.187-05:00
1775952496197746200,7.92274609375,1.0893195236645639,-1.2280980258882046,-0.17669526816383002,2026-04-11T19:08:16.197-05:00
1775952496207803100,7.93280322265625,-0.4583246366165578,-1.6160282529383896,-0.8613653390370308,2026-04-11T19:08:16.207-05:00
1775952496217861000,7.942861083984375,-2.013085204774141,-1.9589123005598783,-1.3861492377281188,2026-04-11T19:08:16.217-05:00
1775952496227919000,7.952919189453125,-3.294264832508564,-2.489348379793763,-1.5861936711668967,2026-04-11T19:08:16.227-05:00
1775952496237976000,7.96297607421875,-4.11948962149769,-3.096771252596378,-1.5221794641569255,2026-04-11T19:08:16.237-05:00
1775952496248034000,7.973033935546875,-4.6648754325822,-3.7700153818309303,-1.4825607166044412,2026-04-11T19:08:16.248-05:00
1775952496258092300,7.98309228515625,-5.207392117971182,-4.2811195686072105,-1.2719985424131155,2026-04-11T19:08:16.258-05:00
1775952496268150000,7.99314990234375,-5.902962645304203,-4.5142532016992565,-0.9122938545025885,2026-04-11T19:08:16.268-05:00
1775952496278207200,8.003207275390626,-6.695234135979414,-4.488890212383866,-0.5628174228787421,2026-04-11T19:08:16.278-05:00
1775952496288265200,8.01326513671875,-7.413339735725522,-4.356518800723553,-0.35801278930082914,2026-04-11T19:08:16.288-05:00
1775952496298323200,8.0233232421875,-7.73460991743207,-4.112402001324296,-0.2922719046287238,2026-04-11T19:08:16.298-05:00
1775952496308380200,8.033380126953125,-7.885756756711006,-3.9291473746448755,-0.5609432995699346,2026-04-11T19:08:16.308-05:00
1775952496318438100,8.043438232421876,-8.106895416104793,-3.953091144812107,-0.6577285801947117,2026-04-11T19:08:16.318-05:00
1775952496328496400,8.053496337890625,-8.039378461670875,-3.601889935222268,-0.5700706088773906,2026-04-11T19:08:16.328-05:00
1775952496338553300,8.06355322265625,-7.494110139486193,-2.8321722216606138,-0.46804012107551096,2026-04-11T19:08:16.338-05:00
1775952496348611000,8.073611083984375,-6.46940878007412,-2.2029718168139456,-0.7306105687931179,2026-04-11T19:08:16.348-05:00
1775952496358669000,8.0836689453125,-5.096634572225809,-1.7788041552126406,-1.121228427492082,2026-04-11T19:08:16.358-05:00
1775952496368726000,8.09372607421875,-3.828202197861671,-1.4712334130346774,-1.317452279729396,2026-04-11T19:08:16.368-05:00
1775952496378784300,8.1037841796875,-2.6323651041090486,-0.9744313078552483,-1.2836138691440224,2026-04-11T19:08:16.378-05:00
1775952496388842200,8.11384228515625,-1.5565326923966407,-0.3294488119870424,-1.0800808629371226,2026-04-11T19:08:16.388-05:00
1775952496398899200,8.123899169921875,-0.2226665996134281,0.17742635891735553,-0.7683008325010537,2026-04-11T19:08:16.398-05:00
1775952496408957200,8.133957275390625,2.357477318871021,0.9908569574773312,0.10930106332674622,2026-04-11T19:08:16.408-05:00
1775952496419015200,8.14401513671875,7.913093676447868,2.493871410176158,1.8077122697889805,2026-04-11T19:08:16.419-05:00
1775952496429072100,8.154072021484374,16.344683988010882,4.327676152598857,4.325996236687899,2026-04-11T19:08:16.429-05:00
1775952496439130000,8.164130126953125,26.434396896398066,5.965105505484342,8.197356608274578,2026-04-11T19:08:16.439-05:00
1775952496449188400,8.174188232421875,12.605942865365742,4.302963151624798,7.2653072290748355,2026-04-11T19:08:16.449-05:00
1775952496459245300,8.184245361328125,1.2987380807787179,2.847172222393751,5.931767299506068,2026-04-11T19:08:16.459-05:00
1775952496469303300,8.19430322265625,-1.1707664384473115,3.136634476429224,6.2288628248989575,2026-04-11T19:08:16.469-05:00
1775952496479361000,8.204361083984375,-1.9675702387899159,3.4815269412636756,6.716138976842164,2026-04-11T19:08:16.479-05:00
1775952496489418000,8.21441796875,-1.4655220496505499,3.3017198246896267,7.1908245272815225,2026-04-11T19:08:16.489-05:00
1775952496499476200,8.224476318359375,-0.9151438371062278,2.4148311912089584,7.075449843129515,2026-04-11T19:08:16.499-05:00
1775952496509534200,8.2345341796875,-0.811065038472414,1.3479226751863955,6.364736107200383,2026-04-11T19:08:16.509-05:00
1775952496519591200,8.244591064453125,-1.1647346840023993,0.27610475981235505,5.380534515959024,2026-04-11T19:08:16.519-05:00
1775952496529649200,8.254649169921874,-1.6315046390116215,-0.7838724956423043,4.372092801952362,2026-04-11T19:08:16.529-05:00
1775952496539707100,8.26470703125,-1.860093614411354,-0.9317004196316003,3.670777593487501,2026-04-11T19:08:16.539-05:00
1775952496549764000,8.27476416015625,-1.6816735682815311,-0.7262023969620466,2.609484871520102,2026-04-11T19:08:16.549-05:00
1775952496559822000,8.284822021484375,-1.3689549418210982,-0.6981956151396036,1.1529210582204164,2026-04-11T19:08:16.559-05:00
1775952496569880000,8.294880126953124,-1.175651214814186,-0.5962158346116543,-0.1908671475097537,2026-04-11T19:08:16.569-05:00
1775952496579937300,8.304937255859375,-1.2292939576745032,-0.4748661677032709,-1.2416440284207462,2026-04-11T19:08:16.579-05:00
1775952496589995300,8.314995361328124,-1.451323428428173,-0.2668997090935707,-2.080864025014639,2026-04-11T19:08:16.589-05:00
1775952496600053200,8.32505322265625,-1.7421686612546443,0.16363573397397993,-2.5891829649865628,2026-04-11T19:08:16.600-05:00
1775952496610110200,8.335110107421874,-2.0199813940286635,0.6760755532681941,-2.9925764263674615,2026-04-11T19:08:16.610-05:00
1775952496620168200,8.345168212890625,-2.191547921001911,1.2655325612694024,-3.2397108200222253,2026-04-11T19:08:16.620-05:00
1775952496630226200,8.35522607421875,-2.180232746261358,1.676058651009202,-3.4649276886403557,2026-04-11T19:08:16.630-05:00
1775952496640283100,8.365283203125,-1.93087804620862,1.7176923916459081,-3.720921388316154,2026-04-11T19:08:16.640-05:00
1775952496650342000,8.375341796875,-1.5687714117228984,1.3843243603885174,-3.8099037401050326,2026-04-11T19:08:16.650-05:00
1775952496660399600,8.385399658203125,-1.1597756002902984,0.7630225998371839,-3.7717549189746378,2026-04-11T19:08:16.660-05:00
1775952496670456600,8.39545654296875,-0.7768693388819694,0.03926701150536537,-3.5654765595823523,2026-04-11T19:08:16.670-05:00
1775952496680514800,8.405514892578125,-0.4150748390853405,-0.5968202302455902,-3.235390034213662,2026-04-11T19:08:16.680-05:00
1775952496690572800,8.41557275390625,-0.033972393962275235,-1.1097148075699805,-2.9657015711843964,2026-04-11T19:08:16.690-05:00
1775952496700629800,8.425629638671875,0.482685901543498,-1.1603238818228243,-3.0312092316225168,2026-04-11T19:08:16.700-05:00
1775952496710687700,8.435687744140624,1.0076274750143288,-0.20789806954860687,-2.9158929996594787,2026-04-11T19:08:16.710-05:00
1775952496720745700,8.445745849609375,1.2880313933253287,1.0180167670816183,-2.3223481378227473,2026-04-11T19:08:16.720-05:00
1775952496730803000,8.455802978515624,1.464911808797717,2.1483254498690365,-1.6343516990058122,2026-04-11T19:08:16.730-05:00
1775952496740860700,8.465860595703125,1.6179706191778183,3.0019647246986625,-1.0576398985482751,2026-04-11T19:08:16.740-05:00
1775952496750918700,8.475918701171874,1.7687749286293983,3.2560686651051043,-0.7058112047098577,2026-04-11T19:08:16.750-05:00
1775952496760976000,8.485975830078125,1.8578093028664588,2.407129530790448,-0.7545737743131816,2026-04-11T19:08:16.760-05:00
1775952496771033900,8.496033935546874,1.7920102582663298,0.6770254013389349,-1.040490464696288,2026-04-11T19:08:16.771-05:00
1775952496781091800,8.506091796875,1.339991882187128,-0.4445546160697937,-1.0153389261744916,2026-04-11T19:08:16.781-05:00
1775952496791148800,8.516148681640624,0.6486041934967041,-0.9832394682109356,-0.6291758549273013,2026-04-11T19:08:16.791-05:00
1775952496801206800,8.526206787109375,-0.06791031939936801,-1.1440607292860745,-0.09347337959781289,2026-04-11T19:08:16.801-05:00
1775952496811264800,8.5362646484375,-0.7466139013499021,-1.0774351707339287,0.34977804491892456,2026-04-11T19:08:16.811-05:00
1775952496821321700,8.54632177734375,-1.3108850301682948,-1.0144494299888611,0.7005418860048055,2026-04-11T19:08:16.821-05:00
1775952496831379700,8.556379638671874,-1.792805792558193,-0.9640040218651295,0.7998927793338895,2026-04-11T19:08:16.831-05:00
1775952496841438000,8.56643798828125,-2.0645231310665606,-0.80286653444767,0.6877822115443647,2026-04-11T19:08:16.841-05:00
1775952496851495000,8.576494873046874,-2.1837854703068733,-0.44964054103195666,0.6221393804192543,2026-04-11T19:08:16.851-05:00
1775952496861552600,8.586552734375,-2.228330714476108,-0.01917231798171997,0.5735058440230787,2026-04-11T19:08:16.861-05:00
1775952496871610600,8.596610595703124,-2.18226220626235,0.2804103480517864,0.5878923890329897,2026-04-11T19:08:16.871-05:00
1775952496881667800,8.606667724609375,-2.0629940218031404,0.27230127587616443,0.6826129922129214,2026-04-11T19:08:16.881-05:00
1775952496891725800,8.616725830078124,-2.002100869423151,0.09027122255563735,0.8465354341737925,2026-04-11T19:08:16.891-05:00
1775952496901783800,8.62678369140625,-1.9531635277748107,-0.034089901128411294,1.0198526042066514,2026-04-11T19:08:16.901-05:00
1775952496911840800,8.6368408203125,-1.8143688050687312,-0.1747358046591282,1.1231326536782085,2026-04-11T19:08:16.911-05:00
1775952496921899000,8.64689892578125,-1.5716343999385833,-0.36475101151466366,1.250764615726471,2026-04-11T19:08:16.921-05:00
1775952496931956700,8.656956787109374,-1.265263096678257,-0.6382587405711412,1.2856005129165946,2026-04-11T19:08:16.931-05:00
1775952496942013700,8.667013671875,-0.9503332239091395,-0.8831354184269905,1.2484778199635445,2026-04-11T19:08:16.942-05:00
1775952496952071700,8.67707177734375,-0.6053507427036762,-1.100237954172492,1.1051201732560991,2026-04-11T19:08:16.952-05:00
1775952496962130000,8.6871298828125,-0.25045827738046644,-1.1132605173528194,0.8992875118046998,2026-04-11T19:08:16.962-05:00
1775952496972187000,8.697186767578126,0.13604162460565566,-0.9767775787204503,0.5700247239090502,2026-04-11T19:08:16.972-05:00
1775952496982244900,8.707244873046875,0.6164695180892944,-0.7571382179737091,0.11379925152882933,2026-04-11T19:08:16.982-05:00
1775952496992302600,8.717302490234376,1.094799562510848,-0.40928398072421546,-0.39213776174262166,2026-04-11T19:08:16.992-05:00
1775952497002359800,8.72735986328125,1.5294751741230488,0.039222003319859505,-0.814712016672641,2026-04-11T19:08:17.002-05:00
1775952497012417800,8.737417724609376,1.8375649717390536,0.49297231775820255,-1.1145945424355566,2026-04-11T19:08:17.012-05:00
1775952497022475800,8.747475830078125,1.7573077781975268,0.6535673688620328,-1.17662298245579,2026-04-11T19:08:17.022-05:00
1775952497032532700,8.75753271484375,1.1591127524673939,0.23379355830550191,-0.990802158550173,2026-04-11T19:08:17.032-05:00
1775952497042591000,8.767591064453125,0.4290589407742023,-0.2766653163045645,-0.6410311278939247,2026-04-11T19:08:17.042-05:00
1775952497052649000,8.77764892578125,-0.16716047403402626,-0.4847264674603939,-0.26792963666319847,2026-04-11T19:08:17.052-05:00
1775952497062706000,8.787705810546875,-0.4245288961291313,-0.2855687537282705,-0.04201528730019927,2026-04-11T19:08:17.062-05:00
1775952497072763600,8.797763671875,-0.4381692989468574,-0.0028179800301790237,-0.08830679061487316,2026-04-11T19:08:17.072-05:00
1775952497082822000,8.80782177734375,-0.40266302821449934,-0.007751344779133796,-0.20940496698021888,2026-04-11T19:08:17.082-05:00
1775952497092878800,8.81787890625,-0.31557394282631573,-0.2093915229767561,-0.4845084407955408,2026-04-11T19:08:17.092-05:00
1775952497102936800,8.827936767578125,-0.10821502165570855,-0.217303026753664,-0.6943871627673507,2026-04-11T19:08:17.102-05:00
1775952497112994800,8.837994873046876,0.2737864729326218,-0.06691840401887893,-0.7726964371114968,2026-04-11T19:08:17.112-05:00
1775952497123051800,8.8480517578125,0.836979231929779,0.30528292350173,-0.6139446757867932,2026-04-11T19:08:17.123-05:00
1775952497133109800,8.85810986328125,1.352526369589567,0.4494546630710363,-0.33942543160021305,2026-04-11T19:08:17.133-05:00
1775952497143167700,8.868167724609375,1.591970062611252,0.2933037318944931,-0.03179857532083988,2026-04-11T19:08:17.143-05:00
1775952497153224700,8.878224609375,1.2730467362917959,0.014895955836772917,0.38866380202174183,2026-04-11T19:08:17.153-05:00
1775952497163282700,8.88828271484375,0.5194575891017914,-0.08782909010052681,0.6896452289372682,2026-04-11T19:08:17.163-05:00
1775952497173341000,8.8983408203125,-0.3438657521352172,-0.23527239868640898,0.7743760607615113,2026-04-11T19:08:17.173-05:00
1775952497183398000,8.90839794921875,-1.0747402325615287,-0.3291775938302278,0.800803756698966,2026-04-11T19:08:17.183-05:00
1775952497193455900,8.918455810546876,-1.4657561506673693,-0.27490882802605626,0.74864131552428,2026-04-11T19:08:17.193-05:00
1775952497203513900,8.928513916015625,-1.5376269163966179,-0.3272182764559984,0.6610431115701795,2026-04-11T19:08:17.203-05:00
1775952497213570800,8.93857080078125,-1.112638293801248,-0.24601415745317934,0.6325558527544141,2026-04-11T19:08:17.213-05:00
1775952497223628800,8.94862890625,0.25729221505373717,0.05049859961569309,0.46873424081951376,2026-04-11T19:08:17.223-05:00
1775952497233686800,8.958686767578126,1.005070484007895,0.4369605076789856,-0.10399199713319539,2026-04-11T19:08:17.233-05:00
1775952497243743700,8.96874365234375,-0.10274375063776969,0.6127665719181299,-0.949724444361031,2026-04-11T19:08:17.243-05:00
1775952497253802000,8.978802001953126,-1.7939394727632403,0.7102665766835212,-1.500693608535826,2026-04-11T19:08:17.253-05:00
1775952497263859700,8.988859619140625,-1.8191294435992835,0.92629242310822,-1.688971616335213,2026-04-11T19:08:17.263-05:00
1775952497273916700,8.998916748046875,-1.2039876669824123,0.9608750761896371,-1.4898437132194637,2026-04-11T19:08:17.273-05:00
1775952497283974700,9.008974609375,-2.125375659175217,0.7444120073914527,-1.0272405225008725,2026-04-11T19:08:17.283-05:00
1775952497294033000,9.019032958984376,-1.6671499528884888,0.48870355439782137,-0.6249611598417163,2026-04-11T19:08:17.294-05:00
1775952497304089900,9.02908984375,0.25625410417765376,0.2579419111341238,-0.5258586883157491,2026-04-11T19:08:17.304-05:00
1775952497314147800,9.03914794921875,1.3779378742218016,0.09351882617473602,-0.724627402730286,2026-04-11T19:08:17.314-05:00
1775952497324205600,9.04920556640625,0.5406769027411937,-0.012626841861009597,-1.491134045290947,2026-04-11T19:08:17.324-05:00
1775952497334262800,9.0592626953125,-1.542811625558138,0.021100071173906325,-2.3566657102271913,2026-04-11T19:08:17.334-05:00
1775952497344320800,9.06932080078125,-1.8413515045404434,0.09932546662688255,-2.4161206464976073,2026-04-11T19:08:17.344-05:00
1775952497354378800,9.079378662109375,-1.2381038715958594,0.28088790243566036,-1.4763079398199914,2026-04-11T19:08:17.354-05:00
1775952497364435700,9.089435791015624,-0.21999065840244292,0.5524883365660905,0.024654548785090446,2026-04-11T19:08:17.364-05:00
1775952497374494000,9.099493896484375,0.7734183216452598,0.6226239490658044,0.9104793524265289,2026-04-11T19:08:17.374-05:00
1775952497384552000,9.109552001953125,0.6073340254753827,0.4998854581475258,1.2614280485600233,2026-04-11T19:08:17.384-05:00
1775952497394609000,9.11960888671875,0.45613983992338175,0.24131284789443014,1.182124794742465,2026-04-11T19:08:17.394-05:00
1775952497404666600,9.12966650390625,0.404281057870388,-0.006194762986898422,0.7169315875306725,2026-04-11T19:08:17.404-05:00
1775952497414724900,9.139724853515625,0.3516530450105667,-0.22742519231736658,0.11641045694053172,2026-04-11T19:08:17.414-05:00
1775952497424781800,9.14978173828125,0.20440555125772952,-0.3169622553795576,-0.07017652903199195,2026-04-11T19:08:17.424-05:00
1775952497434839800,9.15983984375,-0.1822679537296295,-0.6426607749223708,0.5328261892408133,2026-04-11T19:08:17.434-05:00
1775952497444897800,9.169897705078125,-0.30572832918167114,-1.1296633706212043,1.1144918127134442,2026-04-11T19:08:17.444-05:00
1775952497454955000,9.179955078125,-0.5342676202207803,-1.5842600727558136,1.242368251042068,2026-04-11T19:08:17.454-05:00
1775952497465012700,9.1900126953125,-0.2797106753498316,-1.6808184127569197,1.0385162420138716,2026-04-11T19:08:17.465-05:00
1775952497475070700,9.20007080078125,0.21800328397750854,-1.6089970391273498,0.6122966163188218,2026-04-11T19:08:17.475-05:00
1775952497485127700,9.210127685546874,0.34203064566254615,-1.398657421645522,-0.07930968355834483,2026-04-11T19:08:17.485-05:00
1775952497495186000,9.22018603515625,0.3026613428264856,-0.9642208794862032,-1.144179387229681,2026-04-11T19:08:17.495-05:00
1775952497505244000,9.230243896484374,-0.4554483505278826,-0.510614357432723,-1.4159785588026046,2026-04-11T19:08:17.505-05:00
1775952497515300900,9.24030078125,-0.31889468474686145,-0.19402561154067516,-0.8862702093213796,2026-04-11T19:08:17.515-05:00
1775952497525358800,9.25035888671875,0.453299063539505,0.05254676431715488,-0.3338765653014183,2026-04-11T19:08:17.525-05:00
1775952497535416800,9.260416748046875,0.5366629909247159,0.3852332430511713,-0.564445900863409,2026-04-11T19:08:17.535-05:00
1775952497545473800,9.270473876953124,0.11016893220245838,0.6930997533053159,-1.1654615369722245,2026-04-11T19:08:17.545-05:00
1775952497555531800,9.28053173828125,-0.46587096034288406,0.8901146097898482,-1.0723673659503459,2026-04-11T19:08:17.555-05:00
1775952497565589800,9.29058984375,-0.4924509242326021,0.9012748862296343,-0.1503065890625119,2026-04-11T19:08:17.565-05:00
1775952497575646700,9.300646728515625,-0.41210371432006354,0.6954091992914676,0.7207210429415106,2026-04-11T19:08:17.575-05:00
1775952497585705000,9.310705078125,-0.6029840135723352,0.4445610458105802,1.5126701697945595,2026-04-11T19:08:17.585-05:00
1775952497595762700,9.3207626953125,-0.46569618829786774,0.1767389611750841,1.8772505009174345,2026-04-11T19:08:17.595-05:00
1775952497605819600,9.330819580078124,0.3370785762131214,-0.06459376046359538,1.8115560857355593,2026-04-11T19:08:17.605-05:00
1775952497615877600,9.340877685546875,0.3779255503863096,-0.11237959398925304,1.1854670909076928,2026-04-11T19:08:17.615-05:00
1775952497625936000,9.350935791015624,-0.3466583054631948,0.03135200059711933,0.31493454894423484,2026-04-11T19:08:17.625-05:00
1775952497635992800,9.360992919921875,-0.4448497996240854,0.15939210505485535,-0.37266573016196486,2026-04-11T19:08:17.635-05:00
1775952497646050800,9.37105078125,-0.358148252248764,0.21881343131661413,-0.531631134237349,2026-04-11T19:08:17.646-05:00
1775952497656108500,9.381108642578125,-0.4762690202385187,0.3290945917218923,-0.05540303053110838,2026-04-11T19:08:17.656-05:00
1775952497666165800,9.391165771484374,-0.2280477081298828,0.4953174195796251,0.6826935101032257,2026-04-11T19:08:17.666-05:00
1775952497676223500,9.401223388671875,-0.3422814055532217,0.6939993324935436,1.375687757207453,2026-04-11T19:08:17.676-05:00
1775952497686281700,9.41128173828125,-0.24423136568963527,0.9173480691522359,1.552287309911847,2026-04-11T19:08:17.686-05:00
1775952497696338700,9.421338623046875,-0.04101765456497669,1.119643496388197,1.1979331892490386,2026-04-11T19:08:17.696-05:00
1775952497706396700,9.431396728515624,0.052905076235532755,1.2191978033348918,1.1797557275235653,2026-04-11T19:08:17.706-05:00
1775952497716454700,9.44145458984375,-0.06494447359740733,1.1087187822699547,1.2001242695525287,2026-04-11T19:08:17.716-05:00
1775952497726511900,9.451511962890624,-0.23082944780290127,0.7797007629156112,0.9507076101794838,2026-04-11T19:08:17.726-05:00
1775952497736569600,9.461569580078125,-0.21019348700940607,0.4148874998196959,0.3799281223803758,2026-04-11T19:08:17.736-05:00
1775952497746627600,9.471627685546874,-0.2804588633686304,0.21064853730052707,0.01729483367204666,2026-04-11T19:08:17.746-05:00
1775952497756684500,9.4816845703125,-0.38791093782782554,0.1725081917375326,-0.2605000711843371,2026-04-11T19:08:17.756-05:00
1775952497766742800,9.49174267578125,-0.7355202604055404,0.27447072886973617,-0.4259606824979186,2026-04-11T19:08:17.766-05:00
1775952497776800800,9.50180078125,-1.083527057868242,0.454835771587491,-0.3533271157026291,2026-04-11T19:08:17.776-05:00
1775952497786857700,9.511857666015626,-1.1266507448017598,0.5379477700382471,-0.3968348335176706,2026-04-11T19:08:17.786-05:00
1775952497796915500,9.52191552734375,-0.5763461820155382,0.40273090581893917,-0.2567351656928658,2026-04-11T19:08:17.796-05:00
1775952497806973700,9.5319736328125,-0.31290801155269143,0.25914281135648487,-0.1949056092455983,2026-04-11T19:08:17.806-05:00
1775952497817030700,9.54203076171875,-0.08644552678763866,0.21425503735989332,-0.46561464749425646,2026-04-11T19:08:17.817-05:00
1775952497827088600,9.552088623046876,-0.0613210224032402,0.36792233502715826,-0.6863654766142367,2026-04-11T19:08:17.827-05:00
1775952497837146600,9.562146728515625,-1.0098819759428501,0.608543985787034,-0.8222603862255812,2026-04-11T19:08:17.837-05:00
1775952497847203800,9.572203857421876,-0.7657704372406006,0.4991705878764391,-0.7199199556916952,2026-04-11T19:08:17.847-05:00
1775952497857261800,9.58226171875,-0.3721791156888008,0.1812336422458291,-0.620761662325263,2026-04-11T19:08:17.857-05:00
1775952497867319600,9.592319580078126,-0.0720475836008787,-0.10680559324920177,-0.37387685951739547,2026-04-11T19:08:17.867-05:00
1775952497877376500,9.60237646484375,0.6519920823693275,-0.3992009781271219,-0.19378098912984132,2026-04-11T19:08:17.877-05:00
1775952497887434800,9.612434814453126,0.23000761002600192,-0.36913843281865116,-0.5686363382905721,2026-04-11T19:08:17.887-05:00
1775952497897492700,9.62249267578125,0.17000819161534308,-0.0805786805808544,-0.6510583086505531,2026-04-11T19:08:17.897-05:00
1775952497907549700,9.6325498046875,-0.11366378858089446,0.26727526440769434,-0.7400938519313931,2026-04-11T19:08:17.907-05:00
1775952497917607700,9.642607666015625,-0.41993806120753285,0.3702227209240198,-0.8846408545538783,2026-04-11T19:08:17.917-05:00
1775952497927665700,9.652665771484376,-0.26568507260680196,0.3902775208286941,-0.5561515352487564,2026-04-11T19:08:17.927-05:00
1775952497937722600,9.66272265625,-0.7541887205183505,0.4141175383605063,-0.07383066762536764,2026-04-11T19:08:17.937-05:00
1775952497947780600,9.672780517578126,-0.5217313792526722,0.27051059306710956,0.43258916072696446,2026-04-11T19:08:17.947-05:00
