time,seconds_elapsed,z,y,x,local_time
1775952696205546500,0.07654638671875,0.9945068359375,-0.1399078369140625,-0.1827850341796875,2026-04-11T19:11:36.205-05:00
1775952696215603500,0.086603515625,0.98883056640625,-0.147552490234375,-0.138336181640625,2026-04-11T19:11:36.215-05:00
1775952696225660400,0.096660400390625,0.9701690673828125,-0.1529998779296875,-0.0982208251953125,2026-04-11T19:11:36.225-05:00
1775952696235717400,0.10671728515625,0.9543914794921875,-0.1638641357421875,-0.0593109130859375,2026-04-11T19:11:36.235-05:00
1775952696245774300,0.1167744140625,0.964691162109375,-0.20355224609375,-0.0315093994140625,2026-04-11T19:11:36.245-05:00
1775952696255831600,0.12683154296875,0.9809112548828125,-0.2160797119140625,-0.0290679931640625,2026-04-11T19:11:36.255-05:00
1775952696265888500,0.136888427734375,0.9859466552734375,-0.1883544921875,-0.030853271484375,2026-04-11T19:11:36.265-05:00
1775952696275945500,0.146945556640625,0.9611663818359375,-0.1710968017578125,-0.04229736328125,2026-04-11T19:11:36.275-05:00
1775952696286002400,0.15700244140625,0.9380340576171875,-0.1879730224609375,-0.0744171142578125,2026-04-11T19:11:36.286-05:00
1775952696296059400,0.167059326171875,0.9263153076171875,-0.2001190185546875,-0.1227264404296875,2026-04-11T19:11:36.296-05:00
1775952696306116400,0.177116455078125,0.899444580078125,-0.192626953125,-0.160247802734375,2026-04-11T19:11:36.306-05:00
1775952696316173300,0.18717333984375,0.9015350341796875,-0.19866943359375,-0.173736572265625,2026-04-11T19:11:36.316-05:00
1775952696326229500,0.1972294921875,0.933502197265625,-0.214752197265625,-0.174468994140625,2026-04-11T19:11:36.326-05:00
1775952696336286500,0.207286376953125,0.98052978515625,-0.1953887939453125,-0.1357269287109375,2026-04-11T19:11:36.336-05:00
1775952696346343400,0.217343505859375,1.024993896484375,-0.1752471923828125,-0.0769805908203125,2026-04-11T19:11:36.346-05:00
1775952696356400600,0.227400634765625,1.0595703125,-0.1831817626953125,-0.0542144775390625,2026-04-11T19:11:36.356-05:00
1775952696366457600,0.23745751953125,1.068511962890625,-0.18865966796875,-0.0393524169921875,2026-04-11T19:11:36.366-05:00
1775952696376514600,0.2475146484375,1.04351806640625,-0.190032958984375,-0.0188751220703125,2026-04-11T19:11:36.376-05:00
1775952696386571500,0.257571533203125,0.9952392578125,-0.19403076171875,-0.009552001953125,2026-04-11T19:11:36.386-05:00
1775952696396628500,0.26762841796875,0.954376220703125,-0.197235107421875,-0.006256103515625,2026-04-11T19:11:36.396-05:00
1775952696406685400,0.277685546875,0.9299774169921875,-0.1972503662109375,-0.010009765625,2026-04-11T19:11:36.406-05:00
1775952696416742400,0.287742431640625,0.9148406982421875,-0.1997528076171875,-0.0175628662109375,2026-04-11T19:11:36.416-05:00
1775952696426799400,0.29779931640625,0.9130859375,-0.2152557373046875,-0.0548095703125,2026-04-11T19:11:36.426-05:00
1775952696436856300,0.307856201171875,0.915924072265625,-0.2075042724609375,-0.1236724853515625,2026-04-11T19:11:36.436-05:00
1775952696446913500,0.31791357421875,0.9326019287109375,-0.2033843994140625,-0.152587890625,2026-04-11T19:11:36.446-05:00
1775952696456970500,0.327970458984375,0.9632110595703125,-0.2127838134765625,-0.12548828125,2026-04-11T19:11:36.456-05:00
1775952696467027500,0.33802734375,0.98223876953125,-0.2085418701171875,-0.061798095703125,2026-04-11T19:11:36.467-05:00
1775952696477084400,0.34808447265625,0.975677490234375,-0.2200469970703125,0.001007080078125,2026-04-11T19:11:36.477-05:00
1775952696487140400,0.358140380859375,0.9570159912109375,-0.242462158203125,0.05108642578125,2026-04-11T19:11:36.487-05:00
1775952696497197600,0.368197509765625,0.9508819580078125,-0.2482147216796875,0.073455810546875,2026-04-11T19:11:36.497-05:00
1775952696507254500,0.378254638671875,0.976593017578125,-0.2420501708984375,0.0583038330078125,2026-04-11T19:11:36.507-05:00
1775952696517311500,0.3883115234375,1.0009613037109375,-0.2344970703125,0.01580810546875,2026-04-11T19:11:36.517-05:00
1775952696527368400,0.398368408203125,0.993072509765625,-0.2327423095703125,-0.0223541259765625,2026-04-11T19:11:36.527-05:00
1775952696537425400,0.40842529296875,0.9637298583984375,-0.234039306640625,-0.0465240478515625,2026-04-11T19:11:36.537-05:00
1775952696547482600,0.418482666015625,0.9398956298828125,-0.2406158447265625,-0.06982421875,2026-04-11T19:11:36.547-05:00
1775952696557539600,0.42853955078125,0.9308319091796875,-0.2424468994140625,-0.0724639892578125,2026-04-11T19:11:36.557-05:00
1775952696567596500,0.438596435546875,0.938629150390625,-0.2476348876953125,-0.057037353515625,2026-04-11T19:11:36.567-05:00
1775952696577653500,0.448653564453125,0.9524383544921875,-0.247650146484375,-0.0306396484375,2026-04-11T19:11:36.577-05:00
1775952696587710500,0.45871044921875,0.9599609375,-0.2484283447265625,-0.0012054443359375,2026-04-11T19:11:36.587-05:00
1775952696597767400,0.468767333984375,0.950286865234375,-0.253875732421875,0.008636474609375,2026-04-11T19:11:36.597-05:00
1775952696607824400,0.478824462890625,0.940155029296875,-0.251617431640625,-0.006988525390625,2026-04-11T19:11:36.607-05:00
1775952696617881300,0.48888134765625,0.936065673828125,-0.2455291748046875,-0.0330657958984375,2026-04-11T19:11:36.617-05:00
1775952696627938300,0.498938232421875,0.9432220458984375,-0.231781005859375,-0.045440673828125,2026-04-11T19:11:36.627-05:00
1775952696637995500,0.50899560546875,0.955047607421875,-0.2326812744140625,-0.055023193359375,2026-04-11T19:11:36.637-05:00
1775952696648051500,0.519051513671875,0.968231201171875,-0.23834228515625,-0.0570526123046875,2026-04-11T19:11:36.648-05:00
1775952696658108400,0.5291083984375,0.9748382568359375,-0.2366485595703125,-0.035736083984375,2026-04-11T19:11:36.658-05:00
1775952696668165400,0.539165283203125,0.97039794921875,-0.24456787109375,-0.0009918212890625,2026-04-11T19:11:36.668-05:00
1775952696678222600,0.54922265625,0.966094970703125,-0.2587890625,0.023101806640625,2026-04-11T19:11:36.678-05:00
1775952696688279600,0.559279541015625,0.9629974365234375,-0.241424560546875,0.019744873046875,2026-04-11T19:11:36.688-05:00
1775952696698336500,0.56933642578125,0.9623565673828125,-0.2244110107421875,-0.0075836181640625,2026-04-11T19:11:36.698-05:00
1775952696708393500,0.5793935546875,0.9586029052734375,-0.2255096435546875,-0.0329742431640625,2026-04-11T19:11:36.708-05:00
1775952696718450400,0.589450439453125,0.9546966552734375,-0.2191925048828125,-0.046051025390625,2026-04-11T19:11:36.718-05:00
1775952696728507400,0.59950732421875,0.958740234375,-0.216461181640625,-0.05010986328125,2026-04-11T19:11:36.728-05:00
1775952696738564600,0.609564697265625,0.966461181640625,-0.2200927734375,-0.054779052734375,2026-04-11T19:11:36.738-05:00
1775952696748621600,0.61962158203125,0.9724273681640625,-0.220794677734375,-0.044342041015625,2026-04-11T19:11:36.748-05:00
1775952696758678500,0.629678466796875,0.9743804931640625,-0.22210693359375,-0.0269622802734375,2026-04-11T19:11:36.758-05:00
1775952696768735500,0.639735595703125,0.9687347412109375,-0.228912353515625,-0.0199432373046875,2026-04-11T19:11:36.768-05:00
1775952696778792400,0.64979248046875,0.9643707275390625,-0.2323760986328125,-0.02001953125,2026-04-11T19:11:36.778-05:00
1775952696788848400,0.659848388671875,0.9580230712890625,-0.234100341796875,-0.01214599609375,2026-04-11T19:11:36.788-05:00
1775952696798905300,0.6699052734375,0.9516143798828125,-0.2351837158203125,-0.0057220458984375,2026-04-11T19:11:36.798-05:00
1775952696808962300,0.67996240234375,0.9631195068359375,-0.2350616455078125,-0.0055694580078125,2026-04-11T19:11:36.808-05:00
1775952696819019300,0.690019287109375,0.9842987060546875,-0.2314453125,-0.00732421875,2026-04-11T19:11:36.819-05:00
1775952696829076200,0.700076171875,0.999237060546875,-0.2242584228515625,-0.0066986083984375,2026-04-11T19:11:36.829-05:00
1775952696839133400,0.710133544921875,1.0028533935546875,-0.2252960205078125,-0.0075836181640625,2026-04-11T19:11:36.839-05:00
1775952696849190400,0.7201904296875,0.99676513671875,-0.225128173828125,-0.0196075439453125,2026-04-11T19:11:36.849-05:00
1775952696859247600,0.73024755859375,0.9923248291015625,-0.222381591796875,-0.0370635986328125,2026-04-11T19:11:36.859-05:00
1775952696869304600,0.7403046875,0.9753265380859375,-0.2205047607421875,-0.041015625,2026-04-11T19:11:36.869-05:00
1775952696879361500,0.750361572265625,0.9625701904296875,-0.2236328125,-0.0281829833984375,2026-04-11T19:11:36.879-05:00
1775952696889418500,0.76041845703125,0.96722412109375,-0.2176361083984375,-0.0394134521484375,2026-04-11T19:11:36.889-05:00
1775952696899475500,0.770475341796875,0.97381591796875,-0.210296630859375,-0.052978515625,2026-04-11T19:11:36.899-05:00
1775952696909531400,0.780531494140625,0.9780426025390625,-0.2079925537109375,-0.0494232177734375,2026-04-11T19:11:36.909-05:00
1775952696919588400,0.79058837890625,0.9822998046875,-0.21026611328125,-0.039825439453125,2026-04-11T19:11:36.919-05:00
1775952696929645300,0.800645263671875,0.997100830078125,-0.2120819091796875,-0.034027099609375,2026-04-11T19:11:36.929-05:00
1775952696939702300,0.810702392578125,1.010467529296875,-0.21221923828125,-0.02972412109375,2026-04-11T19:11:36.939-05:00
1775952696949759500,0.820759521484375,1.0145111083984375,-0.209442138671875,-0.025665283203125,2026-04-11T19:11:36.949-05:00
1775952696959816400,0.83081640625,1.007476806640625,-0.2133331298828125,-0.02099609375,2026-04-11T19:11:36.959-05:00
1775952696969873400,0.840873291015625,0.9896392822265625,-0.2183837890625,-0.00823974609375,2026-04-11T19:11:36.969-05:00
1775952696979930400,0.850930419921875,0.981597900390625,-0.2210845947265625,-0.0121307373046875,2026-04-11T19:11:36.979-05:00
1775952696989987300,0.8609873046875,0.9871368408203125,-0.2169952392578125,-0.0225067138671875,2026-04-11T19:11:36.989-05:00
1775952697000044300,0.871044189453125,0.9876251220703125,-0.211761474609375,-0.0223388671875,2026-04-11T19:11:37.000-05:00
1775952697010101200,0.881101318359375,0.984466552734375,-0.2177276611328125,-0.0259552001953125,2026-04-11T19:11:37.010-05:00
1775952697020158500,0.891158447265625,0.9834136962890625,-0.2182464599609375,-0.0192413330078125,2026-04-11T19:11:37.020-05:00
1775952697030215700,0.901215576171875,0.975128173828125,-0.2234649658203125,-0.0147552490234375,2026-04-11T19:11:37.030-05:00
1775952697040271400,0.911271240234375,0.9604644775390625,-0.2308349609375,-0.0207061767578125,2026-04-11T19:11:37.040-05:00
1775952697050328600,0.92132861328125,0.944488525390625,-0.2394256591796875,-0.01519775390625,2026-04-11T19:11:37.050-05:00
1775952697060385500,0.931385498046875,0.93780517578125,-0.2383270263671875,0.0040283203125,2026-04-11T19:11:37.060-05:00
1775952697070442500,0.9414423828125,0.95367431640625,-0.22601318359375,0.0070343017578125,2026-04-11T19:11:37.070-05:00
1775952697080499500,0.95149951171875,0.975250244140625,-0.2260589599609375,-0.006103515625,2026-04-11T19:11:37.080-05:00
1775952697090556400,0.961556396484375,0.9839630126953125,-0.229766845703125,-0.0154571533203125,2026-04-11T19:11:37.090-05:00
1775952697100613400,0.97161328125,0.9777984619140625,-0.2289276123046875,-0.011810302734375,2026-04-11T19:11:37.100-05:00
1775952697110670300,0.98167041015625,0.9676666259765625,-0.2296295166015625,-0.0117645263671875,2026-04-11T19:11:37.110-05:00
1775952697120727300,0.991727294921875,0.956451416015625,-0.237335205078125,-0.0173187255859375,2026-04-11T19:11:37.120-05:00
1775952697130784300,1.0017841796875,0.955841064453125,-0.232574462890625,-0.016937255859375,2026-04-11T19:11:37.130-05:00
1775952697140841500,1.011841552734375,0.960601806640625,-0.230804443359375,-0.016693115234375,2026-04-11T19:11:37.140-05:00
1775952697150897700,1.021897705078125,0.9668121337890625,-0.2279052734375,-0.0186767578125,2026-04-11T19:11:37.150-05:00
1775952697160954600,1.03195458984375,0.9659881591796875,-0.226715087890625,-0.02557373046875,2026-04-11T19:11:37.160-05:00
1775952697171011600,1.042011474609375,0.963836669921875,-0.229034423828125,-0.021148681640625,2026-04-11T19:11:37.171-05:00
1775952697181068500,1.052068603515625,0.9591064453125,-0.2275390625,-0.0107421875,2026-04-11T19:11:37.181-05:00
1775952697191125500,1.06212548828125,0.943756103515625,-0.2294769287109375,-0.00994873046875,2026-04-11T19:11:37.191-05:00
1775952697201182500,1.072182373046875,0.9320068359375,-0.230743408203125,-0.00994873046875,2026-04-11T19:11:37.201-05:00
1775952697211239400,1.082239501953125,0.9453277587890625,-0.2284698486328125,-0.00164794921875,2026-04-11T19:11:37.211-05:00
1775952697221296400,1.09229638671875,0.9938201904296875,-0.2153472900390625,-0.0071563720703125,2026-04-11T19:11:37.221-05:00
1775952697231353300,1.102353271484375,1.0423431396484375,-0.2095489501953125,-0.0357208251953125,2026-04-11T19:11:37.231-05:00
1775952697241410600,1.11241064453125,1.06256103515625,-0.2146453857421875,-0.0497589111328125,2026-04-11T19:11:37.241-05:00
1775952697251466200,1.12246630859375,1.04144287109375,-0.216552734375,-0.045562744140625,2026-04-11T19:11:37.251-05:00
1775952697261523500,1.1325234375,1.0004425048828125,-0.2197723388671875,-0.0398406982421875,2026-04-11T19:11:37.261-05:00
1775952697271580400,1.142580322265625,0.9652862548828125,-0.2280731201171875,-0.03057861328125,2026-04-11T19:11:37.271-05:00
1775952697281637400,1.152637451171875,0.9481048583984375,-0.22967529296875,-0.0267791748046875,2026-04-11T19:11:37.281-05:00
1775952697291694300,1.1626943359375,0.9445648193359375,-0.229705810546875,-0.0214691162109375,2026-04-11T19:11:37.291-05:00
1775952697301751600,1.17275146484375,0.9453125,-0.2301177978515625,-0.015869140625,2026-04-11T19:11:37.301-05:00
1775952697311808500,1.18280859375,0.9456024169921875,-0.2318878173828125,-0.0130462646484375,2026-04-11T19:11:37.311-05:00
1775952697321865500,1.192865478515625,0.9412994384765625,-0.233551025390625,-0.0125885009765625,2026-04-11T19:11:37.321-05:00
1775952697331922400,1.20292236328125,0.947662353515625,-0.2278289794921875,-0.0124664306640625,2026-04-11T19:11:37.331-05:00
1775952697341979600,1.212979736328125,0.9558258056640625,-0.2227630615234375,-0.004791259765625,2026-04-11T19:11:37.341-05:00
1775952697352036600,1.22303662109375,0.965545654296875,-0.223419189453125,0.00921630859375,2026-04-11T19:11:37.352-05:00
1775952697362092500,1.233092529296875,0.967742919921875,-0.228118896484375,0.0164337158203125,2026-04-11T19:11:37.362-05:00
1775952697372149500,1.2431494140625,0.969940185546875,-0.2322235107421875,0.0195465087890625,2026-04-11T19:11:37.372-05:00
1775952697382206500,1.25320654296875,0.976837158203125,-0.228363037109375,0.0127105712890625,2026-04-11T19:11:37.382-05:00
1775952697392263400,1.263263427734375,0.9725494384765625,-0.2235107421875,0.000244140625,2026-04-11T19:11:37.392-05:00
1775952697402320400,1.2733203125,0.9646453857421875,-0.22125244140625,-0.01300048828125,2026-04-11T19:11:37.402-05:00
1775952697412377300,1.28337744140625,0.9657440185546875,-0.2196197509765625,-0.01446533203125,2026-04-11T19:11:37.412-05:00
1775952697422434300,1.293434326171875,0.97174072265625,-0.216796875,-0.01123046875,2026-04-11T19:11:37.422-05:00
1775952697432491300,1.3034912109375,0.980072021484375,-0.214385986328125,-0.016326904296875,2026-04-11T19:11:37.432-05:00
1775952697442548200,1.31354833984375,0.983367919921875,-0.223724365234375,-0.017333984375,2026-04-11T19:11:37.442-05:00
1775952697452604400,1.3236044921875,0.9807586669921875,-0.2246246337890625,-0.015350341796875,2026-04-11T19:11:37.452-05:00
1775952697462661600,1.33366162109375,0.9705047607421875,-0.2261505126953125,-0.015655517578125,2026-04-11T19:11:37.462-05:00
1775952697472718600,1.343718505859375,0.963470458984375,-0.22894287109375,-0.0161590576171875,2026-04-11T19:11:37.472-05:00
1775952697482775600,1.353775634765625,0.97943115234375,-0.218292236328125,-0.0147552490234375,2026-04-11T19:11:37.482-05:00
1775952697492832500,1.36383251953125,1.0308380126953125,-0.1990203857421875,-0.0247039794921875,2026-04-11T19:11:37.492-05:00
1775952697502889500,1.373889404296875,1.1020660400390625,-0.202117919921875,-0.045379638671875,2026-04-11T19:11:37.502-05:00
1775952697512946400,1.383946533203125,1.142822265625,-0.219268798828125,-0.0563201904296875,2026-04-11T19:11:37.512-05:00
1775952697523003400,1.39400341796875,1.113189697265625,-0.2163848876953125,-0.0364227294921875,2026-04-11T19:11:37.523-05:00
1775952697533060400,1.404060302734375,1.046356201171875,-0.219757080078125,-0.02020263671875,2026-04-11T19:11:37.533-05:00
1775952697543116300,1.4141162109375,0.984649658203125,-0.2328338623046875,-0.0159912109375,2026-04-11T19:11:37.543-05:00
1775952697553173200,1.42417333984375,0.94171142578125,-0.2412872314453125,-0.0049896240234375,2026-04-11T19:11:37.553-05:00
1775952697563230200,1.434230224609375,0.9071044921875,-0.24554443359375,0.0054168701171875,2026-04-11T19:11:37.563-05:00
1775952697573287400,1.444287353515625,0.8820648193359375,-0.2504119873046875,0.0068359375,2026-04-11T19:11:37.573-05:00
1775952697583344400,1.454344482421875,0.8671112060546875,-0.256500244140625,0.0059967041015625,2026-04-11T19:11:37.583-05:00
1775952697593401600,1.464401611328125,0.8629608154296875,-0.2529144287109375,0.010223388671875,2026-04-11T19:11:37.593-05:00
1775952697603458600,1.47445849609375,0.8667144775390625,-0.249847412109375,0.0118865966796875,2026-04-11T19:11:37.603-05:00
1775952697613515500,1.484515625,0.8736572265625,-0.2529144287109375,0.0157623291015625,2026-04-11T19:11:37.613-05:00
1775952697623572500,1.494572509765625,0.8799591064453125,-0.258209228515625,0.0251922607421875,2026-04-11T19:11:37.623-05:00
1775952697633628400,1.50462841796875,0.89056396484375,-0.2612762451171875,0.0319976806640625,2026-04-11T19:11:37.633-05:00
1775952697643685400,1.514685302734375,0.9129791259765625,-0.264678955078125,0.0210418701171875,2026-04-11T19:11:37.643-05:00
1775952697653742300,1.524742431640625,0.9363555908203125,-0.263397216796875,0.0063629150390625,2026-04-11T19:11:37.653-05:00
1775952697663799300,1.53479931640625,0.9671630859375,-0.2588043212890625,-0.01123046875,2026-04-11T19:11:37.663-05:00
1775952697673856500,1.5448564453125,0.9952545166015625,-0.252410888671875,-0.0146026611328125,2026-04-11T19:11:37.673-05:00
1775952697683913500,1.55491357421875,1.0113677978515625,-0.2456512451171875,-0.0062408447265625,2026-04-11T19:11:37.683-05:00
1775952697693970400,1.564970458984375,1.011322021484375,-0.249359130859375,-0.004241943359375,2026-04-11T19:11:37.693-05:00
1775952697704027400,1.57502734375,0.99560546875,-0.2526397705078125,-0.003875732421875,2026-04-11T19:11:37.704-05:00
1775952697714084400,1.58508447265625,0.98095703125,-0.252777099609375,-0.0015411376953125,2026-04-11T19:11:37.714-05:00
1775952697724140500,1.595140625,0.967315673828125,-0.2526397705078125,0.001495361328125,2026-04-11T19:11:37.724-05:00
1775952697734197500,1.605197509765625,0.9510955810546875,-0.2491302490234375,-0.0052490234375,2026-04-11T19:11:37.734-05:00
1775952697744254500,1.61525439453125,0.9559478759765625,-0.24591064453125,-0.017242431640625,2026-04-11T19:11:37.744-05:00
1775952697754311400,1.6253115234375,0.9740753173828125,-0.24310302734375,-0.0272064208984375,2026-04-11T19:11:37.754-05:00
1775952697764368400,1.635368408203125,0.9899749755859375,-0.239501953125,-0.0331268310546875,2026-04-11T19:11:37.764-05:00
1775952697774425600,1.645425537109375,0.994842529296875,-0.2368011474609375,-0.0252685546875,2026-04-11T19:11:37.774-05:00
1775952697784482600,1.655482666015625,0.994781494140625,-0.236419677734375,-0.006591796875,2026-04-11T19:11:37.784-05:00
1775952697794539500,1.66553955078125,0.986083984375,-0.2370452880859375,0.0080108642578125,2026-04-11T19:11:37.794-05:00
1775952697804595500,1.675595458984375,0.9734954833984375,-0.23468017578125,0.01068115234375,2026-04-11T19:11:37.804-05:00
1775952697814652400,1.68565234375,0.966644287109375,-0.2357940673828125,0.00799560546875,2026-04-11T19:11:37.814-05:00
1775952697824709400,1.69570947265625,0.96295166015625,-0.2358856201171875,-0.0044708251953125,2026-04-11T19:11:37.824-05:00
1775952697834766300,1.705766357421875,0.9665374755859375,-0.2329864501953125,-0.01287841796875,2026-04-11T19:11:37.834-05:00
1775952697844823300,1.7158232421875,0.9734954833984375,-0.2236328125,-0.011566162109375,2026-04-11T19:11:37.844-05:00
1775952697854880300,1.72588037109375,0.9769287109375,-0.219940185546875,-0.0108184814453125,2026-04-11T19:11:37.854-05:00
1775952697864937200,1.735937255859375,0.9745025634765625,-0.221832275390625,-0.00885009765625,2026-04-11T19:11:37.864-05:00
1775952697874994200,1.745994140625,0.9676666259765625,-0.2210540771484375,-0.01116943359375,2026-04-11T19:11:37.874-05:00
1775952697885051100,1.756051025390625,0.9669952392578125,-0.2175445556640625,-0.0125579833984375,2026-04-11T19:11:37.885-05:00
1775952697895107000,1.766107177734375,0.9656524658203125,-0.2191009521484375,-0.0115203857421875,2026-04-11T19:11:37.895-05:00
1775952697905164000,1.7761640625,0.96234130859375,-0.2257537841796875,-0.01092529296875,2026-04-11T19:11:37.905-05:00
1775952697915221000,1.786220947265625,0.9676513671875,-0.22430419921875,-0.0162506103515625,2026-04-11T19:11:37.915-05:00
1775952697925278000,1.79627783203125,0.9770660400390625,-0.22686767578125,-0.0200958251953125,2026-04-11T19:11:37.925-05:00
1775952697935335000,1.8063349609375,0.985595703125,-0.23486328125,-0.0274505615234375,2026-04-11T19:11:37.935-05:00
1775952697945392000,1.81639208984375,0.9898681640625,-0.2359466552734375,-0.024078369140625,2026-04-11T19:11:37.945-05:00
1775952697955449000,1.826448974609375,0.98358154296875,-0.237152099609375,-0.0057830810546875,2026-04-11T19:11:37.955-05:00
1775952697965506000,1.836506103515625,0.976715087890625,-0.2353363037109375,0.003692626953125,2026-04-11T19:11:37.965-05:00
1775952697975562200,1.846562255859375,0.977203369140625,-0.232025146484375,0.0030517578125,2026-04-11T19:11:37.975-05:00
1775952697985619200,1.856619140625,0.9743804931640625,-0.2367095947265625,0.0005035400390625,2026-04-11T19:11:37.985-05:00
1775952697995676200,1.86667626953125,0.96575927734375,-0.2381439208984375,-0.0003204345703125,2026-04-11T19:11:37.995-05:00
1775952698005733000,1.876733154296875,0.95111083984375,-0.238250732421875,0.00006103515625,2026-04-11T19:11:38.005-05:00
1775952698015790000,1.8867900390625,0.94207763671875,-0.2415313720703125,0.0067901611328125,2026-04-11T19:11:38.015-05:00
1775952698025847000,1.896846923828125,0.93890380859375,-0.2413177490234375,0.01141357421875,2026-04-11T19:11:38.025-05:00
1775952698035904000,1.906904052734375,0.94677734375,-0.2371673583984375,0.0157318115234375,2026-04-11T19:11:38.035-05:00
1775952698045960000,1.9169599609375,0.959686279296875,-0.232666015625,0.0095367431640625,2026-04-11T19:11:38.045-05:00
1775952698056017000,1.927016845703125,0.9698333740234375,-0.231719970703125,-0.00115966796875,2026-04-11T19:11:38.056-05:00
1775952698066073900,1.937073974609375,0.975555419921875,-0.22930908203125,-0.0049591064453125,2026-04-11T19:11:38.066-05:00
1775952698076131000,1.947131103515625,0.9794158935546875,-0.2287139892578125,0.002960205078125,2026-04-11T19:11:38.076-05:00
1775952698086188000,1.95718798828125,0.98046875,-0.2257537841796875,0.00396728515625,2026-04-11T19:11:38.086-05:00
1775952698096245000,1.967244873046875,0.9824371337890625,-0.227020263671875,-0.005340576171875,2026-04-11T19:11:38.096-05:00
1775952698106302000,1.977302001953125,0.9763641357421875,-0.2294769287109375,-0.007354736328125,2026-04-11T19:11:38.106-05:00
1775952698116359200,1.987359130859375,0.9623260498046875,-0.2310943603515625,-0.0067596435546875,2026-04-11T19:11:38.116-05:00
1775952698126416100,1.997416015625,0.953216552734375,-0.230865478515625,-0.013824462890625,2026-04-11T19:11:38.126-05:00
1775952698136472000,2.00747216796875,0.9500274658203125,-0.229095458984375,-0.025421142578125,2026-04-11T19:11:38.136-05:00
1775952698146529000,2.017529052734375,0.956085205078125,-0.22857666015625,-0.03753662109375,2026-04-11T19:11:38.146-05:00
1775952698156586000,2.0275859375,0.9668121337890625,-0.2192230224609375,-0.0263519287109375,2026-04-11T19:11:38.156-05:00
1775952698166643000,2.037642822265625,0.974029541015625,-0.2134246826171875,-0.0200958251953125,2026-04-11T19:11:38.166-05:00
1775952698176700200,2.0477001953125,0.9808349609375,-0.2100372314453125,-0.0180206298828125,2026-04-11T19:11:38.176-05:00
1775952698186757000,2.057757080078125,0.988189697265625,-0.2067413330078125,-0.0181427001953125,2026-04-11T19:11:38.186-05:00
1775952698196814000,2.06781396484375,0.99749755859375,-0.2063140869140625,-0.02410888671875,2026-04-11T19:11:38.196-05:00
1775952698206870000,2.0778701171875,0.9996337890625,-0.209259033203125,-0.0281829833984375,2026-04-11T19:11:38.206-05:00
1775952698216927000,2.087927001953125,0.9929656982421875,-0.2071380615234375,-0.027374267578125,2026-04-11T19:11:38.216-05:00
1775952698226984200,2.097984130859375,0.97882080078125,-0.2087554931640625,-0.026031494140625,2026-04-11T19:11:38.226-05:00
1775952698237041200,2.108041259765625,0.967315673828125,-0.2082061767578125,-0.020538330078125,2026-04-11T19:11:38.237-05:00
1775952698247098000,2.11809814453125,0.9616546630859375,-0.2060394287109375,-0.0137939453125,2026-04-11T19:11:38.247-05:00
1775952698257155000,2.128155029296875,0.9624786376953125,-0.2064666748046875,-0.01092529296875,2026-04-11T19:11:38.257-05:00
1775952698267212000,2.1382119140625,0.9652557373046875,-0.2104339599609375,-0.0052337646484375,2026-04-11T19:11:38.267-05:00
1775952698277269200,2.148269287109375,0.9708099365234375,-0.21258544921875,-0.00091552734375,2026-04-11T19:11:38.277-05:00
1775952698287325000,2.158324951171875,0.9880218505859375,-0.2162322998046875,0.000885009765625,2026-04-11T19:11:38.287-05:00
1775952698297382100,2.168382080078125,1.009063720703125,-0.2128448486328125,0.007720947265625,2026-04-11T19:11:38.297-05:00
1775952698307439000,2.178439208984375,1.02178955078125,-0.211700439453125,0.0066986083984375,2026-04-11T19:11:38.307-05:00
1775952698317496000,2.18849609375,1.0210723876953125,-0.21502685546875,-0.0022125244140625,2026-04-11T19:11:38.317-05:00
1775952698327553000,2.198552978515625,1.0107879638671875,-0.2181243896484375,-0.0110321044921875,2026-04-11T19:11:38.327-05:00
1775952698337610000,2.20860986328125,0.9902496337890625,-0.2191162109375,-0.0082244873046875,2026-04-11T19:11:38.337-05:00
1775952698347667000,2.2186669921875,0.9724578857421875,-0.22137451171875,-0.0033416748046875,2026-04-11T19:11:38.347-05:00
1775952698357723100,2.22872314453125,0.960906982421875,-0.22021484375,-0.0114593505859375,2026-04-11T19:11:38.357-05:00
1775952698367780000,2.238780029296875,0.951507568359375,-0.22314453125,-0.0166473388671875,2026-04-11T19:11:38.367-05:00
1775952698377837000,2.248837158203125,0.942718505859375,-0.22589111328125,-0.0075531005859375,2026-04-11T19:11:38.377-05:00
1775952698387894000,2.25889404296875,0.944427490234375,-0.2216033935546875,-0.0033721923828125,2026-04-11T19:11:38.387-05:00
1775952698397951200,2.268951171875,0.9581298828125,-0.218994140625,-0.0089569091796875,2026-04-11T19:11:38.397-05:00
1775952698408008200,2.27900830078125,0.96636962890625,-0.2177581787109375,-0.02001953125,2026-04-11T19:11:38.408-05:00
1775952698418065200,2.289065185546875,0.971893310546875,-0.209686279296875,-0.0222320556640625,2026-04-11T19:11:38.418-05:00
1775952698428122000,2.2991220703125,0.9778900146484375,-0.213958740234375,-0.014678955078125,2026-04-11T19:11:38.428-05:00
1775952698438178000,2.309177978515625,0.98321533203125,-0.2164306640625,-0.005096435546875,2026-04-11T19:11:38.438-05:00
1775952698448235000,2.319235107421875,0.9840850830078125,-0.2134857177734375,-0.002471923828125,2026-04-11T19:11:38.448-05:00
1775952698458292000,2.3292919921875,0.9826202392578125,-0.2134857177734375,-0.00042724609375,2026-04-11T19:11:38.458-05:00
1775952698468349000,2.339348876953125,0.983062744140625,-0.214263916015625,-0.004791259765625,2026-04-11T19:11:38.468-05:00
1775952698478406000,2.349406005859375,0.9809112548828125,-0.2130889892578125,-0.01092529296875,2026-04-11T19:11:38.478-05:00
1775952698488463000,2.359463134765625,0.9798431396484375,-0.213348388671875,-0.00274658203125,2026-04-11T19:11:38.488-05:00
1775952698498520000,2.36952001953125,0.971466064453125,-0.2127685546875,0.0071868896484375,2026-04-11T19:11:38.498-05:00
1775952698508576000,2.379575927734375,0.961151123046875,-0.21087646484375,0.010711669921875,2026-04-11T19:11:38.508-05:00
1775952698518633200,2.38963330078125,0.9599151611328125,-0.208984375,0.005950927734375,2026-04-11T19:11:38.518-05:00
1775952698528690200,2.399690185546875,0.971038818359375,-0.21063232421875,0.0039215087890625,2026-04-11T19:11:38.528-05:00
1775952698538747100,2.4097470703125,0.9841156005859375,-0.214385986328125,0.0086822509765625,2026-04-11T19:11:38.538-05:00
1775952698548804000,2.41980419921875,0.997406005859375,-0.21844482421875,0.0070037841796875,2026-04-11T19:11:38.548-05:00
1775952698558861000,2.429861083984375,0.9874267578125,-0.2233734130859375,0.0070037841796875,2026-04-11T19:11:38.558-05:00
1775952698568918000,2.43991796875,0.9727020263671875,-0.227508544921875,0.000885009765625,2026-04-11T19:11:38.568-05:00
1775952698578975000,2.44997509765625,0.9713134765625,-0.22186279296875,-0.01177978515625,2026-04-11T19:11:38.578-05:00
1775952698589031000,2.460031005859375,0.9761962890625,-0.22149658203125,-0.0201568603515625,2026-04-11T19:11:38.589-05:00
1775952698599088000,2.470088134765625,0.9827880859375,-0.219024658203125,-0.0164337158203125,2026-04-11T19:11:38.599-05:00
1775952698609145000,2.48014501953125,0.9833526611328125,-0.2191162109375,-0.01202392578125,2026-04-11T19:11:38.609-05:00
1775952698619202000,2.4902021484375,0.9839019775390625,-0.222686767578125,0.0001983642578125,2026-04-11T19:11:38.619-05:00
1775952698629259300,2.50025927734375,0.9798736572265625,-0.222869873046875,0.005706787109375,2026-04-11T19:11:38.629-05:00
1775952698639316200,2.510316162109375,0.969818115234375,-0.225067138671875,0.0040740966796875,2026-04-11T19:11:38.639-05:00
1775952698649373200,2.520373291015625,0.95928955078125,-0.2245330810546875,0.0048675537109375,2026-04-11T19:11:38.649-05:00
1775952698659429000,2.53042919921875,0.9528656005859375,-0.221893310546875,0.0086822509765625,2026-04-11T19:11:38.659-05:00
1775952698669486000,2.540486083984375,0.955474853515625,-0.218963623046875,0.0065460205078125,2026-04-11T19:11:38.669-05:00
1775952698679543000,2.55054296875,0.962493896484375,-0.2168121337890625,-0.00006103515625,2026-04-11T19:11:38.679-05:00
1775952698689600000,2.56060009765625,0.961395263671875,-0.21429443359375,0.001556396484375,2026-04-11T19:11:38.689-05:00
1775952698699657000,2.570656982421875,0.958587646484375,-0.2148590087890625,-0.0024871826171875,2026-04-11T19:11:38.699-05:00
1775952698709714000,2.5807138671875,0.9583892822265625,-0.2171478271484375,-0.005645751953125,2026-04-11T19:11:38.709-05:00
1775952698719771000,2.59077099609375,0.96807861328125,-0.2167816162109375,-0.00128173828125,2026-04-11T19:11:38.719-05:00
1775952698729827000,2.6008271484375,0.97979736328125,-0.2171783447265625,0.008270263671875,2026-04-11T19:11:38.729-05:00
1775952698739884000,2.610884033203125,0.9889678955078125,-0.2165069580078125,0.0110015869140625,2026-04-11T19:11:38.739-05:00
1775952698749941200,2.620941162109375,0.991546630859375,-0.2159423828125,-0.00146484375,2026-04-11T19:11:38.749-05:00
1775952698759998200,2.630998291015625,0.987457275390625,-0.214874267578125,-0.0115966796875,2026-04-11T19:11:38.759-05:00
1775952698770055200,2.64105517578125,0.9857177734375,-0.2110748291015625,-0.0124359130859375,2026-04-11T19:11:38.770-05:00
1775952698780112100,2.651112060546875,0.9810028076171875,-0.2043609619140625,-0.0120697021484375,2026-04-11T19:11:38.780-05:00
1775952698790169000,2.661169189453125,0.9796600341796875,-0.20745849609375,-0.010589599609375,2026-04-11T19:11:38.790-05:00
1775952698800225000,2.67122509765625,0.9820556640625,-0.20758056640625,-0.006561279296875,2026-04-11T19:11:38.800-05:00
1775952698810282000,2.681281982421875,0.9819488525390625,-0.20733642578125,-0.0025177001953125,2026-04-11T19:11:38.810-05:00
1775952698820339000,2.6913388671875,0.9770355224609375,-0.2080535888671875,-0.006500244140625,2026-04-11T19:11:38.820-05:00
1775952698830396000,2.70139599609375,0.969085693359375,-0.21087646484375,-0.0085906982421875,2026-04-11T19:11:38.830-05:00
1775952698840452900,2.711452880859375,0.968292236328125,-0.21099853515625,-0.005950927734375,2026-04-11T19:11:38.840-05:00
1775952698850509800,2.721509765625,0.9780426025390625,-0.210662841796875,-0.0056304931640625,2026-04-11T19:11:38.850-05:00
1775952698860566800,2.73156689453125,0.990570068359375,-0.2105255126953125,-0.0096435546875,2026-04-11T19:11:38.860-05:00
1775952698870624000,2.7416240234375,0.9955291748046875,-0.2065887451171875,-0.00909423828125,2026-04-11T19:11:38.870-05:00
1775952698880680000,2.751679931640625,0.994903564453125,-0.2092132568359375,-0.0085601806640625,2026-04-11T19:11:38.880-05:00
1775952698890737000,2.76173681640625,0.98834228515625,-0.2122955322265625,-0.012969970703125,2026-04-11T19:11:38.890-05:00
1775952698900794000,2.771794189453125,0.984832763671875,-0.21356201171875,-0.0110626220703125,2026-04-11T19:11:38.900-05:00
1775952698910851000,2.78185107421875,0.9839935302734375,-0.2117156982421875,-0.0102996826171875,2026-04-11T19:11:38.910-05:00
1775952698920908000,2.791907958984375,0.982574462890625,-0.213226318359375,-0.012481689453125,2026-04-11T19:11:38.920-05:00
1775952698930965000,2.801965087890625,0.975738525390625,-0.2128753662109375,-0.01702880859375,2026-04-11T19:11:38.930-05:00
1775952698941022000,2.81202197265625,0.9633026123046875,-0.2131805419921875,-0.0194854736328125,2026-04-11T19:11:38.941-05:00
1775952698951078000,2.822077880859375,0.957855224609375,-0.213897705078125,-0.0163726806640625,2026-04-11T19:11:38.951-05:00
1775952698961134800,2.832134765625,0.9579010009765625,-0.213623046875,-0.01409912109375,2026-04-11T19:11:38.961-05:00
1775952698971191800,2.84219189453125,0.9557952880859375,-0.2126312255859375,-0.012664794921875,2026-04-11T19:11:38.971-05:00
1775952698981249000,2.8522490234375,0.9576873779296875,-0.2127532958984375,-0.0089874267578125,2026-04-11T19:11:38.981-05:00
1775952698991306000,2.862305908203125,0.9691314697265625,-0.217071533203125,-0.0138397216796875,2026-04-11T19:11:38.991-05:00
1775952699001363200,2.87236328125,0.97064208984375,-0.2244415283203125,-0.01898193359375,2026-04-11T19:11:39.001-05:00
1775952699011420200,2.882420166015625,0.97015380859375,-0.222198486328125,0.0005035400390625,2026-04-11T19:11:39.011-05:00
1775952699021476000,2.89247607421875,0.9748382568359375,-0.22027587890625,0.0066375732421875,2026-04-11T19:11:39.021-05:00
1775952699031533000,2.902532958984375,0.9827423095703125,-0.22235107421875,-0.0011444091796875,2026-04-11T19:11:39.031-05:00
1775952699041590000,2.912590087890625,0.984649658203125,-0.2253265380859375,-0.0005645751953125,2026-04-11T19:11:39.041-05:00
1775952699051647000,2.92264697265625,0.9777069091796875,-0.223846435546875,0.0047760009765625,2026-04-11T19:11:39.051-05:00
1775952699061704000,2.932703857421875,0.9690704345703125,-0.2256927490234375,0.0059051513671875,2026-04-11T19:11:39.061-05:00
1775952699071761000,2.942760986328125,0.9646453857421875,-0.2255096435546875,-0.001007080078125,2026-04-11T19:11:39.071-05:00
1775952699081817900,2.95281787109375,0.9672698974609375,-0.2242584228515625,-0.0086212158203125,2026-04-11T19:11:39.081-05:00
1775952699091874000,2.9628740234375,0.9763031005859375,-0.2236785888671875,-0.0084228515625,2026-04-11T19:11:39.091-05:00
1775952699101931000,2.972930908203125,0.978485107421875,-0.2222442626953125,-0.00518798828125,2026-04-11T19:11:39.101-05:00
1775952699111988000,2.982988037109375,0.9688873291015625,-0.22296142578125,-0.00177001953125,2026-04-11T19:11:39.111-05:00
1775952699122045200,2.993045166015625,0.96759033203125,-0.22454833984375,0.0002593994140625,2026-04-11T19:11:39.122-05:00
1775952699132102100,3.00310205078125,0.9679412841796875,-0.2216644287109375,0.0044097900390625,2026-04-11T19:11:39.132-05:00
1775952699142159000,3.0131591796875,0.9706573486328125,-0.215728759765625,0.0050201416015625,2026-04-11T19:11:39.142-05:00
1775952699152216000,3.023216064453125,0.974884033203125,-0.213226318359375,-0.0038909912109375,2026-04-11T19:11:39.152-05:00
1775952699162272000,3.03327197265625,0.97467041015625,-0.2123565673828125,-0.0046844482421875,2026-04-11T19:11:39.162-05:00
1775952699172329000,3.043328857421875,0.9685516357421875,-0.2109222412109375,-0.0078277587890625,2026-04-11T19:11:39.172-05:00
1775952699182386000,3.053385986328125,0.9595184326171875,-0.211822509765625,-0.01361083984375,2026-04-11T19:11:39.182-05:00
1775952699192443000,3.06344287109375,0.9523468017578125,-0.21527099609375,-0.0144805908203125,2026-04-11T19:11:39.192-05:00
1775952699202499800,3.073499755859375,0.9592437744140625,-0.211700439453125,-0.0092926025390625,2026-04-11T19:11:39.202-05:00
1775952699212556800,3.083556884765625,0.9669647216796875,-0.2101287841796875,-0.003570556640625,2026-04-11T19:11:39.212-05:00
1775952699222613800,3.09361376953125,0.973602294921875,-0.2129669189453125,0.0079803466796875,2026-04-11T19:11:39.222-05:00
1775952699232670000,3.103669921875,0.984039306640625,-0.2115325927734375,0.011474609375,2026-04-11T19:11:39.232-05:00
1775952699242727200,3.11372705078125,0.994964599609375,-0.2082366943359375,0.0070037841796875,2026-04-11T19:11:39.242-05:00
1775952699252784000,3.1237841796875,1.00634765625,-0.207183837890625,-0.0082244873046875,2026-04-11T19:11:39.252-05:00
1775952699262841000,3.133841064453125,1.0118408203125,-0.206085205078125,-0.0207672119140625,2026-04-11T19:11:39.262-05:00
1775952699272898000,3.14389794921875,1.008392333984375,-0.20758056640625,-0.02337646484375,2026-04-11T19:11:39.272-05:00
1775952699282955000,3.153955078125,0.998687744140625,-0.20965576171875,-0.018951416015625,2026-04-11T19:11:39.282-05:00
1775952699293012000,3.164011962890625,0.9874420166015625,-0.2069091796875,-0.00439453125,2026-04-11T19:11:39.293-05:00
1775952699303069000,3.17406884765625,0.98138427734375,-0.2090911865234375,0.001495361328125,2026-04-11T19:11:39.303-05:00
1775952699313124900,3.184124755859375,0.982818603515625,-0.2074432373046875,0.001190185546875,2026-04-11T19:11:39.313-05:00
1775952699323181800,3.194181884765625,0.989166259765625,-0.2093505859375,-0.000946044921875,2026-04-11T19:11:39.323-05:00
1775952699333238800,3.20423876953125,0.9944915771484375,-0.20928955078125,-0.0046539306640625,2026-04-11T19:11:39.333-05:00
1775952699343295700,3.214295654296875,0.9991455078125,-0.2121734619140625,-0.0082550048828125,2026-04-11T19:11:39.343-05:00
1775952699353353000,3.22435302734375,0.9970550537109375,-0.215972900390625,-0.010528564453125,2026-04-11T19:11:39.353-05:00
1775952699363410000,3.234409912109375,0.9828338623046875,-0.21783447265625,-0.0104827880859375,2026-04-11T19:11:39.363-05:00
1775952699373467100,3.244467041015625,0.9637603759765625,-0.2172393798828125,0.0152740478515625,2026-04-11T19:11:39.373-05:00
1775952699383523000,3.254523193359375,0.95172119140625,-0.2188873291015625,0.03558349609375,2026-04-11T19:11:39.383-05:00
1775952699393580000,3.264580078125,0.9529571533203125,-0.216796875,0.023681640625,2026-04-11T19:11:39.393-05:00
1775952699403637000,3.274636962890625,0.96588134765625,-0.212982177734375,0.00811767578125,2026-04-11T19:11:39.403-05:00
1775952699413694000,3.28469384765625,0.984649658203125,-0.205352783203125,0.0117950439453125,2026-04-11T19:11:39.413-05:00
1775952699423751000,3.2947509765625,0.999267578125,-0.2007904052734375,0.0372467041015625,2026-04-11T19:11:39.423-05:00
1775952699433808000,3.304807861328125,1.006683349609375,-0.20660400390625,0.02789306640625,2026-04-11T19:11:39.433-05:00
1775952699443864800,3.31486474609375,1.0179443359375,-0.2071380615234375,-0.0178070068359375,2026-04-11T19:11:39.443-05:00
1775952699453920800,3.324920654296875,1.0276641845703125,-0.195709228515625,-0.0186309814453125,2026-04-11T19:11:39.453-05:00
1775952699463978000,3.33497802734375,1.0497589111328125,-0.1456756591796875,-0.0188140869140625,2026-04-11T19:11:39.463-05:00
1775952699474035200,3.34503515625,1.067535400390625,-0.1351318359375,-0.068023681640625,2026-04-11T19:11:39.474-05:00
1775952699484092200,3.355092041015625,1.0448150634765625,-0.1558990478515625,-0.0685882568359375,2026-04-11T19:11:39.484-05:00
1775952699494149000,3.365149169921875,1.0042724609375,-0.1942138671875,0.036102294921875,2026-04-11T19:11:39.494-05:00
1775952699504206000,3.3752060546875,1.001953125,-0.2444610595703125,0.1558074951171875,2026-04-11T19:11:39.504-05:00
1775952699514263000,3.385262939453125,1.0035552978515625,-0.238372802734375,0.204345703125,2026-04-11T19:11:39.514-05:00
1775952699524319000,3.395319091796875,0.983367919921875,-0.2743377685546875,0.1205596923828125,2026-04-11T19:11:39.524-05:00
1775952699534376000,3.4053759765625,0.9787139892578125,-0.2639617919921875,0.0239715576171875,2026-04-11T19:11:39.534-05:00
1775952699544433000,3.415432861328125,0.97711181640625,-0.2529144287109375,0.030853271484375,2026-04-11T19:11:39.544-05:00
1775952699554489900,3.42548974609375,0.9533538818359375,-0.2174835205078125,0.0385284423828125,2026-04-11T19:11:39.554-05:00
1775952699564546800,3.435546875,0.96685791015625,-0.2158966064453125,-0.002410888671875,2026-04-11T19:11:39.564-05:00
1775952699574604000,3.44560400390625,0.938507080078125,-0.2431488037109375,0.0545654296875,2026-04-11T19:11:39.574-05:00
1775952699584661000,3.455660888671875,0.8331756591796875,-0.2885894775390625,0.18865966796875,2026-04-11T19:11:39.584-05:00
1775952699594717200,3.46571728515625,0.7588348388671875,-0.30072021484375,0.2141876220703125,2026-04-11T19:11:39.594-05:00
1775952699604774100,3.475774169921875,0.7802886962890625,-0.28466796875,0.1725921630859375,2026-04-11T19:11:39.604-05:00
1775952699614831000,3.4858310546875,0.8370513916015625,-0.2418060302734375,0.1566009521484375,2026-04-11T19:11:39.614-05:00
1775952699624888000,3.49588818359375,0.858917236328125,-0.1893310546875,0.1336517333984375,2026-04-11T19:11:39.624-05:00
1775952699634945000,3.505945068359375,0.7547149658203125,-0.183013916015625,0.09063720703125,2026-04-11T19:11:39.634-05:00
1775952699645002000,3.516001953125,0.8117523193359375,-0.120208740234375,0.059783935546875,2026-04-11T19:11:39.645-05:00
1775952699655059000,3.526058837890625,0.82318115234375,-0.1049346923828125,0.09661865234375,2026-04-11T19:11:39.655-05:00
1775952699665116000,3.536115966796875,0.799346923828125,-0.16949462890625,0.236663818359375,2026-04-11T19:11:39.665-05:00
1775952699675171800,3.546171875,0.843505859375,-0.1658782958984375,0.3263702392578125,2026-04-11T19:11:39.675-05:00
1775952699685228800,3.556228759765625,0.869293212890625,-0.1242828369140625,0.4383392333984375,2026-04-11T19:11:39.685-05:00
1775952699695286000,3.5662861328125,0.8044586181640625,-0.1185455322265625,0.6498260498046875,2026-04-11T19:11:39.695-05:00
1775952699705343000,3.576343017578125,0.79522705078125,-0.1395721435546875,0.6630706787109375,2026-04-11T19:11:39.705-05:00
1775952699715400000,3.58639990234375,0.790679931640625,-0.193603515625,0.877899169921875,2026-04-11T19:11:39.715-05:00
1775952699725457000,3.596456787109375,0.5526580810546875,-0.25286865234375,1.3791961669921875,2026-04-11T19:11:39.725-05:00
1775952699735513900,3.606513916015625,0.783111572265625,-0.269317626953125,1.285125732421875,2026-04-11T19:11:39.735-05:00
1775952699745570000,3.616570068359375,1.1019744873046875,-0.1712188720703125,0.6500396728515625,2026-04-11T19:11:39.745-05:00
1775952699755627000,3.626626953125,1.1973419189453125,-0.2322845458984375,0.3631439208984375,2026-04-11T19:11:39.755-05:00
1775952699765684000,3.63668408203125,1.052978515625,-0.270355224609375,0.28521728515625,2026-04-11T19:11:39.765-05:00
1775952699775741000,3.646740966796875,0.8041839599609375,-0.2402801513671875,0.3083953857421875,2026-04-11T19:11:39.775-05:00
1775952699785798000,3.6567978515625,0.565704345703125,-0.230560302734375,0.3168182373046875,2026-04-11T19:11:39.785-05:00
1775952699795855000,3.666855224609375,0.680694580078125,-0.18695068359375,0.27178955078125,2026-04-11T19:11:39.795-05:00
1775952699805912000,3.676912109375,0.8120574951171875,-0.1427459716796875,0.3836669921875,2026-04-11T19:11:39.805-05:00
1775952699815968000,3.686968017578125,0.9656982421875,-0.0931854248046875,0.5194091796875,2026-04-11T19:11:39.815-05:00
1775952699826025000,3.69702490234375,1.0557708740234375,-0.1016693115234375,0.6662139892578125,2026-04-11T19:11:39.826-05:00
1775952699836082000,3.70708203125,0.982940673828125,-0.146453857421875,0.8145294189453125,2026-04-11T19:11:39.836-05:00
1775952699846139000,3.717138916015625,0.82012939453125,-0.1394195556640625,0.9628143310546875,2026-04-11T19:11:39.846-05:00
1775952699856196000,3.727196044921875,0.68768310546875,-0.10784912109375,1.0248870849609375,2026-04-11T19:11:39.856-05:00
1775952699866253300,3.73725341796875,0.642303466796875,-0.089202880859375,0.818511962890625,2026-04-11T19:11:39.866-05:00
1775952699876310300,3.747310302734375,0.6009063720703125,-0.129608154296875,0.5447235107421875,2026-04-11T19:11:39.876-05:00
1775952699886366200,3.7573662109375,0.591217041015625,-0.2782135009765625,0.473419189453125,2026-04-11T19:11:39.886-05:00
1775952699896423200,3.767423095703125,0.4802703857421875,-0.2575836181640625,0.4941558837890625,2026-04-11T19:11:39.896-05:00
1775952699906480000,3.777480224609375,0.3307647705078125,-0.1211395263671875,0.5117645263671875,2026-04-11T19:11:39.906-05:00
1775952699916537000,3.787537109375,0.300018310546875,-0.00299072265625,0.4968414306640625,2026-04-11T19:11:39.916-05:00
1775952699926594000,3.797593994140625,0.4454345703125,-0.19940185546875,0.6108245849609375,2026-04-11T19:11:39.926-05:00
1775952699936651000,3.807651123046875,0.516204833984375,-0.377044677734375,0.9358673095703125,2026-04-11T19:11:39.936-05:00
1775952699946708000,3.8177080078125,0.5695648193359375,-0.2061614990234375,1.2722015380859375,2026-04-11T19:11:39.946-05:00
1775952699956764200,3.82776416015625,0.7012481689453125,0.0688018798828125,1.271240234375,2026-04-11T19:11:39.956-05:00
1775952699966821000,3.837821044921875,0.656524658203125,0.00830078125,1.3466033935546875,2026-04-11T19:11:39.966-05:00
1775952699976878300,3.84787841796875,0.5448760986328125,-0.2250213623046875,1.490447998046875,2026-04-11T19:11:39.976-05:00
1775952699986935300,3.857935302734375,0.529052734375,-0.3121490478515625,1.49493408203125,2026-04-11T19:11:39.986-05:00
1775952699996992300,3.8679921875,0.565826416015625,-0.31097412109375,1.3502960205078125,2026-04-11T19:11:39.996-05:00
1775952700007049200,3.87804931640625,0.597076416015625,-0.2974395751953125,1.224395751953125,2026-04-11T19:11:40.007-05:00
1775952700017106200,3.888106201171875,0.602813720703125,-0.3208465576171875,1.239959716796875,2026-04-11T19:11:40.017-05:00
1775952700027162000,3.898162109375,0.5807647705078125,-0.298919677734375,1.240509033203125,2026-04-11T19:11:40.027-05:00
1775952700037219000,3.908218994140625,0.5157012939453125,-0.232177734375,1.1985015869140625,2026-04-11T19:11:40.037-05:00
1775952700047276000,3.918276123046875,0.4559783935546875,-0.1939849853515625,1.1459503173828125,2026-04-11T19:11:40.047-05:00
1775952700057333000,3.9283330078125,0.4483795166015625,-0.1901702880859375,1.0660552978515625,2026-04-11T19:11:40.057-05:00
1775952700067390000,3.938389892578125,0.4779510498046875,-0.163177490234375,0.9974822998046875,2026-04-11T19:11:40.067-05:00
1775952700077447000,3.948447021484375,0.5205535888671875,-0.113067626953125,0.9996795654296875,2026-04-11T19:11:40.077-05:00
1775952700087504100,3.958504150390625,0.5225982666015625,-0.060333251953125,1.015380859375,2026-04-11T19:11:40.087-05:00
1775952700097561000,3.96856103515625,0.4668731689453125,-0.0077362060546875,1.0067596435546875,2026-04-11T19:11:40.097-05:00
1775952700107617300,3.9786171875,0.4223175048828125,0.036376953125,0.9369354248046875,2026-04-11T19:11:40.107-05:00
1775952700117674200,3.98867431640625,0.4202880859375,0.100067138671875,0.8099517822265625,2026-04-11T19:11:40.117-05:00
1775952700127731200,3.998731201171875,0.4676513671875,0.1493682861328125,0.71575927734375,2026-04-11T19:11:40.127-05:00
1775952700137788200,4.0087880859375,0.5061187744140625,0.19915771484375,0.65399169921875,2026-04-11T19:11:40.137-05:00
1775952700147845000,4.01884521484375,0.5269317626953125,0.2805328369140625,0.5924835205078125,2026-04-11T19:11:40.147-05:00
1775952700157902000,4.028902099609375,0.50701904296875,0.3107147216796875,0.571990966796875,2026-04-11T19:11:40.157-05:00
1775952700167959000,4.038958984375,0.43536376953125,0.310028076171875,0.5519561767578125,2026-04-11T19:11:40.167-05:00
1775952700178015000,4.049014892578125,0.3466033935546875,0.3351593017578125,0.5240631103515625,2026-04-11T19:11:40.178-05:00
1775952700188072000,4.059072021484375,0.298248291015625,0.33233642578125,0.55810546875,2026-04-11T19:11:40.188-05:00
1775952700198129000,4.06912890625,0.3427734375,0.33251953125,0.6502685546875,2026-04-11T19:11:40.198-05:00
1775952700208186000,4.07918603515625,0.448333740234375,0.3466033935546875,0.6682891845703125,2026-04-11T19:11:40.208-05:00
1775952700218243000,4.0892431640625,0.5396728515625,0.34515380859375,0.630157470703125,2026-04-11T19:11:40.218-05:00
1775952700228300000,4.099300048828125,0.6194915771484375,0.3604583740234375,0.5663299560546875,2026-04-11T19:11:40.228-05:00
1775952700238357000,4.10935693359375,0.6727752685546875,0.36614990234375,0.4993133544921875,2026-04-11T19:11:40.238-05:00
1775952700248413200,4.1194130859375,0.712432861328125,0.3226318359375,0.4619598388671875,2026-04-11T19:11:40.248-05:00
1775952700258470100,4.12947021484375,0.7745208740234375,0.247802734375,0.4744720458984375,2026-04-11T19:11:40.258-05:00
1775952700268527000,4.139527099609375,0.8373565673828125,0.19476318359375,0.4591522216796875,2026-04-11T19:11:40.268-05:00
1775952700278584000,4.149583984375,0.86163330078125,0.1849822998046875,0.421905517578125,2026-04-11T19:11:40.278-05:00
1775952700288641000,4.15964111328125,0.8324127197265625,0.0995025634765625,0.4037017822265625,2026-04-11T19:11:40.288-05:00
1775952700298698000,4.169697998046875,0.7013702392578125,-0.0047607421875,0.3760986328125,2026-04-11T19:11:40.298-05:00
1775952700308755200,4.179755126953125,0.5396270751953125,-0.046966552734375,0.2859039306640625,2026-04-11T19:11:40.308-05:00
1775952700318811000,4.189810791015625,0.46673583984375,-0.1409149169921875,0.1248779296875,2026-04-11T19:11:40.318-05:00
1775952700328868000,4.1998681640625,0.4519805908203125,-0.32342529296875,0.0218658447265625,2026-04-11T19:11:40.328-05:00
1775952700338925000,4.209925048828125,0.542022705078125,-0.50360107421875,-0.02471923828125,2026-04-11T19:11:40.338-05:00
1775952700348982300,4.219982177734375,0.6548614501953125,-0.554473876953125,-0.1301116943359375,2026-04-11T19:11:40.348-05:00
1775952700359039200,4.230039306640625,0.681396484375,-0.55352783203125,-0.316650390625,2026-04-11T19:11:40.359-05:00
1775952700369096200,4.24009619140625,0.6681060791015625,-0.558349609375,-0.5233001708984375,2026-04-11T19:11:40.369-05:00
1775952700379153200,4.250153076171875,0.6400909423828125,-0.54974365234375,-0.7027130126953125,2026-04-11T19:11:40.379-05:00
1775952700389209000,4.260208984375,0.6286163330078125,-0.4927215576171875,-0.8772735595703125,2026-04-11T19:11:40.389-05:00
1775952700399266000,4.27026611328125,0.663543701171875,-0.465057373046875,-1.007232666015625,2026-04-11T19:11:40.399-05:00
1775952700409323000,4.280322998046875,0.7766876220703125,-0.5142059326171875,-1.054412841796875,2026-04-11T19:11:40.409-05:00
1775952700419380000,4.2903798828125,0.8995208740234375,-0.5271759033203125,-1.065216064453125,2026-04-11T19:11:40.419-05:00
1775952700429437200,4.300437255859375,0.99053955078125,-0.54888916015625,-1.0454254150390625,2026-04-11T19:11:40.429-05:00
1775952700439494100,4.310494140625,1.0478668212890625,-0.560882568359375,-1.0091705322265625,2026-04-11T19:11:40.439-05:00
1775952700449551000,4.320551025390625,1.0969696044921875,-0.53704833984375,-0.9571990966796875,2026-04-11T19:11:40.449-05:00
1775952700459608000,4.330608154296875,1.1449127197265625,-0.48870849609375,-0.890777587890625,2026-04-11T19:11:40.459-05:00
1775952700469664300,4.340664306640625,1.1688690185546875,-0.45562744140625,-0.80584716796875,2026-04-11T19:11:40.469-05:00
1775952700479721200,4.35072119140625,1.1824951171875,-0.4276580810546875,-0.75579833984375,2026-04-11T19:11:40.479-05:00
1775952700489778200,4.360778076171875,1.2087554931640625,-0.4075775146484375,-0.7161712646484375,2026-04-11T19:11:40.489-05:00
1775952700499835100,4.370835205078125,1.21307373046875,-0.397064208984375,-0.6520233154296875,2026-04-11T19:11:40.499-05:00
1775952700509892000,4.38089208984375,1.1844329833984375,-0.408905029296875,-0.5718231201171875,2026-04-11T19:11:40.509-05:00
1775952700519949000,4.390948974609375,1.1178436279296875,-0.4490509033203125,-0.4873809814453125,2026-04-11T19:11:40.519-05:00
1775952700530006300,4.40100634765625,1.0300140380859375,-0.448944091796875,-0.43121337890625,2026-04-11T19:11:40.530-05:00
1775952700540062000,4.41106201171875,0.921844482421875,-0.4062042236328125,-0.319122314453125,2026-04-11T19:11:40.540-05:00
1775952700550119200,4.421119140625,0.817474365234375,-0.4062042236328125,-0.262298583984375,2026-04-11T19:11:40.550-05:00
1775952700560176000,4.431176025390625,0.7244415283203125,-0.463287353515625,-0.295654296875,2026-04-11T19:11:40.560-05:00
1775952700570233000,4.441233154296875,0.6855621337890625,-0.5045166015625,-0.32147216796875,2026-04-11T19:11:40.570-05:00
1775952700580290000,4.4512900390625,0.72052001953125,-0.47222900390625,-0.3430328369140625,2026-04-11T19:11:40.580-05:00
1775952700590347000,4.461346923828125,0.7541961669921875,-0.442901611328125,-0.3451385498046875,2026-04-11T19:11:40.590-05:00
1775952700600404000,4.471404052734375,0.7572479248046875,-0.41717529296875,-0.3521270751953125,2026-04-11T19:11:40.600-05:00
1775952700610460200,4.481460205078125,0.75213623046875,-0.37835693359375,-0.3715667724609375,2026-04-11T19:11:40.610-05:00
1775952700620517000,4.49151708984375,0.776641845703125,-0.30279541015625,-0.383880615234375,2026-04-11T19:11:40.620-05:00
1775952700630574000,4.501573974609375,0.890899658203125,-0.18548583984375,-0.35308837890625,2026-04-11T19:11:40.630-05:00
1775952700640631000,4.511631103515625,1.0448150634765625,-0.1290435791015625,-0.3590240478515625,2026-04-11T19:11:40.640-05:00
1775952700650688300,4.521688232421875,1.06097412109375,-0.1091156005859375,-0.47882080078125,2026-04-11T19:11:40.650-05:00
1775952700660745200,4.5317451171875,1.0295257568359375,-0.124755859375,-0.6077117919921875,2026-04-11T19:11:40.660-05:00
1775952700670802200,4.54180224609375,1.0019378662109375,-0.178863525390625,-0.7233734130859375,2026-04-11T19:11:40.670-05:00
1775952700680858000,4.551858154296875,0.9687347412109375,-0.2800140380859375,-0.794708251953125,2026-04-11T19:11:40.680-05:00
1775952700690915000,4.5619150390625,1.040252685546875,-0.3358917236328125,-0.8241119384765625,2026-04-11T19:11:40.690-05:00
1775952700700972000,4.571971923828125,1.2952728271484375,-0.3146820068359375,-0.8155059814453125,2026-04-11T19:11:40.700-05:00
1775952700711029000,4.582029052734375,1.5169525146484375,-0.20416259765625,-0.8500518798828125,2026-04-11T19:11:40.711-05:00
1775952700721086000,4.5920859375,1.6186370849609375,-0.116058349609375,-0.834564208984375,2026-04-11T19:11:40.721-05:00
1775952700731143200,4.60214306640625,1.6212310791015625,-0.0871429443359375,-0.7601318359375,2026-04-11T19:11:40.731-05:00
1775952700741200100,4.6122001953125,1.510894775390625,-0.052276611328125,-0.7223663330078125,2026-04-11T19:11:40.741-05:00
1775952700751257000,4.622257080078125,1.3397674560546875,0.0020294189453125,-0.6671600341796875,2026-04-11T19:11:40.751-05:00
1775952700761313000,4.63231298828125,1.1728973388671875,0.0396881103515625,-0.60113525390625,2026-04-11T19:11:40.761-05:00
1775952700771370200,4.642370361328125,1.0428009033203125,0.0684661865234375,-0.53497314453125,2026-04-11T19:11:40.771-05:00
1775952700781427200,4.65242724609375,0.9717864990234375,0.059661865234375,-0.4476776123046875,2026-04-11T19:11:40.781-05:00
1775952700791484200,4.662484130859375,1.0462188720703125,0.01617431640625,-0.39111328125,2026-04-11T19:11:40.791-05:00
1775952700801541000,4.672541015625,1.143768310546875,0.01025390625,-0.3958587646484375,2026-04-11T19:11:40.801-05:00
1775952700811598000,4.68259814453125,1.135833740234375,-0.05206298828125,-0.323211669921875,2026-04-11T19:11:40.811-05:00
1775952700821655000,4.692655029296875,1.0660400390625,-0.130462646484375,-0.19110107421875,2026-04-11T19:11:40.821-05:00
1775952700831712000,4.7027119140625,1.036407470703125,-0.1422882080078125,-0.1021881103515625,2026-04-11T19:11:40.831-05:00
1775952700841768200,4.712768310546875,1.06451416015625,-0.1336212158203125,-0.0173797607421875,2026-04-11T19:11:40.841-05:00
1775952700851825400,4.722825439453125,1.076873779296875,-0.1251220703125,0.059112548828125,2026-04-11T19:11:40.851-05:00
1775952700861882400,4.73288232421875,1.0087890625,-0.10467529296875,0.1401214599609375,2026-04-11T19:11:40.861-05:00
1775952700871939600,4.742939697265625,0.9192962646484375,-0.096832275390625,0.2725677490234375,2026-04-11T19:11:40.871-05:00
1775952700881996500,4.75299658203125,0.851348876953125,-0.0983428955078125,0.34661865234375,2026-04-11T19:11:40.881-05:00
1775952700892053500,4.763053466796875,0.7331695556640625,-0.1473541259765625,0.323516845703125,2026-04-11T19:11:40.892-05:00
1775952700902110500,4.7731103515625,0.6028289794921875,-0.171630859375,0.3222503662109375,2026-04-11T19:11:40.902-05:00
1775952700912166400,4.78316650390625,0.547119140625,-0.1909332275390625,0.323638916015625,2026-04-11T19:11:40.912-05:00
1775952700922223400,4.793223388671875,0.5218505859375,-0.1690521240234375,0.32000732421875,2026-04-11T19:11:40.922-05:00
1775952700932280300,4.8032802734375,0.488555908203125,-0.1106109619140625,0.3739013671875,2026-04-11T19:11:40.932-05:00
1775952700942337300,4.813337158203125,0.4721221923828125,-0.037322998046875,0.4073486328125,2026-04-11T19:11:40.942-05:00
1775952700952394200,4.823394287109375,0.46258544921875,0.04595947265625,0.467041015625,2026-04-11T19:11:40.952-05:00
1775952700962451200,4.833451171875,0.507171630859375,0.0622100830078125,0.4882965087890625,2026-04-11T19:11:40.962-05:00
1775952700972508200,4.843508056640625,0.4385986328125,0.100616455078125,0.3904876708984375,2026-04-11T19:11:40.972-05:00
1775952700982564400,4.853564453125,0.3585357666015625,0.1373443603515625,0.3211669921875,2026-04-11T19:11:40.982-05:00
1775952700992621600,4.86362158203125,0.2469329833984375,0.2102508544921875,0.2674407958984375,2026-04-11T19:11:40.992-05:00
1775952701002678500,4.873678466796875,0.042938232421875,0.31988525390625,0.24609375,2026-04-11T19:11:41.002-05:00
1775952701012735500,4.883735595703125,-0.0580902099609375,0.4032135009765625,0.441436767578125,2026-04-11T19:11:41.012-05:00
1775952701022792400,4.89379248046875,0.190216064453125,0.57012939453125,0.5830230712890625,2026-04-11T19:11:41.022-05:00
1775952701032849400,4.903849365234375,0.6233367919921875,0.728057861328125,0.535888671875,2026-04-11T19:11:41.032-05:00
1775952701042906400,4.91390625,0.969024658203125,0.7164459228515625,0.4892425537109375,2026-04-11T19:11:41.042-05:00
1775952701052963300,4.92396337890625,1.147064208984375,0.554718017578125,0.3262176513671875,2026-04-11T19:11:41.052-05:00
1775952701063019300,4.934019287109375,1.0994110107421875,0.3862152099609375,0.0930328369140625,2026-04-11T19:11:41.063-05:00
1775952701073076200,4.944076171875,0.9346771240234375,0.248626708984375,-0.075958251953125,2026-04-11T19:11:41.073-05:00
1775952701083133200,4.95413330078125,0.804412841796875,0.1948394775390625,-0.1583404541015625,2026-04-11T19:11:41.083-05:00
1775952701093190100,4.964190185546875,0.8461761474609375,0.228057861328125,-0.033355712890625,2026-04-11T19:11:41.093-05:00
1775952701103247400,4.974247314453125,1.058929443359375,0.375030517578125,-0.0267486572265625,2026-04-11T19:11:41.103-05:00
1775952701113304300,4.98430419921875,1.201995849609375,0.549652099609375,-0.0630645751953125,2026-04-11T19:11:41.113-05:00
1775952701123361300,4.994361328125,1.0875396728515625,0.6594390869140625,-0.0373382568359375,2026-04-11T19:11:41.123-05:00
1775952701133417500,5.00441748046875,0.860198974609375,0.6676025390625,-0.070220947265625,2026-04-11T19:11:41.133-05:00
1775952701143474400,5.014474365234375,0.736663818359375,0.6073150634765625,-0.18878173828125,2026-04-11T19:11:41.143-05:00
1775952701153531400,5.024531494140625,0.798797607421875,0.49468994140625,-0.371429443359375,2026-04-11T19:11:41.153-05:00
1775952701163588400,5.03458837890625,0.94183349609375,0.3516845703125,-0.4443359375,2026-04-11T19:11:41.163-05:00
1775952701173645300,5.044645263671875,1.0738372802734375,0.2874755859375,-0.524078369140625,2026-04-11T19:11:41.173-05:00
1775952701183702300,5.054702392578125,1.1065216064453125,0.20263671875,-0.7531890869140625,2026-04-11T19:11:41.183-05:00
1775952701193759200,5.06475927734375,1.152313232421875,0.2085723876953125,-1.0081329345703125,2026-04-11T19:11:41.193-05:00
1775952701203816400,5.07481640625,1.2438507080078125,0.3681640625,-1.1362762451171875,2026-04-11T19:11:41.203-05:00
1775952701213872000,5.0848720703125,1.167266845703125,0.4991607666015625,-1.1097564697265625,2026-04-11T19:11:41.213-05:00
1775952701223929300,5.094929443359375,0.972900390625,0.630340576171875,-0.9412078857421875,2026-04-11T19:11:41.223-05:00
1775952701233986300,5.104986328125,0.7034912109375,0.7696533203125,-0.872100830078125,2026-04-11T19:11:41.233-05:00
1775952701244043500,5.11504345703125,0.48577880859375,0.848663330078125,-0.82000732421875,2026-04-11T19:11:41.244-05:00
1775952701254100500,5.1251005859375,0.363525390625,0.76904296875,-0.8928680419921875,2026-04-11T19:11:41.254-05:00
1775952701264157400,5.135157470703125,0.361083984375,0.5644073486328125,-1.1028289794921875,2026-04-11T19:11:41.264-05:00
1775952701274214400,5.14521435546875,0.554901123046875,0.384735107421875,-1.308807373046875,2026-04-11T19:11:41.274-05:00
1775952701284271400,5.155271240234375,0.77728271484375,0.2782135009765625,-1.3818359375,2026-04-11T19:11:41.284-05:00
1775952701294327300,5.165327392578125,0.881988525390625,0.059967041015625,-1.6063385009765625,2026-04-11T19:11:41.294-05:00
1775952701304384300,5.17538427734375,1.527435302734375,-0.016387939453125,-1.54296875,2026-04-11T19:11:41.304-05:00
1775952701314441200,5.185441162109375,3.5938568115234375,0.7672882080078125,0.640411376953125,2026-04-11T19:11:41.314-05:00
1775952701324498400,5.19549853515625,3.89019775390625,2.3902435302734375,2.1160430908203125,2026-04-11T19:11:41.324-05:00
1775952701334555400,5.205555419921875,1.137298583984375,0.845977783203125,0.2712860107421875,2026-04-11T19:11:41.334-05:00
1775952701344612400,5.2156123046875,-0.072052001953125,-0.5872955322265625,-1.0832977294921875,2026-04-11T19:11:41.344-05:00
1775952701354669300,5.22566943359375,0.8234710693359375,0.5907745361328125,-1.0143890380859375,2026-04-11T19:11:41.354-05:00
1775952701364725500,5.2357255859375,0.71551513671875,0.4355316162109375,-0.971466064453125,2026-04-11T19:11:41.364-05:00
1775952701374782500,5.245782470703125,0.8370361328125,-0.0373077392578125,-1.08111572265625,2026-04-11T19:11:41.374-05:00
1775952701384839400,5.25583935546875,0.9714508056640625,-0.044708251953125,-0.730743408203125,2026-04-11T19:11:41.384-05:00
1775952701394896400,5.265896484375,1.1041259765625,-0.0582122802734375,-0.4374542236328125,2026-04-11T19:11:41.394-05:00
1775952701404953300,5.275953369140625,0.9048309326171875,-0.059783935546875,-0.206390380859375,2026-04-11T19:11:41.404-05:00
1775952701415010300,5.28601025390625,0.568450927734375,-0.0130462646484375,-0.2392120361328125,2026-04-11T19:11:41.415-05:00
1775952701425067300,5.2960673828125,0.4641571044921875,-0.087432861328125,-0.66412353515625,2026-04-11T19:11:41.425-05:00
1775952701435124500,5.30612451171875,0.430145263671875,-0.193572998046875,-0.8106842041015625,2026-04-11T19:11:41.435-05:00
1775952701445180400,5.316180419921875,0.541839599609375,-0.177093505859375,-0.7679595947265625,2026-04-11T19:11:41.445-05:00
1775952701455237400,5.3262373046875,0.6927337646484375,-0.09588623046875,-0.6280975341796875,2026-04-11T19:11:41.455-05:00
1775952701465294300,5.33629443359375,0.698211669921875,-0.2523651123046875,-0.620758056640625,2026-04-11T19:11:41.465-05:00
1775952701475351300,5.346351318359375,0.669769287109375,-0.2290802001953125,-0.667755126953125,2026-04-11T19:11:41.475-05:00
1775952701485408300,5.356408203125,0.631011962890625,-0.3002777099609375,-0.8308563232421875,2026-04-11T19:11:41.485-05:00
1775952701495465200,5.36646533203125,0.645050048828125,-0.34136962890625,-0.9336700439453125,2026-04-11T19:11:41.495-05:00
1775952701505522200,5.376522216796875,0.6443634033203125,-0.361175537109375,-0.9066619873046875,2026-04-11T19:11:41.505-05:00
1775952701515578400,5.386578369140625,0.5904541015625,-0.3436737060546875,-0.791839599609375,2026-04-11T19:11:41.515-05:00
1775952701525635300,5.39663525390625,0.5931243896484375,-0.4338531494140625,-0.9184417724609375,2026-04-11T19:11:41.525-05:00
1775952701535692300,5.4066923828125,0.498443603515625,-0.515380859375,-0.676513671875,2026-04-11T19:11:41.535-05:00
1775952701545749200,5.416749267578125,0.44244384765625,-0.6091766357421875,-0.4745941162109375,2026-04-11T19:11:41.545-05:00
1775952701555806500,5.426806396484375,0.632965087890625,-0.551055908203125,-0.4070892333984375,2026-04-11T19:11:41.555-05:00
1775952701565863400,5.436863525390625,0.7545013427734375,-0.5428466796875,-0.456634521484375,2026-04-11T19:11:41.565-05:00
1775952701575920400,5.44692041015625,0.5976409912109375,-0.99072265625,-0.316925048828125,2026-04-11T19:11:41.575-05:00
1775952701585977300,5.456977294921875,0.553466796875,-1.242584228515625,-0.11083984375,2026-04-11T19:11:41.585-05:00
1775952701596034300,5.467034423828125,0.776336669921875,-1.024200439453125,-0.259796142578125,2026-04-11T19:11:41.596-05:00
1775952701606090200,5.47709033203125,0.9069976806640625,-0.6304931640625,-0.679840087890625,2026-04-11T19:11:41.606-05:00
1775952701616147500,5.4871474609375,0.655792236328125,-0.4691619873046875,-0.8824920654296875,2026-04-11T19:11:41.616-05:00
1775952701626204400,5.497204345703125,0.5121307373046875,-0.5335540771484375,-0.8892364501953125,2026-04-11T19:11:41.626-05:00
1775952701636261400,5.507261474609375,0.7451171875,-0.3787994384765625,-0.8354644775390625,2026-04-11T19:11:41.636-05:00
1775952701646318300,5.517318359375,0.8274383544921875,-0.590972900390625,-0.73297119140625,2026-04-11T19:11:41.646-05:00
1775952701656375600,5.52737548828125,0.735076904296875,-0.625213623046875,-0.692535400390625,2026-04-11T19:11:41.656-05:00
1775952701666432500,5.5374326171875,0.582122802734375,-0.7849273681640625,-0.73504638671875,2026-04-11T19:11:41.666-05:00
1775952701676488400,5.547488525390625,0.3874053955078125,-0.828521728515625,-0.7129058837890625,2026-04-11T19:11:41.676-05:00
1775952701686545400,5.55754541015625,0.2855072021484375,-0.790740966796875,-0.7907562255859375,2026-04-11T19:11:41.686-05:00
1775952701696602400,5.567602294921875,0.32818603515625,-0.758880615234375,-0.76507568359375,2026-04-11T19:11:41.696-05:00
1775952701706659300,5.577659423828125,0.495208740234375,-0.678497314453125,-0.6073455810546875,2026-04-11T19:11:41.706-05:00
1775952701716716300,5.58771630859375,0.6382904052734375,-0.6728363037109375,-0.4328460693359375,2026-04-11T19:11:41.716-05:00
1775952701726773200,5.597773193359375,0.650299072265625,-0.6606597900390625,-0.319427490234375,2026-04-11T19:11:41.726-05:00
1775952701736830200,5.607830322265625,0.6556243896484375,-0.81024169921875,-0.46240234375,2026-04-11T19:11:41.736-05:00
1775952701746887200,5.61788720703125,0.5718536376953125,-0.9630584716796875,-1.0951995849609375,2026-04-11T19:11:41.746-05:00
1775952701756943400,5.627943359375,0.54168701171875,-0.8530731201171875,-0.57940673828125,2026-04-11T19:11:41.756-05:00
1775952701767000300,5.638000244140625,1.0570220947265625,-0.9250030517578125,-0.0550079345703125,2026-04-11T19:11:41.767-05:00
1775952701777057500,5.6480576171875,1.154876708984375,-1.0373687744140625,-0.1325836181640625,2026-04-11T19:11:41.777-05:00
1775952701787114500,5.658114501953125,0.964447021484375,-0.8884124755859375,-0.0372161865234375,2026-04-11T19:11:41.787-05:00
1775952701797171500,5.66817138671875,0.76165771484375,-0.8558349609375,-0.0157623291015625,2026-04-11T19:11:41.797-05:00
1775952701807228400,5.678228515625,0.7117767333984375,-0.8100738525390625,-0.1819915771484375,2026-04-11T19:11:41.807-05:00
1775952701817285400,5.688285400390625,0.591827392578125,-0.883941650390625,-0.303619384765625,2026-04-11T19:11:41.817-05:00
1775952701827342300,5.69834228515625,0.6058197021484375,-0.977386474609375,-0.4510498046875,2026-04-11T19:11:41.827-05:00
1775952701837398300,5.708398193359375,0.5504150390625,-0.78497314453125,-0.357757568359375,2026-04-11T19:11:41.837-05:00
1775952701847455200,5.718455322265625,0.4667816162109375,-0.6152191162109375,-0.2341156005859375,2026-04-11T19:11:41.847-05:00
1775952701857512000,5.728511962890625,0.2424468994140625,-0.39312744140625,-0.2464599609375,2026-04-11T19:11:41.857-05:00
1775952701867569000,5.73856884765625,0.3674163818359375,-0.2650909423828125,-0.112457275390625,2026-04-11T19:11:41.867-05:00
1775952701877626000,5.748626220703125,0.700927734375,-0.1882476806640625,0.0965576171875,2026-04-11T19:11:41.877-05:00
1775952701887683000,5.75868310546875,0.838165283203125,-0.143218994140625,0.2406463623046875,2026-04-11T19:11:41.887-05:00
1775952701897740000,5.768739990234375,0.98541259765625,-0.23834228515625,0.2222137451171875,2026-04-11T19:11:41.897-05:00
1775952701907797000,5.778796875,1.066253662109375,-0.3235015869140625,0.2441864013671875,2026-04-11T19:11:41.907-05:00
1775952701917853000,5.78885302734375,0.979278564453125,-0.3312225341796875,0.2966461181640625,2026-04-11T19:11:41.917-05:00
1775952701927910000,5.798909912109375,0.805511474609375,-0.3204803466796875,0.069305419921875,2026-04-11T19:11:41.927-05:00
1775952701937966800,5.808966796875,0.5168304443359375,-0.2550506591796875,-0.1517486572265625,2026-04-11T19:11:41.937-05:00
1775952701948024000,5.819024169921875,0.7768096923828125,-0.374298095703125,-0.1195220947265625,2026-04-11T19:11:41.948-05:00
1775952701958081000,5.8290810546875,0.8720550537109375,-0.6963043212890625,-0.1694488525390625,2026-04-11T19:11:41.958-05:00
1775952701968138000,5.839137939453125,0.5886077880859375,-0.576385498046875,-0.300628662109375,2026-04-11T19:11:41.968-05:00
1775952701978195000,5.84919482421875,0.554351806640625,-0.3567962646484375,-0.36407470703125,2026-04-11T19:11:41.978-05:00
1775952701988252000,5.859251953125,0.477203369140625,-0.1251983642578125,-0.0655059814453125,2026-04-11T19:11:41.988-05:00
1775952701998308000,5.86930810546875,0.5375213623046875,0.0033721923828125,0.1698760986328125,2026-04-11T19:11:41.998-05:00
1775952702008365000,5.879364990234375,0.804534912109375,-0.0213623046875,0.21875,2026-04-11T19:11:42.008-05:00
1775952702018422000,5.889422119140625,1.1479644775390625,-0.1792755126953125,0.189697265625,2026-04-11T19:11:42.018-05:00
1775952702028479000,5.89947900390625,1.313507080078125,-0.36090087890625,0.14361572265625,2026-04-11T19:11:42.028-05:00
1775952702038536000,5.909535888671875,1.1960906982421875,-0.31805419921875,0.2253875732421875,2026-04-11T19:11:42.038-05:00
1775952702048593200,5.91959326171875,1.051483154296875,-0.2271270751953125,0.059722900390625,2026-04-11T19:11:42.048-05:00
1775952702058650000,5.929650146484375,0.9234619140625,-0.3139495849609375,-0.1674957275390625,2026-04-11T19:11:42.058-05:00
1775952702068707000,5.93970703125,0.4966583251953125,-0.5120849609375,-0.3238677978515625,2026-04-11T19:11:42.068-05:00
1775952702078763000,5.949762939453125,0.4098358154296875,-0.6863555908203125,-0.1700592041015625,2026-04-11T19:11:42.078-05:00
1775952702088820000,5.959820068359375,1.028350830078125,-0.6804656982421875,-0.328460693359375,2026-04-11T19:11:42.088-05:00
1775952702098877000,5.969876953125,1.4406890869140625,-0.5468597412109375,-0.4868927001953125,2026-04-11T19:11:42.098-05:00
1775952702108934000,5.979933837890625,1.280120849609375,-0.480133056640625,-0.5066680908203125,2026-04-11T19:11:42.108-05:00
1775952702118990800,5.989990966796875,1.0272369384765625,-0.5803985595703125,-0.552764892578125,2026-04-11T19:11:42.118-05:00
1775952702129047800,6.0000478515625,0.5713043212890625,-0.8172454833984375,-0.809234619140625,2026-04-11T19:11:42.129-05:00
1775952702139104800,6.010104736328125,0.32171630859375,-0.828216552734375,-0.917633056640625,2026-04-11T19:11:42.139-05:00
1775952702149162000,6.020161865234375,0.6457672119140625,-0.916595458984375,-0.8470611572265625,2026-04-11T19:11:42.149-05:00
1775952702159218000,6.030218017578125,1.223876953125,-0.9554901123046875,-0.69287109375,2026-04-11T19:11:42.159-05:00
1775952702169275100,6.040275146484375,1.52197265625,-0.8661041259765625,-0.450836181640625,2026-04-11T19:11:42.169-05:00
1775952702179332000,6.05033203125,1.42657470703125,-0.8832550048828125,-0.25830078125,2026-04-11T19:11:42.179-05:00
1775952702189389000,6.06038916015625,1.2733306884765625,-0.7075958251953125,-0.3249664306640625,2026-04-11T19:11:42.189-05:00
1775952702199446000,6.070446044921875,0.3900604248046875,-0.62921142578125,-0.3817596435546875,2026-04-11T19:11:42.199-05:00
1775952702209503000,6.0805029296875,0.2144622802734375,-0.2425384521484375,-0.4910430908203125,2026-04-11T19:11:42.209-05:00
1775952702219560000,6.090559814453125,0.3658905029296875,0.0055999755859375,-0.75677490234375,2026-04-11T19:11:42.219-05:00
1775952702229617000,6.100616943359375,0.0469207763671875,-0.6910858154296875,-0.854766845703125,2026-04-11T19:11:42.229-05:00
1775952702239673900,6.110673828125,0.20654296875,-0.68572998046875,-0.6637115478515625,2026-04-11T19:11:42.239-05:00
1775952702249730000,6.12072998046875,0.234710693359375,-0.1792755126953125,-0.4124298095703125,2026-04-11T19:11:42.249-05:00
1775952702259787000,6.130787109375,0.260345458984375,-0.0108642578125,-0.0953216552734375,2026-04-11T19:11:42.259-05:00
1775952702269844000,6.140843994140625,0.5678253173828125,0.0537109375,0.14501953125,2026-04-11T19:11:42.269-05:00
1775952702279901200,6.150901123046875,0.8277740478515625,-0.1199493408203125,0.0322265625,2026-04-11T19:11:42.279-05:00
1775952702289958100,6.160958251953125,1.12908935546875,-0.4351806640625,-0.4856109619140625,2026-04-11T19:11:42.289-05:00
1775952702300015000,6.17101513671875,1.3661651611328125,-0.499114990234375,-0.64642333984375,2026-04-11T19:11:42.300-05:00
1775952702310072000,6.181072021484375,1.6277923583984375,-0.3278656005859375,-0.4583740234375,2026-04-11T19:11:42.310-05:00
1775952702320129000,6.19112890625,1.3874053955078125,-0.3311309814453125,-0.589080810546875,2026-04-11T19:11:42.320-05:00
1775952702330185000,6.20118505859375,1.075653076171875,-0.38861083984375,-0.679718017578125,2026-04-11T19:11:42.330-05:00
1775952702340242000,6.211241943359375,1.0336761474609375,-0.385589599609375,-0.7490997314453125,2026-04-11T19:11:42.340-05:00
1775952702350299000,6.221298828125,0.9113006591796875,-0.2823486328125,-0.681488037109375,2026-04-11T19:11:42.350-05:00
1775952702360355800,6.23135595703125,0.7478485107421875,-0.3596954345703125,-0.76470947265625,2026-04-11T19:11:42.360-05:00
1775952702370412800,6.241412841796875,0.588043212890625,-0.511962890625,-0.80694580078125,2026-04-11T19:11:42.370-05:00
1775952702380470000,6.251469970703125,0.5781402587890625,-1.04168701171875,-1.264739990234375,2026-04-11T19:11:42.380-05:00
1775952702390527000,6.26152685546875,1.064361572265625,-1.1079254150390625,-0.90863037109375,2026-04-11T19:11:42.390-05:00
1775952702400584000,6.271583984375,0.8518524169921875,-0.82373046875,-0.81805419921875,2026-04-11T19:11:42.400-05:00
1775952702410641000,6.281640869140625,0.3449249267578125,-0.8359832763671875,-0.3690032958984375,2026-04-11T19:11:42.410-05:00
1775952702420697000,6.291697021484375,0.141204833984375,-0.7610321044921875,-0.0539398193359375,2026-04-11T19:11:42.420-05:00
1775952702430754000,6.301754150390625,0.1934814453125,-0.530670166015625,-0.20538330078125,2026-04-11T19:11:42.430-05:00
1775952702440811000,6.31181103515625,0.34600830078125,-0.5473175048828125,-0.30511474609375,2026-04-11T19:11:42.440-05:00
1775952702450868000,6.321867919921875,0.2810821533203125,-0.55474853515625,-0.1666259765625,2026-04-11T19:11:42.450-05:00
1775952702460925000,6.331925048828125,0.01513671875,-0.4706268310546875,0.19378662109375,2026-04-11T19:11:42.460-05:00
1775952702470982000,6.34198193359375,-0.0240020751953125,-0.624359130859375,0.248138427734375,2026-04-11T19:11:42.470-05:00
1775952702481039000,6.3520390625,-0.0472259521484375,-0.804473876953125,0.085296630859375,2026-04-11T19:11:42.481-05:00
1775952702491096000,6.362095947265625,-0.176910400390625,-0.9839019775390625,-0.092254638671875,2026-04-11T19:11:42.491-05:00
1775952702501152000,6.372152099609375,-0.1887969970703125,-1.06182861328125,-0.14166259765625,2026-04-11T19:11:42.501-05:00
1775952702511209000,6.382208984375,0.0814208984375,-1.0990753173828125,-0.24365234375,2026-04-11T19:11:42.511-05:00
1775952702521266000,6.392265869140625,0.3103179931640625,-1.00347900390625,-0.37841796875,2026-04-11T19:11:42.521-05:00
1775952702531323000,6.402322998046875,0.3352813720703125,-1.1394500732421875,-0.568572998046875,2026-04-11T19:11:42.531-05:00
1775952702541380000,6.412380126953125,0.3065948486328125,-1.0878448486328125,-0.624176025390625,2026-04-11T19:11:42.541-05:00
1775952702551437000,6.42243701171875,0.34149169921875,-1.060760498046875,-0.876800537109375,2026-04-11T19:11:42.551-05:00
1775952702561494000,6.432493896484375,0.5016021728515625,-1.1256561279296875,-1.0799560546875,2026-04-11T19:11:42.561-05:00
1775952702571551000,6.442551025390625,-0.029144287109375,-0.713592529296875,-0.6201629638671875,2026-04-11T19:11:42.571-05:00
1775952702581607000,6.45260693359375,-0.545257568359375,-0.5467071533203125,-0.6274871826171875,2026-04-11T19:11:42.581-05:00
1775952702591663900,6.462663818359375,-0.6801605224609375,-0.578765869140625,-0.270477294921875,2026-04-11T19:11:42.591-05:00
1775952702601721000,6.47272119140625,-0.680999755859375,-0.4852752685546875,-0.06341552734375,2026-04-11T19:11:42.601-05:00
1775952702611778000,6.482778076171875,-0.6260223388671875,-0.309051513671875,-0.411285400390625,2026-04-11T19:11:42.611-05:00
1775952702621835000,6.4928349609375,-0.8125,-0.2358551025390625,-0.55145263671875,2026-04-11T19:11:42.621-05:00
1775952702631892000,6.50289208984375,-0.616729736328125,-0.4940643310546875,-0.392242431640625,2026-04-11T19:11:42.631-05:00
1775952702641949000,6.512948974609375,0.38873291015625,-0.6128692626953125,-0.4723663330078125,2026-04-11T19:11:42.641-05:00
1775952702652006000,6.523005859375,0.7290802001953125,-1.1850128173828125,-0.5435943603515625,2026-04-11T19:11:42.652-05:00
1775952702662062800,6.533062744140625,0.529510498046875,-1.308319091796875,-0.56756591796875,2026-04-11T19:11:42.662-05:00
1775952702672119000,6.543119140625,0.4029998779296875,-0.8240203857421875,-0.803741455078125,2026-04-11T19:11:42.672-05:00
1775952702682176000,6.553176025390625,0.2215118408203125,-0.331268310546875,-0.553131103515625,2026-04-11T19:11:42.682-05:00
1775952702692233000,6.56323291015625,0.0547332763671875,-0.07635498046875,-0.4863433837890625,2026-04-11T19:11:42.692-05:00
1775952702702290000,6.5732900390625,-0.3587646484375,0.0535430908203125,-0.5466156005859375,2026-04-11T19:11:42.702-05:00
1775952702712347100,6.58334716796875,-0.6949920654296875,-0.0020904541015625,-0.71966552734375,2026-04-11T19:11:42.712-05:00
1775952702722404000,6.593404052734375,-0.687652587890625,-0.11865234375,-1.106842041015625,2026-04-11T19:11:42.722-05:00
1775952702732461000,6.6034609375,-0.386962890625,-0.0030670166015625,-1.26397705078125,2026-04-11T19:11:42.732-05:00
1775952702742518000,6.61351806640625,-0.320281982421875,-0.21136474609375,-1.339630126953125,2026-04-11T19:11:42.742-05:00
1775952702752575000,6.623574951171875,-0.2001190185546875,-0.494781494140625,-1.2170867919921875,2026-04-11T19:11:42.752-05:00
1775952702762631000,6.633630859375,-0.2650299072265625,-0.4514617919921875,-1.164398193359375,2026-04-11T19:11:42.762-05:00
1775952702772688000,6.64368798828125,-0.3425750732421875,-0.3062896728515625,-0.805419921875,2026-04-11T19:11:42.772-05:00
1775952702782744800,6.653744873046875,-0.2242889404296875,-0.3109283447265625,-0.578948974609375,2026-04-11T19:11:42.782-05:00
1775952702792801800,6.6638017578125,-0.2113800048828125,-0.1721954345703125,-0.4451446533203125,2026-04-11T19:11:42.792-05:00
1775952702802859000,6.67385888671875,-0.1752166748046875,-0.105010986328125,-0.278839111328125,2026-04-11T19:11:42.802-05:00
1775952702812916000,6.683916015625,0.2198333740234375,0.0274658203125,0.00152587890625,2026-04-11T19:11:42.812-05:00
1775952702822973200,6.69397314453125,0.1833648681640625,0.1506805419921875,0.1899871826171875,2026-04-11T19:11:42.822-05:00
1775952702833030100,6.704030029296875,-0.109527587890625,0.4432373046875,0.10723876953125,2026-04-11T19:11:42.833-05:00
1775952702843087000,6.714087158203125,-0.3553009033203125,0.5879974365234375,-0.097320556640625,2026-04-11T19:11:42.843-05:00
1775952702853143000,6.72414306640625,-0.5405426025390625,0.420196533203125,-0.4158782958984375,2026-04-11T19:11:42.853-05:00
1775952702863200000,6.734199951171875,-0.48101806640625,0.30340576171875,-0.7023468017578125,2026-04-11T19:11:42.863-05:00
1775952702873257000,6.744257080078125,-0.165008544921875,0.3513031005859375,-0.742828369140625,2026-04-11T19:11:42.873-05:00
1775952702883314000,6.75431396484375,0.164825439453125,0.3624267578125,-0.8240966796875,2026-04-11T19:11:42.883-05:00
1775952702893371100,6.76437109375,0.353790283203125,0.3655853271484375,-0.98876953125,2026-04-11T19:11:42.893-05:00
1775952702903428000,6.774427978515625,0.370574951171875,0.276092529296875,-1.1999664306640625,2026-04-11T19:11:42.903-05:00
1775952702913485000,6.784485107421875,0.341796875,0.066314697265625,-1.391571044921875,2026-04-11T19:11:42.913-05:00
1775952702923542000,6.7945419921875,0.5556182861328125,-0.16876220703125,-1.451446533203125,2026-04-11T19:11:42.923-05:00
1775952702933599000,6.804598876953125,0.86297607421875,-0.0853424072265625,-1.4159088134765625,2026-04-11T19:11:42.933-05:00
1775952702943655200,6.8146552734375,0.9293975830078125,0.080810546875,-1.429290771484375,2026-04-11T19:11:42.943-05:00
1775952702953712000,6.824712158203125,0.783599853515625,0.076141357421875,-1.3731689453125,2026-04-11T19:11:42.953-05:00
1775952702963769000,6.83476904296875,0.5564727783203125,0.0039215087890625,-1.2431640625,2026-04-11T19:11:42.963-05:00
1775952702973826000,6.844825927734375,0.4651336669921875,0.0297698974609375,-1.3822479248046875,2026-04-11T19:11:42.973-05:00
1775952702983883000,6.854883056640625,0.0675811767578125,-0.0109710693359375,-1.5034942626953125,2026-04-11T19:11:42.983-05:00
1775952702993940200,6.864940185546875,-0.0870208740234375,0.0284881591796875,-1.569427490234375,2026-04-11T19:11:42.993-05:00
1775952703003997200,6.8749970703125,-0.1217193603515625,0.1344146728515625,-1.4947052001953125,2026-04-11T19:11:43.003-05:00
1775952703014054100,6.88505419921875,-0.12274169921875,0.3468475341796875,-1.12286376953125,2026-04-11T19:11:43.014-05:00
1775952703024110000,6.895110107421875,0.1655426025390625,0.51177978515625,-0.655426025390625,2026-04-11T19:11:43.024-05:00
1775952703034167000,6.9051669921875,0.603515625,0.418243408203125,-0.0247039794921875,2026-04-11T19:11:43.034-05:00
1775952703044224000,6.91522412109375,0.4712371826171875,0.471099853515625,-0.3810577392578125,2026-04-11T19:11:43.044-05:00
1775952703054281000,6.925281005859375,0.6995086669921875,0.6653289794921875,-0.5482940673828125,2026-04-11T19:11:43.054-05:00
1775952703064338000,6.935337890625,1.105499267578125,0.917266845703125,-0.560760498046875,2026-04-11T19:11:43.064-05:00
1775952703074395000,6.945394775390625,1.7314910888671875,1.11846923828125,-0.9156646728515625,2026-04-11T19:11:43.074-05:00
1775952703084451800,6.955451904296875,2.4185943603515625,1.1327972412109375,-1.1232147216796875,2026-04-11T19:11:43.084-05:00
1775952703094509000,6.965509033203125,2.4669342041015625,0.990997314453125,-1.309661865234375,2026-04-11T19:11:43.094-05:00
1775952703104566300,6.975566162109375,1.9492950439453125,0.75079345703125,-1.30499267578125,2026-04-11T19:11:43.104-05:00
1775952703114623200,6.985623291015625,1.421875,0.52294921875,-1.11712646484375,2026-04-11T19:11:43.114-05:00
1775952703124679200,6.99567919921875,0.97760009765625,0.3813934326171875,-0.87347412109375,2026-04-11T19:11:43.124-05:00
1775952703134736100,7.005736083984375,0.7378082275390625,0.3679656982421875,-0.6986541748046875,2026-04-11T19:11:43.134-05:00
1775952703144793000,7.01579296875,0.643341064453125,0.446990966796875,-0.585693359375,2026-04-11T19:11:43.144-05:00
1775952703154850000,7.02585009765625,0.5426483154296875,0.5323944091796875,-0.451995849609375,2026-04-11T19:11:43.154-05:00
1775952703164907000,7.035906982421875,0.4553985595703125,0.5809478759765625,-0.3956146240234375,2026-04-11T19:11:43.164-05:00
1775952703174964000,7.0459638671875,0.3696136474609375,0.6170806884765625,-0.4341888427734375,2026-04-11T19:11:43.174-05:00
1775952703185021000,7.05602099609375,0.267852783203125,0.685516357421875,-0.60821533203125,2026-04-11T19:11:43.185-05:00
1775952703195078000,7.066077880859375,0.411529541015625,0.740264892578125,-0.801727294921875,2026-04-11T19:11:43.195-05:00
1775952703205135000,7.076135009765625,0.4778900146484375,0.7830352783203125,-0.9412841796875,2026-04-11T19:11:43.205-05:00
1775952703215191300,7.08619140625,0.4577484130859375,0.841461181640625,-1.010589599609375,2026-04-11T19:11:43.215-05:00
1775952703225248300,7.096248291015625,0.4930572509765625,0.7930145263671875,-1.0198974609375,2026-04-11T19:11:43.225-05:00
1775952703235305200,7.10630517578125,0.55596923828125,0.73284912109375,-1.0189208984375,2026-04-11T19:11:43.235-05:00
1775952703245362200,7.116362060546875,0.5507965087890625,0.625030517578125,-1.0448760986328125,2026-04-11T19:11:43.245-05:00
1775952703255419100,7.126419189453125,0.527008056640625,0.52593994140625,-1.036376953125,2026-04-11T19:11:43.255-05:00
1775952703265476000,7.13647607421875,0.445556640625,0.4528350830078125,-0.98248291015625,2026-04-11T19:11:43.265-05:00
1775952703275533000,7.146532958984375,0.37408447265625,0.3921661376953125,-0.982147216796875,2026-04-11T19:11:43.275-05:00
1775952703285590000,7.156590087890625,0.349884033203125,0.3452301025390625,-0.9417724609375,2026-04-11T19:11:43.285-05:00
1775952703295647000,7.16664697265625,0.3874359130859375,0.3137054443359375,-0.902587890625,2026-04-11T19:11:43.295-05:00
1775952703305703000,7.176702880859375,0.424957275390625,0.305267333984375,-0.8352813720703125,2026-04-11T19:11:43.305-05:00
1775952703315759900,7.186759765625,0.4693756103515625,0.3192138671875,-0.7566070556640625,2026-04-11T19:11:43.315-05:00
1775952703325817000,7.196817138671875,0.5100250244140625,0.3445281982421875,-0.68365478515625,2026-04-11T19:11:43.325-05:00
1775952703335874000,7.2068740234375,0.5222015380859375,0.427947998046875,-0.5680389404296875,2026-04-11T19:11:43.335-05:00
1775952703345931000,7.216930908203125,0.5493621826171875,0.5554351806640625,-0.5288848876953125,2026-04-11T19:11:43.345-05:00
1775952703355988000,7.226988037109375,0.5957794189453125,0.67401123046875,-0.523773193359375,2026-04-11T19:11:43.355-05:00
1775952703366045000,7.237044921875,0.590087890625,0.72686767578125,-0.5293426513671875,2026-04-11T19:11:43.366-05:00
1775952703376102100,7.24710205078125,0.5587310791015625,0.772125244140625,-0.563995361328125,2026-04-11T19:11:43.376-05:00
1775952703386159000,7.2571591796875,0.4983062744140625,0.837005615234375,-0.6906585693359375,2026-04-11T19:11:43.386-05:00
1775952703396216000,7.267216064453125,0.4076690673828125,0.872711181640625,-0.7829132080078125,2026-04-11T19:11:43.396-05:00
1775952703406272000,7.27727197265625,0.2806396484375,0.91217041015625,-0.8686065673828125,2026-04-11T19:11:43.406-05:00
1775952703416329000,7.287328857421875,0.2090911865234375,0.8980712890625,-0.8529205322265625,2026-04-11T19:11:43.416-05:00
1775952703426386200,7.29738623046875,0.18646240234375,0.7591705322265625,-0.658538818359375,2026-04-11T19:11:43.426-05:00
1775952703436443100,7.307443115234375,0.137908935546875,0.653900146484375,-0.5550994873046875,2026-04-11T19:11:43.436-05:00
1775952703446500000,7.3175,0.1393280029296875,0.5761566162109375,-0.5703582763671875,2026-04-11T19:11:43.446-05:00
1775952703456557000,7.32755712890625,0.1710968017578125,0.503997802734375,-0.5782928466796875,2026-04-11T19:11:43.456-05:00
1775952703466614000,7.337614013671875,0.1906890869140625,0.475555419921875,-0.594818115234375,2026-04-11T19:11:43.466-05:00
1775952703476671000,7.3476708984375,0.240203857421875,0.5012359619140625,-0.6654052734375,2026-04-11T19:11:43.476-05:00
1775952703486728000,7.35772802734375,0.2927093505859375,0.5243377685546875,-0.7724761962890625,2026-04-11T19:11:43.486-05:00
1775952703496784100,7.3677841796875,0.257171630859375,0.522247314453125,-0.8587493896484375,2026-04-11T19:11:43.496-05:00
1775952703506841000,7.377841064453125,0.220855712890625,0.5340118408203125,-0.9124603271484375,2026-04-11T19:11:43.506-05:00
1775952703516898000,7.38789794921875,0.2072601318359375,0.5592498779296875,-0.9228363037109375,2026-04-11T19:11:43.516-05:00
1775952703526955300,7.397955322265625,0.2120208740234375,0.5427703857421875,-0.897308349609375,2026-04-11T19:11:43.526-05:00
1775952703537012200,7.40801220703125,0.2685699462890625,0.49957275390625,-0.867950439453125,2026-04-11T19:11:43.537-05:00
1775952703547069200,7.418069091796875,0.3355255126953125,0.4922027587890625,-0.8639068603515625,2026-04-11T19:11:43.547-05:00
1775952703557126100,7.428126220703125,0.42633056640625,0.514862060546875,-0.83331298828125,2026-04-11T19:11:43.557-05:00
1775952703567183000,7.43818310546875,0.484283447265625,0.586029052734375,-0.806732177734375,2026-04-11T19:11:43.567-05:00
1775952703577240000,7.448239990234375,0.5066070556640625,0.6646270751953125,-0.7993011474609375,2026-04-11T19:11:43.577-05:00
1775952703587297000,7.458297119140625,0.47467041015625,0.760894775390625,-0.8077850341796875,2026-04-11T19:11:43.587-05:00
1775952703597353000,7.46835302734375,0.39361572265625,0.8506011962890625,-0.8183135986328125,2026-04-11T19:11:43.597-05:00
1775952703607410000,7.478409912109375,0.3326263427734375,0.822418212890625,-0.738525390625,2026-04-11T19:11:43.607-05:00
1775952703617467000,7.488466796875,0.1762542724609375,0.705169677734375,-0.68157958984375,2026-04-11T19:11:43.617-05:00
1775952703627523800,7.49852392578125,-0.081146240234375,0.536590576171875,-0.652069091796875,2026-04-11T19:11:43.627-05:00
1775952703637581000,7.5085810546875,-0.0064697265625,0.2624969482421875,-0.603302001953125,2026-04-11T19:11:43.637-05:00
1775952703647638000,7.518637939453125,0.225067138671875,-0.02130126953125,-0.525726318359375,2026-04-11T19:11:43.647-05:00
1775952703657695200,7.5286953125,0.1357421875,-0.0458984375,-0.4976959228515625,2026-04-11T19:11:43.657-05:00
1775952703667752200,7.538752197265625,0.0277099609375,0.003570556640625,-0.5375823974609375,2026-04-11T19:11:43.667-05:00
1775952703677809200,7.54880908203125,0.1041412353515625,-0.023529052734375,-0.5634613037109375,2026-04-11T19:11:43.677-05:00
1775952703687865000,7.558864990234375,0.17742919921875,-0.0306854248046875,-0.60406494140625,2026-04-11T19:11:43.687-05:00
1775952703697922000,7.568922119140625,0.1964569091796875,-0.007110595703125,-0.70855712890625,2026-04-11T19:11:43.697-05:00
1775952703707979000,7.57897900390625,0.1217193603515625,0.23321533203125,-0.9051513671875,2026-04-11T19:11:43.707-05:00
1775952703718036000,7.589035888671875,-0.037750244140625,2.5214080810546875,-3.292633056640625,2026-04-11T19:11:43.718-05:00
1775952703728093000,7.599093017578125,0.5149688720703125,0.978607177734375,-1.4246978759765625,2026-04-11T19:11:43.728-05:00
1775952703738150100,7.609150146484375,0.19561767578125,1.8945159912109375,0.465484619140625,2026-04-11T19:11:43.738-05:00
1775952703748207000,7.61920703125,-0.21630859375,1.5342864990234375,-0.0377197265625,2026-04-11T19:11:43.748-05:00
1775952703758264000,7.62926416015625,-0.76885986328125,1.2894134521484375,-1.0527496337890625,2026-04-11T19:11:43.758-05:00
1775952703768321000,7.639321044921875,-0.472503662109375,2.0521240234375,-1.283782958984375,2026-04-11T19:11:43.768-05:00
1775952703778378000,7.6493779296875,-0.0524444580078125,1.6190948486328125,-0.774688720703125,2026-04-11T19:11:43.778-05:00
1775952703788434200,7.65943408203125,0.10772705078125,0.842742919921875,-0.06732177734375,2026-04-11T19:11:43.788-05:00
1775952703798491100,7.6694912109375,0.1520843505859375,0.5205230712890625,0.251251220703125,2026-04-11T19:11:43.798-05:00
1775952703808548000,7.679548095703125,0.0190887451171875,0.3192138671875,0.3560943603515625,2026-04-11T19:11:43.808-05:00
1775952703818605000,7.68960498046875,-0.20013427734375,0.258819580078125,0.3176422119140625,2026-04-11T19:11:43.818-05:00
1775952703828662000,7.699662109375,-0.3488311767578125,0.3749237060546875,0.21612548828125,2026-04-11T19:11:43.828-05:00
1775952703838719200,7.70971923828125,-0.5313568115234375,0.5595703125,0.0930633544921875,2026-04-11T19:11:43.838-05:00
1775952703848776200,7.719776123046875,-0.9109954833984375,0.7538299560546875,-0.0526580810546875,2026-04-11T19:11:43.848-05:00
1775952703858832400,7.729832275390625,-0.8683013916015625,0.9911041259765625,-0.40899658203125,2026-04-11T19:11:43.858-05:00
1775952703868889300,7.739889404296875,-0.8567657470703125,1.2379608154296875,-0.73321533203125,2026-04-11T19:11:43.868-05:00
1775952703878946300,7.7499462890625,-0.70904541015625,1.219329833984375,-0.8729705810546875,2026-04-11T19:11:43.878-05:00
1775952703889003300,7.760003173828125,-0.620025634765625,1.0201263427734375,-0.945526123046875,2026-04-11T19:11:43.889-05:00
1775952703899059500,7.7700595703125,-0.4993133544921875,0.76641845703125,-1.0791168212890625,2026-04-11T19:11:43.899-05:00
1775952703909116700,7.78011669921875,-0.298492431640625,0.6185455322265625,-1.2498626708984375,2026-04-11T19:11:43.909-05:00
1775952703919173600,7.790173583984375,-0.1418914794921875,0.5205078125,-1.189056396484375,2026-04-11T19:11:43.919-05:00
1775952703929230600,7.800230712890625,0.0950164794921875,0.40972900390625,-1.025970458984375,2026-04-11T19:11:43.929-05:00
1775952703939287600,7.81028759765625,0.4986572265625,0.3699798583984375,-0.9489898681640625,2026-04-11T19:11:43.939-05:00
1775952703949344500,7.820344482421875,0.785675048828125,0.36663818359375,-0.915679931640625,2026-04-11T19:11:43.949-05:00
1775952703959401500,7.8304013671875,0.9404144287109375,0.4216461181640625,-0.9660797119140625,2026-04-11T19:11:43.959-05:00
1775952703969458400,7.84045849609375,0.9480438232421875,0.5015106201171875,-0.9828033447265625,2026-04-11T19:11:43.969-05:00
1775952703979515400,7.850515380859375,0.82177734375,0.5577239990234375,-0.8661956787109375,2026-04-11T19:11:43.979-05:00
1775952703989572400,7.860572265625,0.6181182861328125,0.5949249267578125,-0.7078399658203125,2026-04-11T19:11:43.989-05:00
1775952703999628300,7.870628173828125,0.4382476806640625,0.6114349365234375,-0.6490631103515625,2026-04-11T19:11:43.999-05:00
1775952704009685200,7.880685302734375,0.2758636474609375,0.6123809814453125,-0.65948486328125,2026-04-11T19:11:44.009-05:00
1775952704019742500,7.890742431640625,0.10223388671875,0.610321044921875,-0.7051849365234375,2026-04-11T19:11:44.019-05:00
1775952704029799400,7.90079931640625,-0.0743255615234375,0.6705474853515625,-0.793182373046875,2026-04-11T19:11:44.029-05:00
1775952704039856400,7.9108564453125,-0.1856689453125,0.7350921630859375,-0.831787109375,2026-04-11T19:11:44.039-05:00
1775952704049913300,7.920913330078125,-0.2426300048828125,0.7715911865234375,-0.81658935546875,2026-04-11T19:11:44.049-05:00
1775952704059970300,7.93097021484375,-0.29425048828125,0.8132781982421875,-0.8061676025390625,2026-04-11T19:11:44.059-05:00
1775952704070027500,7.941027587890625,-0.293060302734375,0.8077850341796875,-0.7625732421875,2026-04-11T19:11:44.070-05:00
1775952704080084500,7.95108447265625,-0.285491943359375,0.7733154296875,-0.7089691162109375,2026-04-11T19:11:44.080-05:00
1775952704090141400,7.961141357421875,-0.2861785888671875,0.742095947265625,-0.6655120849609375,2026-04-11T19:11:44.090-05:00
1775952704100197400,7.971197265625,-0.2877960205078125,0.7199859619140625,-0.64239501953125,2026-04-11T19:11:44.100-05:00
1775952704110254300,7.98125439453125,-0.28985595703125,0.70220947265625,-0.61651611328125,2026-04-11T19:11:44.110-05:00
1775952704120311600,7.9913115234375,-0.302886962890625,0.6899566650390625,-0.5928497314453125,2026-04-11T19:11:44.120-05:00
1775952704130368500,8.001368408203126,-0.31732177734375,0.6921539306640625,-0.5917205810546875,2026-04-11T19:11:44.130-05:00
1775952704140425500,8.011425537109375,-0.316375732421875,0.696563720703125,-0.6078643798828125,2026-04-11T19:11:44.140-05:00
1775952704150482400,8.021482421875,-0.321319580078125,0.693115234375,-0.61517333984375,2026-04-11T19:11:44.150-05:00
1775952704160539400,8.031539306640624,-0.3253173828125,0.6830902099609375,-0.620758056640625,2026-04-11T19:11:44.160-05:00
1775952704170596400,8.041596435546875,-0.3104248046875,0.684234619140625,-0.63653564453125,2026-04-11T19:11:44.170-05:00
1775952704180653300,8.0516533203125,-0.27972412109375,0.685150146484375,-0.646209716796875,2026-04-11T19:11:44.180-05:00
1775952704190710300,8.061710205078125,-0.245635986328125,0.6751251220703125,-0.6467742919921875,2026-04-11T19:11:44.190-05:00
1775952704200766500,8.071766357421875,-0.2233123779296875,0.6722412109375,-0.6663360595703125,2026-04-11T19:11:44.200-05:00
1775952704210823400,8.081823486328124,-0.2075958251953125,0.6804962158203125,-0.6939849853515625,2026-04-11T19:11:44.210-05:00
1775952704220880400,8.09188037109375,-0.1946258544921875,0.6963043212890625,-0.7237701416015625,2026-04-11T19:11:44.220-05:00
1775952704230937600,8.1019375,-0.17535400390625,0.7082672119140625,-0.750457763671875,2026-04-11T19:11:44.230-05:00
1775952704240994600,8.11199462890625,-0.15362548828125,0.710723876953125,-0.769866943359375,2026-04-11T19:11:44.240-05:00
1775952704251051500,8.122051513671876,-0.126434326171875,0.70635986328125,-0.78271484375,2026-04-11T19:11:44.251-05:00
1775952704261108500,8.1321083984375,-0.0992584228515625,0.7013702392578125,-0.7940826416015625,2026-04-11T19:11:44.261-05:00
1775952704271165400,8.14216552734375,-0.063995361328125,0.6979827880859375,-0.800140380859375,2026-04-11T19:11:44.271-05:00
1775952704281222400,8.152222412109374,-0.019775390625,0.69622802734375,-0.7971954345703125,2026-04-11T19:11:44.281-05:00
1775952704291279400,8.162279296875,0.0244598388671875,0.69610595703125,-0.7802276611328125,2026-04-11T19:11:44.291-05:00
1775952704301336300,8.17233642578125,0.0614776611328125,0.6904144287109375,-0.7518157958984375,2026-04-11T19:11:44.301-05:00
1775952704311392300,8.182392333984374,0.09283447265625,0.6838226318359375,-0.7147369384765625,2026-04-11T19:11:44.311-05:00
1775952704321449200,8.19244921875,0.1108245849609375,0.677398681640625,-0.68115234375,2026-04-11T19:11:44.321-05:00
1775952704331506400,8.20250634765625,0.1064605712890625,0.67266845703125,-0.660491943359375,2026-04-11T19:11:44.331-05:00
1775952704341563400,8.2125634765625,0.0805816650390625,0.6720428466796875,-0.6578826904296875,2026-04-11T19:11:44.341-05:00
1775952704351620600,8.22262060546875,0.0424957275390625,0.675872802734375,-0.6724853515625,2026-04-11T19:11:44.351-05:00
1775952704361677600,8.232677490234375,-0.001007080078125,0.6798553466796875,-0.69525146484375,2026-04-11T19:11:44.361-05:00
1775952704371734500,8.242734619140625,-0.0426483154296875,0.6855621337890625,-0.7163848876953125,2026-04-11T19:11:44.371-05:00
1775952704381791500,8.25279150390625,-0.0849609375,0.6898345947265625,-0.7303466796875,2026-04-11T19:11:44.381-05:00
1775952704391848400,8.262848388671875,-0.1230621337890625,0.6888885498046875,-0.7299957275390625,2026-04-11T19:11:44.391-05:00
1775952704401905400,8.272905517578126,-0.15374755859375,0.6840057373046875,-0.7183837890625,2026-04-11T19:11:44.401-05:00
1775952704411961300,8.28296142578125,-0.18096923828125,0.6798095703125,-0.7023468017578125,2026-04-11T19:11:44.411-05:00
1775952704422018300,8.293018310546875,-0.20111083984375,0.67657470703125,-0.68310546875,2026-04-11T19:11:44.422-05:00
1775952704432075500,8.303075439453124,-0.21685791015625,0.6660614013671875,-0.665252685546875,2026-04-11T19:11:44.432-05:00
1775952704442132500,8.313132568359375,-0.22662353515625,0.658172607421875,-0.6634979248046875,2026-04-11T19:11:44.442-05:00
1775952704452189400,8.323189453125,-0.2279510498046875,0.6581878662109375,-0.67230224609375,2026-04-11T19:11:44.452-05:00
1775952704462246400,8.333246337890625,-0.2342681884765625,0.659149169921875,-0.6746673583984375,2026-04-11T19:11:44.462-05:00
1775952704472303400,8.343303466796876,-0.2408905029296875,0.6577301025390625,-0.6781463623046875,2026-04-11T19:11:44.472-05:00
1775952704482360300,8.3533603515625,-0.2306365966796875,0.6498565673828125,-0.672454833984375,2026-04-11T19:11:44.482-05:00
1775952704492417300,8.363417236328125,-0.2112274169921875,0.6473541259765625,-0.6720123291015625,2026-04-11T19:11:44.492-05:00
1775952704502474200,8.37347412109375,-0.189971923828125,0.6522216796875,-0.6714935302734375,2026-04-11T19:11:44.502-05:00
1775952704512531500,8.383531494140625,-0.1642303466796875,0.6492462158203125,-0.6793060302734375,2026-04-11T19:11:44.512-05:00
1775952704522587400,8.39358740234375,-0.139190673828125,0.63958740234375,-0.6848602294921875,2026-04-11T19:11:44.522-05:00
1775952704532644400,8.403644287109374,-0.1103057861328125,0.6288909912109375,-0.7007293701171875,2026-04-11T19:11:44.532-05:00
1775952704542701600,8.41370166015625,-0.07684326171875,0.624481201171875,-0.7216796875,2026-04-11T19:11:44.542-05:00
1775952704552758500,8.423758544921874,-0.0380706787109375,0.6278076171875,-0.7364501953125,2026-04-11T19:11:44.552-05:00
1775952704562815500,8.4338154296875,0.00341796875,0.6417083740234375,-0.758941650390625,2026-04-11T19:11:44.562-05:00
1775952704572872400,8.44387255859375,0.0337066650390625,0.6622467041015625,-0.78265380859375,2026-04-11T19:11:44.572-05:00
1775952704582929400,8.453929443359375,0.0503692626953125,0.6918792724609375,-0.797515869140625,2026-04-11T19:11:44.582-05:00
1775952704592986400,8.463986328125,0.0500640869140625,0.716339111328125,-0.79779052734375,2026-04-11T19:11:44.592-05:00
1775952704603043300,8.474043212890624,0.04351806640625,0.733795166015625,-0.79022216796875,2026-04-11T19:11:44.603-05:00
1775952704613100300,8.484100341796875,0.026824951171875,0.7461090087890625,-0.7621307373046875,2026-04-11T19:11:44.613-05:00
1775952704623157500,8.494157470703126,-0.0048370361328125,0.7504119873046875,-0.715423583984375,2026-04-11T19:11:44.623-05:00
1775952704633213400,8.50421337890625,-0.04290771484375,0.7393646240234375,-0.6805267333984375,2026-04-11T19:11:44.633-05:00
1775952704643270700,8.514270751953125,-0.0772857666015625,0.72796630859375,-0.6614990234375,2026-04-11T19:11:44.643-05:00
1775952704653327600,8.52432763671875,-0.107330322265625,0.7242279052734375,-0.6483001708984375,2026-04-11T19:11:44.653-05:00
1775952704663384600,8.534384521484375,-0.1330413818359375,0.7252960205078125,-0.6445159912109375,2026-04-11T19:11:44.663-05:00
1775952704673441500,8.544441650390626,-0.1587371826171875,0.7194366455078125,-0.6562347412109375,2026-04-11T19:11:44.673-05:00
1775952704683498500,8.55449853515625,-0.1828155517578125,0.7152862548828125,-0.6704864501953125,2026-04-11T19:11:44.683-05:00
1775952704693555500,8.564555419921875,-0.1972808837890625,0.700042724609375,-0.679351806640625,2026-04-11T19:11:44.693-05:00
1775952704703612400,8.5746123046875,-0.2033843994140625,0.67657470703125,-0.68426513671875,2026-04-11T19:11:44.703-05:00
1775952704713669400,8.58466943359375,-0.2085418701171875,0.6578826904296875,-0.6914825439453125,2026-04-11T19:11:44.713-05:00
1775952704723726300,8.594726318359376,-0.2164306640625,0.648223876953125,-0.6996917724609375,2026-04-11T19:11:44.723-05:00
1775952704733783600,8.604783447265625,-0.234283447265625,0.648284912109375,-0.7060394287109375,2026-04-11T19:11:44.733-05:00
1775952704743839500,8.614839599609375,-0.2595062255859375,0.6463623046875,-0.729644775390625,2026-04-11T19:11:44.743-05:00
1775952704753896400,8.624896484375,-0.2851104736328125,0.639129638671875,-0.759368896484375,2026-04-11T19:11:44.753-05:00
1775952704763953400,8.634953369140625,-0.296417236328125,0.623809814453125,-0.7899627685546875,2026-04-11T19:11:44.763-05:00
1775952704774010400,8.64501025390625,-0.28265380859375,0.623809814453125,-0.81982421875,2026-04-11T19:11:44.774-05:00
1775952704784067300,8.6550673828125,-0.19256591796875,0.6463165283203125,-0.771087646484375,2026-04-11T19:11:44.784-05:00
1775952704794124500,8.66512451171875,-0.1592254638671875,0.6518707275390625,-0.721343994140625,2026-04-11T19:11:44.794-05:00
1775952704804181500,8.675181396484374,-0.2071075439453125,0.670166015625,-0.7379150390625,2026-04-11T19:11:44.804-05:00
1775952704814238500,8.685238525390625,-0.1911163330078125,0.672637939453125,-0.732940673828125,2026-04-11T19:11:44.814-05:00
1775952704824295400,8.69529541015625,-0.17218017578125,0.658905029296875,-0.72943115234375,2026-04-11T19:11:44.824-05:00
1775952704834352600,8.7053525390625,-0.17498779296875,0.648712158203125,-0.7332763671875,2026-04-11T19:11:44.834-05:00
1775952704844409600,8.71540966796875,-0.1647796630859375,0.6515045166015625,-0.7322845458984375,2026-04-11T19:11:44.844-05:00
1775952704854466300,8.72546630859375,-0.158416748046875,0.6527862548828125,-0.7326202392578125,2026-04-11T19:11:44.854-05:00
1775952704864523300,8.735523193359375,-0.1552276611328125,0.6553955078125,-0.7325439453125,2026-04-11T19:11:44.864-05:00
1775952704874580200,8.745580322265624,-0.158203125,0.650848388671875,-0.731689453125,2026-04-11T19:11:44.874-05:00
1775952704884637200,8.75563720703125,-0.1638031005859375,0.6540679931640625,-0.732666015625,2026-04-11T19:11:44.884-05:00
1775952704894694100,8.765694091796876,-0.1708526611328125,0.6494598388671875,-0.7332305908203125,2026-04-11T19:11:44.894-05:00
1775952704904751000,8.775751220703125,-0.1794281005859375,0.64874267578125,-0.7316741943359375,2026-04-11T19:11:44.904-05:00
1775952704914808300,8.785808349609376,-0.18328857421875,0.6560516357421875,-0.7306060791015625,2026-04-11T19:11:44.914-05:00
1775952704924865300,8.795865234375,-0.1879730224609375,0.656402587890625,-0.7256317138671875,2026-04-11T19:11:44.924-05:00
1775952704934922200,8.805922119140625,-0.189910888671875,0.6604766845703125,-0.7234344482421875,2026-04-11T19:11:44.934-05:00
1775952704944979200,8.815979248046874,-0.1896514892578125,0.6627044677734375,-0.7231903076171875,2026-04-11T19:11:44.944-05:00
1775952704955036200,8.8260361328125,-0.18719482421875,0.664794921875,-0.72149658203125,2026-04-11T19:11:44.955-05:00
1775952704965093000,8.836093017578126,-0.188262939453125,0.6650390625,-0.7178192138671875,2026-04-11T19:11:44.965-05:00
1775952704975149300,8.8461494140625,-0.1869964599609375,0.6701507568359375,-0.7108001708984375,2026-04-11T19:11:44.975-05:00
1775952704985206300,8.856206298828125,-0.184661865234375,0.666168212890625,-0.710113525390625,2026-04-11T19:11:44.985-05:00
1775952704995263200,8.86626318359375,-0.17938232421875,0.66217041015625,-0.7150726318359375,2026-04-11T19:11:44.995-05:00
1775952705005320200,8.8763203125,-0.1738739013671875,0.6585540771484375,-0.7215118408203125,2026-04-11T19:11:45.005-05:00
1775952705015377400,8.88637744140625,-0.1699981689453125,0.6594085693359375,-0.730194091796875,2026-04-11T19:11:45.015-05:00
1775952705025434400,8.896434326171875,-0.16888427734375,0.647735595703125,-0.729217529296875,2026-04-11T19:11:45.025-05:00
1775952705035491300,8.9064912109375,-0.1709747314453125,0.654296875,-0.734283447265625,2026-04-11T19:11:45.035-05:00
1775952705045548300,8.91654833984375,-0.1741943359375,0.651031494140625,-0.734619140625,2026-04-11T19:11:45.045-05:00
1775952705055605200,8.926605224609375,-0.1746368408203125,0.6522216796875,-0.7344512939453125,2026-04-11T19:11:45.055-05:00
1775952705065662200,8.936662109375,-0.17437744140625,0.6544342041015625,-0.731353759765625,2026-04-11T19:11:45.065-05:00
1775952705075719200,8.94671923828125,-0.1684112548828125,0.6569366455078125,-0.7208709716796875,2026-04-11T19:11:45.075-05:00
1775952705085776100,8.956776123046875,-0.1602020263671875,0.661956787109375,-0.7140655517578125,2026-04-11T19:11:45.085-05:00
1775952705095832000,8.96683203125,-0.1502685546875,0.6661529541015625,-0.7095947265625,2026-04-11T19:11:45.095-05:00
1775952705105889000,8.976888916015625,-0.1391143798828125,0.6762847900390625,-0.7087554931640625,2026-04-11T19:11:45.105-05:00
1775952705115946200,8.9869462890625,-0.1351318359375,0.680755615234375,-0.7105712890625,2026-04-11T19:11:45.115-05:00
1775952705126003200,8.997003173828125,-0.13543701171875,0.681854248046875,-0.714447021484375,2026-04-11T19:11:45.126-05:00
1775952705136060400,9.007060302734375,-0.13775634765625,0.675811767578125,-0.7128448486328125,2026-04-11T19:11:45.136-05:00
1775952705146117400,9.017117431640624,-0.144683837890625,0.6757354736328125,-0.7152557373046875,2026-04-11T19:11:45.146-05:00
1775952705156174300,9.02717431640625,-0.1518096923828125,0.6758270263671875,-0.713958740234375,2026-04-11T19:11:45.156-05:00
1775952705166231300,9.037231201171876,-0.1600341796875,0.676483154296875,-0.712066650390625,2026-04-11T19:11:45.166-05:00
1775952705176288300,9.047288330078125,-0.1668548583984375,0.6787261962890625,-0.712615966796875,2026-04-11T19:11:45.176-05:00
1775952705186345200,9.05734521484375,-0.1705322265625,0.6763458251953125,-0.713592529296875,2026-04-11T19:11:45.186-05:00
1775952705196402200,9.067402099609374,-0.1776885986328125,0.6761016845703125,-0.711822509765625,2026-04-11T19:11:45.196-05:00
1775952705206459400,9.07745947265625,-0.179046630859375,0.674957275390625,-0.7137908935546875,2026-04-11T19:11:45.206-05:00
1775952705216515000,9.08751513671875,-0.1722869873046875,0.6786041259765625,-0.7123565673828125,2026-04-11T19:11:45.216-05:00
1775952705226572300,9.097572265625,-0.195220947265625,0.6717376708984375,-0.716033935546875,2026-04-11T19:11:45.226-05:00
1775952705236629200,9.107629150390625,-0.195404052734375,0.66583251953125,-0.7155609130859375,2026-04-11T19:11:45.236-05:00
1775952705246686200,9.117686279296874,-0.1930694580078125,0.6628265380859375,-0.723419189453125,2026-04-11T19:11:45.246-05:00
1775952705256743200,9.1277431640625,-0.1825408935546875,0.65863037109375,-0.7205810546875,2026-04-11T19:11:45.256-05:00
1775952705266800000,9.137800048828124,-0.1739044189453125,0.6493682861328125,-0.7270050048828125,2026-04-11T19:11:45.266-05:00
1775952705276857000,9.147857177734375,-0.165191650390625,0.638916015625,-0.737152099609375,2026-04-11T19:11:45.276-05:00
1775952705286914000,9.1579140625,-0.1716156005859375,0.6320037841796875,-0.7451019287109375,2026-04-11T19:11:45.286-05:00
1775952705296971000,9.167970947265625,-0.15625,0.6314849853515625,-0.7524566650390625,2026-04-11T19:11:45.296-05:00
1775952705307028200,9.1780283203125,-0.1598663330078125,0.6332550048828125,-0.756500244140625,2026-04-11T19:11:45.307-05:00
1775952705317085400,9.18808544921875,-0.15380859375,0.648162841796875,-0.7382354736328125,2026-04-11T19:11:45.317-05:00
1775952705327141400,9.198141357421875,-0.116668701171875,0.671112060546875,-0.7195281982421875,2026-04-11T19:11:45.327-05:00
1775952705337198300,9.2081982421875,-0.0610504150390625,0.6770782470703125,-0.723724365234375,2026-04-11T19:11:45.337-05:00
1775952705347255300,9.21825537109375,-0.0544281005859375,0.6641693115234375,-0.716064453125,2026-04-11T19:11:45.347-05:00
1775952705357312300,9.228312255859375,-0.1067962646484375,0.65289306640625,-0.7209625244140625,2026-04-11T19:11:45.357-05:00
1775952705367369200,9.238369140625,-0.1345977783203125,0.6545257568359375,-0.7410888671875,2026-04-11T19:11:45.367-05:00
1775952705377426200,9.24842626953125,-0.13555908203125,0.6484222412109375,-0.7503509521484375,2026-04-11T19:11:45.377-05:00
1775952705387483100,9.258483154296876,-0.117950439453125,0.6452789306640625,-0.7318878173828125,2026-04-11T19:11:45.387-05:00
1775952705397540000,9.2685400390625,-0.1132659912109375,0.6626739501953125,-0.727874755859375,2026-04-11T19:11:45.397-05:00
1775952705407597000,9.27859716796875,-0.1282958984375,0.669952392578125,-0.734588623046875,2026-04-11T19:11:45.407-05:00
1775952705417654300,9.288654296875,-0.142608642578125,0.6602630615234375,-0.727508544921875,2026-04-11T19:11:45.417-05:00
1775952705427711200,9.298711181640625,-0.1536102294921875,0.6650848388671875,-0.7261505126953125,2026-04-11T19:11:45.427-05:00
1775952705437768200,9.308768310546874,-0.1628875732421875,0.6733245849609375,-0.7254638671875,2026-04-11T19:11:45.437-05:00
1775952705447825200,9.3188251953125,-0.1735687255859375,0.6800079345703125,-0.718963623046875,2026-04-11T19:11:45.447-05:00
1775952705457881300,9.32888134765625,-0.171112060546875,0.680145263671875,-0.718048095703125,2026-04-11T19:11:45.457-05:00
1775952705467938300,9.338938232421874,-0.1694183349609375,0.680877685546875,-0.7130279541015625,2026-04-11T19:11:45.467-05:00
1775952705477995300,9.348995361328125,-0.1703643798828125,0.6793975830078125,-0.7068939208984375,2026-04-11T19:11:45.477-05:00
1775952705488052200,9.35905224609375,-0.1750946044921875,0.6763153076171875,-0.7004852294921875,2026-04-11T19:11:45.488-05:00
1775952705498109200,9.369109130859375,-0.173583984375,0.6732025146484375,-0.69366455078125,2026-04-11T19:11:45.498-05:00
1775952705508166100,9.379166259765626,-0.1641387939453125,0.6710357666015625,-0.69268798828125,2026-04-11T19:11:45.508-05:00
1775952705518223400,9.389223388671875,-0.1519775390625,0.6729278564453125,-0.7019195556640625,2026-04-11T19:11:45.518-05:00
1775952705528280300,9.3992802734375,-0.1525115966796875,0.670806884765625,-0.71063232421875,2026-04-11T19:11:45.528-05:00
1775952705538337300,9.409337158203124,-0.151031494140625,0.66815185546875,-0.7203521728515625,2026-04-11T19:11:45.538-05:00
1775952705548394200,9.419394287109375,-0.142333984375,0.66070556640625,-0.7271881103515625,2026-04-11T19:11:45.548-05:00
1775952705558451200,9.429451171875,-0.1297454833984375,0.6528167724609375,-0.7324676513671875,2026-04-11T19:11:45.558-05:00
1775952705568508200,9.439508056640625,-0.1245269775390625,0.65130615234375,-0.7397003173828125,2026-04-11T19:11:45.568-05:00
1775952705578564000,9.449564208984375,-0.1254119873046875,0.659942626953125,-0.73883056640625,2026-04-11T19:11:45.578-05:00
1775952705588621300,9.459621337890624,-0.1286468505859375,0.66986083984375,-0.734375,2026-04-11T19:11:45.588-05:00
1775952705598678300,9.46967822265625,-0.1240997314453125,0.6727447509765625,-0.7327728271484375,2026-04-11T19:11:45.598-05:00
1775952705608735200,9.4797353515625,-0.12457275390625,0.672393798828125,-0.7276458740234375,2026-04-11T19:11:45.608-05:00
1775952705618792400,9.48979248046875,-0.1265411376953125,0.671417236328125,-0.7238006591796875,2026-04-11T19:11:45.618-05:00
1775952705628849400,9.499849365234375,-0.1273193359375,0.6651611328125,-0.7215576171875,2026-04-11T19:11:45.628-05:00
1775952705638906400,9.50990625,-0.1238250732421875,0.661224365234375,-0.7171478271484375,2026-04-11T19:11:45.638-05:00
1775952705648963300,9.51996337890625,-0.1253509521484375,0.66015625,-0.715301513671875,2026-04-11T19:11:45.648-05:00
1775952705659020300,9.530020263671876,-0.1242218017578125,0.663116455078125,-0.7158966064453125,2026-04-11T19:11:45.659-05:00
1775952705669077200,9.5400771484375,-0.1300201416015625,0.6688995361328125,-0.7203369140625,2026-04-11T19:11:45.669-05:00
1775952705679134200,9.55013427734375,-0.1353759765625,0.6736907958984375,-0.7235260009765625,2026-04-11T19:11:45.679-05:00
1775952705689191200,9.560191162109374,-0.134185791015625,0.6747283935546875,-0.725006103515625,2026-04-11T19:11:45.689-05:00
1775952705699248000,9.570248046875,-0.1407470703125,0.674774169921875,-0.724700927734375,2026-04-11T19:11:45.699-05:00
1775952705709304000,9.580303955078126,-0.14556884765625,0.6744232177734375,-0.725799560546875,2026-04-11T19:11:45.709-05:00
1775952705719361000,9.590361083984375,-0.1453704833984375,0.672149658203125,-0.721771240234375,2026-04-11T19:11:45.719-05:00
1775952705729418200,9.600418212890625,-0.1468658447265625,0.6705780029296875,-0.7209930419921875,2026-04-11T19:11:45.729-05:00
1775952705739475200,9.61047509765625,-0.1430816650390625,0.6676788330078125,-0.724395751953125,2026-04-11T19:11:45.739-05:00
1775952705749532200,9.6205322265625,-0.141510009765625,0.6665496826171875,-0.7236328125,2026-04-11T19:11:45.749-05:00
1775952705759589000,9.630589111328124,-0.1376495361328125,0.6688690185546875,-0.7213287353515625,2026-04-11T19:11:45.759-05:00
1775952705769646300,9.640646240234375,-0.13409423828125,0.672027587890625,-0.716522216796875,2026-04-11T19:11:45.769-05:00
1775952705779703300,9.650703369140626,-0.1320343017578125,0.6728515625,-0.71112060546875,2026-04-11T19:11:45.779-05:00
1775952705789760300,9.66076025390625,-0.13092041015625,0.6744537353515625,-0.7099761962890625,2026-04-11T19:11:45.789-05:00
1775952705799817200,9.670817138671875,-0.1323089599609375,0.6725006103515625,-0.7142333984375,2026-04-11T19:11:45.799-05:00
1775952705809874400,9.68087451171875,-0.1356048583984375,0.6688690185546875,-0.7183380126953125,2026-04-11T19:11:45.809-05:00
1775952705819931400,9.690931396484375,-0.1389312744140625,0.6641387939453125,-0.7210540771484375,2026-04-11T19:11:45.819-05:00
1775952705829988400,9.70098828125,-0.145721435546875,0.665069580078125,-0.72393798828125,2026-04-11T19:11:45.829-05:00
1775952705840044300,9.711044189453125,-0.1455841064453125,0.6656951904296875,-0.7276611328125,2026-04-11T19:11:45.840-05:00
1775952705850101200,9.721101318359375,-0.147186279296875,0.6650848388671875,-0.72869873046875,2026-04-11T19:11:45.850-05:00
1775952705860158200,9.731158203125,-0.1461181640625,0.66497802734375,-0.72650146484375,2026-04-11T19:11:45.860-05:00
1775952705870215400,9.74121533203125,-0.1415863037109375,0.6671905517578125,-0.724884033203125,2026-04-11T19:11:45.870-05:00
1775952705880272400,9.7512724609375,-0.137664794921875,0.6683197021484375,-0.7226104736328125,2026-04-11T19:11:45.880-05:00
1775952705890329300,9.761329345703125,-0.131591796875,0.671173095703125,-0.7255401611328125,2026-04-11T19:11:45.890-05:00
1775952705900386300,9.77138623046875,-0.1295166015625,0.67169189453125,-0.724517822265625,2026-04-11T19:11:45.900-05:00
1775952705910443300,9.781443359375,-0.128936767578125,0.6695556640625,-0.7247314453125,2026-04-11T19:11:45.910-05:00
1775952705920500200,9.791500244140625,-0.1324005126953125,0.6678619384765625,-0.7215728759765625,2026-04-11T19:11:45.920-05:00
1775952705930557200,9.80155712890625,-0.1371002197265625,0.667449951171875,-0.725250244140625,2026-04-11T19:11:45.930-05:00
1775952705940614400,9.811614501953125,-0.1457366943359375,0.6633758544921875,-0.728057861328125,2026-04-11T19:11:45.940-05:00
1775952705950671400,9.82167138671875,-0.149749755859375,0.660552978515625,-0.731658935546875,2026-04-11T19:11:45.950-05:00
1775952705960728600,9.831728515625,-0.1540069580078125,0.6603851318359375,-0.7308349609375,2026-04-11T19:11:45.960-05:00
1775952705970784300,9.8417841796875,-0.1564178466796875,0.6591339111328125,-0.7320098876953125,2026-04-11T19:11:45.970-05:00
1775952705980841500,9.851841552734374,-0.155792236328125,0.6595916748046875,-0.7289581298828125,2026-04-11T19:11:45.980-05:00
1775952705990898400,9.8618984375,-0.1489715576171875,0.658203125,-0.7217864990234375,2026-04-11T19:11:45.990-05:00
1775952706000955400,9.871955322265626,-0.1430816650390625,0.655120849609375,-0.721832275390625,2026-04-11T19:11:46.000-05:00
1775952706011012400,9.882012451171875,-0.1308135986328125,0.6530303955078125,-0.725128173828125,2026-04-11T19:11:46.011-05:00
1775952706021069300,9.8920693359375,-0.1260986328125,0.6564483642578125,-0.7324981689453125,2026-04-11T19:11:46.021-05:00
