time,seconds_elapsed,z,y,x,local_time
1775952696221889500,0.0928896484375,9.58980523840785,-1.7933590425267814,-0.9949355320278555,2026-04-11T19:11:36.221-05:00
1775952696231945200,0.1029453125,9.588640870803594,-1.830159225527197,-0.9374973424073308,2026-04-11T19:11:36.231-05:00
1775952696242002400,0.11300244140625,9.588972879236936,-1.8655773065194488,-0.8611882289044559,2026-04-11T19:11:36.242-05:00
1775952696252059400,0.123059326171875,9.590205051380396,-1.8995617014467716,-0.7681460072655231,2026-04-11T19:11:36.252-05:00
1775952696262116600,0.13311669921875,9.591008768978714,-1.9342310098983346,-0.6646119099676608,2026-04-11T19:11:36.262-05:00
1775952696272173600,0.143173583984375,9.590565116864441,-1.9670650657467543,-0.5675968026423827,2026-04-11T19:11:36.272-05:00
1775952696282230500,0.15323046875,9.58954337260127,-1.991803931814432,-0.4937421330869198,2026-04-11T19:11:36.282-05:00
1775952696292287500,0.16328759765625,9.588620412537455,-2.0073354090757665,-0.44650275446288284,2026-04-11T19:11:36.292-05:00
1775952696302344400,0.173344482421875,9.588438041707873,-2.0133022085256873,-0.42289077353328464,2026-04-11T19:11:36.302-05:00
1775952696312401400,0.1834013671875,9.589434651529789,-2.010483790104091,-0.4135730196876451,2026-04-11T19:11:36.312-05:00
1775952696322458600,0.193458740234375,9.591499182844162,-2.0008153596572575,-0.412664270812273,2026-04-11T19:11:36.322-05:00
1775952696332515600,0.203515625,9.594009119838475,-1.988977622347325,-0.4114795910723507,2026-04-11T19:11:36.332-05:00
1775952696342572500,0.213572509765625,9.595981881216169,-1.9806098992355168,-0.40586606203950937,2026-04-11T19:11:36.342-05:00
1775952696352629500,0.22362939453125,9.596148469954729,-1.9817944328449666,-0.39597441729605193,2026-04-11T19:11:36.352-05:00
1775952696362686500,0.2336865234375,9.593911504682898,-1.9958708889923988,-0.37922264099214226,2026-04-11T19:11:36.362-05:00
1775952696372743400,0.243743408203125,9.589466215711832,-2.021654149546474,-0.3542631544437259,2026-04-11T19:11:36.372-05:00
1775952696382800400,0.25380029296875,9.583685294222832,-2.0537590143375097,-0.3247941545816138,2026-04-11T19:11:36.382-05:00
1775952696392857300,0.263857421875,9.577502221673727,-2.0868634115599094,-0.2947070593537763,2026-04-11T19:11:36.392-05:00
1775952696402914300,0.273914306640625,9.57115256038606,-2.119622648606449,-0.2657943416675553,2026-04-11T19:11:36.402-05:00
1775952696412970200,0.28397021484375,9.564470306143164,-2.15245012858361,-0.24144772632047531,2026-04-11T19:11:36.412-05:00
1775952696423027500,0.29402734375,9.558571895754337,-2.179876334039122,-0.22850409186156465,2026-04-11T19:11:36.423-05:00
1775952696433084400,0.30408447265625,9.554411853465437,-2.198531934670359,-0.22375704346494749,2026-04-11T19:11:36.433-05:00
1775952696443141600,0.3141416015625,9.551986087623238,-2.2097953792236744,-0.21626277871942146,2026-04-11T19:11:36.443-05:00
1775952696453198600,0.324198486328125,9.550235444563627,-2.218617860365659,-0.2028479830848053,2026-04-11T19:11:36.453-05:00
1775952696463255600,0.334255615234375,9.548424011227487,-2.2276140906393525,-0.18903512804331257,2026-04-11T19:11:36.463-05:00
1775952696473312500,0.3443125,9.546550618571043,-2.2364405173040924,-0.1790090067326091,2026-04-11T19:11:36.473-05:00
1775952696483369500,0.354369384765625,9.544827448040246,-2.244344860687852,-0.17198909976687282,2026-04-11T19:11:36.483-05:00
1775952696493426400,0.364426513671875,9.54314285595417,-2.2518913305446504,-0.16688799550188704,2026-04-11T19:11:36.493-05:00
1775952696503483400,0.3744833984375,9.540957913130521,-2.2614809966668483,-0.16186592955617232,2026-04-11T19:11:36.503-05:00
1775952696513540600,0.38454052734375,9.537699788117408,-2.2756994916334747,-0.15456866695377974,2026-04-11T19:11:36.513-05:00
1775952696523597600,0.39459765625,9.533340423864125,-2.2944376559816297,-0.14636123983706348,2026-04-11T19:11:36.523-05:00
1775952696533654500,0.404654541015625,9.528851880273223,-2.3132827878355977,-0.141902086737426,2026-04-11T19:11:36.533-05:00
1775952696543711500,0.41471142578125,9.525458146181702,-2.3272993304893372,-0.1404540433535818,2026-04-11T19:11:36.543-05:00
1775952696553768400,0.4247685546875,9.523654311630128,-2.3345748744502663,-0.14202239778200162,2026-04-11T19:11:36.553-05:00
1775952696563825400,0.434825439453125,9.522951131796836,-2.337156415376067,-0.14654288001428356,2026-04-11T19:11:36.563-05:00
1775952696573881300,0.44488134765625,9.522779282361268,-2.33756572682932,-0.1511864954358898,2026-04-11T19:11:36.573-05:00
1775952696583938300,0.454938232421875,9.522773437142371,-2.337450283756107,-0.15326425155801698,2026-04-11T19:11:36.583-05:00
1775952696593995300,0.464995361328125,9.523121812188625,-2.3359400253236293,-0.15471808536183088,2026-04-11T19:11:36.593-05:00
1775952696604052500,0.475052490234375,9.524144140973686,-2.331472086129337,-0.15916280807731673,2026-04-11T19:11:36.604-05:00
1775952696614109400,0.485109375,9.525925179171562,-2.323642269286513,-0.16696135299904272,2026-04-11T19:11:36.614-05:00
1775952696624166700,0.495166748046875,9.528414073377848,-2.3125847225688396,-0.1780003046141006,2026-04-11T19:11:36.624-05:00
1775952696634223600,0.5052236328125,9.531071309888363,-2.3002643163084984,-0.1946540273710154,2026-04-11T19:11:36.634-05:00
1775952696644280600,0.515280517578125,9.533386016571521,-2.288881044767797,-0.2144248592351563,2026-04-11T19:11:36.644-05:00
1775952696654337500,0.525337646484375,9.535167054769396,-2.2800541797116396,-0.2287727344688028,2026-04-11T19:11:36.654-05:00
1775952696664394500,0.53539453125,9.536412670916318,-2.274562158166617,-0.2315826955893077,2026-04-11T19:11:36.664-05:00
1775952696674451500,0.545451416015625,9.537581130173802,-2.2703313887290655,-0.2248133658511564,2026-04-11T19:11:36.674-05:00
1775952696684508400,0.55550830078125,9.538864740243554,-2.2659946746990083,-0.21384156118817627,2026-04-11T19:11:36.684-05:00
1775952696694565400,0.5655654296875,9.540021509063243,-2.2621359534442425,-0.20283053875965995,2026-04-11T19:11:36.694-05:00
1775952696704622600,0.57562255859375,9.54099941418469,-2.258827413418144,-0.19345590362763032,2026-04-11T19:11:36.704-05:00
1775952696714679600,0.585679443359375,9.54219125431776,-2.2543578667886552,-0.18669417267404495,2026-04-11T19:11:36.714-05:00
1775952696724735500,0.595735595703125,9.54364612930119,-2.2484176630847155,-0.18397344247326253,2026-04-11T19:11:36.724-05:00
1775952696734792400,0.60579248046875,9.545029108092189,-2.2424198839746414,-0.18544775280952452,2026-04-11T19:11:36.734-05:00
1775952696744849400,0.615849365234375,9.546165418645739,-2.237292896349728,-0.18870704686641693,2026-04-11T19:11:36.744-05:00
1775952696754906400,0.62590625,9.547147999942302,-2.2328407392464578,-0.19186962081687522,2026-04-11T19:11:36.754-05:00
1775952696764963300,0.63596337890625,9.54793651997149,-2.229410764797777,-0.19254286216963082,2026-04-11T19:11:36.764-05:00
1775952696775020300,0.646020263671875,9.548716272172332,-2.2261473790876565,-0.19151059651244431,2026-04-11T19:11:36.775-05:00
1775952696785077500,0.656077392578125,9.549760228267312,-2.221879346379638,-0.18908961644321678,2026-04-11T19:11:36.785-05:00
1775952696795134500,0.666134521484375,9.551351881372929,-2.215185109438002,-0.1871156494891271,2026-04-11T19:11:36.795-05:00
1775952696805191400,0.67619140625,9.553398877030611,-2.2064165504403412,-0.18621020681569353,2026-04-11T19:11:36.805-05:00
1775952696815248600,0.68624853515625,9.555475683304667,-2.197507267797738,-0.18514873333033174,2026-04-11T19:11:36.815-05:00
1775952696825305600,0.6963056640625,9.557098316070437,-2.1905565718770026,-0.1836966165595688,2026-04-11T19:11:36.825-05:00
1775952696835362600,0.706362548828125,9.558108954417705,-2.1862365167208013,-0.18266309052705765,2026-04-11T19:11:36.835-05:00
1775952696845419500,0.71641943359375,9.558625671768189,-2.183982161922753,-0.18255762085858732,2026-04-11T19:11:36.845-05:00
1775952696855475500,0.726475341796875,9.558705751267075,-2.183743092469871,-0.18123249146835876,2026-04-11T19:11:36.855-05:00
1775952696865532400,0.736532470703125,9.558539747050403,-2.184792601522803,-0.177256701438874,2026-04-11T19:11:36.865-05:00
1775952696875589400,0.74658935546875,9.558500584083795,-2.185314141178876,-0.1729196403489448,2026-04-11T19:11:36.875-05:00
1775952696885646300,0.756646240234375,9.558669510909914,-2.1846198753044006,-0.17233170265946537,2026-04-11T19:11:36.885-05:00
1775952696895703300,0.766703369140625,9.558848374608159,-2.1834501008726654,-0.17716376245841384,2026-04-11T19:11:36.895-05:00
1775952696905760300,0.77676025390625,9.559061140576004,-2.181784944139421,-0.18581172728370873,2026-04-11T19:11:36.905-05:00
1775952696915817500,0.7868173828125,9.55955506157279,-2.178648399679363,-0.19698913752138614,2026-04-11T19:11:36.915-05:00
1775952696925874400,0.79687451171875,9.560165886947512,-2.174897522713244,-0.208452634691447,2026-04-11T19:11:36.925-05:00
1775952696935931400,0.806931396484375,9.560697801867127,-2.1716978498890995,-0.21723266493119298,2026-04-11T19:11:36.935-05:00
1775952696945988400,0.81698828125,9.560998830640315,-2.1698678579829633,-0.22216639500632882,2026-04-11T19:11:36.945-05:00
1775952696956045600,0.827045654296875,9.560904722616076,-2.170171370974183,-0.22326577108297496,2026-04-11T19:11:36.956-05:00
1775952696966102500,0.8371025390625,9.560622983065247,-2.171639397700131,-0.2210196178576909,2026-04-11T19:11:36.966-05:00
1775952696976158500,0.847158447265625,9.560239536705613,-2.1735718270674345,-0.21860050095198674,2026-04-11T19:11:36.976-05:00
1775952696986215400,0.85721533203125,9.559653845772146,-2.176455419679731,-0.21557125279130412,2026-04-11T19:11:36.986-05:00
1775952696996272400,0.8672724609375,9.558923777931929,-2.1803107799336314,-0.20895355168459936,2026-04-11T19:11:36.996-05:00
1775952697006329300,0.877329345703125,9.557942950201033,-2.185397581678629,-0.20046823007510975,2026-04-11T19:11:37.006-05:00
1775952697016386300,0.88738623046875,9.55651204061508,-2.1923471085555852,-0.1924756604186259,2026-04-11T19:11:37.016-05:00
1775952697026443500,0.897443603515625,9.554636894392967,-2.2010957938089963,-0.1855747949889861,2026-04-11T19:11:37.026-05:00
1775952697036500500,0.90750048828125,9.552570609512925,-2.2104941751427947,-0.18021374287987127,2026-04-11T19:11:37.036-05:00
1775952697046557400,0.917557373046875,9.551088262000679,-2.217318906596303,-0.17497732179742306,2026-04-11T19:11:37.046-05:00
1775952697056614400,0.927614501953125,9.55092225778401,-2.2184946723774073,-0.16909299473287537,2026-04-11T19:11:37.056-05:00
1775952697066671400,0.93767138671875,9.551679213631152,-2.2155593495778736,-0.16481314372289924,2026-04-11T19:11:37.066-05:00
1775952697076728300,0.947728271484375,9.552534369155763,-2.211975792002678,-0.16321270452262832,2026-04-11T19:11:37.076-05:00
1775952697086785300,0.957785400390625,9.552828383666276,-2.210688382540643,-0.16360051653012633,2026-04-11T19:11:37.086-05:00
1775952697096841500,0.967841552734375,9.552581715428829,-2.2116813391007484,-0.16450921060657128,2026-04-11T19:11:37.096-05:00
1775952697106898400,0.9778984375,9.552160859668254,-2.213529597315937,-0.16407237182557582,2026-04-11T19:11:37.106-05:00
1775952697116955400,0.987955322265625,9.552060321903229,-2.2142544044591483,-0.160102116487734,2026-04-11T19:11:37.116-05:00
1775952697127012600,0.9980126953125,9.55235550545752,-2.2135428951889273,-0.15201785909296012,2026-04-11T19:11:37.127-05:00
1775952697137069600,1.008069580078125,9.552835397928952,-2.2120874356836078,-0.14288934420910662,2026-04-11T19:11:37.137-05:00
1775952697147126500,1.01812646484375,9.553454991132021,-2.2099302576497197,-0.13455431779050267,2026-04-11T19:11:37.147-05:00
1775952697157183500,1.02818359375,9.55407283076942,-2.207633086623251,-0.1284480824704282,2026-04-11T19:11:37.157-05:00
1775952697167240400,1.038240478515625,9.554476735395193,-2.2060354421682655,-0.12555436118976213,2026-04-11T19:11:37.167-05:00
1775952697177297400,1.04829736328125,9.55468774779737,-2.205163627769798,-0.12502731424150987,2026-04-11T19:11:37.177-05:00
1775952697187354400,1.058354248046875,9.555084638160466,-2.203469244942069,-0.12445377040356397,2026-04-11T19:11:37.187-05:00
1775952697197411300,1.068411376953125,9.556256020027398,-2.198529304321855,-0.12183618091684766,2026-04-11T19:11:37.197-05:00
1775952697207467300,1.07846728515625,9.558774140328168,-2.1879639250352976,-0.11412503115078433,2026-04-11T19:11:37.207-05:00
1775952697217524200,1.088524169921875,9.562067921176553,-2.174215824059397,-0.10008278780020773,2026-04-11T19:11:37.217-05:00
1775952697227581400,1.09858154296875,9.564595393827558,-2.1637550741910934,-0.08379041830212809,2026-04-11T19:11:37.227-05:00
1775952697237638400,1.108638427734375,9.565151274144648,-2.1619106153681873,-0.06652123052799143,2026-04-11T19:11:37.237-05:00
1775952697247695600,1.118695556640625,9.563574818608163,-2.169322352929413,-0.049879517869278786,2026-04-11T19:11:37.247-05:00
1775952697257752600,1.128752685546875,9.560720598220824,-2.182109353788197,-0.03739329690522281,2026-04-11T19:11:37.257-05:00
1775952697267809500,1.1388095703125,9.557623216727375,-2.1957450804308056,-0.03143720607898431,2026-04-11T19:11:37.267-05:00
1775952697277866500,1.148866455078125,9.554783024865388,-2.2080511659048496,-0.03156248327633366,2026-04-11T19:11:37.277-05:00
1775952697287923500,1.15892333984375,9.552305236575007,-2.218673682206124,-0.03598035223422339,2026-04-11T19:11:37.287-05:00
1775952697297980400,1.16898046875,9.550375729817151,-2.226861810967326,-0.04214432964050211,2026-04-11T19:11:37.297-05:00
1775952697308036400,1.179036376953125,9.549135374367237,-2.2320320532120763,-0.04911752508741338,2026-04-11T19:11:37.308-05:00
1775952697318093300,1.18909326171875,9.548954757103324,-2.232602838837355,-0.0576773778044153,2026-04-11T19:11:37.318-05:00
1775952697328150300,1.199150390625,9.549550384908914,-2.229751541059464,-0.06839439485557378,2026-04-11T19:11:37.328-05:00
1775952697338207500,1.20920751953125,9.550492049673199,-2.225366603973508,-0.07876707371477969,2026-04-11T19:11:37.338-05:00
1775952697348264400,1.219264404296875,9.55131154936254,-2.2215927845232186,-0.08589016706035472,2026-04-11T19:11:37.348-05:00
1775952697358321400,1.2293212890625,9.55186976776719,-2.2190128510326144,-0.09055616784370504,2026-04-11T19:11:37.358-05:00
1775952697368378400,1.23937841796875,9.552325694841146,-2.2169129561439154,-0.09388373223068192,2026-04-11T19:11:37.368-05:00
1775952697378435300,1.249435302734375,9.552630230745672,-2.2155464900963007,-0.09495989182852207,2026-04-11T19:11:37.378-05:00
1775952697388492300,1.2594921875,9.552834228885173,-2.2147220219708976,-0.0936742267990019,2026-04-11T19:11:37.388-05:00
1775952697398549200,1.26954931640625,9.553200724110006,-2.213274453511089,-0.09056826927345246,2026-04-11T19:11:37.398-05:00
1775952697408605400,1.27960546875,9.553800443568825,-2.210830421359837,-0.08691729988469742,2026-04-11T19:11:37.408-05:00
1775952697418662400,1.289662353515625,9.554583118379115,-2.2075176435500383,-0.084831661850214,2026-04-11T19:11:37.418-05:00
1775952697428719400,1.29971923828125,9.555443534600734,-2.203748646405339,-0.08604599694288335,2026-04-11T19:11:37.428-05:00
1775952697438776600,1.309776611328125,9.556232054629922,-2.200242245719582,-0.08822124948957935,2026-04-11T19:11:37.438-05:00
1775952697448833500,1.31983349609375,9.5566470651716,-2.1983882884159685,-0.08936861116010696,2026-04-11T19:11:37.448-05:00
1775952697458890500,1.329890380859375,9.556727729192376,-2.198039182717353,-0.08928580084801652,2026-04-11T19:11:37.458-05:00
1775952697468947500,1.339947509765625,9.556822421738504,-2.197662896750867,-0.08853290012148209,2026-04-11T19:11:37.468-05:00
1775952697479004400,1.35000439453125,9.55726139767766,-2.195786435354501,-0.08757292338237166,2026-04-11T19:11:37.479-05:00
1775952697489061400,1.360061279296875,9.557436754244565,-2.1951516445823014,-0.08440965531216933,2026-04-11T19:11:37.489-05:00
1775952697499117300,1.370117431640625,9.555572129416465,-2.203530619740486,-0.0765665086303139,2026-04-11T19:11:37.499-05:00
1775952697509174300,1.38017431640625,9.549906358739733,-2.228367685485631,-0.06386213085395284,2026-04-11T19:11:37.509-05:00
1775952697519231500,1.3902314453125,9.540857375365496,-2.2671650336526334,-0.04934661656897515,2026-04-11T19:11:37.519-05:00
1775952697529288400,1.400288330078125,9.52990051254332,-2.3130231139861044,-0.03598703085347078,2026-04-11T19:11:37.529-05:00
1775952697539345700,1.410345703125,9.518570140233635,-2.3593742385335266,-0.02333644279069267,2026-04-11T19:11:37.539-05:00
1775952697549402600,1.420402587890625,9.507806169635057,-2.402466653545946,-0.01228091335852514,2026-04-11T19:11:37.549-05:00
1775952697559459600,1.43045947265625,9.498336330500244,-2.43967468669489,-0.005182494371547363,2026-04-11T19:11:37.559-05:00
1775952697569516500,1.4405166015625,9.490888352581859,-2.46849468459636,-0.0024203216258683823,2026-04-11T19:11:37.569-05:00
1775952697579573500,1.450573486328125,9.485947973570227,-2.4873966612040994,-0.0022614476914772238,2026-04-11T19:11:37.579-05:00
1775952697589629400,1.46062939453125,9.483522207728027,-2.4966399981066583,-0.003152230938368302,2026-04-11T19:11:37.589-05:00
1775952697599686400,1.470686279296875,9.483287229928374,-2.4975194112896917,-0.005308148882343084,2026-04-11T19:11:37.599-05:00
1775952697609743400,1.480743408203125,9.485033781334756,-2.4908751509696243,-0.008974420300684868,2026-04-11T19:11:37.609-05:00
1775952697619800300,1.49080029296875,9.488507594925165,-2.4775711404994127,-0.014770621557207778,2026-04-11T19:11:37.619-05:00
1775952697629857300,1.500857177734375,9.493424008539318,-2.45860077483058,-0.022769904082268474,2026-04-11T19:11:37.629-05:00
1775952697639914200,1.510914306640625,9.499272150045632,-2.4358158193096515,-0.03240054610224906,2026-04-11T19:11:37.639-05:00
1775952697649971500,1.520971435546875,9.505676756390928,-2.410568273067474,-0.04134423333795275,2026-04-11T19:11:37.649-05:00
1775952697660028400,1.5310283203125,9.512062658035754,-2.3851357256472108,-0.0469648040329339,2026-04-11T19:11:37.660-05:00
1775952697670085400,1.54108544921875,9.517489359259605,-2.3633557093851265,-0.04863239931843709,2026-04-11T19:11:37.670-05:00
1775952697680141600,1.5511416015625,9.521542434042692,-2.346976090861857,-0.048203501815302294,2026-04-11T19:11:37.680-05:00
1775952697690198500,1.561198486328125,9.524036004424095,-2.336852171732485,-0.04780653838696889,2026-04-11T19:11:37.690-05:00
1775952697700255500,1.57125537109375,9.525254732564091,-2.3318699994057415,-0.048610118987970054,2026-04-11T19:11:37.700-05:00
1775952697710312400,1.5813125,9.525651622927189,-2.3302092265866694,-0.05008572623217478,2026-04-11T19:11:37.710-05:00
1775952697720369400,1.591369384765625,9.525788985571264,-2.3296211975656447,-0.05111002777861431,2026-04-11T19:11:37.720-05:00
1775952697730426400,1.60142626953125,9.526368246763944,-2.3272585600875315,-0.051075732783367855,2026-04-11T19:11:37.730-05:00
1775952697740483300,1.6114833984375,9.527749471989273,-2.32161032506749,-0.04990685340077616,2026-04-11T19:11:37.740-05:00
1775952697750540500,1.62154052734375,9.529576102894543,-2.314156501930207,-0.047776668405090456,2026-04-11T19:11:37.750-05:00
1775952697760597500,1.631597412109375,9.531368831530212,-2.3068143224738535,-0.04484827310326509,2026-04-11T19:11:37.760-05:00
1775952697770653400,1.6416533203125,9.53275531745255,-2.301120348615944,-0.042654041861463335,2026-04-11T19:11:37.770-05:00
1775952697780710400,1.65171044921875,9.533508181646466,-2.2980054314658043,-0.0425280865273904,2026-04-11T19:11:37.780-05:00
1775952697790767400,1.661767333984375,9.533643790724874,-2.297381892739981,-0.04599535621257964,2026-04-11T19:11:37.790-05:00
1775952697800824600,1.671824462890625,9.533440377107262,-2.2980751357011497,-0.052901550837885586,2026-04-11T19:11:37.800-05:00
1775952697810881500,1.681881591796875,9.53323871705532,-2.2987040812544524,-0.0609818855427904,2026-04-11T19:11:37.810-05:00
1775952697820938500,1.6919384765625,9.5335175339967,-2.2973263631604612,-0.06872290529073216,2026-04-11T19:11:37.820-05:00
1775952697830995500,1.701995361328125,9.534389640656114,-2.2935114810474215,-0.0750902666318696,2026-04-11T19:11:37.830-05:00
1775952697841052400,1.712052490234375,9.535601354533433,-2.2883247260592876,-0.0793309820747003,2026-04-11T19:11:37.841-05:00
1775952697851108000,1.722108154296875,9.536945754879712,-2.2826349899850786,-0.08178878702297807,2026-04-11T19:11:37.851-05:00
1775952697861165000,1.7321650390625,9.538151039016245,-2.2775348903670904,-0.08312797233802266,2026-04-11T19:11:37.861-05:00
1775952697871222000,1.742221923828125,9.539123098918795,-2.273423363395035,-0.08406970103438943,2026-04-11T19:11:37.871-05:00
1775952697881279000,1.752279052734375,9.539698268458247,-2.271010603164881,-0.08428362691286019,2026-04-11T19:11:37.881-05:00
1775952697891336000,1.7623359375,9.539937337911129,-2.270035036130994,-0.08340140071823261,2026-04-11T19:11:37.891-05:00
1775952697901393000,1.772392822265625,9.540240120249987,-2.268795849724859,-0.08251565825911239,2026-04-11T19:11:37.901-05:00
1775952697911449900,1.782449951171875,9.540687864017485,-2.2669183654151857,-0.08231053674160502,2026-04-11T19:11:37.911-05:00
1775952697921507000,1.792507080078125,9.541208673021197,-2.264707119106501,-0.08274063525456003,2026-04-11T19:11:37.921-05:00
1775952697931563000,1.80256298828125,9.541529575538634,-2.263325747750699,-0.08354679140513763,2026-04-11T19:11:37.931-05:00
1775952697941620200,1.8126201171875,9.541488659006356,-2.26349715879485,-0.08355703880451619,2026-04-11T19:11:37.941-05:00
1775952697951677200,1.82267724609375,9.541330253574252,-2.2642338025063276,-0.08166582736358978,2026-04-11T19:11:37.951-05:00
1775952697961734100,1.832734130859375,9.541234391984343,-2.2647405829846856,-0.07886857959418557,2026-04-11T19:11:37.961-05:00
1775952697971791000,1.842791015625,9.540932778689264,-2.2660941895507274,-0.0762693386149127,2026-04-11T19:11:37.971-05:00
1775952697981848000,1.85284814453125,9.540352348452807,-2.268621223810315,-0.07379714894825593,2026-04-11T19:11:37.981-05:00
1775952697991905000,1.862905029296875,9.53967430306077,-2.2715395954750477,-0.07178997384430841,2026-04-11T19:11:37.991-05:00
1775952698001962000,1.8729619140625,9.539424127691984,-2.2726149696215985,-0.0710252274163533,2026-04-11T19:11:38.001-05:00
1775952698012018000,1.883017822265625,9.539904604685306,-2.2705494153939187,-0.07227410866601858,2026-04-11T19:11:38.012-05:00
1775952698022075000,1.893074951171875,9.541126839956641,-2.265328027483821,-0.07476381115647963,2026-04-11T19:11:38.022-05:00
1775952698032131800,1.9031318359375,9.542924244767427,-2.257605470407754,-0.07858854794325307,2026-04-11T19:11:38.032-05:00
1775952698042189000,1.91318896484375,9.544972993990779,-2.248747771821916,-0.08362426795498468,2026-04-11T19:11:38.042-05:00
1775952698052246300,1.923246337890625,9.546992517119646,-2.2400107770062982,-0.08765092965518125,2026-04-11T19:11:38.052-05:00
1775952698062303200,1.93330322265625,9.548874093082546,-2.2319302002727985,-0.0887976154722739,2026-04-11T19:11:38.062-05:00
1775952698072360200,1.943360107421875,9.550684357374905,-2.224244468075782,-0.0866956290911883,2026-04-11T19:11:38.072-05:00
1775952698082417200,1.953417236328125,9.55226139743328,-2.2176297261111437,-0.08256173502369783,2026-04-11T19:11:38.082-05:00
1775952698092473000,1.96347314453125,9.553458498263359,-2.2126510609157384,-0.07738061519190668,2026-04-11T19:11:38.092-05:00
1775952698102530000,1.973530029296875,9.55410965564847,-2.2100085835829377,-0.07242165021081455,2026-04-11T19:11:38.102-05:00
1775952698112587000,1.9835869140625,9.55459422429502,-2.2080514581657944,-0.06821632574177347,2026-04-11T19:11:38.112-05:00
1775952698122644000,1.99364404296875,9.55552712123096,-2.2041290240250526,-0.06431439096636604,2026-04-11T19:11:38.122-05:00
1775952698132701000,2.003700927734375,9.557226326364278,-2.196792835918069,-0.06267317223113496,2026-04-11T19:11:38.132-05:00
1775952698142758100,2.013758056640625,9.559474397552012,-2.1869446649901567,-0.06367729863922576,2026-04-11T19:11:38.142-05:00
1775952698152815000,2.023815185546875,9.561878536084294,-2.1764153799302877,-0.06360575863982085,2026-04-11T19:11:38.152-05:00
1775952698162872000,2.0338720703125,9.564221299818158,-2.166153952026367,-0.062265719374828034,2026-04-11T19:11:38.162-05:00
1775952698172928300,2.04392822265625,9.566402150988578,-2.1565631168603896,-0.059756608930998475,2026-04-11T19:11:38.172-05:00
1775952698182985200,2.053985107421875,9.568332826790213,-2.148054962364584,-0.05674857252170332,2026-04-11T19:11:38.182-05:00
1775952698193042200,2.064042236328125,9.569729834106564,-2.1419195283494887,-0.053624134057969786,2026-04-11T19:11:38.193-05:00
1775952698203099100,2.07409912109375,9.570403203323483,-2.1390119703397152,-0.048933756885188626,2026-04-11T19:11:38.203-05:00
1775952698213156000,2.084156005859375,9.570418400892615,-2.1390870814025402,-0.04219383133803494,2026-04-11T19:11:38.213-05:00
1775952698223213000,2.094213134765625,9.570062427061796,-2.140815366499871,-0.03510482977501815,2026-04-11T19:11:38.223-05:00
1775952698233270000,2.10427001953125,9.569787117251753,-2.1421346324048933,-0.02854556030768435,2026-04-11T19:11:38.233-05:00
1775952698243326000,2.114325927734375,9.569891746670008,-2.1417172837756575,-0.02436208006098168,2026-04-11T19:11:38.243-05:00
1775952698253383000,2.1243828125,9.570437105593085,-2.13929648636952,-0.023269355204119345,2026-04-11T19:11:38.253-05:00
1775952698263440100,2.134440185546875,9.57149275212586,-2.1345710652828216,-0.023732031679269856,2026-04-11T19:11:38.263-05:00
1775952698273497000,2.1444970703125,9.57296633180976,-2.127940541227162,-0.023891332160518503,2026-04-11T19:11:38.273-05:00
1775952698283554000,2.154553955078125,9.574629296585917,-2.1204544232554734,-0.02263469686266035,2026-04-11T19:11:38.283-05:00
1775952698293611000,2.164611083984375,9.576104045313595,-2.1138129394143816,-0.01976236999647226,2026-04-11T19:11:38.293-05:00
1775952698303668000,2.17466796875,9.576920037871599,-2.110139657729119,-0.016356765087356326,2026-04-11T19:11:38.303-05:00
1775952698313725000,2.184724853515625,9.576846388113498,-2.110500161604583,-0.012243063282879302,2026-04-11T19:11:38.313-05:00
1775952698323781000,2.194781005859375,9.576045008602739,-2.1141712513327597,-0.006313842768079485,2026-04-11T19:11:38.323-05:00
1775952698333838000,2.204838134765625,9.574898176655173,-2.119381094935536,-0.0005710044999001183,2026-04-11T19:11:38.333-05:00
1775952698343895000,2.21489501953125,9.57382265637815,-2.124227073661983,0.0033113573188587905,2026-04-11T19:11:38.343-05:00
1775952698353952000,2.224951904296875,9.5730206923455,-2.127826705589145,0.005087395400041714,2026-04-11T19:11:38.353-05:00
1775952698364009000,2.235009033203125,9.57257236405611,-2.129830738887936,0.006019194644971867,2026-04-11T19:11:38.364-05:00
1775952698374066200,2.245066162109375,9.572709726700186,-2.1292196212522683,0.006285995209106477,2026-04-11T19:11:38.374-05:00
1775952698384123100,2.255123046875,9.57345031593442,-2.125889892307669,0.005448938742655445,2026-04-11T19:11:38.384-05:00
1775952698394180000,2.26518017578125,9.574415361574292,-2.121551570842415,0.0030984526412285046,2026-04-11T19:11:38.394-05:00
1775952698404236000,2.275236083984375,9.575430676096678,-2.1169673117920755,0.0005562066489843345,2026-04-11T19:11:38.404-05:00
1775952698414293000,2.28529296875,9.576249591264128,-2.1132485835298893,-0.0019025589573087927,2026-04-11T19:11:38.414-05:00
1775952698424350000,2.295349853515625,9.576811316800116,-2.1107026984393595,-0.0029518195598968303,2026-04-11T19:11:38.424-05:00
1775952698434407200,2.3054072265625,9.577127543142437,-2.109258929371834,-0.004235908834850124,2026-04-11T19:11:38.434-05:00
1775952698444464000,2.315464111328125,9.57719827029109,-2.108925313503295,-0.0069497415060875934,2026-04-11T19:11:38.444-05:00
1775952698454521000,2.32552099609375,9.57708370400071,-2.109445391854644,-0.010616741864325012,2026-04-11T19:11:38.454-05:00
1775952698464578000,2.335578125,9.57688204394877,-2.110343509738147,-0.014105703933158655,2026-04-11T19:11:38.464-05:00
1775952698474634000,2.345634033203125,9.576602642485499,-2.1115872261889277,-0.01647711152290576,2026-04-11T19:11:38.474-05:00
1775952698484691000,2.35569091796875,9.576186462900042,-2.113475085762143,-0.016515057496674125,2026-04-11T19:11:38.484-05:00
1775952698494748200,2.365748046875,9.575921674484015,-2.114682269594818,-0.015394572416628944,2026-04-11T19:11:38.494-05:00
1775952698504805000,2.37580517578125,9.576270049530267,-2.1131078598849475,-0.01476475236378028,2026-04-11T19:11:38.504-05:00
1775952698514862000,2.385862060546875,9.577126374098658,-2.109220204796642,-0.014920107322273543,2026-04-11T19:11:38.514-05:00
1775952698524919000,2.3959189453125,9.5780364746809,-2.105090119254589,-0.014266246523422886,2026-04-11T19:11:38.524-05:00
1775952698534976000,2.40597607421875,9.57859469308555,-2.102573314128071,-0.01201645259441575,2026-04-11T19:11:38.534-05:00
1775952698545032200,2.4160322265625,9.578500585061311,-2.103002791586518,-0.009551774947356899,2026-04-11T19:11:38.545-05:00
1775952698555089200,2.426089111328125,9.577901450124383,-2.1057393769435584,-0.008851752902241423,2026-04-11T19:11:38.555-05:00
1775952698565146000,2.43614599609375,9.577100070613621,-2.1093673581823706,-0.011565914081630761,2026-04-11T19:11:38.565-05:00
1775952698575203000,2.446203125,9.576277063792944,-2.11305612969771,-0.016413118934072553,2026-04-11T19:11:38.575-05:00
1775952698585260000,2.456260009765625,9.575448211753368,-2.116776611525565,-0.020886960429477037,2026-04-11T19:11:38.585-05:00
1775952698595317200,2.466317138671875,9.57475555331409,-2.119889775110036,-0.023165059146005657,2026-04-11T19:11:38.595-05:00
1775952698605374200,2.476374267578125,9.574326514247058,-2.1218086143434047,-0.024340208439179695,2026-04-11T19:11:38.605-05:00
1775952698615431200,2.48643115234375,9.574149404114484,-2.122605025418103,-0.025368624471733346,2026-04-11T19:11:38.615-05:00
1775952698625487000,2.496487060546875,9.574105564972758,-2.1227897343352438,-0.0252330907418509,2026-04-11T19:11:38.625-05:00
1775952698635544000,2.5065439453125,9.574124854195118,-2.1227391731917855,-0.023185428363888056,2026-04-11T19:11:38.635-05:00
1775952698645601000,2.51660107421875,9.574242927616835,-2.1222462751083073,-0.01942844816725701,2026-04-11T19:11:38.645-05:00
1775952698655658000,2.526657958984375,9.574560323002935,-2.1208229643069205,-0.01649211387085961,2026-04-11T19:11:38.655-05:00
1775952698665715000,2.53671484375,9.574946107450128,-2.119086057511717,-0.015362952294014394,2026-04-11T19:11:38.665-05:00
1775952698675772000,2.54677197265625,9.57520154351592,-2.1179526695676145,-0.015339934461319352,2026-04-11T19:11:38.675-05:00
1775952698685828900,2.556828857421875,9.575299743193387,-2.117489874361455,-0.017463376905675978,2026-04-11T19:11:38.685-05:00
1775952698695885000,2.566885009765625,9.575567454218865,-2.116222630904615,-0.022099142380966802,2026-04-11T19:11:38.695-05:00
1775952698705942000,2.57694189453125,9.576234978216887,-2.113129779455811,-0.027567118613410276,2026-04-11T19:11:38.705-05:00
1775952698715999200,2.586999267578125,9.577074936172366,-2.109267697200179,-0.03190667533781379,2026-04-11T19:11:38.715-05:00
1775952698726056200,2.59705615234375,9.57792424647808,-2.1053787269376216,-0.0330244296046556,2026-04-11T19:11:38.726-05:00
1775952698736113200,2.607113037109375,9.578608721610903,-2.1022959584914145,-0.03127483457452617,2026-04-11T19:11:38.736-05:00
1775952698746170000,2.617170166015625,9.578977554923295,-2.100657543634623,-0.028133330811560154,2026-04-11T19:11:38.746-05:00
1775952698756227000,2.62722705078125,9.579103227129577,-2.1001351271957156,-0.02466374358840985,2026-04-11T19:11:38.756-05:00
1775952698766283000,2.637282958984375,9.57932066927254,-2.0991791416451333,-0.021657627424853852,2026-04-11T19:11:38.766-05:00
1775952698776340000,2.647340087890625,9.579683072844148,-2.0975423342235384,-0.02045090938305948,2026-04-11T19:11:38.776-05:00
1775952698786397000,2.65739697265625,9.580078209641576,-2.0957304624959825,-0.02087570609981194,2026-04-11T19:11:38.786-05:00
1775952698796454000,2.667453857421875,9.580413140684366,-2.094183817575872,-0.021835242164216468,2026-04-11T19:11:38.796-05:00
1775952698806511000,2.677510986328125,9.580582067510486,-2.0934087415501472,-0.022348100756912025,2026-04-11T19:11:38.806-05:00
1775952698816568000,2.687568115234375,9.58053472123742,-2.0936201923437414,-0.022827799148811025,2026-04-11T19:11:38.816-05:00
1775952698826625300,2.697625244140625,9.580527706974744,-2.0936424041755495,-0.023680388257000595,2026-04-11T19:11:38.826-05:00
1775952698836682200,2.70768212890625,9.580658639878035,-2.0930226648420094,-0.024724721094605044,2026-04-11T19:11:38.836-05:00
1775952698846738200,2.71773828125,9.580825813138484,-2.092243789424002,-0.026512451611459254,2026-04-11T19:11:38.846-05:00
1775952698856795000,2.727794921875,9.580865560626982,-2.092019479148835,-0.029484412060375324,2026-04-11T19:11:38.856-05:00
1775952698866852000,2.73785205078125,9.580618892389536,-2.0931100508645177,-0.032165207542991264,2026-04-11T19:11:38.866-05:00
1775952698876909000,2.747908935546875,9.580265256646275,-2.0947144173212346,-0.03253623509575845,2026-04-11T19:11:38.876-05:00
1775952698886966000,2.757966064453125,9.579965396916865,-2.0961266222067176,-0.0301317472203169,2026-04-11T19:11:38.886-05:00
1775952698897023000,2.76802294921875,9.579777765390276,-2.097038184093684,-0.0257593248393503,2026-04-11T19:11:38.897-05:00
1775952698907080000,2.778079833984375,9.579518237671255,-2.0982743017598984,-0.020975805473420768,2026-04-11T19:11:38.907-05:00
1775952698917136100,2.78813623046875,9.578899228990078,-2.1011421122811735,-0.016619553342543076,2026-04-11T19:11:38.917-05:00
1775952698927193000,2.798193115234375,9.577907879865169,-2.1056850164078176,-0.012791486379300476,2026-04-11T19:11:38.927-05:00
1775952698937250000,2.80825,9.576744681304692,-2.1109829766854644,-0.010228623896150384,2026-04-11T19:11:38.937-05:00
1775952698947307000,2.81830712890625,9.575529460296034,-2.1165015939764675,-0.009674613592447713,2026-04-11T19:11:38.947-05:00
1775952698957364000,2.828364013671875,9.574293196499347,-2.1220744256727397,-0.011147994630236644,2026-04-11T19:11:38.957-05:00
1775952698967421000,2.8384208984375,9.57337374356687,-2.1262007118225097,-0.014072942166228312,2026-04-11T19:11:38.967-05:00
1775952698977478100,2.84847802734375,9.572998480513691,-2.1278695218175647,-0.01693397702848888,2026-04-11T19:11:38.977-05:00
1775952698987534000,2.8585341796875,9.572989712685345,-2.1278822351686655,-0.019118088735075433,2026-04-11T19:11:38.987-05:00
1775952698997591000,2.868591064453125,9.57335445434451,-2.126245573877543,-0.01906370650809258,2026-04-11T19:11:38.997-05:00
1775952699007648000,2.87864794921875,9.574205518215894,-2.1224344911567865,-0.016284268390014768,2026-04-11T19:11:39.007-05:00
1775952699017705000,2.888705078125,9.575360533469915,-2.1172369225136936,-0.013762283623235998,2026-04-11T19:11:39.017-05:00
1775952699027762000,2.898761962890625,9.576099369138479,-2.1138952108703553,-0.012492594764271052,2026-04-11T19:11:39.027-05:00
1775952699037819000,2.90881884765625,9.576230302041768,-2.11332223328799,-0.010759374338563065,2026-04-11T19:11:39.037-05:00
1775952699047875800,2.918875732421875,9.575978373107313,-2.114465996495634,-0.009273371852040873,2026-04-11T19:11:39.047-05:00
1775952699057932000,2.92893212890625,9.575642273020744,-2.1159896989315747,-0.009771564311033579,2026-04-11T19:11:39.057-05:00
1775952699067989000,2.938989013671875,9.575326046678423,-2.1174143249072133,-0.01153792096300749,2026-04-11T19:11:39.067-05:00
1775952699078046000,2.9490458984375,9.575131400889157,-2.1182716723889112,-0.01346363175351289,2026-04-11T19:11:39.078-05:00
1775952699088103000,2.95910302734375,9.574931494402884,-2.1191452403530477,-0.015430886980670038,2026-04-11T19:11:39.088-05:00
1775952699098160000,2.96916015625,9.574632803717256,-2.12048379548043,-0.017418399544566636,2026-04-11T19:11:39.098-05:00
1775952699108217000,2.979217041015625,9.57438379739225,-2.121596286766976,-0.0184083113392815,2026-04-11T19:11:39.108-05:00
1775952699118274000,2.989274169921875,9.57426864657998,-2.1221305397741497,-0.017977814392460278,2026-04-11T19:11:39.118-05:00
1775952699128330000,2.999330078125,9.574252864488958,-2.1222169028833506,-0.016071396249247482,2026-04-11T19:11:39.128-05:00
1775952699138387000,3.009386962890625,9.574290273889899,-2.122058643581718,-0.012866338288865516,2026-04-11T19:11:39.138-05:00
1775952699148444000,3.01944384765625,9.574223638394475,-2.122380861273408,-0.008922913304911344,2026-04-11T19:11:39.148-05:00
1775952699158500900,3.0295009765625,9.574052958002685,-2.123162074778974,-0.0050488814582262415,2026-04-11T19:11:39.158-05:00
1775952699168557800,3.039557861328125,9.574031330692767,-2.123272987807542,-0.0018540619067738589,2026-04-11T19:11:39.168-05:00
1775952699178614800,3.04961474609375,9.574344634425639,-2.1218609290525317,-0.00011002893207460146,2026-04-11T19:11:39.178-05:00
1775952699188672000,3.059672119140625,9.57514659845829,-2.118242154033482,-0.0004762011429194899,2026-04-11T19:11:39.188-05:00
1775952699198728000,3.06972802734375,9.576231471085547,-2.1133450296416876,-0.0009730487092318071,2026-04-11T19:11:39.198-05:00
1775952699208785000,3.079784912109375,9.577303484231233,-2.1084777158662678,-0.0008606732342952455,2026-04-11T19:11:39.208-05:00
1775952699218842000,3.089842041015625,9.578331658235191,-2.1038009562268853,-0.0010783496997544715,2026-04-11T19:11:39.218-05:00
1775952699228899000,3.099899169921875,9.579332944232226,-2.0992457771405575,-0.001519469932345237,2026-04-11T19:11:39.228-05:00
1775952699238956000,3.1099560546875,9.58018050097227,-2.095363236618787,-0.0014098158520464493,2026-04-11T19:11:39.238-05:00
1775952699249013000,3.120012939453125,9.580696633800864,-2.0930092208385465,0.0011674760876692744,2026-04-11T19:11:39.249-05:00
1775952699259070000,3.130070068359375,9.58074339555204,-2.0927672287762165,0.006377809099093429,2026-04-11T19:11:39.259-05:00
1775952699269127000,3.140126953125,9.580192775931954,-2.0952537848949433,0.012801158389943884,2026-04-11T19:11:39.269-05:00
1775952699279182800,3.150182861328125,9.579172785234451,-2.0998720923453567,0.019882548610307273,2026-04-11T19:11:39.279-05:00
1775952699289239800,3.16023974609375,9.577892682296037,-2.1056021604299544,0.027699455739208494,2026-04-11T19:11:39.289-05:00
1775952699299297000,3.170297119140625,9.576408581218123,-2.11225957249254,0.03355283510964364,2026-04-11T19:11:39.299-05:00
1775952699309354000,3.18035400390625,9.574795885324477,-2.119539500367641,0.034938423699548,2026-04-11T19:11:39.309-05:00
1775952699319411200,3.1904111328125,9.573110708716511,-2.12719337612167,0.031236333761620334,2026-04-11T19:11:39.319-05:00
1775952699329468200,3.20046826171875,9.571239654147625,-2.1356949547462163,0.02340664249967085,2026-04-11T19:11:39.329-05:00
1775952699339525000,3.210525146484375,9.56910381116271,-2.1453293367929755,0.014792462354613234,2026-04-11T19:11:39.339-05:00
1775952699349581000,3.2205810546875,9.566787935435771,-2.1556563772790134,0.009004079649187043,2026-04-11T19:11:39.349-05:00
1775952699359638000,3.230637939453125,9.564481996580957,-2.1658672440394757,0.0097748979124357,2026-04-11T19:11:39.359-05:00
1775952699369695000,3.240695068359375,9.562343230986595,-2.175212580011785,0.020728977405768817,2026-04-11T19:11:39.369-05:00
1775952699379752000,3.250751953125,9.560344166123867,-2.183770126607269,0.036906776046892624,2026-04-11T19:11:39.379-05:00
1775952699389809000,3.260808837890625,9.558683539435266,-2.190744495664537,0.050937813016865396,2026-04-11T19:11:39.389-05:00
1775952699399865900,3.270865966796875,9.55735199857056,-2.1962767030894756,0.06177299482128583,2026-04-11T19:11:39.399-05:00
1775952699409922800,3.2809228515625,9.555892447412013,-2.2023811574444174,0.06949253338978159,2026-04-11T19:11:39.409-05:00
1775952699419979000,3.29097900390625,9.55366074283719,-2.2116249327383932,0.08200618350016885,2026-04-11T19:11:39.419-05:00
1775952699430036000,3.301035888671875,9.550033784511685,-2.2260516636282204,0.10951033129640854,2026-04-11T19:11:39.430-05:00
1775952699440093200,3.31109326171875,9.54470820557475,-2.2461757293768225,0.15374840007945895,2026-04-11T19:11:39.440-05:00
1775952699450150100,3.321150146484375,9.537501635196804,-2.271601116403937,0.21516396889835596,2026-04-11T19:11:39.450-05:00
1775952699460207000,3.33120703125,9.527706217369436,-2.3044839798301457,0.28737229601889847,2026-04-11T19:11:39.460-05:00
1775952699470264000,3.34126416015625,9.514560320070386,-2.3478185330353676,0.3622985768612474,2026-04-11T19:11:39.470-05:00
1775952699480321000,3.351321044921875,9.499144139751792,-2.3976895022720095,0.4332556252790615,2026-04-11T19:11:39.480-05:00
1775952699490377000,3.361376953125,9.481575165313481,-2.449788961213082,0.5183097342409193,2026-04-11T19:11:39.490-05:00
1775952699500434000,3.371433837890625,9.461242571380733,-2.5025667578071356,0.6264378813307732,2026-04-11T19:11:39.500-05:00
1775952699510491000,3.381490966796875,9.43472690489888,-2.5618033751517535,0.7703636833149939,2026-04-11T19:11:39.510-05:00
1775952699520547800,3.3915478515625,9.398877008360623,-2.629268891659379,0.9583478957995771,2026-04-11T19:11:39.520-05:00
1775952699530604800,3.401604736328125,9.353161551368236,-2.7016908615306017,1.1788234151095152,2026-04-11T19:11:39.530-05:00
1775952699540661800,3.411661865234375,9.301500922235846,-2.7733824713006614,1.4002730401486156,2026-04-11T19:11:39.540-05:00
1775952699550719000,3.421718994140625,9.25106428194046,-2.836106638500094,1.595208460010588,2026-04-11T19:11:39.550-05:00
1775952699560775200,3.431775146484375,9.205215553957224,-2.886370844838023,1.7616114667408167,2026-04-11T19:11:39.560-05:00
1775952699570832100,3.44183203125,9.159987588220835,-2.9275051115199924,1.9221717387922106,2026-04-11T19:11:39.570-05:00
1775952699580889000,3.45188916015625,9.107617349514365,-2.960000729194283,2.111901991226524,2026-04-11T19:11:39.580-05:00
1775952699590946000,3.461946044921875,9.040439417776465,-2.983469867587089,2.3536732504129407,2026-04-11T19:11:39.590-05:00
1775952699601003000,3.4720029296875,8.956519610074162,-2.9954698097214103,2.641644681368768,2026-04-11T19:11:39.601-05:00
1775952699611060000,3.48206005859375,8.856824725612997,-2.988722089026868,2.965566546627879,2026-04-11T19:11:39.611-05:00
1775952699621117000,3.492116943359375,8.738965823429822,-2.962250261686742,3.3205376301452514,2026-04-11T19:11:39.621-05:00
1775952699631172900,3.5021728515625,8.616910638600586,-2.912928596895933,3.665254738412797,2026-04-11T19:11:39.631-05:00
1775952699641229800,3.512229736328125,8.50315975625813,-2.8376486072450873,3.976738854642212,2026-04-11T19:11:39.641-05:00
1775952699651286800,3.522286865234375,8.413989772942662,-2.738319341225922,4.22809028147012,2026-04-11T19:11:39.651-05:00
1775952699661343700,3.53234375,8.364109012964368,-2.618503752017021,4.399487297095358,2026-04-11T19:11:39.661-05:00
1775952699671401000,3.54240087890625,8.34073690520525,-2.491082363979518,4.51630808840245,2026-04-11T19:11:39.671-05:00
1775952699681458000,3.5524580078125,8.309596501532196,-2.378367985077947,4.632969305233657,2026-04-11T19:11:39.681-05:00
1775952699691515100,3.56251513671875,8.2402137532264,-2.2976186241053043,4.794806465353071,2026-04-11T19:11:39.691-05:00
1775952699701571000,3.572571044921875,8.135188613653183,-2.2452469240941104,4.994789231732487,2026-04-11T19:11:39.701-05:00
1775952699711628000,3.5826279296875,8.024099643996358,-2.2029604186370966,5.189522699281573,2026-04-11T19:11:39.711-05:00
1775952699721685000,3.59268505859375,7.953668263420462,-2.1728107795670626,5.30928129760623,2026-04-11T19:11:39.721-05:00
1775952699731742000,3.602741943359375,7.92433578595221,-2.167570248565078,5.355083848360181,2026-04-11T19:11:39.731-05:00
1775952699741799000,3.612798828125,7.900001555162667,-2.2025921698465942,5.376708235669136,2026-04-11T19:11:39.741-05:00
1775952699751855900,3.62285595703125,7.857641253817081,-2.274012853720784,5.408948709538579,2026-04-11T19:11:39.751-05:00
1775952699761912800,3.632912841796875,7.7938447812110185,-2.365533053424209,5.4617450647026295,2026-04-11T19:11:39.761-05:00
1775952699771970000,3.642969970703125,7.716426610487699,-2.460691025108099,5.529208243122697,2026-04-11T19:11:39.771-05:00
1775952699782026000,3.65302587890625,7.639318236365914,-2.5250962772622705,5.606698894560337,2026-04-11T19:11:39.782-05:00
1775952699792083200,3.663083251953125,7.5701079220175735,-2.5509949808895587,5.688261325481534,2026-04-11T19:11:39.792-05:00
1775952699802140200,3.67314013671875,7.497486337921023,-2.552399294729531,5.783022260671854,2026-04-11T19:11:39.802-05:00
1775952699812197000,3.683197021484375,7.413557177868485,-2.546765088234842,5.89267272195816,2026-04-11T19:11:39.812-05:00
1775952699822254000,3.693254150390625,7.309321727368236,-2.5437840265974403,6.022738779285549,2026-04-11T19:11:39.822-05:00
1775952699832311000,3.70331103515625,7.190085691612959,-2.5498908190399407,6.16207301569581,2026-04-11T19:11:39.832-05:00
1775952699842368000,3.713367919921875,7.0671928869158025,-2.571734986579418,6.293755860570073,2026-04-11T19:11:39.842-05:00
1775952699852424200,3.723424072265625,6.953518576940894,-2.6124700248107313,6.402656964793801,2026-04-11T19:11:39.852-05:00
1775952699862481200,3.733481201171875,6.836705968940258,-2.6679367682278157,6.504764171093702,2026-04-11T19:11:39.862-05:00
1775952699872538000,3.7435380859375,6.696704208531975,-2.7217347016498445,6.626969578048587,2026-04-11T19:11:39.872-05:00
1775952699882595000,3.753594970703125,6.546727582076191,-2.739056131067872,6.768185390421748,2026-04-11T19:11:39.882-05:00
1775952699892652000,3.763652099609375,6.386235991346836,-2.6993860917195676,6.935392553141713,2026-04-11T19:11:39.892-05:00
1775952699902709000,3.773708984375,6.174751880005002,-2.5976354437723757,7.162061374133825,2026-04-11T19:11:39.902-05:00
1775952699912766000,3.783765869140625,5.901637534180283,-2.4537065730482337,7.437768659061193,2026-04-11T19:11:39.912-05:00
1775952699922822100,3.793822265625,5.645402426964044,-2.2909433841250837,7.684490672522783,2026-04-11T19:11:39.922-05:00
1775952699932879000,3.803879150390625,5.500460872066021,-2.1278877881266176,7.8350097352921955,2026-04-11T19:11:39.932-05:00
1775952699942936000,3.81393603515625,5.450245765566826,-1.9992329127714037,7.903688719242811,2026-04-11T19:11:39.942-05:00
1775952699952993300,3.8239931640625,5.40172752611339,-1.938248574976623,7.952036862826347,2026-04-11T19:11:39.952-05:00
1775952699963050200,3.83405029296875,5.357150133240222,-1.9426187528848646,7.981073572218418,2026-04-11T19:11:39.963-05:00
1775952699973107200,3.844107177734375,5.361920416381955,-2.000987062962353,7.963432701587677,2026-04-11T19:11:39.973-05:00
1775952699983164200,3.8541640625,5.391824556258321,-2.1057155576765534,7.916095780873298,2026-04-11T19:11:39.983-05:00
1775952699993220000,3.86422021484375,5.422758039182424,-2.2268435446582733,7.861632953801751,2026-04-11T19:11:39.993-05:00
1775952700003277000,3.874277099609375,5.439361383458972,-2.3389080813489853,7.8174986285209656,2026-04-11T19:11:40.003-05:00
1775952700013334000,3.884333984375,5.435333443117141,-2.437155105089396,7.790236527585983,2026-04-11T19:11:40.013-05:00
1775952700023391000,3.894390869140625,5.416901714369654,-2.5295740071982142,7.773595189386605,2026-04-11T19:11:40.023-05:00
1775952700033448000,3.904447998046875,5.400056962552666,-2.62263661403805,7.754453266543149,2026-04-11T19:11:40.033-05:00
1775952700043505000,3.9145048828125,5.398724252644181,-2.7207614727035163,7.721503767621517,2026-04-11T19:11:40.043-05:00
1775952700053562000,3.92456201171875,5.418572277930378,-2.8244875123769044,7.670182745707034,2026-04-11T19:11:40.053-05:00
1775952700063619000,3.934619140625,5.456388506105542,-2.9311820464670655,7.603051575720309,2026-04-11T19:11:40.063-05:00
1775952700073675300,3.94467529296875,5.4978913138389585,-3.03838423781842,7.5307234216123815,2026-04-11T19:11:40.073-05:00
1775952700083732200,3.954732177734375,5.535463211864233,-3.145944448827207,7.458691620102524,2026-04-11T19:11:40.083-05:00
1775952700093789200,3.9647890625,5.570444508874416,-3.2566105168968438,7.384782918804883,2026-04-11T19:11:40.093-05:00
1775952700103846100,3.97484619140625,5.613549491107464,-3.373572470240295,7.299138187006116,2026-04-11T19:11:40.103-05:00
1775952700113903000,3.984903076171875,5.670952463284134,-3.495354975607991,7.196746318545937,2026-04-11T19:11:40.113-05:00
1775952700123960000,3.9949599609375,5.7357543135404585,-3.619840602454543,7.082956273236871,2026-04-11T19:11:40.123-05:00
1775952700134016000,4.00501611328125,5.806569140475988,-3.750838387674093,6.955954279655217,2026-04-11T19:11:40.134-05:00
1775952700144073000,4.015072998046875,5.886428859132528,-3.889959273594618,6.810914525079727,2026-04-11T19:11:40.144-05:00
1775952700154130000,4.0251298828125,5.972559913143515,-4.0358781490921976,6.649107175576686,2026-04-11T19:11:40.154-05:00
1775952700164187000,4.035186767578125,6.071997607973217,-4.186642711055279,6.463222784915566,2026-04-11T19:11:40.164-05:00
1775952700174244000,4.045244140625,6.193761700901389,-4.335696961969137,6.245752000379562,2026-04-11T19:11:40.174-05:00
1775952700184301300,4.05530126953125,6.332029769384861,-4.473903655654191,6.004996201846003,2026-04-11T19:11:40.184-05:00
1775952700194358300,4.065358154296875,6.475939643147587,-4.595137587228417,5.754764134436845,2026-04-11T19:11:40.194-05:00
1775952700204415200,4.075415283203125,6.61614598621726,-4.70100969901979,5.504321054625511,2026-04-11T19:11:40.204-05:00
1775952700214471200,4.08547119140625,6.748491094392538,-4.792687865763902,5.2591240587741135,2026-04-11T19:11:40.214-05:00
1775952700224528100,4.095528076171875,6.873401084131002,-4.873695293150842,5.017357037371397,2026-04-11T19:11:40.224-05:00
1775952700234585000,4.105585205078125,6.991120870104432,-4.9503211444526904,4.773778874893487,2026-04-11T19:11:40.234-05:00
1775952700244642000,4.11564208984375,7.099202474638819,-5.028219207647442,4.52644457475245,2026-04-11T19:11:40.244-05:00
1775952700254699000,4.125698974609375,7.194070961856841,-5.114772870984673,4.272568305622041,2026-04-11T19:11:40.254-05:00
1775952700264756000,4.135755859375,7.272824180576205,-5.2203088826894755,4.003099915084243,2026-04-11T19:11:40.264-05:00
1775952700274813000,4.14581298828125,7.330804075857997,-5.352769726198911,3.71181833666712,2026-04-11T19:11:40.274-05:00
1775952700284869000,4.155869140625,7.361590843787789,-5.512778501847386,3.4039223080575463,2026-04-11T19:11:40.284-05:00
1775952700294926300,4.16592626953125,7.3703686090052125,-5.690782368391752,3.0762013427764177,2026-04-11T19:11:40.294-05:00
1775952700304983300,4.1759833984375,7.371247729927301,-5.868213988006115,2.7201462634146214,2026-04-11T19:11:40.304-05:00
1775952700315040300,4.186040283203125,7.377594468605518,-6.023011166486143,2.3377006052553653,2026-04-11T19:11:40.315-05:00
1775952700325097200,4.19609716796875,7.394439220422506,-6.140235277897119,1.94684250805974,2026-04-11T19:11:40.325-05:00
1775952700335154200,4.206154296875,7.418591664904356,-6.218662333402038,1.5694434657655656,2026-04-11T19:11:40.335-05:00
1775952700345211100,4.216211181640625,7.444971137785911,-6.266102129969,1.2160419696524738,2026-04-11T19:11:40.345-05:00
1775952700355268000,4.22626806640625,7.475346402305364,-6.2853761547595255,0.8852108364615588,2026-04-11T19:11:40.355-05:00
1775952700365324000,4.236323974609375,7.514883462923764,-6.274412862196565,0.5733117827557027,2026-04-11T19:11:40.365-05:00
1775952700375381000,4.246381103515625,7.568903806924819,-6.229289525878429,0.2792875545669347,2026-04-11T19:11:40.375-05:00
1775952700385438000,4.25643798828125,7.643720270717144,-6.14360972276628,0.001843259953668894,2026-04-11T19:11:40.385-05:00
1775952700395495000,4.266494873046875,7.744538606250286,-6.010737375846505,-0.2520089956874959,2026-04-11T19:11:40.395-05:00
1775952700405552000,4.27655224609375,7.866350045451521,-5.83661005847454,-0.474271489745751,2026-04-11T19:11:40.405-05:00
1775952700415609000,4.286609130859375,7.998456084173918,-5.635317670801282,-0.6620391368702053,2026-04-11T19:11:40.415-05:00
1775952700425666000,4.296666015625,8.131377530932426,-5.420334026905894,-0.8191684846248477,2026-04-11T19:11:40.425-05:00
1775952700435722200,4.30672216796875,8.258663602152467,-5.200873529857397,-0.9569396364368498,2026-04-11T19:11:40.435-05:00
1775952700445779200,4.316779296875,8.376167699548601,-4.982926944503188,-1.086569932695478,2026-04-11T19:11:40.445-05:00
1775952700455836200,4.326836181640625,8.479971188372373,-4.772919627715647,-1.2164221280764789,2026-04-11T19:11:40.455-05:00
1775952700465893000,4.33689306640625,8.566646432262658,-4.5767783391952515,-1.3550250545375049,2026-04-11T19:11:40.465-05:00
1775952700475950000,4.3469501953125,8.634300164818763,-4.399213156329095,-1.5053651074782013,2026-04-11T19:11:40.475-05:00
1775952700486007000,4.357007080078125,8.679894041258096,-4.2479748393744226,-1.6686876838497817,2026-04-11T19:11:40.486-05:00
1775952700496064000,4.36706396484375,8.700302623036503,-4.128561401225626,-1.8520647678650914,2026-04-11T19:11:40.496-05:00
1775952700506120000,4.377119873046875,8.697078984814882,-4.040336882066726,-2.051067291035503,2026-04-11T19:11:40.506-05:00
1775952700516177000,4.387177001953125,8.674446297246217,-3.980090503157675,-2.254592844588309,2026-04-11T19:11:40.516-05:00
1775952700526234000,4.397234130859375,8.634664321956038,-3.941781815290451,-2.4648130734741684,2026-04-11T19:11:40.526-05:00
1775952700536291000,4.407291015625,8.582790342333912,-3.9132153537586327,-2.6819424972265957,2026-04-11T19:11:40.536-05:00
1775952700546348000,4.41734814453125,8.530234810188412,-3.877781929066777,-2.892793863622844,2026-04-11T19:11:40.546-05:00
1775952700556405000,4.427405029296875,8.492707335826754,-3.816924724783003,-3.078215897469222,2026-04-11T19:11:40.556-05:00
1775952700566462200,4.437462158203125,8.481746381351352,-3.7213390292063355,-3.2221134962722657,2026-04-11T19:11:40.566-05:00
1775952700576518100,4.44751806640625,8.497594523346423,-3.59441594607979,-3.322868411180377,2026-04-11T19:11:40.576-05:00
1775952700586575000,4.4575751953125,8.535284494793414,-3.4463659037724135,-3.382584044213593,2026-04-11T19:11:40.586-05:00
1775952700596632000,4.467632080078125,8.587292329928278,-3.282759103631973,-3.4135499681025743,2026-04-11T19:11:40.596-05:00
1775952700606689000,4.47768896484375,8.646940450683235,-3.1037440142184494,-3.4303909205272793,2026-04-11T19:11:40.606-05:00
1775952700616746000,4.48774609375,8.710244755858183,-2.9085408833310007,-3.4412788097664713,2026-04-11T19:11:40.616-05:00
1775952700626803200,4.49780322265625,8.77511207256615,-2.699756678597629,-3.4466105261832474,2026-04-11T19:11:40.626-05:00
1775952700636860200,4.507860107421875,8.840955540829896,-2.491453535379469,-3.4351948136776684,2026-04-11T19:11:40.636-05:00
1775952700646916000,4.517916015625,8.909614066514372,-2.2883345168009397,-3.3989258149445054,2026-04-11T19:11:40.646-05:00
1775952700656973000,4.52797314453125,8.98500336175859,-2.0824818354748187,-3.332169031228125,2026-04-11T19:11:40.656-05:00
1775952700667030300,4.5380302734375,9.068656042957306,-1.862003978077322,-3.234621972450614,2026-04-11T19:11:40.667-05:00
1775952700677087200,4.548087158203125,9.154555626299977,-1.613931280659139,-3.1240517659708855,2026-04-11T19:11:40.677-05:00
1775952700687144200,4.558144287109375,9.234826848366856,-1.3361883982509375,-3.017111440426111,2026-04-11T19:11:40.687-05:00
1775952700697201200,4.568201171875,9.305156522133945,-1.0562762820448726,-2.9101053561687467,2026-04-11T19:11:40.697-05:00
1775952700707258000,4.578258056640625,9.364351638424395,-0.8114998496931046,-2.7965549648344514,2026-04-11T19:11:40.707-05:00
1775952700717315000,4.588315185546875,9.4147362562716,-0.6203924636866897,-2.673612768037617,2026-04-11T19:11:40.717-05:00
1775952700727371000,4.59837109375,9.459452180832624,-0.48547217126116154,-2.5403733413711187,2026-04-11T19:11:40.727-05:00
1775952700737428000,4.608427978515625,9.500423658168316,-0.3974256024850532,-2.3988300506092606,2026-04-11T19:11:40.737-05:00
1775952700747485200,4.618485107421875,9.540639348700642,-0.33518468875791874,-2.243701302087307,2026-04-11T19:11:40.747-05:00
1775952700757542100,4.628542236328125,9.581695581710338,-0.2782012023686431,-2.0698045786008237,2026-04-11T19:11:40.757-05:00
1775952700767599000,4.63859912109375,9.62378466489911,-0.20773414769116788,-1.873500792995095,2026-04-11T19:11:40.767-05:00
1775952700777656000,4.648656005859375,9.66347019407749,-0.10632599303871393,-1.666262502529472,2026-04-11T19:11:40.777-05:00
1775952700787713000,4.658713134765625,9.698519295626879,0.020879756653844377,-1.4521199856333433,2026-04-11T19:11:40.787-05:00
1775952700797769200,4.668769287109375,9.728402977237105,0.15183029149845242,-1.2269982479527592,2026-04-11T19:11:40.797-05:00
1775952700807826200,4.678826171875,9.75081179292202,0.27170572113581,-1.009098059023544,2026-04-11T19:11:40.807-05:00
1775952700817883100,4.688883056640625,9.764376792415977,0.3764131730619818,-0.8280178537737578,2026-04-11T19:11:40.817-05:00
1775952700827940000,4.698940185546875,9.770582076796888,0.46473899717088785,-0.7001086822193116,2026-04-11T19:11:40.827-05:00
1775952700837997000,4.7089970703125,9.772145672851801,0.5312378971360624,-0.6271759132817387,2026-04-11T19:11:40.837-05:00
1775952700848054300,4.71905419921875,9.771458275109529,0.56964273885414,-0.6037258449155837,2026-04-11T19:11:40.848-05:00
1775952700858111500,4.729111572265625,9.769615862113238,0.5808830582601949,-0.6225316676724701,2026-04-11T19:11:40.858-05:00
1775952700868168400,4.73916845703125,9.766624279081821,0.5756456690633669,-0.6723253338892012,2026-04-11T19:11:40.868-05:00
1775952700878224400,4.749224365234375,9.763819743055105,0.5673212005713955,-0.718575190019235,2026-04-11T19:11:40.878-05:00
1775952700888281300,4.75928125,9.76304817416072,0.5716661344405264,-0.7256016545899212,2026-04-11T19:11:40.888-05:00
1775952700898338300,4.76933837890625,9.763896315422654,0.6062534271644427,-0.6849725609511137,2026-04-11T19:11:40.898-05:00
1775952700908395300,4.779395263671875,9.764773682779072,0.6749109664682299,-0.6034232087071985,2026-04-11T19:11:40.908-05:00
1775952700918452200,4.7894521484375,9.763673028060794,0.772062230861187,-0.4949867993857711,2026-04-11T19:11:40.918-05:00
1775952700928509200,4.79950927734375,9.758852476036548,0.8883769723422825,-0.382037406151928,2026-04-11T19:11:40.928-05:00
1775952700938566100,4.809566162109375,9.750108613088726,1.0115845420770346,-0.28720291253505276,2026-04-11T19:11:40.938-05:00
1775952700948622300,4.819622314453125,9.738119484609365,1.1350274549376218,-0.2260132979591377,2026-04-11T19:11:40.948-05:00
1775952700958679300,4.82967919921875,9.724451024740933,1.2560641834393143,-0.16637504101106895,2026-04-11T19:11:40.958-05:00
1775952700968736500,4.839736572265625,9.707772861662507,1.386506234472245,-0.08439121547318063,2026-04-11T19:11:40.968-05:00
1775952700978793500,4.84979345703125,9.684902858206629,1.540164910441637,0.029671639444876927,2026-04-11T19:11:40.978-05:00
1775952700988850400,4.859850341796875,9.651790862199663,1.7265221793115137,0.18022610917109996,2026-04-11T19:11:40.988-05:00
1775952700998907400,4.869907470703125,9.602937691703438,1.9615550701536237,0.3259078514445573,2026-04-11T19:11:40.998-05:00
1775952701008964400,4.87996435546875,9.531575167757271,2.268762531977147,0.414940545181185,2026-04-11T19:11:41.008-05:00
1775952701019020300,4.890020263671875,9.432295293837786,2.6410169048592445,0.4767014203064143,2026-04-11T19:11:41.019-05:00
1775952701029077200,4.9000771484375,9.309503611427544,3.0330580743595954,0.5514686381295323,2026-04-11T19:11:41.029-05:00
1775952701039134200,4.91013427734375,9.179080411225558,3.3911206941515206,0.6442928331036121,2026-04-11T19:11:41.039-05:00
1775952701049191200,4.920191162109375,9.060378043955565,3.67747446077764,0.745759184216708,2026-04-11T19:11:41.049-05:00
1775952701059248400,4.930248291015625,8.966841682124137,3.8864030424177645,0.8136328431338071,2026-04-11T19:11:41.059-05:00
1775952701069305300,4.940305419921875,8.900165854689478,4.035114763504266,0.8217861928425729,2026-04-11T19:11:41.069-05:00
1775952701079362600,4.950362548828125,8.85130040923357,4.152755054500699,0.7612701301466673,2026-04-11T19:11:41.079-05:00
1775952701089419500,4.96041943359375,8.807145625686646,4.263977002887428,0.6504746635437011,2026-04-11T19:11:41.089-05:00
1775952701099475500,4.970475341796875,8.766532460269332,4.362436208073794,0.536123367622681,2026-04-11T19:11:41.099-05:00
1775952701109532400,4.980532470703125,8.735116746786236,4.434374778342247,0.45219245400447394,2026-04-11T19:11:41.109-05:00
1775952701119589400,4.99058935546875,8.709292569699883,4.487705386513471,0.4231313408235088,2026-04-11T19:11:41.119-05:00
1775952701129646300,5.000646240234375,8.676708396959304,4.548888169489801,0.43897425865419204,2026-04-11T19:11:41.129-05:00
1775952701139703300,5.010703369140625,8.631271172386407,4.6317152135193345,0.46765872054249047,2026-04-11T19:11:41.139-05:00
1775952701149760300,5.02076025390625,8.580430627465248,4.7238335252463814,0.4816806334910914,2026-04-11T19:11:41.149-05:00
1775952701159817200,5.030817138671875,8.539404205071925,4.800390695226192,0.45297308298815037,2026-04-11T19:11:41.159-05:00
1775952701169874200,5.040874267578125,8.52029676901996,4.8409141365334385,0.3747735526287928,2026-04-11T19:11:41.169-05:00
1775952701179930400,5.050930419921875,8.524584237080813,4.841891749393939,0.2407474690966308,2026-04-11T19:11:41.179-05:00
1775952701189987600,5.060987548828125,8.550833946102857,4.801318623726069,0.030848085645993704,2026-04-11T19:11:41.189-05:00
1775952701200044500,5.07104443359375,8.602119312182069,4.700359710678458,-0.28389777004243805,2026-04-11T19:11:41.200-05:00
1775952701210101500,5.0811015625,8.671163037791848,4.524144773377478,-0.716544999365881,2026-04-11T19:11:41.210-05:00
1775952701220158500,5.091158447265625,8.72884365786612,4.2884257999673485,-1.2597833500929176,2026-04-11T19:11:41.220-05:00
1775952701230215400,5.10121533203125,8.74156402322948,4.0273879686445,-1.8803109114013612,2026-04-11T19:11:41.230-05:00
1775952701240272400,5.1112724609375,8.691172391119599,3.782019123357534,-2.516001408919692,2026-04-11T19:11:41.240-05:00
1775952701250328300,5.121328369140625,8.583786367633937,3.579796469096839,-3.1103102408662435,2026-04-11T19:11:41.250-05:00
1775952701260385300,5.13138525390625,8.43407686768174,3.421722460903227,-3.6508226006954905,2026-04-11T19:11:41.260-05:00
1775952701270442200,5.141442138671875,8.260088081997633,3.2868466652065513,-4.139807894644141,2026-04-11T19:11:41.270-05:00
1775952701280499200,5.151499267578125,8.080901143148541,3.1569360907018185,-4.572000749529898,2026-04-11T19:11:41.280-05:00
1775952701290556200,5.16155615234375,7.920504244965314,3.0281068816930055,-4.926113170391321,2026-04-11T19:11:41.290-05:00
1775952701300613400,5.17161328125,7.792033932396769,2.85800019813925,-5.223643580070138,2026-04-11T19:11:41.300-05:00
1775952701310670300,5.18167041015625,7.714312979334593,2.5406635564893483,-5.495885234713554,2026-04-11T19:11:41.310-05:00
1775952701320727300,5.191727294921875,7.6846613529145715,2.0711969097420573,-5.729442646175623,2026-04-11T19:11:41.320-05:00
1775952701330783500,5.201783447265625,7.617572853025794,1.5478231701098382,-5.978896130427718,2026-04-11T19:11:41.330-05:00
1775952701340840400,5.21184033203125,7.441919348999858,1.07929745747447,-6.294704539597034,2026-04-11T19:11:41.340-05:00
1775952701350897400,5.2218974609375,7.199931378322839,0.6183121502812952,-6.629408203372359,2026-04-11T19:11:41.350-05:00
1775952701360954400,5.231954345703125,6.934657224604487,0.14196491370741277,-6.932584509983658,2026-04-11T19:11:41.360-05:00
1775952701371011300,5.24201123046875,6.712606126540899,-0.3057794017817825,-7.142672783052921,2026-04-11T19:11:41.371-05:00
1775952701381068300,5.252068359375,6.55314621694684,-0.7087616520132869,-7.261151862961054,2026-04-11T19:11:41.381-05:00
1775952701391125200,5.262125244140625,6.4843246096551415,-1.0759876022741197,-7.277785017853975,2026-04-11T19:11:41.391-05:00
1775952701401182500,5.272182373046875,6.480740905949473,-1.3898850632555781,-7.227630117109418,2026-04-11T19:11:41.401-05:00
1775952701411238100,5.282238037109375,6.4973325597882265,-1.643990464966744,-7.159077974408865,2026-04-11T19:11:41.411-05:00
1775952701421295400,5.29229541015625,6.49137686625421,-1.876248338137567,-7.1071835365205995,2026-04-11T19:11:41.421-05:00
1775952701431352300,5.302352294921875,6.44419192123115,-2.1200020033128557,-7.081551082614064,2026-04-11T19:11:41.431-05:00
1775952701441409300,5.3124091796875,6.3694795023351904,-2.3803480529792607,-7.066402613320946,2026-04-11T19:11:41.441-05:00
1775952701451466500,5.322466552734375,6.304650179550051,-2.6418714758619664,-7.03152010051012,2026-04-11T19:11:41.451-05:00
1775952701461523500,5.3325234375,6.270370893329382,-2.9047715939253567,-6.958097721424698,2026-04-11T19:11:41.461-05:00
1775952701471580400,5.342580322265625,6.27318945788145,-3.167667912596464,-6.839836083659529,2026-04-11T19:11:41.471-05:00
1775952701481636400,5.35263623046875,6.281753288087248,-3.4400837547630068,-6.698937082150578,2026-04-11T19:11:41.481-05:00
1775952701491693300,5.362693359375,6.267144332498312,-3.717070850367844,-6.5632794884264465,2026-04-11T19:11:41.491-05:00
1775952701501750300,5.372750244140625,6.222496212476492,-3.983145506814122,-6.448682802909612,2026-04-11T19:11:41.501-05:00
1775952701511807200,5.38280712890625,6.135489544674754,-4.231655864997208,-6.373325656369328,2026-04-11T19:11:41.511-05:00
1775952701521864400,5.392864501953125,6.022045536324382,-4.472553994610905,-6.31677433258593,2026-04-11T19:11:41.521-05:00
1775952701531921400,5.40292138671875,5.8825084708184,-4.713471997968853,-6.272928176596761,2026-04-11T19:11:41.531-05:00
1775952701541978400,5.412978271484375,5.719021205404401,-4.958358904957771,-6.235212486186623,2026-04-11T19:11:41.541-05:00
1775952701552035300,5.423035400390625,5.538817782989144,-5.22024458528161,-6.183921859410405,2026-04-11T19:11:41.552-05:00
1775952701562091500,5.433091552734375,5.364182516095042,-5.492941582477092,-6.101107382601499,2026-04-11T19:11:41.562-05:00
1775952701572148500,5.4431484375,5.181653281080722,-5.760668974566459,-6.011283319291472,2026-04-11T19:11:41.572-05:00
1775952701582205400,5.453205322265625,4.974402861785888,-5.994169102883339,-5.957825869870185,2026-04-11T19:11:41.582-05:00
1775952701592262400,5.463262451171875,4.7700391038432715,-6.171832193166018,-5.943534309667348,2026-04-11T19:11:41.592-05:00
1775952701602319400,5.4733193359375,4.617556924307346,-6.311972485262155,-5.9167181989341975,2026-04-11T19:11:41.602-05:00
1775952701612376300,5.483376220703125,4.556185048499703,-6.436037840870022,-5.830003792077303,2026-04-11T19:11:41.612-05:00
1775952701622433300,5.493433349609375,4.608826213102042,-6.530381427431106,-5.681830415651202,2026-04-11T19:11:41.622-05:00
1775952701632490500,5.503490478515625,4.74719540387243,-6.582036211344599,-5.50557251599133,2026-04-11T19:11:41.632-05:00
1775952701642546400,5.51354638671875,4.914973352217674,-6.593537848567962,-5.3421577312916515,2026-04-11T19:11:41.642-05:00
1775952701652603400,5.523603271484375,5.097626505872607,-6.583278320360184,-5.181216643229127,2026-04-11T19:11:41.652-05:00
1775952701662660400,5.533660400390625,5.2965258609294885,-6.567958586153388,-4.997908240535855,2026-04-11T19:11:41.662-05:00
1775952701672717300,5.54371728515625,5.495131785997748,-6.554522181475162,-4.797095160812139,2026-04-11T19:11:41.672-05:00
1775952701682774300,5.553774169921875,5.6852732495814555,-6.542053160524368,-4.587982747037708,2026-04-11T19:11:41.682-05:00
1775952701692831200,5.563831298828125,5.8606683949321505,-6.524373126927018,-4.388113377904892,2026-04-11T19:11:41.692-05:00
1775952701702888200,5.57388818359375,6.014539106217026,-6.503489328852296,-4.207177257300913,2026-04-11T19:11:41.702-05:00
1775952701712945200,5.583945068359375,6.1413528837502,-6.484311165651679,-4.050663045769929,2026-04-11T19:11:41.712-05:00
1775952701723001300,5.59400146484375,6.249126445248723,-6.469636743611097,-3.9067467422664164,2026-04-11T19:11:41.723-05:00
1775952701733058300,5.604058349609375,6.3688809519201515,-6.462572796574235,-3.7206045774519443,2026-04-11T19:11:41.733-05:00
1775952701743115300,5.614115234375,6.501680233603715,-6.463949345624447,-3.480784013941884,2026-04-11T19:11:41.743-05:00
1775952701753172500,5.62417236328125,6.609983371934295,-6.455127156743407,-3.2878333381563425,2026-04-11T19:11:41.753-05:00
1775952701763229400,5.6342294921875,6.7014522798419,-6.4334741278618575,-3.141867408646643,2026-04-11T19:11:41.763-05:00
1775952701773286400,5.644286376953125,6.776057731232046,-6.428549530941248,-2.988168546797335,2026-04-11T19:11:41.773-05:00
1775952701783343400,5.65434326171875,6.83815675227046,-6.434007211825251,-2.830815546354651,2026-04-11T19:11:41.783-05:00
1775952701793399300,5.6643994140625,6.91508743173778,-6.428692738804221,-2.650262872110307,2026-04-11T19:11:41.793-05:00
1775952701803456300,5.674456298828125,7.018083111310005,-6.409217053961753,-2.4163760825634,2026-04-11T19:11:41.803-05:00
1775952701813513200,5.68451318359375,7.1320701404958955,-6.374578871300816,-2.1607174600608645,2026-04-11T19:11:41.813-05:00
1775952701823570200,5.694570068359375,7.2399419016718864,-6.33462270848751,-1.9042486902192235,2026-04-11T19:11:41.823-05:00
1775952701833627400,5.70462744140625,7.333510996729135,-6.297820625790953,-1.6515082932509482,2026-04-11T19:11:41.833-05:00
1775952701843684400,5.714684326171875,7.4240586981385945,-6.252956817191839,-1.39795731055215,2026-04-11T19:11:41.843-05:00
1775952701853741000,5.724740966796875,7.529412339013814,-6.176400816255808,-1.1534358028095215,2026-04-11T19:11:41.853-05:00
1775952701863798000,5.734798095703125,7.660099158588051,-6.054810910850763,-0.9124117817938328,2026-04-11T19:11:41.863-05:00
1775952701873855000,5.74485498046875,7.7953844118684525,-5.909501107162237,-0.6929679436191916,2026-04-11T19:11:41.873-05:00
1775952701883911000,5.754910888671875,7.9118468912571664,-5.771233623200654,-0.5157129957459867,2026-04-11T19:11:41.883-05:00
1775952701893968000,5.7649677734375,8.008749514651297,-5.647954449534416,-0.3618583953456953,2026-04-11T19:11:41.893-05:00
1775952701904024800,5.77502490234375,8.091859759536385,-5.5363844183623785,-0.20167479285327716,2026-04-11T19:11:41.904-05:00
1775952701914081800,5.785081787109375,8.169291374263167,-5.425193741896749,-0.01830316018957528,2026-04-11T19:11:41.914-05:00
1775952701924139000,5.795138916015625,8.249602928340435,-5.299614474594593,0.16877134329676627,2026-04-11T19:11:41.924-05:00
1775952701934196000,5.805196044921875,8.335608310145139,-5.159686363944411,0.25635873359590766,2026-04-11T19:11:41.934-05:00
1775952701944253000,5.8152529296875,8.409561435106395,-5.039640765371918,0.22719366685012354,2026-04-11T19:11:41.944-05:00
1775952701954310000,5.825309814453125,8.452014675432443,-4.970301271685957,0.17306725039239973,2026-04-11T19:11:41.954-05:00
1775952701964366000,5.835365966796875,8.482185357290506,-4.919272510716318,0.15390605659289286,2026-04-11T19:11:41.964-05:00
1775952701974423000,5.845423095703125,8.52479115782976,-4.843354807683825,0.20047155454335733,2026-04-11T19:11:41.974-05:00
1775952701984480000,5.85547998046875,8.592897894850372,-4.716792374563217,0.2905552734365687,2026-04-11T19:11:41.984-05:00
1775952701994537000,5.865536865234375,8.68123025829792,-4.543553238202631,0.4034248063672334,2026-04-11T19:11:41.994-05:00
1775952702004594000,5.875593994140625,8.76955736104846,-4.360607239080966,0.5003685654893517,2026-04-11T19:11:42.004-05:00
1775952702014651000,5.88565087890625,8.833381306183338,-4.223331396505237,0.5524783266287296,2026-04-11T19:11:42.014-05:00
1775952702024708000,5.8957080078125,8.86571647259891,-4.148514932712913,0.5994375366045162,2026-04-11T19:11:42.024-05:00
1775952702034765000,5.90576513671875,8.882214018413425,-4.1067400300398464,0.6413933122698218,2026-04-11T19:11:42.034-05:00
1775952702044821000,5.915821044921875,8.894358045193552,-4.080364941072464,0.6413665703933685,2026-04-11T19:11:42.044-05:00
1775952702054878000,5.9258779296875,8.903270250445603,-4.0715380760163065,0.5698687296297401,2026-04-11T19:11:42.054-05:00
1775952702064935000,5.935934814453125,8.912121665421127,-4.0770518710017205,0.34953733149822797,2026-04-11T19:11:42.064-05:00
1775952702074991900,5.945991943359375,8.920257625603675,-4.073666904738545,-0.0679534278887324,2026-04-11T19:11:42.074-05:00
1775952702085049000,5.956049072265625,8.89302182815373,-4.084010019576549,-0.6367113649986684,2026-04-11T19:11:42.085-05:00
1775952702095106000,5.96610595703125,8.797845882421731,-4.1490310655415055,-1.2465471441619098,2026-04-11T19:11:42.095-05:00
1775952702105163000,5.9761630859375,8.647877439272403,-4.256711688059569,-1.806930325631052,2026-04-11T19:11:42.105-05:00
1775952702115220000,5.986219970703125,8.503674135521054,-4.353067491225898,-2.2155755700603126,2026-04-11T19:11:42.115-05:00
1775952702125276000,5.99627587890625,8.416672728416323,-4.390210642445087,-2.4609090517729517,2026-04-11T19:11:42.125-05:00
1775952702135332900,6.006332763671875,8.395228373849392,-4.3488180170878765,-2.603514857199788,2026-04-11T19:11:42.135-05:00
1775952702145390000,6.01639013671875,8.413293022850155,-4.26761945104301,-2.6784984942525623,2026-04-11T19:11:42.145-05:00
1775952702155447000,6.026447021484375,8.41656692995429,-4.216567601458728,-2.748155967846513,2026-04-11T19:11:42.155-05:00
1775952702165504000,6.03650390625,8.373061550226808,-4.242299424086511,-2.8399171366989613,2026-04-11T19:11:42.165-05:00
1775952702175561000,6.04656103515625,8.25214559856057,-4.3564235236555335,-3.0156366916984316,2026-04-11T19:11:42.175-05:00
1775952702185618000,6.056617919921875,8.03545105909407,-4.561413596802949,-3.2856378739386796,2026-04-11T19:11:42.185-05:00
1775952702195675000,6.0666748046875,7.778338584521412,-4.800097849759459,-3.553440377090871,2026-04-11T19:11:42.195-05:00
1775952702205731000,6.07673095703125,7.441720611557364,-4.985691148519516,-3.9917423625066872,2026-04-11T19:11:42.205-05:00
1775952702215788000,6.0867880859375,7.065199082750081,-5.115608737286925,-4.481503024742007,2026-04-11T19:11:42.215-05:00
1775952702225845000,6.096844970703125,6.753648915547132,-5.208863944089412,-4.8400779779702425,2026-04-11T19:11:42.225-05:00
1775952702235902000,6.10690185546875,6.533361904546618,-5.26998622905016,-5.07078292261064,2026-04-11T19:11:42.235-05:00
1775952702245959200,6.116959228515625,6.422530124521255,-5.281000375017523,-5.199279538664221,2026-04-11T19:11:42.245-05:00
1775952702256016100,6.12701611328125,6.396488505291939,-5.220090271502733,-5.29206537438929,2026-04-11T19:11:42.256-05:00
1775952702266073000,6.137072998046875,6.432769778984785,-5.086195011276007,-5.377770896464586,2026-04-11T19:11:42.266-05:00
1775952702276130000,6.147130126953125,6.48889673987627,-4.907210317000747,-5.475753716310859,2026-04-11T19:11:42.276-05:00
1775952702286186000,6.15718603515625,6.491895921692252,-4.755023321019113,-5.6049494205445045,2026-04-11T19:11:42.286-05:00
1775952702296243000,6.167242919921875,6.393457174772024,-4.693495377866924,-5.767599650612473,2026-04-11T19:11:42.296-05:00
1775952702306300000,6.1772998046875,6.198959269544482,-4.717604567728936,-5.957138472127914,2026-04-11T19:11:42.306-05:00
1775952702316356900,6.18735693359375,5.91076367444396,-4.802715046520531,-6.177959736135602,2026-04-11T19:11:42.316-05:00
1775952702326413800,6.197413818359375,5.541601276227832,-4.932751000970602,-6.413190633767843,2026-04-11T19:11:42.326-05:00
1775952702336470800,6.207470703125,5.127445305553079,-5.093168941941857,-6.628675797444582,2026-04-11T19:11:42.336-05:00
1775952702346527700,6.21752783203125,4.6716032795324915,-5.276351087906956,-6.8195765549629925,2026-04-11T19:11:42.346-05:00
1775952702356585000,6.2275849609375,4.150907380807399,-5.4842783835500475,-6.990208431434631,2026-04-11T19:11:42.356-05:00
1775952702366642200,6.23764208984375,3.578698444727063,-5.709049846488237,-7.125313067451119,2026-04-11T19:11:42.366-05:00
1775952702376698000,6.247697998046875,2.8785984572708605,-5.939629118922352,-7.252921794754267,2026-04-11T19:11:42.376-05:00
1775952702386755000,6.257755126953125,2.007239547485858,-6.179773507559299,-7.345187405997514,2026-04-11T19:11:42.386-05:00
1775952702396812000,6.26781201171875,1.1388301351562142,-6.439514577069878,-7.307948685449361,2026-04-11T19:11:42.396-05:00
1775952702406869000,6.277868896484375,0.436945054381527,-6.715713444906473,-7.1329270495861765,2026-04-11T19:11:42.406-05:00
1775952702416926000,6.287926025390625,-0.022723836450837552,-6.986193350574374,-6.882075973495841,2026-04-11T19:11:42.416-05:00
1775952702426983000,6.29798291015625,-0.3115843252008781,-7.242235565567016,-6.604794571119546,2026-04-11T19:11:42.426-05:00
1775952702437039900,6.308039794921875,-0.5884387343367561,-7.481148951104283,-6.313202319318056,2026-04-11T19:11:42.437-05:00
1775952702447096800,6.318096923828125,-0.9235651901014149,-7.679765982088446,-6.028149698418378,2026-04-11T19:11:42.447-05:00
1775952702457152800,6.32815283203125,-1.2986638464987277,-7.801977234262227,-5.7976721327930685,2026-04-11T19:11:42.457-05:00
1775952702467210000,6.3382099609375,-1.7001517665192485,-7.853788670042157,-5.621196790990233,2026-04-11T19:11:42.467-05:00
1775952702477267200,6.34826708984375,-2.064875013244152,-7.866096362951398,-5.480072164031863,2026-04-11T19:11:42.477-05:00
1775952702487324200,6.35832421875,-2.330075955595821,-7.871040249094366,-5.365429885807633,2026-04-11T19:11:42.487-05:00
1775952702497381000,6.368381103515625,-2.482118136279285,-7.887732440698146,-5.271921581026912,2026-04-11T19:11:42.497-05:00
1775952702507438000,6.37843798828125,-2.540341484928131,-7.917718413639068,-5.198730088087916,2026-04-11T19:11:42.507-05:00
1775952702517495000,6.3884951171875,-2.5577751425489783,-7.9512109333962195,-5.1387178101956845,2026-04-11T19:11:42.517-05:00
1775952702527552000,6.398552001953125,-2.624510591216385,-7.959980515307188,-5.091269830322266,2026-04-11T19:11:42.527-05:00
1775952702537609000,6.40860888671875,-2.8058403873130677,-7.926845722946524,-5.046064660939574,2026-04-11T19:11:42.537-05:00
1775952702547665000,6.418664794921875,-3.0907614907875653,-7.8574448544621465,-4.987797765409947,2026-04-11T19:11:42.547-05:00
1775952702557721900,6.428721923828125,-3.498430729791522,-7.759984012663364,-4.869703008644283,2026-04-11T19:11:42.557-05:00
1775952702567778800,6.43877880859375,-3.960879022209346,-7.634459690418839,-4.711353106118739,2026-04-11T19:11:42.567-05:00
1775952702577836000,6.4488359375,-4.316840285807848,-7.51748575437665,-4.5850504929780955,2026-04-11T19:11:42.577-05:00
1775952702587893000,6.45889306640625,-4.524324221597611,-7.429802794748544,-4.52757299426049,2026-04-11T19:11:42.587-05:00
1775952702597950000,6.468949951171875,-4.584267233645916,-7.378657713922858,-4.550856254692375,2026-04-11T19:11:42.597-05:00
1775952702608007000,6.4790068359375,-4.52776910135448,-7.358085466015338,-4.639857895703614,2026-04-11T19:11:42.608-05:00
1775952702618064000,6.48906396484375,-4.420645820458233,-7.357117497766017,-4.7435327897116535,2026-04-11T19:11:42.618-05:00
1775952702628120000,6.4991201171875,-4.334678724837303,-7.337651749795675,-4.851784197854996,2026-04-11T19:11:42.628-05:00
1775952702638177000,6.509177001953125,-4.358754596951604,-7.251812372207641,-4.958111067676544,2026-04-11T19:11:42.638-05:00
1775952702648234000,6.51923388671875,-4.4466023917526005,-7.071192185685038,-5.1377399050742385,2026-04-11T19:11:42.648-05:00
1775952702658291000,6.529291015625,-4.531656171920895,-6.813005944401025,-5.405314736950397,2026-04-11T19:11:42.658-05:00
1775952702668348000,6.539347900390625,-4.6286455968156455,-6.535237635290622,-5.660097307270765,2026-04-11T19:11:42.668-05:00
1775952702678405000,6.549405029296875,-4.728883502112328,-6.237126210853457,-5.908155537772179,2026-04-11T19:11:42.678-05:00
1775952702688462000,6.559462158203125,-4.817931028091907,-5.883840596204996,-6.191796538308262,2026-04-11T19:11:42.688-05:00
1775952702698519000,6.56951904296875,-4.87294330573976,-5.493917149510979,-6.499360850745439,2026-04-11T19:11:42.698-05:00
1775952702708576000,6.579575927734375,-4.866325641165673,-5.11108629142642,-6.809262666219473,2026-04-11T19:11:42.708-05:00
1775952702718632000,6.5896318359375,-4.774305821377038,-4.776965103714168,-7.110344630900025,2026-04-11T19:11:42.718-05:00
1775952702728689000,6.59968896484375,-4.61544095506668,-4.489792714181542,-7.3966113037645815,2026-04-11T19:11:42.728-05:00
1775952702738745900,6.609745849609375,-4.440291601170599,-4.2458603314384815,-7.643747158724069,2026-04-11T19:11:42.738-05:00
1775952702748803000,6.619802978515625,-4.255162705051899,-4.054328582540154,-7.850247636434435,2026-04-11T19:11:42.748-05:00
1775952702758860000,6.629860107421875,-4.020661582998931,-3.93007997931987,-8.034870628857613,2026-04-11T19:11:42.758-05:00
1775952702768917000,6.6399169921875,-3.7385470613777634,-3.868837575110793,-8.199131801253557,2026-04-11T19:11:42.768-05:00
1775952702778974000,6.649973876953125,-3.368999170975387,-3.8861847234919664,-8.349718084040283,2026-04-11T19:11:42.778-05:00
1775952702789031200,6.66003125,-2.8668270631954074,-3.9825568932712074,-8.490638128337263,2026-04-11T19:11:42.789-05:00
1775952702799088000,6.670088134765625,-2.217552130830288,-4.167966652157903,-8.59540081758201,2026-04-11T19:11:42.799-05:00
1775952702809144000,6.68014404296875,-1.4227939379058778,-4.385198367241025,-8.655407250255346,2026-04-11T19:11:42.809-05:00
1775952702819201000,6.690200927734375,-0.6318434667013585,-4.483513487781584,-8.698809754130243,2026-04-11T19:11:42.819-05:00
1775952702829258000,6.700258056640625,-0.02697117114741122,-4.373359168626368,-8.777436716121434,2026-04-11T19:11:42.829-05:00
1775952702839315000,6.71031494140625,0.34709545477144416,-4.0857258835837245,-8.908239855551718,2026-04-11T19:11:42.839-05:00
1775952702849372000,6.720371826171875,0.5873237222995609,-3.686661683578789,-9.0682936393857,2026-04-11T19:11:42.849-05:00
1775952702859429000,6.73042919921875,0.8316809793911873,-3.2523975753769276,-9.214152893650532,2026-04-11T19:11:42.859-05:00
1775952702869486000,6.740486083984375,1.1962713935166596,-2.83740193900764,-9.310665056422351,2026-04-11T19:11:42.869-05:00
1775952702879543000,6.75054296875,1.7750708139032125,-2.48594967726618,-9.318774713119863,2026-04-11T19:11:42.879-05:00
1775952702889600000,6.76060009765625,2.578411980125308,-2.208479912710935,-9.20026056189835,2026-04-11T19:11:42.889-05:00
1775952702899656200,6.77065625,3.5161624935761093,-1.9674049652256071,-8.940713553655147,2026-04-11T19:11:42.899-05:00
1775952702909713200,6.780713134765625,4.437277221785486,-1.7158587464779615,-8.575358731028437,2026-04-11T19:11:42.909-05:00
1775952702919770000,6.79077001953125,5.230698174756765,-1.4303763558588922,-8.170937387904525,2026-04-11T19:11:42.919-05:00
1775952702929827000,6.8008271484375,5.8696028120160095,-1.1297066983062773,-7.774439823517203,2026-04-11T19:11:42.929-05:00
1775952702939884000,6.810884033203125,6.426928067219257,-0.8740830009866505,-7.355338797655701,2026-04-11T19:11:42.939-05:00
1775952702949941000,6.82094091796875,6.961046634358167,-0.7008181456629187,-6.871906461659074,2026-04-11T19:11:42.949-05:00
1775952702959998200,6.830998291015625,7.42262895759642,-0.5701690642831847,-6.383565895354748,2026-04-11T19:11:42.959-05:00
1775952702970055200,6.84105517578125,7.774659603747725,-0.46594541381858284,-5.9588546283960335,2026-04-11T19:11:42.970-05:00
1775952702980112100,6.851112060546875,8.057991392204165,-0.3690359588248655,-5.577005182564259,2026-04-11T19:11:42.980-05:00
1775952702990168000,6.86116796875,8.2732614518255,-0.2512906548176892,-5.259318120041489,2026-04-11T19:11:42.990-05:00
1775952703000225000,6.87122509765625,8.404738544994592,-0.08295067040920256,-5.052113293454051,2026-04-11T19:11:43.000-05:00
1775952703010282000,6.881281982421875,8.451514909216762,0.17396624505873767,-4.971113172590733,2026-04-11T19:11:43.010-05:00
1775952703020339000,6.8913388671875,8.407024610105156,0.524632470989041,-5.021661456567049,2026-04-11T19:11:43.020-05:00
1775952703030396200,6.901396240234375,8.245267529484629,0.9469646242588758,-5.223906614920496,2026-04-11T19:11:43.030-05:00
1775952703040453000,6.911453125,8.012690361231565,1.460221312893927,-5.462140201500058,2026-04-11T19:11:43.040-05:00
1775952703050510000,6.921510009765625,7.689540941649675,2.0490746559135613,-5.7308478367984295,2026-04-11T19:11:43.050-05:00
1775952703060567000,6.931567138671875,7.175597732055187,2.644781810350716,-6.138918350079655,2026-04-11T19:11:43.060-05:00
1775952703070624300,6.941624267578125,6.430945486167073,3.1581328992709516,-6.696232499366999,2026-04-11T19:11:43.070-05:00
1775952703080680200,6.95168017578125,5.594901489260792,3.5348441054314375,-7.23687608436048,2026-04-11T19:11:43.080-05:00
1775952703090737200,6.961737060546875,4.848230304765701,3.7889527220129966,-7.6360279626488685,2026-04-11T19:11:43.090-05:00
1775952703100794000,6.971794189453125,4.290953857140243,3.9753628901138898,-7.871124420246481,2026-04-11T19:11:43.100-05:00
1775952703110851000,6.98185107421875,3.945674146553874,4.144860794119537,-7.963803288465738,2026-04-11T19:11:43.110-05:00
1775952703120908000,6.991907958984375,3.7515690400362014,4.324958125811815,-7.961838125872611,2026-04-11T19:11:43.120-05:00
1775952703130965000,7.001965087890625,3.644549511775374,4.514446093922853,-7.906163000401854,2026-04-11T19:11:43.130-05:00
1775952703141022000,7.01202197265625,3.588640285287797,4.700820313927531,-7.8226804150730365,2026-04-11T19:11:43.141-05:00
1775952703151079000,7.022078857421875,3.5686899686709044,4.885412326690554,-7.718005404111743,2026-04-11T19:11:43.151-05:00
1775952703161135900,7.032135986328125,3.570699554927647,5.079377147954702,-7.590812271872163,2026-04-11T19:11:43.161-05:00
1775952703171192000,7.042192138671875,3.584843815614283,5.291836241808533,-7.437454770806431,2026-04-11T19:11:43.171-05:00
1775952703181249000,7.0522490234375,3.586467909684777,5.524594611847401,-7.265429978671669,2026-04-11T19:11:43.181-05:00
1775952703191306200,7.06230615234375,3.592126666098833,5.765981109499931,-7.07251437419951,2026-04-11T19:11:43.191-05:00
1775952703201363200,7.07236328125,3.618015725114941,5.999460779550671,-6.861981864494085,2026-04-11T19:11:43.201-05:00
1775952703211420200,7.082420166015625,3.669406889656186,6.203470609489083,-6.650023705899715,2026-04-11T19:11:43.211-05:00
1775952703221477000,7.09247705078125,3.7351708629429337,6.379123528993129,-6.44404345267117,2026-04-11T19:11:43.221-05:00
1775952703231534000,7.1025341796875,3.806204593326151,6.529668895247578,-6.248727801319957,2026-04-11T19:11:43.231-05:00
1775952703241591000,7.112591064453125,3.8763855062723156,6.650489569845795,-6.075773619380593,2026-04-11T19:11:43.241-05:00
1775952703251648000,7.12264794921875,3.9385657758533954,6.7413207643717525,-5.934023554000258,2026-04-11T19:11:43.251-05:00
1775952703261704000,7.132703857421875,3.9834509195014833,6.809156867757439,-5.825623385035992,2026-04-11T19:11:43.261-05:00
1775952703271761000,7.142760986328125,3.9946752010881896,6.862582168474793,-5.7548149878412485,2026-04-11T19:11:43.271-05:00
1775952703281817900,7.15281787109375,3.9658743462786075,6.908779271504282,-5.719351460272073,2026-04-11T19:11:43.281-05:00
1775952703291875000,7.162875,3.912943258818984,6.94604663362503,-5.71066546499133,2026-04-11T19:11:43.291-05:00
1775952703301932000,7.17293212890625,3.8467715815141794,6.9693912688553326,-5.727155412021279,2026-04-11T19:11:43.301-05:00
1775952703311989200,7.1829892578125,3.7674882014408704,6.972654070043563,-5.775683588346839,2026-04-11T19:11:43.311-05:00
1775952703322046200,7.193046142578125,3.668877020563185,6.9515148359030485,-5.863973281696438,2026-04-11T19:11:43.322-05:00
1775952703332103200,7.203103271484375,3.5522646113097665,6.909004896953702,-5.9847688218533985,2026-04-11T19:11:43.332-05:00
1775952703342160100,7.21316015625,3.441077441975474,6.845152894768119,-6.1215410988211625,2026-04-11T19:11:43.342-05:00
1775952703352216000,7.223216064453125,3.3642060914799568,6.7602592735975975,-6.257106922608614,2026-04-11T19:11:43.352-05:00
1775952703362273000,7.23327294921875,3.334065512499213,6.6591071760654446,-6.380493648302554,2026-04-11T19:11:43.362-05:00
1775952703372330000,7.243330078125,3.340709188297391,6.559238104081153,-6.479694027245045,2026-04-11T19:11:43.372-05:00
1775952703382387000,7.253386962890625,3.3575364044576883,6.474058651706576,-6.556213787823915,2026-04-11T19:11:43.382-05:00
1775952703392444000,7.26344384765625,3.363317910468578,6.406027902531624,-6.619765930280089,2026-04-11T19:11:43.392-05:00
1775952703402501000,7.273501220703125,3.3566868018910285,6.352836995092034,-6.67416621350944,2026-04-11T19:11:43.402-05:00
1775952703412558000,7.28355810546875,3.3421137943983075,6.306193317338824,-6.725519968649745,2026-04-11T19:11:43.412-05:00
1775952703422615000,7.293614990234375,3.319923882161081,6.25728111013174,-6.7819584797084325,2026-04-11T19:11:43.422-05:00
1775952703432672000,7.303672119140625,3.3005291536003347,6.211577928099036,-6.833240338656306,2026-04-11T19:11:43.432-05:00
1775952703442729000,7.31372900390625,3.2748584135100245,6.171734578010439,-6.881523600310087,2026-04-11T19:11:43.442-05:00
1775952703452785200,7.32378515625,3.231818313206732,6.140912738767266,-6.929282545828819,2026-04-11T19:11:43.452-05:00
1775952703462842000,7.333842041015625,3.156260091136396,6.127877900627255,-6.975493092861771,2026-04-11T19:11:43.462-05:00
1775952703472899000,7.343899169921875,3.0422534804672,6.13053572165966,-7.023647759699821,2026-04-11T19:11:43.472-05:00
1775952703482956000,7.3539560546875,2.903827591073513,6.137183489111066,-7.076237778636813,2026-04-11T19:11:43.482-05:00
1775952703493013000,7.364012939453125,2.7520371931940315,6.142818864649534,-7.1317924925982945,2026-04-11T19:11:43.493-05:00
1775952703503070200,7.3740703125,2.5834853378668425,6.149222301951051,-7.189090835356712,2026-04-11T19:11:43.503-05:00
1775952703513127200,7.384127197265625,2.3939190438225864,6.161966632711887,-7.243598670613765,2026-04-11T19:11:43.513-05:00
1775952703523184000,7.39418408203125,2.1774936766862867,6.18982377693057,-7.288004214051365,2026-04-11T19:11:43.523-05:00
1775952703533241000,7.404240966796875,1.9325754977762697,6.240840847462415,-7.313512164795398,2026-04-11T19:11:43.533-05:00
1775952703543297000,7.414297119140625,1.6667533547863362,6.3139376478552816,-7.316180507221818,2026-04-11T19:11:43.543-05:00
1775952703553354000,7.42435400390625,1.395266171772033,6.402251891124248,-7.296219084689021,2026-04-11T19:11:43.553-05:00
1775952703563411000,7.434410888671875,1.144986904220283,6.488757039144635,-7.263295304730534,2026-04-11T19:11:43.563-05:00
1775952703573468000,7.444468017578125,0.953435866099596,6.550234128892422,-7.235729836934804,2026-04-11T19:11:43.573-05:00
1775952703583525000,7.454525146484375,0.8504481506381183,6.575948415863514,-7.225235330927371,2026-04-11T19:11:43.583-05:00
1775952703593582000,7.46458203125,0.8531829093642532,6.566321924862265,-7.233662383010983,2026-04-11T19:11:43.593-05:00
1775952703603639300,7.474639404296875,0.9552638852443546,6.540808713421225,-7.244010758545994,2026-04-11T19:11:43.603-05:00
1775952703613696300,7.4846962890625,1.1056580795250832,6.519927253434061,-7.241440615797043,2026-04-11T19:11:43.613-05:00
1775952703623753200,7.494753173828125,1.1995855595659464,6.514865878391266,-7.2310372952044,2026-04-11T19:11:43.623-05:00
1775952703633810200,7.50481005859375,1.2246367795184254,6.5258776862710715,-7.216893619039654,2026-04-11T19:11:43.633-05:00
1775952703643866000,7.5148662109375,1.256545829476416,6.546173455324769,-7.1929907654047005,2026-04-11T19:11:43.643-05:00
1775952703653923000,7.524923095703125,1.269263564491272,6.586301467573643,-7.1540201064974065,2026-04-11T19:11:43.653-05:00
1775952703663980000,7.53497998046875,1.2030548431117087,6.655418258419632,-7.1013003237009045,2026-04-11T19:11:43.663-05:00
1775952703674037000,7.545037109375,1.0706498945079743,6.756285693791508,-7.026856784874201,2026-04-11T19:11:43.674-05:00
1775952703684094000,7.555093994140625,0.8783698114603757,6.886091638877987,-6.926801834928989,2026-04-11T19:11:43.684-05:00
1775952703694151000,7.56515087890625,0.6033701268130913,7.03655517206788,-6.803911952841282,2026-04-11T19:11:43.694-05:00
1775952703704208000,7.575207763671875,0.23754368635294956,7.201065350788832,-6.652714260157943,2026-04-11T19:11:43.704-05:00
1775952703714265000,7.58526513671875,-0.20437090006945655,7.319767133536934,-6.523008852836489,2026-04-11T19:11:43.714-05:00
1775952703724322000,7.595322021484375,-0.5520546578565612,7.4183818215459585,-6.39008799059987,2026-04-11T19:11:43.724-05:00
1775952703734379000,7.60537890625,-0.8521222213301807,7.631280475860834,-6.099822018966078,2026-04-11T19:11:43.734-05:00
1775952703744435200,7.615435302734375,-1.2422218283087014,7.898995592990517,-5.6774225360810755,2026-04-11T19:11:43.744-05:00
1775952703754492200,7.6254921875,-1.7145957408048211,8.017462982460856,-5.380596475279331,2026-04-11T19:11:43.754-05:00
1775952703764549000,7.635549072265625,-2.083046775881201,7.914555565693974,-5.402879034236073,2026-04-11T19:11:43.764-05:00
1775952703774606000,7.645606201171875,-2.1841328224398193,7.66213446380794,-5.717659853923321,2026-04-11T19:11:43.774-05:00
1775952703784663000,7.6556630859375,-2.0763041697531937,7.386600781881809,-6.107164198422431,2026-04-11T19:11:43.784-05:00
1775952703794720000,7.665719970703125,-1.877839114460349,7.174061024007201,-6.41692689768672,2026-04-11T19:11:43.794-05:00
1775952703804777000,7.67577685546875,-1.6554460710912942,7.028558328095078,-6.6354533287554975,2026-04-11T19:11:43.804-05:00
1775952703814834200,7.685834228515625,-1.4083531784906982,6.902247239387035,-6.822456494313478,2026-04-11T19:11:43.814-05:00
1775952703824891100,7.69589111328125,-1.1039417040612547,6.768489926326274,-7.009939552342892,2026-04-11T19:11:43.824-05:00
1775952703834948000,7.705947998046875,-0.7619492715172469,6.627621319955587,-7.187800211024284,2026-04-11T19:11:43.834-05:00
1775952703845004000,7.716004150390625,-0.5289101848408579,6.506049534729123,-7.3186039349764584,2026-04-11T19:11:43.845-05:00
1775952703855060500,7.726060546875,-0.35790731963235883,6.416439406430721,-7.407537771448492,2026-04-11T19:11:43.855-05:00
1775952703865117400,7.736117431640625,-0.2306610324334353,6.370110201454162,-7.452441327536106,2026-04-11T19:11:43.865-05:00
1775952703875174400,7.74617431640625,-0.09341438855272717,6.3736804611563675,-7.452372938475012,2026-04-11T19:11:43.875-05:00
1775952703885231600,7.756231689453125,0.048160270028351805,6.420643872383237,-7.412380535304546,2026-04-11T19:11:43.885-05:00
1775952703895288600,7.76628857421875,0.15133920177957041,6.492155449411273,-7.348428579875827,2026-04-11T19:11:43.895-05:00
1775952703905345500,7.776345458984375,0.2022389112757519,6.564352670615911,-7.282769236007332,2026-04-11T19:11:43.905-05:00
1775952703915402500,7.786402587890625,0.19716369037069378,6.62793287012279,-7.2250950456738465,2026-04-11T19:11:43.915-05:00
1775952703925459500,7.79645947265625,0.11999948527528903,6.686376875784993,-7.172752279496192,2026-04-11T19:11:43.925-05:00
1775952703935516400,7.806516357421875,-0.06333057212736458,6.739956490281224,-7.123156766200065,2026-04-11T19:11:43.935-05:00
1775952703945572400,7.816572265625,-0.31999844473768024,6.787859228184819,-7.070569669872522,2026-04-11T19:11:43.945-05:00
1775952703955629300,7.82662939453125,-0.5838428579138591,6.820659674024581,-7.021973689007758,2026-04-11T19:11:43.955-05:00
1775952703965686300,7.836686279296875,-0.7924363989133387,6.824825561532378,-6.997443058863282,2026-04-11T19:11:43.965-05:00
1775952703975743200,7.8467431640625,-0.9108817957475781,6.803366009396314,-7.003919561401009,2026-04-11T19:11:43.975-05:00
1775952703985800400,7.856800537109375,-0.9502805438738315,6.7795338829100125,-7.021773782521485,2026-04-11T19:11:43.985-05:00
1775952703995857400,7.866857421875,-0.9382998909618705,6.771403767946362,-7.03122140982449,2026-04-11T19:11:43.995-05:00
1775952704005914600,7.87691455078125,-0.9034748804919421,6.782354201027751,-7.0252259688019745,2026-04-11T19:11:44.005-05:00
1775952704015971600,7.8869716796875,-0.8738517495140433,6.803824274557829,-7.008191831892728,2026-04-11T19:11:44.015-05:00
1775952704026028500,7.897028564453125,-0.876070740737766,6.82109105117917,-6.991109764188527,2026-04-11T19:11:44.026-05:00
1775952704036085500,7.90708544921875,-0.9226851193312555,6.823866945633291,-6.9823980499446385,2026-04-11T19:11:44.036-05:00
1775952704046141400,7.917141357421875,-1.0057052747800945,6.810915109601616,-6.983578784161805,2026-04-11T19:11:44.046-05:00
1775952704056198400,7.927198486328125,-1.1146125164836644,6.7851330180913205,-6.992138522714376,2026-04-11T19:11:44.056-05:00
1775952704066255400,7.93725537109375,-1.2331753291524945,6.753225721698999,-7.0031140902370215,2026-04-11T19:11:44.066-05:00
1775952704076312300,7.947312255859375,-1.3405423556767404,6.722988988867401,-7.0124699476033445,2026-04-11T19:11:44.076-05:00
1775952704086369300,7.957369384765625,-1.4181734384983777,6.699969347807764,-7.0192281896919,2026-04-11T19:11:44.086-05:00
1775952704096426500,7.967426513671875,-1.45480264884606,6.685715197005868,-7.0253200768262145,2026-04-11T19:11:44.096-05:00
1775952704106483500,7.9774833984375,-1.4486574240893124,6.680289664825796,-7.031749817612766,2026-04-11T19:11:44.106-05:00
1775952704116540400,7.98754052734375,-1.4085966318577527,6.683840050783753,-7.036513671013712,2026-04-11T19:11:44.116-05:00
1775952704126597400,7.997597412109375,-1.348917823703587,6.695083329331874,-7.037516710576415,2026-04-11T19:11:44.126-05:00
1775952704136654300,8.007654296875,-1.279461133378744,6.712261843147873,-7.034122976484895,2026-04-11T19:11:44.136-05:00
1775952704146711300,8.017711181640625,-1.211839184200391,6.731798902788758,-7.027424940150976,2026-04-11T19:11:44.146-05:00
1775952704156767500,8.027767578125,-1.1591756616357713,6.749173231437802,-7.019641446667909,2026-04-11T19:11:44.156-05:00
1775952704166824400,8.037824462890624,-1.1305646303098649,6.761305567780137,-7.01262893755734,2026-04-11T19:11:44.166-05:00
1775952704176881400,8.04788134765625,-1.1270792724121361,6.768054457518458,-7.006676751154661,2026-04-11T19:11:44.176-05:00
1775952704186938400,8.0579384765625,-1.144465291498974,6.7714908617079255,-7.000535764181613,2026-04-11T19:11:44.186-05:00
1775952704196995600,8.06799560546875,-1.174436432196945,6.772581579554081,-6.9945134351521725,2026-04-11T19:11:44.196-05:00
1775952704207052500,8.078052490234375,-1.209471359090507,6.771427733343839,-6.989657227292657,2026-04-11T19:11:44.207-05:00
1775952704217109500,8.088109619140624,-1.2445377040356398,6.768500447720289,-6.986337727481127,2026-04-11T19:11:44.217-05:00
1775952704227166500,8.09816650390625,-1.275596859166026,6.764643187770247,-6.984471933609247,2026-04-11T19:11:44.227-05:00
1775952704237223400,8.108223388671876,-1.3000026938870548,6.760909261938929,-6.983586382946371,2026-04-11T19:11:44.237-05:00
1775952704247280400,8.1182802734375,-1.315832423442602,6.757872670722008,-6.983561248505115,2026-04-11T19:11:44.247-05:00
1775952704257336300,8.12833642578125,-1.3231748951599,6.755208419948816,-6.984750750550627,2026-04-11T19:11:44.257-05:00
1775952704267393300,8.138393310546874,-1.3232400693506001,6.7520303744345895,-6.9878101381212465,2026-04-11T19:11:44.267-05:00
1775952704277450500,8.148450439453125,-1.3180690964534878,6.747668672093749,-6.992998354414105,2026-04-11T19:11:44.277-05:00
1775952704287507500,8.158507568359376,-1.311086397959292,6.742346600288152,-6.99944212372601,2026-04-11T19:11:44.287-05:00
1775952704297564700,8.168564697265625,-1.306209147311747,6.7371478626012795,-7.005356900727748,2026-04-11T19:11:44.297-05:00
1775952704307621600,8.17862158203125,-1.307372638133168,6.7338827233254905,-7.008279510176181,2026-04-11T19:11:44.307-05:00
1775952704317678600,8.1886787109375,-1.3165326806664466,6.734313515958189,-7.0061512659758325,2026-04-11T19:11:44.317-05:00
1775952704327735600,8.198735595703125,-1.3326163849830626,6.738985014900565,-6.998615609773993,2026-04-11T19:11:44.327-05:00
1775952704337792500,8.20879248046875,-1.3509046136066316,6.74787091666758,-6.98653646492362,2026-04-11T19:11:44.337-05:00
1775952704347849500,8.218849365234375,-1.3666492952272296,6.760312465089559,-6.9714312502503395,2026-04-11T19:11:44.347-05:00
1775952704357905400,8.228905517578125,-1.3757315963491796,6.775123080730438,-6.955247592690586,2026-04-11T19:11:44.357-05:00
1775952704367962400,8.23896240234375,-1.3752354833953082,6.79087769922316,-6.939964683362841,2026-04-11T19:11:44.367-05:00
1775952704378019300,8.249019287109375,-1.363593414787948,6.805941997364163,-6.927493908846378,2026-04-11T19:11:44.378-05:00
1775952704388076300,8.259076171875,-1.3413852362416683,6.8192901392370455,-6.918695685362816,2026-04-11T19:11:44.388-05:00
1775952704398133200,8.26913330078125,-1.3109629177100957,6.830575503361224,-6.913391733735799,2026-04-11T19:11:44.398-05:00
1775952704408190500,8.2791904296875,-1.2756599875301122,6.839996242657303,-6.910680721211433,2026-04-11T19:11:44.408-05:00
1775952704418247400,8.289247314453124,-1.2400177423931658,6.8480217282027,-6.909221170052885,2026-04-11T19:11:44.418-05:00
1775952704428304400,8.299304443359375,-1.2067874537687748,6.854673002785444,-6.908509222391247,2026-04-11T19:11:44.428-05:00
1775952704438361300,8.309361328125,-1.1775340328861028,6.859333395811915,-6.908930662673711,2026-04-11T19:11:44.438-05:00
1775952704448418300,8.319418212890625,-1.151853209793195,6.861965497881173,-6.910647403463721,2026-04-11T19:11:44.448-05:00
1775952704458475500,8.3294755859375,-1.1307274196561425,6.863393484857678,-6.91271777999699,2026-04-11T19:11:44.458-05:00
1775952704468531500,8.339531494140624,-1.1181577148098498,6.864298324742913,-6.913864611944556,2026-04-11T19:11:44.468-05:00
1775952704478588400,8.34958837890625,-1.1154039591223002,6.863801481136679,-6.914802769577503,2026-04-11T19:11:44.478-05:00
1775952704488645400,8.359645263671876,-1.1208134169504045,6.861386821210384,-6.916323111012578,2026-04-11T19:11:44.488-05:00
1775952704498702300,8.369702392578125,-1.133983937234059,6.858499283075332,-6.917039734849333,2026-04-11T19:11:44.498-05:00
1775952704508759600,8.379759521484376,-1.1526077544875442,6.854874662837386,-6.917554698634147,2026-04-11T19:11:44.508-05:00
1775952704518816500,8.38981640625,-1.1754351609107105,6.84970164411366,-6.918840062269568,2026-04-11T19:11:44.518-05:00
1775952704528873500,8.39987353515625,-1.2005445407912134,6.842243729323148,-6.9219052950590845,2026-04-11T19:11:44.528-05:00
1775952704538930400,8.409930419921874,-1.2269006327971816,6.832749924790859,-6.926660965153575,2026-04-11T19:11:44.538-05:00
1775952704548987400,8.4199873046875,-1.2553769318275152,6.821654530280828,-6.932493324568867,2026-04-11T19:11:44.548-05:00
1775952704559044400,8.43004443359375,-1.2853576440714298,6.808982095712423,-6.939451473143697,2026-04-11T19:11:44.559-05:00
1775952704569101300,8.440101318359375,-1.3158736322358249,6.795804634231328,-6.946646353083849,2026-04-11T19:11:44.569-05:00
1775952704579157500,8.450157470703125,-1.3478442031227051,6.782849291068315,-6.953176631635427,2026-04-11T19:11:44.579-05:00
1775952704589214500,8.46021435546875,-1.382913762938231,6.76915102058351,-6.959637352082133,2026-04-11T19:11:44.589-05:00
1775952704599271400,8.470271484375,-1.420403097246587,6.752991912943124,-6.967779742005467,2026-04-11T19:11:44.599-05:00
1775952704609328400,8.480328369140626,-1.4572808755278586,6.7347168360620735,-6.977842870858312,2026-04-11T19:11:44.609-05:00
1775952704619385600,8.490385498046875,-1.4936911824278531,6.716270494267344,-6.987918274670839,2026-04-11T19:11:44.619-05:00
1775952704629442600,8.500442626953125,-1.5309664355941115,6.698144470468163,-6.99724139881134,2026-04-11T19:11:44.629-05:00
1775952704639499500,8.51049951171875,-1.5690142805680631,6.680310123091935,-7.005856666943431,2026-04-11T19:11:44.639-05:00
1775952704649556500,8.520556396484375,-1.6061919185787439,6.663590458959341,-7.013351406612992,2026-04-11T19:11:44.649-05:00
1775952704659613400,8.530613525390624,-1.6403778274275362,6.6492573977023355,-7.019040558165312,2026-04-11T19:11:44.659-05:00
1775952704669670400,8.54067041015625,-1.6686539277106522,6.637762774741649,-7.023253791946172,2026-04-11T19:11:44.669-05:00
1775952704679727400,8.550727294921876,-1.689482780727744,6.628990270221233,-7.02655867871046,2026-04-11T19:11:44.679-05:00
1775952704689783300,8.560783203125,-1.7014292391091583,6.622484541589022,-7.029810373982786,2026-04-11T19:11:44.689-05:00
1775952704699840300,8.57084033203125,-1.703226059398055,6.618377690792084,-7.033240932953357,2026-04-11T19:11:44.699-05:00
1775952704709897200,8.580897216796876,-1.6939575880542397,6.6169836060851805,-7.036791318911313,2026-04-11T19:11:44.709-05:00
1775952704719954400,8.590954345703125,-1.675146504600346,6.617495647260546,-7.040811075946689,2026-04-11T19:11:44.719-05:00
1775952704730011400,8.601011474609376,-1.651551547870785,6.6191586120367045,-7.044820896109938,2026-04-11T19:11:44.730-05:00
1775952704740068600,8.611068603515625,-1.6323159553945064,6.619387160095572,-7.04908790590465,2026-04-11T19:11:44.740-05:00
1775952704750125600,8.62112548828125,-1.6267584673978388,6.6155293156236405,-7.053992044559121,2026-04-11T19:11:44.750-05:00
1775952704760182500,8.6311826171875,-1.6412696617007254,6.605580753061175,-7.059952414268255,2026-04-11T19:11:44.760-05:00
1775952704770239500,8.641239501953125,-1.6738193476498127,6.589096066728234,-7.067710773310065,2026-04-11T19:11:44.770-05:00
1775952704780296400,8.65129638671875,-1.7082342429488897,6.57183221271634,-7.075544535675644,2026-04-11T19:11:44.780-05:00
1775952704790353400,8.661353515625,-1.728920472624898,6.559800414139032,-7.0816831845611325,2026-04-11T19:11:44.790-05:00
1775952704800410400,8.671410400390625,-1.7419719696387648,6.550476120954752,-7.087115146481991,2026-04-11T19:11:44.800-05:00
1775952704810466300,8.68146630859375,-1.7508257227018476,6.542513179251551,-7.092287580683827,2026-04-11T19:11:44.810-05:00
1775952704820523500,8.6915234375,-1.754846502650529,6.5360244017541405,-7.097273552402854,2026-04-11T19:11:44.820-05:00
1775952704830580500,8.70158056640625,-1.7575408563010393,6.53048722589314,-7.101703059282898,2026-04-11T19:11:44.830-05:00
1775952704840637400,8.711637451171875,-1.7607574802599846,6.526363423961401,-7.104696980401873,2026-04-11T19:11:44.840-05:00
1775952704850694400,8.7216943359375,-1.7655584508009254,6.52380847878158,-7.1058502420902245,2026-04-11T19:11:44.850-05:00
1775952704860752100,8.731752197265624,-1.7727457319565116,6.522927019771934,-7.10487058340311,2026-04-11T19:11:44.860-05:00
1775952704870809000,8.74180908203125,-1.782159749250859,6.523394637283682,-7.1020859211206435,2026-04-11T19:11:44.870-05:00
1775952704880866300,8.7518662109375,-1.7935495966628192,6.52543169606924,-7.097345448595285,2026-04-11T19:11:44.880-05:00
1775952704890923300,8.76192333984375,-1.8057067751854656,6.528771654146909,-7.0911880950093265,2026-04-11T19:11:44.890-05:00
1775952704900980200,8.771980224609376,-1.8172849847763777,6.533285332179069,-7.084069202914834,2026-04-11T19:11:44.900-05:00
1775952704911037200,8.782037109375,-1.8270410935066639,6.53871086435914,-7.076550497847795,2026-04-11T19:11:44.911-05:00
1775952704921093400,8.79209326171875,-1.8339743999011813,6.544279604402184,-7.069605208754539,2026-04-11T19:11:44.921-05:00
1775952704931150300,8.802150390625,-1.8380048244610427,6.549802167215943,-7.063442009949684,2026-04-11T19:11:44.931-05:00
1775952704941207300,8.812207275390625,-1.8389999729782343,6.555024870300293,-7.0583362112432715,2026-04-11T19:11:44.941-05:00
1775952704951264300,8.82226416015625,-1.83727811762169,6.5600564347267145,-7.054110702502727,2026-04-11T19:11:44.951-05:00
1775952704961321200,8.8323212890625,-1.8329723832517861,6.564143411779403,-7.051428916072845,2026-04-11T19:11:44.961-05:00
1775952704971378200,8.842378173828125,-1.82628355313763,6.566946778762341,-7.050552133238315,2026-04-11T19:11:44.971-05:00
1775952704981435100,8.85243505859375,-1.81711255081892,6.5683145599842065,-7.0516481117814775,2026-04-11T19:11:44.981-05:00
1775952704991492400,8.862492431640625,-1.8062341600604355,6.568675794512033,-7.054106026327609,2026-04-11T19:11:44.991-05:00
1775952705001549300,8.87254931640625,-1.7946427987270057,6.569252133095264,-7.056528285038471,2026-04-11T19:11:45.001-05:00
1775952705011606300,8.882606201171875,-1.7829725269384682,6.571099806788563,-7.0577657178789375,2026-04-11T19:11:45.011-05:00
1775952705021663200,8.892663330078125,-1.771647269195318,6.574442687475681,-7.057503852072358,2026-04-11T19:11:45.021-05:00
1775952705031719200,8.90271923828125,-1.7602081758141517,6.579820288860797,-7.05535573412776,2026-04-11T19:11:45.031-05:00
1775952705041776000,8.912776123046875,-1.7478427613683043,6.587134995788335,-7.051603103595972,2026-04-11T19:11:45.041-05:00
1775952705051833000,8.9228330078125,-1.7336669364996253,6.595597119185328,-7.0471911323726175,2026-04-11T19:11:45.051-05:00
1775952705061890300,8.932890380859375,-1.7177216177403927,6.604030016487837,-7.043196509778499,2026-04-11T19:11:45.061-05:00
1775952705071947300,8.942947265625,-1.7007133459247648,6.611012130460143,-7.0407730820238585,2026-04-11T19:11:45.071-05:00
1775952705082004200,8.953004150390624,-1.6840495036326348,6.6160530472368,-7.040043598705529,2026-04-11T19:11:45.082-05:00
1775952705092061400,8.9630615234375,-1.66938998690024,6.619574207100272,-7.040224800491333,2026-04-11T19:11:45.092-05:00
1775952705102118400,8.973118408203124,-1.6580128528393805,6.621914048224687,-7.04071346079111,2026-04-11T19:11:45.102-05:00
1775952705112175400,8.98317529296875,-1.650950659368187,6.623481151410937,-7.040898169708251,2026-04-11T19:11:45.112-05:00
1775952705122232300,8.993232421875,-1.6482536753691732,6.624457887488603,-7.040611169460416,2026-04-11T19:11:45.122-05:00
1775952705132289300,9.003289306640625,-1.6496642728194593,6.6246916962444775,-7.040060549840331,2026-04-11T19:11:45.132-05:00
1775952705142346200,9.01334619140625,-1.6543690895095466,6.623745939826965,-7.039846614828705,2026-04-11T19:11:45.142-05:00
1775952705152402200,9.023402099609376,-1.661171024609357,6.621579701703786,-7.040282083636522,2026-04-11T19:11:45.152-05:00
1775952705162459100,9.033459228515625,-1.668682277022302,6.618277737548947,-7.04161070189178,2026-04-11T19:11:45.162-05:00
1775952705172516000,9.04351611328125,-1.6754798282079397,6.613685733583569,-7.044311193022131,2026-04-11T19:11:45.172-05:00
1775952705182573000,9.053572998046874,-1.680740232954174,6.607803689807653,-7.048577618294954,2026-04-11T19:11:45.182-05:00
1775952705192630300,9.06363037109375,-1.684581564682722,6.601307898047566,-7.0537442072778935,2026-04-11T19:11:45.192-05:00
1775952705202687200,9.073687255859374,-1.6863694710128008,6.594526275083422,-7.059656646192074,2026-04-11T19:11:45.202-05:00
1775952705212744200,9.083744140625,-1.6813007894463836,6.588204670846462,-7.0667661859363315,2026-04-11T19:11:45.212-05:00
1775952705222801200,9.09380126953125,-1.672826244959235,6.582732961437106,-7.073872218549251,2026-04-11T19:11:45.222-05:00
1775952705232858000,9.103858154296875,-1.6625754845798015,6.57912529233396,-7.0796432031661265,2026-04-11T19:11:45.232-05:00
1775952705242915300,9.113915283203125,-1.6500578021816907,6.57804275779426,-7.083576450961828,2026-04-11T19:11:45.242-05:00
1775952705252972300,9.12397216796875,-1.6343379627414047,6.580051175007224,-7.085355151072144,2026-04-11T19:11:45.252-05:00
1775952705263029200,9.134029296875,-1.614818877148628,6.584578297042846,-7.0856240311414,2026-04-11T19:11:45.263-05:00
1775952705273085200,9.144085205078126,-1.5934446652084588,6.59016574178636,-7.085268641832471,2026-04-11T19:11:45.273-05:00
1775952705283142100,9.15414208984375,-1.5762633749134838,6.595349281904101,-7.084287229579687,2026-04-11T19:11:45.283-05:00
1775952705293199000,9.16419921875,-1.5667619715966283,6.59932286171019,-7.08269557647407,2026-04-11T19:11:45.293-05:00
1775952705303256300,9.17425634765625,-1.567237334023416,6.601128449827432,-7.080906939491629,2026-04-11T19:11:45.303-05:00
1775952705313313300,9.184313232421875,-1.577175959713757,6.60079702591598,-7.0790089969158165,2026-04-11T19:11:45.313-05:00
1775952705323370200,9.194370361328126,-1.5869095643512903,6.60008683182001,-7.077495669743418,2026-04-11T19:11:45.323-05:00
1775952705333427200,9.20442724609375,-1.5813884628422556,6.600363310673832,-7.0784741593867535,2026-04-11T19:11:45.333-05:00
1775952705343484200,9.214484130859375,-1.5581639468602835,6.603682810485362,-7.0805281693071125,2026-04-11T19:11:45.343-05:00
1775952705353541000,9.224541015625,-1.53347783389315,6.609570114958286,-7.080425877976417,2026-04-11T19:11:45.353-05:00
1775952705363598000,9.23459814453125,-1.5208841636493802,6.615106121775508,-7.077969716995954,2026-04-11T19:11:45.363-05:00
1775952705373655000,9.244655029296876,-1.5230569776438176,6.618429713240266,-7.074394196596741,2026-04-11T19:11:45.373-05:00
1775952705383712300,9.254712158203125,-1.5337513901375233,6.62108811879456,-7.069595271882414,2026-04-11T19:11:45.383-05:00
1775952705393768200,9.264768310546875,-1.5451415298104285,6.6239569522291415,-7.0644257602900264,2026-04-11T19:11:45.393-05:00
1775952705403825400,9.274825439453124,-1.5544808744333682,6.6262529542118305,-7.06022246338129,2026-04-11T19:11:45.403-05:00
1775952705413882400,9.28488232421875,-1.562283803269267,6.628089521989226,-7.056777291363478,2026-04-11T19:11:45.413-05:00
1775952705423939300,9.294939208984376,-1.5682627315483986,6.6300196132689715,-7.053636655250191,2026-04-11T19:11:45.423-05:00
1775952705433996300,9.304996337890625,-1.572686831600964,6.632262423759698,-7.0505416118443005,2026-04-11T19:11:45.433-05:00
1775952705444053200,9.31505322265625,-1.5759323893934487,6.634607525581121,-7.047611403611302,2026-04-11T19:11:45.444-05:00
1775952705454110200,9.325110107421875,-1.5768867675088345,6.636480918237567,-7.045631627970933,2026-04-11T19:11:45.454-05:00
1775952705464167200,9.335167236328125,-1.5737776955775915,6.637625996619462,-7.045249935176968,2026-04-11T19:11:45.464-05:00
1775952705474224000,9.34522412109375,-1.5660595224156975,6.6384408201336855,-7.046200952291488,2026-04-11T19:11:45.474-05:00
1775952705484281000,9.355281005859375,-1.5559867489516734,6.63893649469614,-7.047963285788893,2026-04-11T19:11:45.484-05:00
1775952705494338300,9.36533837890625,-1.5457105618700384,6.639289545917511,-7.049893961590528,2026-04-11T19:11:45.494-05:00
1775952705504395300,9.375395263671875,-1.5361333168379963,6.639661886361241,-7.051636421343684,2026-04-11T19:11:45.504-05:00
1775952705514452200,9.3854521484375,-1.525825565574318,6.6401879560619586,-7.053378881096839,2026-04-11T19:11:45.514-05:00
1775952705524508400,9.39550830078125,-1.515041282840073,6.641024406886101,-7.054915589144826,2026-04-11T19:11:45.524-05:00
1775952705534565400,9.4055654296875,-1.5045429774403571,6.641929831293225,-7.056309089329838,2026-04-11T19:11:45.534-05:00
1775952705544622300,9.415622314453126,-1.4944849631540476,6.642599108856916,-7.05781715580523,2026-04-11T19:11:45.544-05:00
1775952705554679300,9.42567919921875,-1.4833974596895276,6.643162587958574,-7.059623912966251,2026-04-11T19:11:45.554-05:00
1775952705564736300,9.435736328125,-1.470601398741454,6.643873951098323,-7.061632914701104,2026-04-11T19:11:45.564-05:00
1775952705574793200,9.445793212890624,-1.45799180027619,6.644946548765898,-7.063237427288294,2026-04-11T19:11:45.574-05:00
1775952705584850200,9.45585009765625,-1.4480181032724677,6.646689008519053,-7.063649515220522,2026-04-11T19:11:45.584-05:00
1775952705594907400,9.465907470703126,-1.4403690498240291,6.6487734135776755,-7.063253209379315,2026-04-11T19:11:45.594-05:00
1775952705604964400,9.47596435546875,-1.434519885404408,6.651029083549976,-7.062320312443375,2026-04-11T19:11:45.604-05:00
1775952705615021300,9.486021240234376,-1.4307124559454618,6.653208181154728,-7.061039624983072,2026-04-11T19:11:45.615-05:00
1775952705625078300,9.496078369140625,-1.429181739246845,6.654819123482704,-7.05983024919331,2026-04-11T19:11:45.625-05:00
1775952705635135200,9.50613525390625,-1.4291304474510251,6.655651482653617,-7.059054588645696,2026-04-11T19:11:45.635-05:00
1775952705645191200,9.516191162109376,-1.430158621454984,6.655836776092648,-7.058672895851731,2026-04-11T19:11:45.645-05:00
1775952705655248100,9.526248046875,-1.4323535011507569,6.6556625885695215,-7.058392909866571,2026-04-11T19:11:45.655-05:00
1775952705665305000,9.53630517578125,-1.4358873743653298,6.654986296743155,-7.058312245845794,2026-04-11T19:11:45.665-05:00
1775952705675362000,9.546362060546874,-1.440613379973918,6.653891487243771,-7.058380634906888,2026-04-11T19:11:45.675-05:00
1775952705685419000,9.5564189453125,-1.445723562594503,6.652800184875726,-7.0583642682939765,2026-04-11T19:11:45.685-05:00
1775952705695476200,9.566476318359374,-1.4508967274487017,6.651749799039959,-7.058294125667214,2026-04-11T19:11:45.695-05:00
1775952705705533400,9.576533447265625,-1.455639684192091,6.6509548492699855,-7.058064408564567,2026-04-11T19:11:45.705-05:00
1775952705715590400,9.58659033203125,-1.4588276665784419,6.650266282483935,-7.058055640736222,2026-04-11T19:11:45.715-05:00
1775952705725647400,9.5966474609375,-1.4603431857079268,6.649799249494075,-7.058184235551953,2026-04-11T19:11:45.725-05:00
1775952705735704300,9.606704345703125,-1.4602010007582604,6.649201868122816,-7.058776356226206,2026-04-11T19:11:45.735-05:00
1775952705745761300,9.61676123046875,-1.4588231365337967,6.648374185127019,-7.059840186065435,2026-04-11T19:11:45.745-05:00
1775952705755818200,9.626818359375,-1.4571467277541756,6.647289312499761,-7.061207967287301,2026-04-11T19:11:45.755-05:00
1775952705765875200,9.636875244140626,-1.4559313606150448,6.645963616853952,-7.0627078504562375,2026-04-11T19:11:45.765-05:00
1775952705775931100,9.64693115234375,-1.4560377435989678,6.6443152651250355,-7.064235790675878,2026-04-11T19:11:45.775-05:00
1775952705785988000,9.656988037109375,-1.4577531692147254,6.642105187860131,-7.065961299294233,2026-04-11T19:11:45.785-05:00
1775952705796045000,9.667045166015624,-1.4611327286504208,6.6392240794658655,-7.067968547463416,2026-04-11T19:11:45.796-05:00
1775952705806102300,9.677102294921875,-1.4652353416636585,6.635694736295938,-7.070432891750335,2026-04-11T19:11:45.806-05:00
1775952705816159200,9.6871591796875,-1.4692458924792706,6.631853258436918,-7.0732035255074495,2026-04-11T19:11:45.816-05:00
1775952705826216200,9.69721630859375,-1.47253879654482,6.627943391516804,-7.076182833579182,2026-04-11T19:11:45.826-05:00
1775952705836273200,9.707273193359375,-1.4744377620339393,6.624281946399807,-7.079215333142876,2026-04-11T19:11:45.836-05:00
1775952705846330000,9.717330078125,-1.4747810225136577,6.620746173489094,-7.082450661802292,2026-04-11T19:11:45.846-05:00
1775952705856387300,9.72738720703125,-1.4738735522799193,6.617340748959779,-7.085822768583894,2026-04-11T19:11:45.856-05:00
1775952705866444300,9.7374443359375,-1.4723143401391803,6.614129385697841,-7.089145775526761,2026-04-11T19:11:45.866-05:00
1775952705876501200,9.747501220703125,-1.470768864262849,6.610802871623635,-7.092568151190877,2026-04-11T19:11:45.876-05:00
1775952705886558500,9.757558349609376,-1.4701191681824624,6.60715720859766,-7.096098078882694,2026-04-11T19:11:45.886-05:00
1775952705896615400,9.767615478515625,-1.471285873874277,6.603146219390631,-7.099587674564122,2026-04-11T19:11:45.896-05:00
1775952705906671400,9.77767138671875,-1.474890620367974,6.59887570246458,-7.1028118973076335,2026-04-11T19:11:45.906-05:00
1775952705916728300,9.787728271484376,-1.480647868720442,6.5947203363507985,-7.1054720564275975,2026-04-11T19:11:45.916-05:00
1775952705926785300,9.797785400390625,-1.4875208232298494,6.59074558750093,-7.1077259728342295,2026-04-11T19:11:45.926-05:00
