absolute_timestamp,accel_x,accel_y,accel_z
1144793600.544,-0.036783,-0.726783,-0.975615
1144793600.554,0.940167,1.112927,-0.741514
1144793600.565,1.701324,2.432038,-0.581545
1144793600.575,1.775871,3.066151,-0.679087
1144793600.585,1.395292,3.081808,-0.749317
1144793600.595,0.783227,2.815637,-0.690792
1144793600.605,0.163315,1.884039,-0.628365
1144793600.615,-0.005395,0.964184,-0.667382
1144793600.625,0.088769,0.940699,-0.729809
1144793600.635,0.308485,0.588414,-0.558135
1144793600.645,0.316332,-0.178785,-0.433281
1144793600.655,0.080922,-1.032097,-0.370854
1144793600.665,-0.205493,-1.955866,-0.347444
1144793600.675,-0.562531,-2.856150,-0.421576
1144793600.685,-0.754782,-3.560720,-0.565938
1144793600.695,-0.676312,-3.944319,-0.784432
1144793600.705,-0.370280,-3.901262,-1.002926
1144793600.715,0.069152,-3.455034,-1.213617
1144793600.725,0.539971,-2.609551,-1.350176
1144793600.735,0.963708,-1.478325,-1.385291
1144793600.745,1.316822,-0.139642,-1.357979
1144793600.755,1.520844,1.214698,-1.213617
1144793600.765,1.587543,2.459438,-1.073157
1144793600.775,1.520844,3.406693,-0.928794
1144793600.785,1.324669,3.899892,-0.827351
1144793600.795,1.042178,3.798121,-0.729809
1144793600.805,0.763610,3.160094,-0.585447
1144793600.815,0.473271,2.091496,-0.433281
1144793600.826,0.194703,0.733242,-0.261607
1144793600.836,-0.115253,-0.691555,-0.148459
1144793600.846,-0.405591,-2.034152,-0.132852
1144793600.856,-0.648848,-3.188864,-0.210886
1144793600.866,-0.746935,-4.003033,-0.409871
1144793600.876,-0.641000,-4.312262,-0.679087
1144793600.886,-0.303580,-4.100891,-0.948303
1144793600.896,0.179009,-3.384577,-1.166797
1144793600.906,0.692987,-2.288580,-1.256535
1144793600.916,1.128494,-0.996868,-1.248732
1144793600.926,1.450221,0.412271,-1.143387
1144793600.936,1.615007,1.739211,-0.987320
1144793600.946,1.622854,2.905666,-0.854663
1144793600.956,1.485532,3.688521,-0.722005
1144793600.966,1.242276,3.950778,-0.628365
1144793600.976,0.951937,3.621978,-0.491807
1144793600.986,0.645905,2.796066,-0.331838
1144793600.996,0.355566,1.617869,-0.179672
1144793601.006,0.057381,0.216557,-0.035310
1144793601.016,-0.232957,-1.180840,0.042723
1144793601.025,-0.495831,-2.484294,0.027117
1144793601.036,-0.688082,-3.482435,-0.121147
1144793601.047,-0.723394,-4.085233,-0.359149
1144793601.056,-0.550760,-4.179176,-0.624464
1144793601.066,-0.154487,-3.748605,-0.897581
1144793601.077,0.359490,-2.875721,-1.104370
1144793601.086,0.865620,-1.666210,-1.182403
1144793601.096,1.289358,-0.264899,-1.143387
1144793601.106,1.560079,1.179470,-1.045845
1144793601.116,1.634625,2.479010,-0.913188
1144793601.126,1.564002,3.484979,-0.803941
1144793601.136,1.367827,4.040806,-0.722005
1144793601.147,1.116724,4.064291,-0.663480
1144793601.157,0.861697,3.551521,-0.550332
1144793601.167,0.606670,2.616009,-0.405970
1144793601.177,0.324179,1.347783,-0.261607
1144793601.187,0.049534,-0.049613,-0.128950
1144793601.197,-0.248651,-1.419610,-0.047015
1144793601.207,-0.484061,-2.613465,-0.113344
1144793601.217,-0.601766,-3.486349,-0.265509
1144793601.227,-0.558607,-3.897348,-0.562037
1144793601.237,-0.280039,-3.826891,-0.874171
1144793601.247,0.198627,-3.267149,-1.166797
1144793601.257,0.743992,-2.296408,-1.354077
1144793601.267,1.269740,-1.024268,-1.377487
1144793601.277,1.666013,0.341814,-1.256535
1144793601.287,1.885728,1.696154,-1.158993
1144793601.297,1.932810,2.901752,-1.022435
1144793601.307,1.807258,3.770721,-0.983418
1144793601.317,1.603237,4.181720,-0.999025
1144793601.327,1.379598,4.048635,-0.920991
1144793601.337,1.132418,3.398865,-0.690792
1144793601.347,0.861697,2.342010,-0.398166
1144793601.359,0.524277,1.073784,-0.203082
1144793601.367,0.175086,-0.257070,-0.035310
1144793601.377,-0.150564,-1.533124,0.015412
1144793601.387,-0.378127,-2.640865,-0.019703
1144793601.397,-0.515449,-3.431549,-0.167967
1144793601.407,-0.495831,-3.803405,-0.441085
1144793601.417,-0.244728,-3.678148,-0.718104
1144793601.427,0.167239,-3.075350,-0.913188
1144793601.437,0.645905,-2.128095,-1.096566
1144793601.447,1.112801,-0.887269,-1.158993
1144793601.457,1.497303,0.467071,-1.069255
1144793601.467,1.752330,1.833154,-0.975615
1144793601.477,1.819029,2.995694,-0.866368
1144793601.487,1.736636,3.884235,-0.819547
1144793601.498,1.544385,4.365691,-0.718104
1144793601.508,1.277587,4.283491,-0.640070
1144793601.518,1.022560,3.657207,-0.507413
1144793601.528,0.767533,2.612095,-0.288919
1144793601.537,0.469348,1.367355,0.031018
1144793601.548,0.190780,0.114786,0.019313
1144793601.557,0.281020,0.056072,-0.035310
1144793601.568,0.281020,-0.002642,-0.218689
1144793601.578,0.422266,-0.065271,-0.312329
1144793601.588,0.422266,-0.280556,-0.370854
1144793601.598,0.457577,-0.347098,-0.464495
1144793601.608,0.567435,-0.296213,-0.491807
1144793601.618,0.598823,-0.143556,-0.511315
1144793601.628,0.665522,0.009101,-0.515217
1144793601.639,0.673369,0.161757,-0.448888
1144793601.648,0.692987,0.298757,-0.405970
1144793601.658,0.689063,0.306586,-0.429380
1144793601.668,0.728298,0.208729,-0.409871
1144793601.678,0.747916,0.118700,-0.421576
1144793601.688,0.771457,0.052158,-0.437183
1144793601.698,0.798921,0.044329,-0.441085
1144793601.708,0.814615,0.083472,-0.394265
1144793601.718,0.849926,0.134358,-0.409871
1144793601.728,0.897008,0.126529,-0.409871
1144793601.738,0.908779,0.122615,-0.409871
1144793601.748,0.924473,0.118700,-0.425478
1144793601.758,0.967631,0.106958,-0.409871
1144793601.768,0.999019,0.122615,-0.405970
1144793601.778,1.010790,0.103043,-0.460593
1144793601.788,1.006866,0.056072,-0.476200
1144793601.798,1.010790,0.056072,-0.452790
1144793601.809,0.987249,0.087386,-0.433281
1144793601.819,0.948014,0.118700,-0.398166
1144793601.829,0.936243,0.099129,-0.405970
1144793601.839,0.924473,0.059986,-0.421576
1144793601.849,0.916626,0.032586,-0.421576
1144793601.859,0.900932,0.016929,-0.413773
1144793601.869,0.885238,-0.002642,-0.413773
1144793601.879,0.869544,-0.018299,-0.398166
1144793601.889,0.842079,-0.006556,-0.386461
1144793601.899,0.810692,0.016929,-0.409871
1144793601.909,0.814615,0.016929,-0.398166
1144793601.920,0.798921,0.028672,-0.378658
1144793601.929,0.798921,0.044329,-0.359149
1144793601.939,0.802845,0.028672,-0.312329
1144793601.949,0.783227,0.009101,-0.288919
1144793601.959,0.779304,-0.030042,-0.316231
1144793601.969,0.779304,-0.053528,-0.331838
1144793601.979,0.806768,-0.061356,-0.394265
1144793601.989,0.834232,-0.037871,-0.421576
1144793601.999,0.853850,-0.006556,-0.425478
1144793602.009,0.857773,0.028672,-0.413773
1144793602.019,0.885238,0.024758,-0.378658
1144793602.029,0.865620,0.009101,-0.366953
1144793602.039,0.826385,0.001272,-0.394265
1144793602.049,0.826385,-0.033956,-0.448888
1144793602.059,0.885238,-0.033956,-0.468396
1144793602.069,0.924473,-0.022214,-0.472298
1144793602.079,0.932320,-0.006556,-0.480101
1144793602.089,0.932320,-0.014385,-0.441085
1144793602.099,0.908779,0.005186,-0.460593
1144793602.109,0.897008,0.052158,-0.405970
1144793602.119,0.885238,0.059986,-0.409871
1144793602.129,0.900932,0.032586,-0.433281
1144793602.140,0.948014,-0.006556,-0.433281
1144793602.150,0.971555,-0.033956,-0.480101
1144793602.160,0.995096,-0.061356,-0.491807
1144793602.170,1.006866,-0.033956,-0.444986
1144793602.179,1.010790,-0.026128,-0.413773
1144793602.190,1.018637,-0.018299,-0.425478
1144793602.200,1.014713,0.013015,-0.355248
1144793602.210,1.006866,0.071729,-0.351346
1144793602.220,1.010790,0.071729,-0.343543
1144793602.230,1.030407,0.067815,-0.343543
1144793602.240,1.042178,0.075643,-0.355248
1144793602.250,1.061795,0.071729,-0.366953
1144793602.260,1.089259,0.036501,-0.386461
1144793602.270,1.116724,-0.037871,-0.386461
1144793602.279,1.101030,-0.092670,-0.359149
1144793602.290,1.069642,-0.069185,-0.261607
1144793602.300,1.089259,-0.022214,-0.242099
1144793602.310,1.081412,0.005186,-0.246001
1144793602.320,1.077489,-0.002642,-0.300624
1144793602.330,1.097106,-0.026128,-0.285018
1144793602.340,1.089259,-0.022214,-0.203082
1144793602.350,1.089259,-0.057442,-0.171869
1144793602.360,1.050024,-0.084842,-0.156262
1144793602.370,1.034331,-0.092670,-0.179672
1144793602.380,1.053948,-0.069185,-0.187476
1144793602.390,1.061795,-0.116156,-0.156262
1144793602.400,1.050024,-0.163127,-0.093835
1144793602.410,1.034331,-0.131813,-0.078229
1144793602.420,1.030407,-0.096585,-0.089934
1144793602.430,0.999019,-0.108328,-0.128950
1144793602.440,0.971555,-0.151385,-0.171869
1144793602.450,0.936243,-0.186613,-0.117245
1144793602.460,0.908779,-0.135728,-0.015802
1144793602.470,0.955861,-0.155299,0.038822
1144793602.481,0.999019,-0.163127,0.011510
1144793602.490,1.038254,-0.073099,-0.070425
1144793602.500,1.108877,0.083472,0.011510
1144793602.511,1.128494,0.153929,0.187085
1144793602.521,1.108877,0.114786,0.311939
1144793602.530,1.148112,0.052158,0.304136
1144793602.541,1.152035,0.020844,0.194889
1144793602.551,0.955861,-0.096585,1.341982
1144793602.561,0.810692,-0.170956,1.400507
1144793602.571,1.183423,-0.534984,0.280726
1144793602.581,2.227072,-0.433213,-0.218689
1144793602.591,1.611084,0.196986,-0.004097
1144793602.601,1.387445,-0.605441,-1.057550
1144793602.611,1.152035,-0.456698,-0.366953
1144793602.621,1.426680,-0.801155,-1.135583
1144793602.631,1.277587,-0.609355,-1.158993
1144793602.641,0.802845,0.087386,-0.671284
1144793602.651,1.148112,0.173500,-0.413773
1144793602.661,1.246199,0.075643,-0.238197
1144793602.671,1.136341,0.059986,-0.082130
1144793602.681,1.081412,0.263529,-0.105540
1144793602.691,0.999019,0.333986,-0.324034
1144793602.701,0.900932,0.181329,-0.413773
1144793602.711,0.794998,0.181329,-0.378658
1144793602.721,0.826385,0.059986,-0.409871
1144793602.731,0.810692,-0.033956,-0.433281
1144793602.741,0.826385,0.024758,-0.448888
1144793602.751,0.873467,0.013015,-0.382560
1144793602.761,0.822462,-0.045699,-0.409871
1144793602.771,0.810692,-0.053528,-0.351346
1144793602.781,0.830309,-0.080928,-0.523020
1144793602.791,0.999019,-0.116156,-0.636169
1144793602.801,1.285434,-0.112242,-1.022435
1144793602.811,1.497303,0.044329,-0.913188
1144793602.821,1.348210,0.185243,-0.640070
1144793602.831,0.877391,0.122615,-0.550332
1144793602.841,0.767533,0.130443,-0.476200
1144793602.851,0.881314,0.048243,-0.495708
1144793602.861,0.865620,0.052158,-0.499610
1144793602.872,0.865620,0.126529,-0.480101
1144793602.882,0.861697,0.099129,-0.429380
1144793602.892,0.865620,0.118700,-0.441085
1144793602.902,0.853850,0.185243,-0.402068
1144793602.912,0.842079,0.126529,-0.421576
1144793602.922,0.865620,0.044329,-0.398166
1144793602.932,0.889161,0.067815,-0.429380
1144793602.942,0.893085,0.079558,-0.421576
1144793602.952,0.877391,0.067815,-0.425478
1144793602.962,0.853850,0.114786,-0.437183
1144793602.972,0.861697,0.110872,-0.464495
1144793602.982,0.834232,0.161757,-0.452790
1144793602.991,0.838156,0.126529,-0.444986
1144793603.002,0.849926,0.099129,-0.429380
1144793603.092,0.865620,0.095215,-0.444986
1144793603.093,0.838156,0.118700,-0.468396
1144793603.093,0.849926,0.130443,-0.433281
1144793603.094,0.846003,0.118700,-0.441085
1144793603.094,0.853850,0.095215,-0.429380
1144793603.094,0.842079,0.052158,-0.437183
1144793603.095,0.869544,0.067815,-0.444986
1144793603.095,0.869544,0.091301,-0.433281
1144793603.096,0.865620,0.126529,-0.382560
1144793603.102,0.865620,0.095215,-0.409871
1144793603.112,0.877391,0.103043,-0.429380
1144793603.122,0.861697,0.106958,-0.409871
1144793603.132,0.877391,0.146100,-0.413773
1144793603.142,0.865620,0.142186,-0.417675
1144793603.152,0.849926,0.142186,-0.437183
1144793603.162,0.857773,0.146100,-0.437183
1144793603.172,0.869544,0.122615,-0.441085
1144793603.182,0.869544,0.118700,-0.402068
1144793603.192,0.881314,0.126529,-0.394265
1144793603.202,0.869544,0.126529,-0.386461
1144793603.213,0.885238,0.091301,-0.409871
1144793603.223,0.881314,0.103043,-0.405970
1144793603.234,0.885238,0.122615,-0.378658
1144793603.243,0.877391,0.126529,-0.390363
1144793603.253,0.889161,0.110872,-0.366953
1144793603.263,0.885238,0.114786,-0.405970
1144793603.273,0.877391,0.106958,-0.394265
1144793603.283,0.873467,0.130443,-0.374756
1144793603.293,0.861697,0.103043,-0.386461
1144793603.303,0.908779,0.106958,-0.374756
1144793603.313,0.889161,0.110872,-0.382560
1144793603.323,0.889161,0.103043,-0.359149
1144793603.333,0.900932,0.071729,-0.355248
1144793603.343,0.889161,0.075643,-0.347444
1144793603.353,0.912702,0.118700,-0.335739
1144793603.363,0.897008,0.126529,-0.339641
1144793603.373,0.873467,0.122615,-0.312329
1144793603.383,0.881314,0.067815,-0.343543
1144793603.393,0.889161,0.075643,-0.359149
1144793603.403,0.904855,0.032586,-0.355248
1144793603.413,0.912702,0.067815,-0.363051
1144793603.423,0.912702,0.134358,-0.335739
1144793603.433,0.889161,0.193072,-0.386461
1144793603.443,0.885238,0.177415,-0.320133
1144793603.453,0.857773,0.173500,-0.370854
1144793603.463,0.904855,0.122615,-0.343543
1144793603.473,0.869544,0.138272,-0.374756
1144793603.483,0.893085,0.118700,-0.363051
1144793603.493,0.877391,0.114786,-0.351346
1144793603.503,0.893085,0.146100,-0.343543
1144793603.515,0.900932,0.130443,-0.324034
1144793603.524,0.904855,0.114786,-0.351346
1144793603.534,0.893085,0.138272,-0.386461
1144793603.544,0.869544,0.099129,-0.413773
1144793603.554,0.873467,0.118700,-0.425478
1144793603.564,0.877391,0.095215,-0.398166
1144793603.574,0.881314,0.118700,-0.394265
1144793603.584,0.897008,0.130443,-0.355248
1144793603.594,0.900932,0.150015,-0.355248
1144793603.604,0.893085,0.153929,-0.359149
1144793603.614,0.889161,0.130443,-0.370854
1144793603.624,0.869544,0.142186,-0.374756
1144793603.634,0.900932,0.114786,-0.386461
1144793603.644,0.908779,0.106958,-0.351346
1144793603.654,0.920549,0.114786,-0.327936
1144793603.664,0.912702,0.161757,-0.327936
1144793603.674,0.924473,0.220472,-0.324034
1144793603.684,0.900932,0.236129,-0.269411
1144793603.694,0.877391,0.028672,-0.335739
1144793603.704,0.912702,0.091301,-0.304526
1144793603.714,0.834232,-0.131813,-0.382560
1144793603.724,0.904855,-0.014385,-0.386461
1144793603.734,0.908779,0.024758,-0.351346
1144793603.744,0.869544,0.056072,-0.398166
1144793603.754,0.904855,0.337900,-0.316231
1144793603.764,0.865620,0.283100,-0.339641
1144793603.774,0.865620,0.208729,-0.257706
1144793603.784,0.885238,0.196986,-0.324034
1144793603.796,0.846003,-0.108328,-0.503512
1144793603.804,0.877391,0.169586,-0.503512
1144793603.814,0.846003,0.181329,-0.394265
1144793603.824,0.830309,0.279186,-0.484003
1144793603.834,0.846003,0.204815,-0.366953
1144793603.844,0.842079,0.224386,-0.511315
1144793603.854,0.818539,0.177415,-0.405970
1144793603.864,0.885238,0.118700,-0.460593
1144793603.874,0.897008,0.024758,-0.234296
1144793603.885,0.857773,0.189157,-0.538627
1144793603.895,0.830309,0.412271,-0.351346
1144793603.905,0.802845,0.290929,-0.562037
1144793603.915,0.822462,0.267443,-0.234296
1144793603.925,0.842079,-0.014385,-0.608857
1144793603.935,0.779304,0.134358,-0.620562
1144793603.945,0.814615,0.157843,-0.511315
1144793603.955,0.826385,0.255700,-0.507413
1144793603.965,0.806768,0.435757,-0.335739
1144793603.975,0.873467,0.224386,-0.331838
1144793603.984,0.885238,0.208729,-0.246001
1144793603.995,0.830309,0.263529,-0.507413
1144793604.005,0.787151,0.290929,-0.448888
1144793604.015,0.822462,0.067815,-0.519118
1144793604.025,0.810692,0.275272,-0.503512
1144793604.035,0.798921,0.373128,-0.347444
1144793604.045,0.857773,0.212643,-0.464495
1144793604.055,0.865620,0.185243,-0.370854
1144793604.065,0.877391,0.263529,-0.366953
1144793604.077,0.846003,0.259614,-0.382560
1144793604.085,0.771457,0.384871,-0.499610
1144793604.095,0.743992,0.416186,-0.487905
1144793604.105,0.743992,0.373128,-0.484003
1144793604.116,0.830309,0.306586,-0.359149
1144793604.125,0.885238,0.259614,-0.285018
1144793604.135,0.857773,0.310500,-0.390363
1144793604.145,0.846003,0.259614,-0.398166
1144793604.155,0.814615,0.243957,-0.495708
1144793604.165,0.865620,0.075643,-0.437183
1144793604.175,0.893085,0.157843,-0.366953
1144793604.185,0.806768,0.412271,-0.468396
1144793604.195,0.665522,0.600157,-0.476200
1144793604.205,0.747916,0.404443,-0.421576
1144793604.215,0.822462,0.318329,-0.433281
1144793604.225,0.822462,0.345729,-0.253804
1144793604.236,0.908779,0.173500,-0.390363
1144793604.246,0.810692,0.345729,-0.441085
1144793604.256,0.822462,0.263529,-0.402068
1144793604.266,0.830309,0.361386,-0.405970
1144793604.276,0.787151,0.443585,-0.355248
1144793604.286,0.806768,0.400528,-0.347444
1144793604.296,0.802845,0.333986,-0.429380
1144793604.306,0.830309,0.263529,-0.359149
1144793604.316,0.830309,0.337900,-0.425478
1144793604.326,0.846003,0.298757,-0.296723
1144793604.336,0.897008,0.153929,-0.366953
1144793604.346,0.861697,0.247872,-0.413773
1144793604.356,0.822462,0.322243,-0.398166
1144793604.366,0.806768,0.322243,-0.437183
1144793604.376,0.838156,0.314414,-0.331838
1144793604.386,0.881314,0.271357,-0.331838
1144793604.396,0.853850,0.275272,-0.331838
1144793604.406,0.865620,0.267443,-0.324034
1144793604.416,0.830309,0.345729,-0.366953
1144793604.426,0.822462,0.345729,-0.390363
1144793604.436,0.822462,0.306586,-0.366953
1144793604.446,0.842079,0.314414,-0.304526
1144793604.456,0.865620,0.294843,-0.363051
1144793604.466,0.861697,0.259614,-0.296723
1144793604.476,0.865620,0.271357,-0.409871
1144793604.486,0.830309,0.306586,-0.390363
1144793604.496,0.849926,0.243957,-0.378658
1144793604.506,0.849926,0.283100,-0.347444
1144793604.516,0.861697,0.247872,-0.347444
1144793604.526,0.830309,0.326157,-0.402068
1144793604.537,0.838156,0.287014,-0.394265
1144793604.547,0.846003,0.314414,-0.386461
1144793604.557,0.838156,0.341814,-0.355248
1144793604.567,0.842079,0.283100,-0.335739
1144793604.577,0.853850,0.279186,-0.390363
1144793604.587,0.826385,0.353557,-0.355248
1144793604.596,0.842079,0.283100,-0.398166
1144793604.607,0.846003,0.275272,-0.382560
1144793604.617,0.846003,0.318329,-0.327936
1144793604.627,0.857773,0.283100,-0.324034
1144793604.637,0.853850,0.314414,-0.327936
1144793604.647,0.814615,0.330071,-0.402068
1144793604.657,0.846003,0.294843,-0.359149
1144793604.667,0.857773,0.279186,-0.366953
1144793604.677,0.849926,0.271357,-0.351346
1144793604.687,0.846003,0.361386,-0.343543
1144793604.697,0.838156,0.341814,-0.343543
1144793604.707,0.869544,0.287014,-0.312329
1144793604.717,0.838156,0.361386,-0.339641
1144793604.727,0.834232,0.314414,-0.351346
1144793604.737,0.838156,0.290929,-0.355248
1144793604.747,0.830309,0.333986,-0.339641
1144793604.757,0.834232,0.294843,-0.398166
1144793604.767,0.830309,0.283100,-0.437183
1144793604.777,0.818539,0.290929,-0.378658
1144793604.787,0.838156,0.271357,-0.425478
1144793604.797,0.830309,0.267443,-0.413773
1144793604.807,0.826385,0.310500,-0.413773
1144793604.817,0.826385,0.283100,-0.417675
1144793604.828,0.806768,0.330071,-0.417675
1144793604.837,0.822462,0.287014,-0.374756
1144793604.848,0.830309,0.271357,-0.425478
1144793604.858,0.822462,0.259614,-0.390363
1144793604.868,0.830309,0.306586,-0.409871
1144793604.878,0.814615,0.353557,-0.390363
1144793604.888,0.806768,0.337900,-0.413773
1144793604.898,0.818539,0.294843,-0.421576
1144793604.908,0.810692,0.290929,-0.429380
1144793604.918,0.838156,0.243957,-0.452790
1144793604.928,0.802845,0.330071,-0.405970
1144793604.938,0.838156,0.263529,-0.390363
1144793604.948,0.849926,0.232215,-0.433281
1144793604.958,0.814615,0.306586,-0.452790
1144793604.968,0.826385,0.290929,-0.390363
1144793604.978,0.846003,0.275272,-0.390363
1144793604.988,0.861697,0.196986,-0.335739
1144793604.998,0.842079,0.259614,0.042723
1144793605.008,0.912702,0.353557,-0.507413
1144793605.018,0.794998,0.287014,-0.484003
1144793605.028,0.830309,0.243957,-0.417675
1144793605.038,0.865620,0.212643,-0.277214
1144793605.048,0.897008,0.193072,-0.339641
1144793605.059,0.881314,0.236129,-0.288919
1144793605.068,0.873467,0.224386,-0.253804
1144793605.078,0.865620,0.287014,-0.417675
1144793605.088,0.822462,0.290929,-0.398166
1144793605.098,0.885238,0.212643,-0.402068
1144793605.109,0.932320,0.020844,-0.312329
1144793605.118,0.951937,0.157843,-0.265509
1144793605.128,0.904855,0.044329,-0.312329
1144793605.139,0.853850,0.259614,-0.316231
1144793605.149,0.908779,0.110872,-0.339641
1144793605.159,0.912702,0.138272,-0.331838
1144793605.169,0.924473,-0.049613,-0.210886
1144793605.179,0.897008,-0.053528,-0.296723
1144793605.189,0.897008,0.028672,-0.222591
1144793605.199,0.889161,0.013015,-0.347444
1144793605.209,0.900932,0.067815,-0.359149
1144793605.219,0.948014,-0.006556,-0.316231
1144793605.229,0.963708,-0.006556,-0.265509
1144793605.239,0.944090,0.044329,-0.160164
1144793605.249,0.940167,-0.022214,-0.210886
1144793605.259,0.885238,0.091301,-0.402068
1144793605.269,0.897008,0.153929,-0.417675
1144793605.279,0.893085,0.130443,-0.437183
1144793605.289,0.897008,0.083472,-0.378658
1144793605.299,0.936243,0.059986,-0.253804
1144793605.309,0.932320,0.106958,-0.300624
1144793605.319,0.920549,0.142186,-0.312329
1144793605.329,0.900932,0.103043,-0.359149
1144793605.339,0.900932,0.114786,-0.366953
1144793605.349,0.893085,0.056072,-0.347444
1144793605.359,0.916626,0.016929,-0.304526
1144793605.369,0.936243,0.059986,-0.246001
1144793605.379,0.924473,0.052158,-0.261607
1144793605.390,0.920549,0.059986,-0.312329
1144793605.399,0.912702,0.087386,-0.327936
1144793605.409,0.912702,0.056072,-0.324034
1144793605.420,0.924473,0.048243,-0.316231
1144793605.430,0.932320,0.036501,-0.308428
1144793605.440,0.936243,0.020844,-0.296723
1144793605.450,0.951937,0.059986,-0.230394
1144793605.460,0.932320,-0.026128,-0.265509
1144793605.470,0.963708,0.024758,-0.273313
1144793605.479,0.948014,0.024758,-0.199181
1144793605.490,0.861697,-0.014385,-0.324034
1144793605.500,0.893085,0.173500,-0.230394
1144793605.509,0.830309,0.024758,-0.394265
1144793605.520,0.916626,0.157843,-0.437183
1144793605.529,0.877391,0.056072,-0.366953
1144793605.540,0.940167,0.196986,-0.355248
1144793605.550,0.920549,0.134358,-0.312329
1144793605.560,0.900932,0.212643,-0.335739
1144793605.570,0.893085,0.181329,-0.167967
1144793605.579,0.810692,0.106958,-0.507413
1144793605.590,0.826385,0.161757,-0.409871
1144793605.600,0.885238,-0.053528,-0.511315
1144793605.610,0.849926,0.240043,-0.468396
1144793605.620,0.834232,0.349643,-0.359149
1144793605.630,0.857773,0.247872,-0.433281
1144793605.640,0.806768,0.365300,-0.390363
1144793605.650,0.881314,0.099129,-0.261607
1144793605.660,0.897008,-0.037871,-0.526922
1144793605.671,0.787151,0.263529,-0.484003
1144793605.679,0.842079,0.189157,-0.484003
1144793605.690,0.838156,0.196986,-0.460593
1144793605.700,0.830309,0.357471,-0.421576
1144793605.710,0.865620,0.173500,-0.370854
1144793605.720,0.846003,0.150015,-0.507413
1144793605.730,0.826385,0.271357,-0.327936
1144793605.740,0.857773,0.157843,-0.366953
1144793605.750,0.877391,0.114786,-0.409871
1144793605.761,0.822462,0.314414,-0.460593
1144793605.771,0.814615,0.380957,-0.398166
1144793605.780,0.814615,0.353557,-0.421576
1144793605.791,0.830309,0.310500,-0.296723
1144793605.801,0.928396,0.005186,-0.355248
1144793605.811,0.849926,0.142186,-0.526922
1144793605.821,0.751839,0.388786,-0.562037
1144793605.831,0.751839,0.424014,-0.456691
1144793605.841,0.818539,0.267443,-0.480101
1144793605.851,0.806768,0.369214,-0.444986
1144793605.861,0.842079,0.306586,-0.206984
1144793605.871,0.944090,0.059986,-0.292821
1144793605.880,0.822462,0.333986,-0.390363
1144793605.891,0.838156,0.251786,-0.417675
1144793605.901,0.838156,0.314414,-0.417675
1144793605.911,0.818539,0.310500,-0.413773
1144793605.921,0.818539,0.294843,-0.398166
1144793605.931,0.822462,0.392700,-0.370854
1144793605.941,0.822462,0.341814,-0.312329
1144793605.953,0.861697,0.275272,-0.429380
1144793605.961,0.846003,0.224386,-0.390363
1144793605.971,0.853850,0.271357,-0.417675
1144793605.980,0.849926,0.247872,-0.273313
1144793605.991,0.881314,0.243957,-0.351346
1144793606.001,0.810692,0.396614,-0.421576
1144793606.011,0.830309,0.271357,-0.386461
1144793606.021,0.842079,0.290929,-0.390363
1144793606.031,0.818539,0.361386,-0.366953
1144793606.041,0.826385,0.341814,-0.359149
1144793606.051,0.818539,0.349643,-0.378658
1144793606.061,0.877391,0.200900,-0.222591
1144793606.071,0.893085,0.153929,-0.448888
1144793606.081,0.830309,0.314414,-0.390363
1144793606.091,0.822462,0.259614,-0.437183
1144793606.101,0.853850,0.275272,-0.398166
1144793606.111,0.849926,0.318329,-0.296723
1144793606.121,0.869544,0.247872,-0.370854
1144793606.131,0.822462,0.353557,-0.335739
1144793606.141,0.849926,0.290929,-0.386461
1144793606.152,0.822462,0.298757,-0.409871
1144793606.162,0.849926,0.302671,-0.335739
1144793606.172,0.838156,0.337900,-0.378658
1144793606.182,0.842079,0.310500,-0.355248
1144793606.192,0.861697,0.267443,-0.347444
1144793606.201,0.846003,0.330071,-0.343543
1144793606.212,0.869544,0.212643,-0.355248
1144793606.222,0.869544,0.228300,-0.402068
1144793606.233,0.838156,0.302671,-0.378658
1144793606.241,0.842079,0.294843,-0.363051
1144793606.252,0.834232,0.330071,-0.347444
1144793606.262,0.842079,0.302671,-0.355248
1144793606.272,0.842079,0.287014,-0.324034
1144793606.282,0.873467,0.228300,-0.355248
1144793606.292,0.877391,0.240043,-0.296723
1144793606.302,0.861697,0.279186,-0.335739
1144793606.312,0.842079,0.314414,-0.366953
1144793606.322,0.814615,0.349643,-0.405970
1144793606.332,0.846003,0.259614,-0.363051
1144793606.342,0.865620,0.287014,-0.331838
1144793606.352,0.853850,0.302671,-0.296723
1144793606.362,0.865620,0.283100,-0.327936
1144793606.372,0.857773,0.267443,-0.374756
1144793606.382,0.842079,0.259614,-0.355248
1144793606.392,0.869544,0.267443,-0.335739
1144793606.402,0.853850,0.318329,-0.335739
1144793606.412,0.842079,0.341814,-0.327936
1144793606.422,0.877391,0.298757,-0.265509
1144793606.432,0.861697,0.306586,-0.335739
1144793606.442,0.853850,0.228300,-0.370854
1144793606.452,0.861697,0.263529,-0.386461
1144793606.462,0.842079,0.298757,-0.421576
1144793606.472,0.802845,0.345729,-0.390363
1144793606.482,0.834232,0.310500,-0.343543
1144793606.492,0.834232,0.283100,-0.378658
1144793606.502,0.830309,0.283100,-0.409871
1144793606.514,0.842079,0.267443,-0.398166
1144793606.523,0.846003,0.283100,-0.390363
1144793606.533,0.830309,0.314414,-0.370854
1144793606.543,0.826385,0.310500,-0.390363
1144793606.553,0.814615,0.337900,-0.398166
1144793606.563,0.814615,0.341814,-0.394265
1144793606.573,0.806768,0.302671,-0.409871
1144793606.583,0.838156,0.267443,-0.441085
1144793606.593,0.787151,0.279186,-0.343543
1144793606.603,0.904855,0.173500,-0.429380
1144793606.613,0.802845,0.412271,-0.405970
1144793606.623,0.834232,0.247872,-0.452790
1144793606.633,0.798921,0.337900,-0.366953
1144793606.643,0.853850,0.232215,-0.386461
1144793606.653,0.822462,0.322243,-0.437183
1144793606.663,0.834232,0.263529,-0.421576
1144793606.673,0.830309,0.259614,-0.433281
1144793606.683,0.853850,0.251786,-0.398166
1144793606.693,0.857773,0.232215,-0.378658
1144793606.703,0.846003,0.283100,-0.386461
1144793606.713,0.846003,0.271357,-0.378658
1144793606.723,0.842079,0.271357,-0.402068
1144793606.733,0.846003,0.294843,-0.359149
1144793606.743,0.881314,0.196986,-0.409871
1144793606.753,0.842079,0.251786,-0.390363
1144793606.763,0.842079,0.224386,-0.409871
1144793606.773,0.838156,0.251786,-0.386461
1144793606.783,0.849926,0.232215,-0.351346
1144793606.793,0.885238,0.146100,-0.417675
1144793606.803,0.849926,0.216557,-0.378658
1144793606.814,0.865620,0.200900,-0.402068
1144793606.824,0.861697,0.224386,-0.343543
1144793606.834,0.857773,0.251786,-0.405970
1144793606.844,0.857773,0.251786,-0.359149
1144793606.854,0.893085,0.134358,-0.285018
1144793606.864,0.928396,0.071729,-0.281116
1144793606.874,0.912702,0.083472,-0.257706
1144793606.884,0.869544,0.122615,-0.355248
1144793606.894,0.865620,0.271357,-0.398166
1144793606.904,0.912702,0.075643,-0.320133
1144793606.914,0.967631,-0.014385,-0.206984
1144793606.924,0.979402,0.005186,-0.206984
1144793606.934,0.951937,-0.002642,-0.175771
1144793606.944,0.920549,-0.069185,-0.370854
1144793606.954,0.908779,0.036501,-0.288919
1144793606.964,0.893085,0.032586,-0.347444
1144793606.974,0.932320,0.052158,-0.277214
1144793606.984,0.928396,-0.045699,-0.320133
1144793606.994,0.928396,0.063901,-0.343543
1144793607.003,0.920549,0.130443,-0.285018
1144793607.014,0.920549,0.130443,-0.300624
1144793607.024,0.912702,0.056072,-0.249902
1144793607.034,0.908779,0.079558,-0.312329
1144793607.044,0.893085,0.071729,-0.312329
1144793607.054,0.893085,0.099129,-0.366953
1144793607.065,0.893085,0.083472,-0.339641
1144793607.074,0.912702,0.110872,-0.363051
1144793607.084,0.912702,0.106958,-0.308428
1144793607.094,0.916626,0.071729,-0.253804
1144793607.104,0.951937,0.059986,-0.265509
1144793607.114,0.916626,0.020844,-0.304526
1144793607.124,0.912702,0.036501,-0.324034
1144793607.134,0.924473,0.083472,-0.324034
1144793607.145,0.916626,0.114786,-0.312329
1144793607.155,0.924473,0.075643,-0.304526
1144793607.165,0.924473,0.071729,-0.285018
1144793607.175,0.936243,0.032586,-0.261607
1144793607.184,0.940167,0.024758,-0.269411
1144793607.195,0.932320,0.024758,-0.285018
1144793607.205,0.959784,0.040415,-0.238197
1144793607.215,0.916626,0.013015,-0.273313
1144793607.225,0.912702,-0.014385,-0.296723
1144793607.235,0.881314,0.048243,-0.335739
1144793607.245,0.885238,0.114786,-0.351346
1144793607.255,0.924473,0.001272,-0.355248
1144793607.265,0.916626,0.153929,-0.296723
1144793607.275,0.924473,0.243957,-0.261607
1144793607.285,0.893085,0.075643,-0.246001
1144793607.295,0.889161,0.126529,-0.405970
1144793607.305,0.889161,0.153929,-0.347444
1144793607.315,0.881314,0.048243,-0.456691
1144793607.325,0.885238,0.216557,-0.417675
1144793607.335,0.889161,0.103043,-0.378658
1144793607.345,0.912702,0.138272,-0.312329
1144793607.355,0.920549,0.032586,-0.230394
1144793607.365,0.885238,0.165672,-0.421576
1144793607.375,0.846003,0.287014,-0.316231
1144793607.385,0.865620,0.122615,-0.503512
1144793607.395,0.853850,0.130443,-0.378658
1144793607.405,0.873467,0.200900,-0.429380
1144793607.415,0.857773,0.259614,-0.355248
1144793607.425,0.869544,0.189157,-0.378658
1144793607.435,0.889161,0.169586,-0.429380
1144793607.445,0.873467,0.122615,-0.324034
1144793607.455,0.889161,-0.006556,-0.523020
1144793607.466,0.798921,0.251786,-0.429380
1144793607.476,0.834232,0.283100,-0.409871
1144793607.486,0.849926,0.208729,-0.441085
1144793607.496,0.822462,0.322243,-0.405970
1144793607.506,0.897008,0.134358,-0.265509
1144793607.516,0.900932,0.040415,-0.359149
1144793607.526,0.842079,0.294843,-0.366953
1144793607.536,0.798921,0.353557,-0.441085
1144793607.546,0.806768,0.322243,-0.460593
1144793607.556,0.802845,0.283100,-0.366953
1144793607.566,0.885238,0.243957,-0.374756
1144793607.576,0.904855,0.110872,-0.359149
1144793607.586,0.857773,0.212643,-0.464495
1144793607.596,0.834232,0.271357,-0.409871
1144793607.606,0.838156,0.189157,-0.472298
1144793607.616,0.818539,0.216557,-0.526922
1144793607.626,0.775380,0.306586,-0.452790
1144793607.636,0.775380,0.388786,-0.476200
1144793607.646,0.759686,0.384871,-0.480101
1144793607.657,0.794998,0.380957,-0.386461
1144793607.666,0.842079,0.310500,-0.359149
1144793607.676,0.873467,0.177415,-0.339641
1144793607.686,0.857773,0.181329,-0.448888
1144793607.696,0.810692,0.357471,-0.402068
1144793607.706,0.806768,0.337900,-0.417675
1144793607.716,0.830309,0.243957,-0.339641
1144793607.726,0.853850,0.294843,-0.370854
1144793607.736,0.759686,0.431843,-0.452790
1144793607.747,0.830309,0.306586,-0.382560
1144793607.757,0.861697,0.208729,-0.429380
1144793607.767,0.877391,0.181329,-0.366953
1144793607.777,0.861697,0.224386,-0.402068
1144793607.786,0.838156,0.298757,-0.335739
1144793607.797,0.849926,0.290929,-0.355248
1144793607.807,0.802845,0.283100,-0.495708
1144793607.817,0.775380,0.290929,-0.444986
1144793607.828,0.794998,0.310500,-0.460593
1144793607.837,0.810692,0.310500,-0.355248
1144793607.847,0.861697,0.283100,-0.324034
1144793607.857,0.849926,0.353557,-0.339641
1144793607.867,0.861697,0.310500,-0.261607
1144793607.877,0.877391,0.271357,-0.359149
1144793607.887,0.849926,0.341814,-0.343543
1144793607.897,0.830309,0.310500,-0.378658
1144793607.907,0.838156,0.310500,-0.394265
1144793607.918,0.849926,0.341814,-0.269411
1144793607.927,0.877391,0.220472,-0.370854
1144793607.937,0.846003,0.283100,-0.366953
1144793607.947,0.849926,0.228300,-0.382560
1144793607.957,0.842079,0.287014,-0.402068
1144793607.967,0.846003,0.263529,-0.378658
1144793607.977,0.853850,0.298757,-0.366953
1144793607.987,0.846003,0.298757,-0.331838
1144793607.997,0.857773,0.271357,-0.374756
1144793608.007,0.810692,0.357471,-0.402068
1144793608.017,0.830309,0.283100,-0.355248
1144793608.027,0.869544,0.263529,-0.359149
1144793608.038,0.861697,0.275272,-0.331838
1144793608.048,0.861697,0.294843,-0.363051
1144793608.058,0.846003,0.290929,-0.343543
1144793608.068,0.861697,0.263529,-0.374756
1144793608.078,0.838156,0.287014,-0.359149
1144793608.088,0.842079,0.298757,-0.382560
1144793608.098,0.834232,0.306586,-0.347444
1144793608.109,0.838156,0.290929,-0.351346
1144793608.118,0.853850,0.255700,-0.347444
1144793608.128,0.853850,0.298757,-0.378658
1144793608.138,0.853850,0.318329,-0.292821
1144793608.148,0.846003,0.302671,-0.382560
1144793608.158,0.838156,0.290929,-0.320133
1144793608.168,0.849926,0.314414,-0.335739
1144793608.178,0.826385,0.322243,-0.382560
1144793608.188,0.861697,0.275272,-0.285018
1144793608.198,0.873467,0.322243,-0.351346
1144793608.208,0.846003,0.298757,-0.351346
1144793608.218,0.846003,0.290929,-0.402068
1144793608.228,0.838156,0.247872,-0.425478
1144793608.238,0.846003,0.251786,-0.394265
1144793608.248,0.846003,0.290929,-0.378658
1144793608.258,0.842079,0.322243,-0.335739
1144793608.268,0.834232,0.377043,-0.343543
1144793608.278,0.818539,0.357471,-0.378658
1144793608.288,0.810692,0.353557,-0.394265
1144793608.298,0.842079,0.294843,-0.402068
1144793608.308,0.830309,0.333986,-0.374756
1144793608.318,0.826385,0.310500,-0.366953
1144793608.329,0.838156,0.283100,-0.394265
1144793608.339,0.842079,0.322243,-0.402068
1144793608.349,0.822462,0.294843,-0.444986
1144793608.359,0.806768,0.271357,-0.448888
1144793608.369,0.822462,0.275272,-0.425478
1144793608.379,0.802845,0.302671,-0.448888
1144793608.390,0.810692,0.283100,-0.429380
1144793608.399,0.814615,0.345729,-0.394265
1144793608.409,0.826385,0.345729,-0.382560
1144793608.419,0.818539,0.279186,-0.452790
1144793608.429,0.818539,0.302671,-0.378658
1144793608.439,0.853850,0.275272,-0.409871
1144793608.449,0.830309,0.279186,-0.366953
1144793608.459,0.802845,0.365300,-0.402068
1144793608.469,0.838156,0.283100,-0.417675
1144793608.479,0.810692,0.341814,-0.409871
1144793608.489,0.838156,0.275272,-0.378658
1144793608.499,0.853850,0.263529,-0.402068
1144793608.509,0.842079,0.306586,-0.331838
1144793608.519,0.853850,0.259614,-0.409871
1144793608.529,0.838156,0.283100,-0.359149
1144793608.539,0.877391,0.161757,-0.335739
1144793608.549,0.842079,0.330071,-0.363051
1144793608.559,0.846003,0.271357,-0.316231
1144793608.569,0.810692,0.357471,-0.448888
1144793608.579,0.802845,0.349643,-0.390363
1144793608.589,0.861697,0.173500,-0.370854
1144793608.599,0.916626,0.110872,-0.359149
1144793608.609,0.924473,0.122615,-0.210886
1144793608.619,0.940167,0.056072,-0.308428
1144793608.629,0.881314,0.294843,-0.265509
1144793608.639,0.908779,0.150015,-0.320133
1144793608.649,0.893085,0.173500,-0.308428
1144793608.660,0.908779,0.063901,-0.296723
1144793608.671,0.904855,0.036501,-0.331838
1144793608.679,0.928396,0.032586,-0.335739
1144793608.690,0.900932,0.114786,-0.324034
1144793608.700,0.944090,-0.018299,-0.273313
1144793608.710,0.897008,0.165672,-0.316231
1144793608.720,0.893085,0.013015,-0.339641
1144793608.730,0.904855,0.032586,-0.347444
1144793608.740,0.928396,0.079558,-0.273313
1144793608.750,0.924473,0.118700,-0.277214
1144793608.760,0.912702,0.087386,-0.296723
1144793608.770,0.900932,0.056072,-0.339641
1144793608.779,0.904855,0.071729,-0.355248
1144793608.789,0.897008,0.075643,-0.382560
1144793608.800,0.900932,0.130443,-0.339641
1144793608.810,0.916626,0.059986,-0.304526
1144793608.820,0.932320,0.095215,-0.273313
1144793608.830,0.932320,0.146100,-0.265509
1144793608.840,0.916626,0.122615,-0.308428
1144793608.850,0.912702,0.063901,-0.363051
1144793608.860,0.889161,0.009101,-0.335739
1144793608.870,0.912702,-0.006556,-0.308428
1144793608.880,0.920549,0.063901,-0.281116
1144793608.890,0.904855,0.126529,-0.339641
1144793608.900,0.900932,0.091301,-0.335739
1144793608.910,0.912702,0.079558,-0.339641
1144793608.920,0.916626,0.048243,-0.327936
1144793608.930,0.912702,0.091301,-0.324034
1144793608.940,0.924473,0.075643,-0.296723
1144793608.952,0.924473,0.067815,-0.288919
1144793608.960,0.916626,0.079558,-0.327936
1144793608.970,0.920549,0.075643,-0.335739
1144793608.980,0.940167,0.059986,-0.296723
1144793608.990,0.948014,0.016929,-0.273313
1144793608.999,0.940167,0.036501,-0.214787
1144793609.010,0.904855,0.059986,-0.226492
1144793609.021,0.963708,0.071729,-0.195279
1144793609.031,0.920549,0.013015,-0.308428
1144793609.041,0.908779,0.083472,-0.390363
1144793609.051,0.834232,0.130443,-0.421576
1144793609.061,0.877391,0.200900,-0.425478
1144793609.072,0.877391,0.142186,-0.347444
1144793609.081,0.885238,0.204815,-0.316231
1144793609.091,0.932320,-0.033956,-0.050917
1144793609.101,0.849926,0.032586,-0.534725
1144793609.111,0.779304,0.463157,-0.546430
1144793609.121,0.826385,0.099129,-0.519118
1144793609.131,0.865620,0.138272,-0.515217
1144793609.141,0.885238,0.181329,-0.195279
1144793609.151,0.877391,0.052158,-0.515217
1144793609.161,0.818539,0.447500,-0.437183
1144793609.171,0.767533,0.345729,-0.472298
1144793609.181,0.842079,0.236129,-0.378658
1144793609.191,0.885238,0.087386,-0.300624
1144793609.201,0.849926,0.196986,-0.511315
1144793609.211,0.775380,0.404443,-0.495708
1144793609.221,0.802845,0.279186,-0.491807
1144793609.231,0.842079,0.283100,-0.324034
1144793609.241,0.814615,0.353557,-0.398166
1144793609.251,0.849926,0.247872,-0.300624
1144793609.261,0.865620,0.200900,-0.425478
1144793609.271,0.834232,0.310500,-0.253804
1144793609.281,0.881314,0.103043,-0.390363
1144793609.291,0.838156,0.224386,-0.499610
1144793609.301,0.794998,0.341814,-0.452790
1144793609.312,0.810692,0.349643,-0.491807
1144793609.322,0.783227,0.330071,-0.491807
1144793609.332,0.787151,0.322243,-0.394265
1144793609.342,0.857773,0.318329,-0.339641
1144793609.352,0.873467,0.232215,-0.363051
1144793609.362,0.810692,0.439671,-0.386461
1144793609.372,0.857773,0.310500,-0.238197
1144793609.382,0.861697,0.173500,-0.468396
1144793609.392,0.787151,0.294843,-0.546430
1144793609.402,0.834232,0.173500,-0.363051
1144793609.412,0.889161,0.181329,-0.464495
1144793609.422,0.830309,0.330071,-0.386461
1144793609.432,0.794998,0.388786,-0.366953
1144793609.442,0.802845,0.420100,-0.366953
1144793609.452,0.810692,0.400528,-0.339641
1144793609.462,0.814615,0.306586,-0.417675
1144793609.472,0.869544,0.228300,-0.281116
1144793609.482,0.908779,0.161757,-0.327936
1144793609.492,0.885238,0.220472,-0.335739
1144793609.502,0.861697,0.275272,-0.347444
1144793609.512,0.826385,0.326157,-0.456691
1144793609.522,0.842079,0.283100,-0.343543
1144793609.532,0.846003,0.384871,-0.316231
1144793609.542,0.857773,0.365300,-0.249902
1144793609.552,0.865620,0.290929,-0.343543
1144793609.562,0.853850,0.220472,-0.437183
1144793609.572,0.846003,0.224386,-0.378658
1144793609.582,0.865620,0.204815,-0.421576
1144793609.592,0.806768,0.314414,-0.417675
1144793609.603,0.842079,0.302671,-0.339641
1144793609.613,0.865620,0.240043,-0.390363
1144793609.623,0.834232,0.326157,-0.359149
1144793609.633,0.857773,0.279186,-0.366953
1144793609.643,0.865620,0.271357,-0.355248
1144793609.653,0.849926,0.345729,-0.300624
1144793609.663,0.853850,0.314414,-0.339641
1144793609.673,0.830309,0.345729,-0.312329
1144793609.683,0.873467,0.283100,-0.296723
1144793609.693,0.869544,0.290929,-0.320133
1144793609.702,0.869544,0.247872,-0.324034
1144793609.713,0.873467,0.240043,-0.335739
1144793609.723,0.869544,0.200900,-0.386461
1144793609.733,0.846003,0.236129,-0.409871
1144793609.743,0.838156,0.283100,-0.382560
1144793609.753,0.830309,0.306586,-0.405970
1144793609.763,0.865620,0.279186,-0.285018
1144793609.773,0.861697,0.271357,-0.378658
1144793609.783,0.838156,0.310500,-0.355248
1144793609.793,0.838156,0.326157,-0.343543
1144793609.803,0.873467,0.298757,-0.327936
1144793609.813,0.857773,0.318329,-0.316231
1144793609.823,0.849926,0.318329,-0.339641
1144793609.833,0.846003,0.318329,-0.366953
1144793609.843,0.818539,0.357471,-0.378658
1144793609.853,0.846003,0.251786,-0.366953
1144793609.864,0.865620,0.232215,-0.386461
1144793609.873,0.865620,0.247872,-0.363051
1144793609.883,0.853850,0.326157,-0.292821
1144793609.893,0.869544,0.275272,-0.296723
1144793609.903,0.873467,0.259614,-0.300624
1144793609.913,0.842079,0.337900,-0.370854
1144793609.924,0.849926,0.200900,-0.425478
1144793609.934,0.826385,0.306586,-0.359149
1144793609.944,0.853850,0.341814,-0.335739
1144793609.954,0.869544,0.259614,-0.273313
1144793609.964,0.861697,0.314414,-0.316231
1144793609.974,0.853850,0.294843,-0.386461
1144793609.984,0.846003,0.271357,-0.398166
1144793609.994,0.846003,0.306586,-0.347444
1144793610.003,0.861697,0.306586,-0.351346
1144793610.014,0.830309,0.365300,-0.316231
1144793610.024,0.885238,0.287014,-0.296723
1144793610.034,0.830309,0.357471,-0.374756
1144793610.044,0.830309,0.298757,-0.378658
1144793610.054,0.830309,0.255700,-0.425478
1144793610.064,0.834232,0.310500,-0.359149
1144793610.074,0.822462,0.318329,-0.413773
1144793610.084,0.822462,0.306586,-0.386461
1144793610.094,0.849926,0.263529,-0.390363
1144793610.104,0.830309,0.287014,-0.390363
1144793610.114,0.830309,0.294843,-0.394265
1144793610.124,0.818539,0.267443,-0.480101
1144793610.134,0.806768,0.310500,-0.437183
1144793610.144,0.826385,0.306586,-0.425478
1144793610.154,0.826385,0.318329,-0.366953
1144793610.164,0.842079,0.330071,-0.366953
1144793610.174,0.834232,0.345729,-0.366953
1144793610.184,0.853850,0.259614,-0.382560
1144793610.194,0.849926,0.302671,-0.370854
1144793610.204,0.842079,0.306586,-0.370854
1144793610.214,0.857773,0.290929,-0.382560
1144793610.224,0.834232,0.287014,-0.382560
1144793610.234,0.849926,0.263529,-0.402068
1144793610.244,0.830309,0.294843,-0.409871
1144793610.254,0.865620,0.236129,-0.316231
1144793610.265,0.861697,0.302671,-0.378658
1144793610.275,0.842079,0.326157,-0.273313
1144793610.285,0.877391,0.208729,-0.363051
1144793610.295,0.846003,0.287014,-0.351346
1144793610.305,0.877391,0.150015,-0.304526
1144793610.315,0.881314,0.232215,-0.390363
1144793610.325,0.849926,0.196986,-0.300624
1144793610.335,0.846003,0.251786,-0.444986
1144793610.345,0.865620,0.247872,-0.277214
1144793610.355,0.920549,0.114786,-0.413773
1144793610.365,0.873467,0.271357,-0.277214
1144793610.375,0.897008,0.142186,-0.359149
1144793610.385,0.853850,0.349643,-0.351346
1144793610.395,0.885238,0.204815,-0.359149
1144793610.405,0.897008,0.106958,-0.308428
1144793610.415,0.928396,-0.065271,-0.238197
1144793610.425,0.924473,0.091301,-0.347444
1144793610.435,0.865620,0.071729,-0.413773
1144793610.445,0.857773,0.294843,-0.448888
1144793610.455,0.877391,0.106958,-0.390363
1144793610.465,0.951937,-0.014385,-0.292821
1144793610.475,0.971555,-0.045699,-0.175771
1144793610.485,0.940167,-0.131813,-0.214787
1144793610.495,0.904855,0.114786,-0.390363
1144793610.505,0.877391,0.075643,-0.398166
1144793610.515,0.916626,0.056072,-0.374756
1144793610.525,0.932320,-0.002642,-0.316231
1144793610.535,0.944090,-0.041785,-0.238197
1144793610.546,0.924473,0.032586,-0.238197
1144793610.555,0.908779,0.024758,-0.281116
1144793610.565,0.893085,0.052158,-0.409871
1144793610.575,0.865620,0.040415,-0.452790
1144793610.585,0.889161,0.048243,-0.390363
1144793610.596,0.912702,0.044329,-0.269411
1144793610.606,0.916626,0.067815,-0.300624
1144793610.616,0.900932,0.134358,-0.324034
1144793610.626,0.900932,0.106958,-0.390363
1144793610.636,0.893085,0.091301,-0.402068
1144793610.646,0.889161,0.044329,-0.339641
1144793610.655,0.904855,0.032586,-0.316231
1144793610.666,0.920549,0.067815,-0.288919
1144793610.676,0.924473,0.048243,-0.281116
1144793610.686,0.916626,0.114786,-0.312329
1144793610.696,0.916626,0.028672,-0.335739
1144793610.706,0.885238,0.059986,-0.370854
1144793610.716,0.881314,0.099129,-0.374756
1144793610.726,0.904855,0.079558,-0.343543
1144793610.736,0.912702,0.048243,-0.351346
1144793610.746,0.920549,0.024758,-0.320133
1144793610.756,0.920549,0.028672,-0.335739
1144793610.766,0.920549,0.016929,-0.292821
1144793610.776,0.908779,0.083472,-0.347444
1144793610.786,0.893085,0.099129,-0.316231
1144793610.795,0.908779,0.052158,-0.327936
1144793610.806,0.920549,0.032586,-0.331838
1144793610.816,0.920549,0.024758,-0.312329
1144793610.828,0.936243,0.009101,-0.312329
1144793610.836,0.924473,0.067815,-0.320133
1144793610.846,0.948014,0.040415,-0.308428
1144793610.856,0.955861,0.052158,-0.269411
1144793610.866,0.955861,0.020844,-0.265509
1144793610.876,0.936243,-0.053528,-0.210886
1144793610.886,0.897008,0.036501,-0.304526
1144793610.896,0.936243,0.020844,-0.199181
1144793610.906,0.842079,-0.045699,-0.452790
1144793610.916,0.877391,0.275272,-0.452790
1144793610.926,0.873467,0.059986,-0.366953
1144793610.936,0.932320,0.122615,-0.390363
1144793610.947,0.912702,0.216557,-0.285018
1144793610.957,0.893085,0.165672,-0.210886
1144793610.967,0.912702,-0.053528,-0.214787
1144793610.977,0.861697,0.165672,-0.530823
1144793610.987,0.802845,0.337900,-0.394265
1144793610.997,0.877391,0.059986,-0.511315
1144793611.007,0.838156,0.189157,-0.468396
1144793611.017,0.834232,0.306586,-0.409871
1144793611.027,0.842079,0.341814,-0.296723
1144793611.037,0.893085,-0.022214,-0.378658
1144793611.047,0.857773,0.185243,-0.464495
1144793611.057,0.814615,0.384871,-0.327936
1144793611.067,0.900932,-0.057442,-0.378658
1144793611.078,0.846003,0.169586,-0.550332
1144793611.087,0.787151,0.404443,-0.444986
1144793611.097,0.794998,0.349643,-0.413773
1144793611.108,0.877391,0.189157,-0.273313
1144793611.117,0.873467,0.126529,-0.476200
1144793611.127,0.838156,0.306586,-0.246001
1144793611.137,0.893085,0.099129,-0.417675
1144793611.147,0.794998,0.322243,-0.507413
1144793611.157,0.716528,0.502300,-0.526922
1144793611.167,0.818539,0.220472,-0.460593
1144793611.177,0.853850,0.165672,-0.320133
1144793611.187,0.900932,0.106958,-0.444986
1144793611.197,0.818539,0.361386,-0.288919
1144793611.207,0.842079,0.353557,-0.409871
1144793611.217,0.814615,0.341814,-0.437183
1144793611.227,0.732222,0.459243,-0.468396
1144793611.237,0.838156,0.263529,-0.441085
1144793611.247,0.885238,0.059986,-0.292821
1144793611.257,0.904855,0.177415,-0.476200
1144793611.267,0.791074,0.412271,-0.390363
1144793611.277,0.794998,0.404443,-0.425478
1144793611.287,0.802845,0.412271,-0.374756
1144793611.297,0.802845,0.365300,-0.405970
1144793611.307,0.877391,0.157843,-0.253804
1144793611.317,0.889161,0.189157,-0.405970
1144793611.327,0.846003,0.357471,-0.324034
1144793611.338,0.806768,0.341814,-0.398166
1144793611.348,0.857773,0.236129,-0.421576
1144793611.358,0.853850,0.232215,-0.378658
1144793611.368,0.846003,0.302671,-0.409871
1144793611.378,0.838156,0.294843,-0.355248
1144793611.389,0.834232,0.310500,-0.402068
1144793611.398,0.838156,0.361386,-0.355248
1144793611.408,0.842079,0.302671,-0.339641
1144793611.418,0.853850,0.279186,-0.347444
1144793611.428,0.838156,0.345729,-0.320133
1144793611.438,0.857773,0.232215,-0.425478
1144793611.448,0.834232,0.283100,-0.374756
1144793611.458,0.869544,0.275272,-0.320133
1144793611.468,0.873467,0.263529,-0.339641
1144793611.478,0.842079,0.322243,-0.366953
1144793611.488,0.853850,0.326157,-0.304526
1144793611.498,0.849926,0.310500,-0.351346
1144793611.508,0.846003,0.341814,-0.292821
1144793611.518,0.857773,0.330071,-0.324034
1144793611.528,0.853850,0.302671,-0.316231
1144793611.538,0.889161,0.216557,-0.343543
1144793611.548,0.869544,0.204815,-0.378658
1144793611.558,0.857773,0.275272,-0.355248
1144793611.568,0.842079,0.294843,-0.390363
1144793611.578,0.834232,0.302671,-0.409871
1144793611.588,0.838156,0.314414,-0.355248
1144793611.598,0.873467,0.283100,-0.331838
1144793611.608,0.865620,0.294843,-0.339641
1144793611.618,0.861697,0.290929,-0.312329
1144793611.628,0.857773,0.318329,-0.327936
1144793611.638,0.849926,0.314414,-0.363051
1144793611.648,0.857773,0.283100,-0.347444
1144793611.658,0.830309,0.337900,-0.390363
1144793611.669,0.846003,0.283100,-0.308428
1144793611.679,0.869544,0.271357,-0.308428
1144793611.689,0.865620,0.310500,-0.316231
1144793611.699,0.846003,0.333986,-0.324034
1144793611.709,0.869544,0.259614,-0.308428
1144793611.719,0.881314,0.259614,-0.378658
1144793611.729,0.834232,0.314414,-0.363051
1144793611.739,0.865620,0.279186,-0.351346
1144793611.749,0.861697,0.279186,-0.304526
1144793611.759,0.857773,0.283100,-0.366953
1144793611.769,0.865620,0.271357,-0.331838
1144793611.779,0.853850,0.294843,-0.382560
1144793611.788,0.857773,0.310500,-0.324034
1144793611.799,0.853850,0.333986,-0.331838
1144793611.809,0.865620,0.306586,-0.285018
1144793611.819,0.873467,0.302671,-0.292821
1144793611.829,0.849926,0.318329,-0.339641
1144793611.839,0.861697,0.279186,-0.296723
1144793611.849,0.881314,0.275272,-0.296723
1144793611.859,0.846003,0.373128,-0.339641
1144793611.869,0.846003,0.306586,-0.339641
1144793611.879,0.853850,0.271357,-0.417675
1144793611.889,0.822462,0.322243,-0.409871
1144793611.899,0.846003,0.255700,-0.409871
1144793611.909,0.818539,0.294843,-0.386461
1144793611.919,0.834232,0.310500,-0.386461
1144793611.929,0.834232,0.247872,-0.421576
1144793611.939,0.846003,0.243957,-0.398166
1144793611.949,0.834232,0.267443,-0.413773
1144793611.959,0.818539,0.314414,-0.382560
1144793611.969,0.818539,0.322243,-0.425478
1144793611.979,0.826385,0.298757,-0.402068
1144793611.989,0.834232,0.294843,-0.390363
1144793611.999,0.838156,0.314414,-0.374756
1144793612.010,0.834232,0.306586,-0.363051
1144793612.020,0.853850,0.279186,-0.386461
1144793612.030,0.830309,0.322243,-0.320133
1144793612.040,0.861697,0.181329,-0.390363
1144793612.050,0.838156,0.251786,-0.448888
1144793612.060,0.791074,0.345729,-0.448888
1144793612.070,0.810692,0.298757,-0.421576
1144793612.079,0.861697,0.240043,-0.288919
1144793612.090,0.897008,0.263529,-0.304526
1144793612.100,0.838156,0.341814,-0.327936
1144793612.110,0.853850,0.302671,-0.296723
1144793612.120,0.877391,0.200900,-0.366953
1144793612.130,0.865620,0.247872,-0.409871
1144793612.140,0.842079,0.287014,-0.339641
1144793612.150,0.861697,0.247872,-0.355248
1144793612.160,0.865620,0.263529,-0.308428
1144793612.170,0.877391,0.259614,-0.304526
1144793612.179,0.881314,0.193072,-0.269411
1144793612.190,0.889161,0.181329,-0.347444
1144793612.200,0.853850,0.232215,-0.374756
1144793612.210,0.897008,0.142186,-0.366953
1144793612.220,0.936243,0.005186,-0.249902
1144793612.230,0.944090,0.052158,-0.253804
1144793612.240,0.948014,-0.096585,-0.179672
1144793612.250,0.897008,0.247872,-0.487905
1144793612.260,0.838156,0.345729,-0.366953
1144793612.270,0.904855,-0.026128,-0.296723
1144793612.280,0.944090,0.020844,-0.324034
1144793612.290,0.955861,-0.092670,-0.203082
1144793612.300,0.908779,0.161757,-0.300624
1144793612.310,0.924473,0.071729,-0.242099
1144793612.320,0.893085,0.048243,-0.398166
1144793612.330,0.928396,0.079558,-0.355248
1144793612.340,0.948014,-0.010471,-0.296723
1144793612.351,0.940167,-0.010471,-0.222591
1144793612.361,0.971555,-0.077013,-0.152361
1144793612.371,0.893085,0.059986,-0.296723
1144793612.380,0.897008,0.165672,-0.394265
1144793612.391,0.873467,0.067815,-0.433281
1144793612.401,0.889161,0.032586,-0.378658
1144793612.411,0.924473,-0.014385,-0.285018
1144793612.422,0.948014,0.024758,-0.222591
1144793612.431,0.940167,0.020844,-0.300624
1144793612.441,0.920549,0.067815,-0.351346
1144793612.451,0.881314,0.126529,-0.394265
1144793612.461,0.881314,0.059986,-0.363051
1144793612.471,0.908779,0.040415,-0.320133
1144793612.481,0.920549,0.075643,-0.277214
1144793612.491,0.916626,0.032586,-0.296723
1144793612.501,0.920549,0.106958,-0.339641
1144793612.511,0.916626,0.095215,-0.312329
1144793612.521,0.897008,0.036501,-0.331838
1144793612.530,0.900932,0.071729,-0.327936
1144793612.541,0.912702,0.028672,-0.335739
1144793612.551,0.916626,0.052158,-0.296723
1144793612.561,0.932320,0.048243,-0.300624
1144793612.571,0.924473,0.067815,-0.296723
1144793612.581,0.924473,0.036501,-0.304526
1144793612.591,0.912702,0.067815,-0.343543
1144793612.601,0.912702,0.040415,-0.316231
1144793612.611,0.916626,0.032586,-0.324034
1144793612.621,0.924473,0.040415,-0.288919
1144793612.631,0.928396,0.005186,-0.296723
1144793612.641,0.920549,0.063901,-0.308428
1144793612.651,0.900932,0.044329,-0.308428
1144793612.661,0.920549,0.075643,-0.320133
1144793612.671,0.924473,0.048243,-0.327936
1144793612.681,0.932320,0.056072,-0.285018
1144793612.691,0.940167,0.040415,-0.285018
1144793612.704,0.951937,0.016929,-0.269411
1144793612.711,0.948014,0.040415,-0.261607
1144793612.722,0.967631,0.040415,-0.253804
1144793612.732,0.944090,-0.022214,-0.206984
1144793612.742,0.920549,0.075643,-0.300624
1144793612.752,0.889161,0.138272,-0.249902
1144793612.762,0.853850,0.048243,-0.429380
1144793612.772,0.889161,0.146100,-0.339641
1144793612.782,0.881314,0.016929,-0.429380
1144793612.791,0.889161,0.122615,-0.386461
1144793612.802,0.885238,0.095215,-0.366953
1144793612.812,0.877391,0.259614,-0.351346
1144793612.822,0.857773,0.267443,-0.242099
1144793612.832,0.869544,0.052158,-0.484003
1144793612.842,0.830309,0.279186,-0.394265
1144793612.852,0.877391,0.114786,-0.417675
1144793612.862,0.885238,0.059986,-0.503512
1144793612.872,0.834232,0.243957,-0.327936
1144793612.882,0.869544,0.095215,-0.429380
1144793612.892,0.802845,0.208729,-0.573742
1144793612.902,0.767533,0.388786,-0.460593
1144793612.912,0.802845,0.384871,-0.417675
1144793612.922,0.869544,0.185243,-0.238197
1144793612.932,0.912702,0.020844,-0.448888
1144793612.942,0.826385,0.243957,-0.456691
1144793612.952,0.822462,0.357471,-0.390363
1144793612.962,0.822462,0.333986,-0.448888
1144793612.972,0.834232,0.306586,-0.265509
1144793612.984,0.853850,0.263529,-0.441085
1144793612.992,0.818539,0.275272,-0.363051
1144793613.002,0.857773,0.212643,-0.363051
1144793613.012,0.849926,0.236129,-0.491807
1144793613.022,0.771457,0.384871,-0.460593
1144793613.032,0.806768,0.283100,-0.460593
1144793613.042,0.842079,0.181329,-0.460593
1144793613.053,0.798921,0.330071,-0.421576
1144793613.063,0.822462,0.287014,-0.468396
1144793613.073,0.810692,0.318329,-0.253804
1144793613.084,0.877391,0.251786,-0.464495
1144793613.093,0.822462,0.240043,-0.390363
1144793613.103,0.846003,0.302671,-0.417675
1144793613.113,0.846003,0.243957,-0.433281
1144793613.123,0.849926,0.247872,-0.327936
1144793613.133,0.842079,0.247872,-0.491807
1144793613.143,0.806768,0.267443,-0.484003
1144793613.153,0.787151,0.357471,-0.444986
1144793613.163,0.842079,0.306586,-0.394265
1144793613.173,0.834232,0.365300,-0.308428
1144793613.183,0.857773,0.349643,-0.300624
1144793613.193,0.842079,0.341814,-0.191377
1144793613.203,0.908779,0.181329,-0.378658
1144793613.213,0.826385,0.279186,-0.409871
1144793613.223,0.826385,0.330071,-0.366953
1144793613.233,0.814615,0.318329,-0.433281
1144793613.243,0.830309,0.314414,-0.386461
1144793613.253,0.822462,0.330071,-0.398166
1144793613.265,0.846003,0.283100,-0.405970
1144793613.273,0.838156,0.283100,-0.331838
1144793613.283,0.877391,0.224386,-0.355248
1144793613.293,0.830309,0.302671,-0.351346
1144793613.303,0.869544,0.247872,-0.292821
1144793613.313,0.842079,0.283100,-0.437183
1144793613.323,0.818539,0.337900,-0.394265
1144793613.333,0.810692,0.326157,-0.452790
1144793613.343,0.842079,0.240043,-0.413773
1144793613.353,0.834232,0.302671,-0.378658
1144793613.363,0.826385,0.322243,-0.370854
1144793613.373,0.842079,0.290929,-0.351346
1144793613.383,0.869544,0.228300,-0.347444
1144793613.393,0.849926,0.310500,-0.343543
1144793613.403,0.842079,0.341814,-0.335739
1144793613.413,0.853850,0.279186,-0.370854
1144793613.423,0.822462,0.377043,-0.308428
1144793613.433,0.873467,0.267443,-0.316231
1144793613.443,0.861697,0.287014,-0.359149
1144793613.453,0.865620,0.259614,-0.296723
1144793613.463,0.877391,0.212643,-0.402068
1144793613.473,0.822462,0.318329,-0.421576
1144793613.483,0.838156,0.306586,-0.335739
1144793613.493,0.853850,0.310500,-0.335739
1144793613.503,0.853850,0.322243,-0.347444
1144793613.514,0.846003,0.283100,-0.343543
1144793613.524,0.842079,0.314414,-0.370854
1144793613.534,0.849926,0.283100,-0.359149
1144793613.544,0.830309,0.310500,-0.363051
1144793613.554,0.869544,0.236129,-0.304526
1144793613.564,0.853850,0.322243,-0.316231
1144793613.574,0.865620,0.283100,-0.331838
1144793613.584,0.849926,0.326157,-0.331838
1144793613.594,0.849926,0.306586,-0.343543
1144793613.604,0.846003,0.298757,-0.370854
1144793613.614,0.838156,0.318329,-0.351346
1144793613.624,0.857773,0.283100,-0.331838
1144793613.634,0.869544,0.263529,-0.308428
1144793613.644,0.877391,0.220472,-0.339641
1144793613.654,0.842079,0.306586,-0.366953
1144793613.664,0.853850,0.294843,-0.343543
1144793613.674,0.861697,0.247872,-0.390363
1144793613.684,0.818539,0.357471,-0.343543
1144793613.694,0.861697,0.279186,-0.355248
1144793613.704,0.842079,0.314414,-0.316231
1144793613.714,0.861697,0.330071,-0.288919
1144793613.724,0.869544,0.267443,-0.343543
1144793613.734,0.838156,0.353557,-0.308428
1144793613.744,0.865620,0.294843,-0.343543
1144793613.754,0.849926,0.310500,-0.390363
1144793613.764,0.838156,0.330071,-0.355248
1144793613.774,0.838156,0.330071,-0.382560
1144793613.784,0.834232,0.310500,-0.339641
1144793613.794,0.877391,0.247872,-0.370854
1144793613.804,0.826385,0.326157,-0.378658
1144793613.814,0.838156,0.310500,-0.363051
1144793613.824,0.849926,0.279186,-0.382560
1144793613.834,0.834232,0.318329,-0.366953
1144793613.844,0.849926,0.236129,-0.405970
1144793613.854,0.830309,0.314414,-0.402068
1144793613.864,0.806768,0.341814,-0.409871
1144793613.875,0.810692,0.322243,-0.382560
1144793613.885,0.830309,0.294843,-0.413773
1144793613.895,0.830309,0.294843,-0.390363
1144793613.905,0.846003,0.306586,-0.366953
1144793613.915,0.842079,0.302671,-0.382560
1144793613.925,0.842079,0.290929,-0.386461
1144793613.935,0.842079,0.294843,-0.351346
1144793613.945,0.853850,0.267443,-0.370854
1144793613.955,0.842079,0.306586,-0.366953
1144793613.965,0.806768,0.396614,-0.409871
1144793613.975,0.830309,0.337900,-0.339641
1144793613.984,0.861697,0.318329,-0.366953
1144793613.995,0.853850,0.322243,-0.277214
1144793614.005,0.865620,0.290929,-0.343543
1144793614.015,0.873467,0.220472,-0.296723
1144793614.025,0.893085,0.220472,-0.355248
1144793614.035,0.853850,0.220472,-0.363051
1144793614.045,0.857773,0.247872,-0.398166
1144793614.055,0.842079,0.283100,-0.351346
1144793614.065,0.834232,0.322243,-0.390363
1144793614.075,0.830309,0.290929,-0.390363
1144793614.085,0.865620,0.177415,-0.374756
1144793614.095,0.861697,0.189157,-0.398166
1144793614.105,0.904855,0.142186,-0.249902
1144793614.115,0.924473,0.095215,-0.273313
1144793614.125,0.900932,0.103043,-0.257706
1144793614.135,0.889161,0.189157,-0.359149
1144793614.145,0.857773,0.165672,-0.327936
1144793614.155,0.916626,0.056072,-0.339641
1144793614.165,0.924473,0.099129,-0.277214
1144793614.175,0.932320,-0.096585,-0.246001
1144793614.185,0.920549,0.110872,-0.327936
1144793614.195,0.924473,0.016929,-0.249902
1144793614.205,0.916626,0.040415,-0.437183
1144793614.215,0.889161,0.189157,-0.331838
1144793614.225,0.948014,0.040415,-0.253804
1144793614.235,0.955861,0.071729,-0.191377
1144793614.245,0.951937,-0.026128,-0.226492
1144793614.256,0.932320,0.013015,-0.288919
1144793614.266,0.912702,0.001272,-0.331838
1144793614.276,0.873467,0.200900,-0.378658
1144793614.286,0.893085,0.032586,-0.355248
1144793614.297,0.916626,0.083472,-0.304526
1144793614.306,0.932320,-0.033956,-0.288919
1144793614.316,0.897008,0.150015,-0.347444
1144793614.326,0.889161,0.079558,-0.386461
1144793614.336,0.889161,0.161757,-0.405970
1144793614.346,0.900932,0.091301,-0.343543
1144793614.356,0.932320,0.040415,-0.277214
1144793614.366,0.948014,0.032586,-0.234296
1144793614.376,0.959784,-0.006556,-0.199181
1144793614.386,0.932320,-0.037871,-0.308428
1144793614.396,0.881314,0.142186,-0.402068
1144793614.406,0.885238,0.083472,-0.386461
1144793614.416,0.885238,0.071729,-0.339641
1144793614.426,0.916626,0.063901,-0.288919
1144793614.436,0.928396,0.032586,-0.288919
1144793614.446,0.951937,0.009101,-0.265509
1144793614.456,0.916626,-0.010471,-0.324034
1144793614.466,0.900932,0.103043,-0.374756
1144793614.476,0.893085,0.091301,-0.374756
1144793614.486,0.912702,0.044329,-0.296723
1144793614.496,0.940167,0.036501,-0.277214
1144793614.506,0.944090,0.013015,-0.261607
1144793614.516,0.920549,0.075643,-0.304526
1144793614.526,0.912702,0.063901,-0.324034
1144793614.536,0.900932,0.071729,-0.355248
1144793614.546,0.900932,0.044329,-0.343543
1144793614.556,0.912702,0.005186,-0.327936
1144793614.567,0.928396,0.052158,-0.300624
1144793614.578,0.924473,0.036501,-0.281116
1144793614.587,0.928396,0.056072,-0.296723
1144793614.597,0.924473,0.071729,-0.288919
1144793614.607,0.900932,0.075643,-0.335739
1144793614.617,0.897008,0.063901,-0.331838
1144793614.627,0.920549,0.040415,-0.312329
1144793614.637,0.924473,0.028672,-0.285018
1144793614.647,0.928396,0.024758,-0.288919
1144793614.657,0.916626,0.059986,-0.316231
1144793614.667,0.908779,0.103043,-0.292821
1144793614.677,0.916626,0.063901,-0.316231
1144793614.687,0.912702,0.024758,-0.312329
1144793614.697,0.940167,0.028672,-0.304526
1144793614.707,0.924473,0.028672,-0.288919
1144793614.717,0.936243,0.044329,-0.296723
1144793614.727,0.936243,0.063901,-0.273313
1144793614.737,0.932320,0.079558,-0.285018
1144793614.747,0.963708,0.024758,-0.246001
1144793614.757,0.967631,-0.041785,-0.246001
1144793614.767,0.944090,-0.010471,-0.246001
1144793614.777,0.912702,-0.053528,-0.234296
1144793614.787,0.889161,0.075643,-0.390363
1144793614.797,0.869544,0.212643,-0.355248
1144793614.807,0.889161,0.122615,-0.347444
1144793614.817,0.932320,0.118700,-0.339641
1144793614.827,0.912702,0.165672,-0.308428
1144793614.837,0.920549,0.212643,-0.296723
1144793614.847,0.916626,0.181329,-0.257706
1144793614.859,0.869544,0.189157,-0.324034
1144793614.867,0.900932,0.020844,-0.183574
1144793614.877,0.834232,-0.073099,-0.476200
1144793614.887,0.818539,0.345729,-0.565938
1144793614.897,0.779304,0.236129,-0.499610
1144793614.907,0.877391,0.138272,-0.441085
1144793614.917,0.885238,0.122615,-0.378658
1144793614.927,0.900932,0.095215,-0.296723
1144793614.938,0.857773,0.247872,-0.433281
1144793614.948,0.838156,0.150015,-0.327936
1144793614.958,0.853850,0.153929,-0.476200
1144793614.968,0.802845,0.326157,-0.444986
1144793614.978,0.798921,0.310500,-0.386461
1144793614.988,0.853850,0.216557,-0.468396
1144793614.998,0.818539,0.353557,-0.366953
1144793615.008,0.834232,0.263529,-0.402068
1144793615.018,0.853850,0.099129,-0.503512
1144793615.028,0.814615,0.216557,-0.390363
1144793615.038,0.853850,0.236129,-0.507413
1144793615.048,0.791074,0.232215,-0.417675
1144793615.058,0.849926,0.259614,-0.413773
1144793615.068,0.826385,0.298757,-0.456691
1144793615.078,0.775380,0.365300,-0.390363
1144793615.089,0.822462,0.275272,-0.468396
1144793615.098,0.830309,0.294843,-0.363051
1144793615.108,0.822462,0.373128,-0.413773
1144793615.118,0.857773,0.228300,-0.425478
1144793615.128,0.818539,0.337900,-0.370854
1144793615.140,0.814615,0.298757,-0.456691
1144793615.148,0.814615,0.287014,-0.335739
1144793615.158,0.853850,0.259614,-0.417675
1144793615.168,0.818539,0.294843,-0.312329
1144793615.178,0.830309,0.240043,-0.464495
1144793615.188,0.818539,0.283100,-0.487905
1144793615.198,0.783227,0.357471,-0.405970
1144793615.208,0.838156,0.349643,-0.394265
1144793615.218,0.826385,0.302671,-0.366953
1144793615.228,0.826385,0.396614,-0.386461
1144793615.238,0.853850,0.255700,-0.366953
1144793615.248,0.861697,0.259614,-0.308428
1144793615.258,0.885238,0.189157,-0.413773
1144793615.268,0.877391,0.169586,-0.246001
1144793615.278,0.846003,0.365300,-0.351346
1144793615.288,0.802845,0.470985,-0.366953
1144793615.298,0.842079,0.283100,-0.312329
1144793615.308,0.842079,0.357471,-0.382560
1144793615.318,0.834232,0.298757,-0.363051
1144793615.329,0.861697,0.224386,-0.347444
1144793615.339,0.861697,0.240043,-0.413773
1144793615.349,0.830309,0.310500,-0.355248
1144793615.359,0.846003,0.263529,-0.429380
1144793615.369,0.787151,0.333986,-0.468396
1144793615.379,0.794998,0.326157,-0.433281
1144793615.389,0.842079,0.255700,-0.405970
1144793615.399,0.849926,0.275272,-0.351346
1144793615.409,0.857773,0.251786,-0.355248
1144793615.419,0.877391,0.287014,-0.288919
1144793615.429,0.865620,0.353557,-0.285018
1144793615.439,0.849926,0.345729,-0.281116
1144793615.449,0.897008,0.240043,-0.269411
1144793615.459,0.877391,0.283100,-0.316231
1144793615.469,0.853850,0.287014,-0.394265
1144793615.479,0.834232,0.298757,-0.386461
1144793615.489,0.846003,0.294843,-0.394265
1144793615.499,0.826385,0.337900,-0.370854
1144793615.509,0.857773,0.287014,-0.304526
1144793615.519,0.861697,0.271357,-0.370854
1144793615.529,0.846003,0.298757,-0.359149
1144793615.543,0.846003,0.322243,-0.327936
1144793615.551,0.836194,0.351600,-0.314280
1144793615.565,0.849926,0.345729,-0.251853
1144793615.573,0.889161,0.249829,-0.300624
1144793615.583,0.851888,0.361386,-0.292821
1144793615.593,0.849926,0.335943,-0.308428
1144793615.603,0.871506,0.271357,-0.306477
1144793615.613,0.871506,0.294843,-0.331838
1144793615.623,0.822462,0.365300,-0.347444
1144793615.633,0.838156,0.341814,-0.349395
1144793615.643,0.840118,0.322243,-0.357199
1144793615.653,0.853850,0.351600,-0.314280
1144793615.662,0.873467,0.300714,-0.286968
1144793615.672,0.844041,0.353557,-0.325985
1144793615.682,0.834232,0.304629,-0.378658
1144793615.692,0.836194,0.267443,-0.398166
1144793615.703,0.838156,0.292886,-0.359149
1144793615.712,0.842079,0.283100,-0.349395
1144793615.722,0.853850,0.330071,-0.322084
1144793615.732,0.851888,0.328114,-0.322084
1144793615.742,0.842079,0.320286,-0.337690
1144793615.752,0.844041,0.332029,-0.337690
1144793615.762,0.838156,0.285057,-0.361100
1144793615.772,0.824424,0.328114,-0.382560
1144793615.782,0.828347,0.343771,-0.343543
1144793615.792,0.861697,0.281143,-0.316231
1144793615.801,0.859735,0.326157,-0.275263
1144793615.812,0.849926,0.308543,-0.370854
1144793615.822,0.842079,0.306586,-0.355248
1144793615.832,0.842079,0.302671,-0.384510
1144793615.842,0.853850,0.255700,-0.329887
1144793615.852,0.881314,0.247872,-0.312329
1144793615.861,0.855812,0.330071,-0.304526
1144793615.872,0.869544,0.308543,-0.298673
1144793615.881,0.857773,0.320286,-0.314280
1144793615.891,0.859735,0.290929,-0.322084
1144793615.901,0.859735,0.265486,-0.331838
1144793615.911,0.855812,0.296800,-0.335739
1144793615.921,0.869544,0.251786,-0.298673
1144793615.931,0.873467,0.245914,-0.343543
1144793615.941,0.883276,0.216557,-0.251853
1144793615.951,0.897008,0.222429,-0.269411
1144793615.961,0.883276,0.273314,-0.228443
1144793615.971,0.906817,0.146100,-0.267460
1144793615.981,0.859735,0.316371,-0.351346
1144793615.990,0.897008,0.169586,-0.285018
1144793616.000,0.904855,0.151972,-0.337690
1144793616.011,0.916626,0.159800,-0.224542
1144793616.021,0.918588,0.114786,-0.331838
1144793616.031,0.904855,0.259614,-0.286968
1144793616.041,0.932320,0.151972,-0.253804
1144793616.120,0.930358,0.071729,-0.216738
1144793616.120,0.932320,0.009101,-0.228443
1144793616.121,0.902894,0.281143,-0.296723
1144793616.121,0.914664,0.042372,-0.206984
1144793616.121,0.912702,0.036501,-0.322084
1144793616.122,0.926435,0.073686,-0.234296
1144793616.122,0.914664,-0.065271,-0.296723
1144793616.123,0.997057,-0.018299,-0.425478
1144793616.130,0.940167,-0.016342,-0.216738
1144793616.140,0.949975,-0.020256,-0.265509
1144793616.150,0.971555,-0.004599,-0.175771
1144793616.160,0.959784,-0.075056,-0.158213
1144793616.171,0.951937,-0.104413,-0.189426
1144793616.179,0.930358,-0.084842,-0.255755
1144793616.190,0.914664,0.085429,-0.329887
1144793616.200,0.910741,0.069772,-0.341592
1144793616.210,0.910741,0.054115,-0.302575
1144793616.220,0.924473,-0.000685,-0.267460
1144793616.230,0.936243,-0.020256,-0.244050
1144793616.240,0.942129,0.052158,-0.253804
1144793616.249,0.936243,0.048243,-0.257706
1144793616.259,0.926435,0.065858,-0.271362
1144793616.269,0.918588,0.059986,-0.304526
1144793616.279,0.916626,0.044329,-0.259657
1144793616.289,0.910741,0.061943,-0.267460
1144793616.299,0.916626,0.061943,-0.290870
1144793616.309,0.924473,-0.018299,-0.285018
1144793616.319,0.942129,0.009101,-0.275263
1144793616.329,0.940167,0.040415,-0.247952
1144793616.339,0.934282,0.054115,-0.238197
1144793616.349,0.930358,0.036501,-0.244050
1144793616.359,0.906817,0.032586,-0.283067
1144793616.369,0.910741,0.052158,-0.304526
1144793616.379,0.930358,0.022801,-0.281116
1144793616.389,0.934282,0.054115,-0.286968
1144793616.399,0.928396,0.089343,-0.288919
1144793616.409,0.924473,0.054115,-0.261607
1144793616.419,0.926435,0.040415,-0.263558
1144793616.429,0.918588,0.044329,-0.275263
1144793616.438,0.924473,0.011058,-0.255755
1144793616.448,0.940167,0.034544,-0.249902
1144793616.458,0.944090,0.038458,-0.238197
1144793616.468,0.924473,0.048243,-0.267460
1144793616.478,0.920549,0.065858,-0.288919
1144793616.488,0.932320,0.040415,-0.259657
1144793616.498,0.936243,0.024758,-0.257706
1144793616.508,0.944090,0.022801,-0.255755
1144793616.518,0.940167,0.024758,-0.271362
1144793616.528,0.951937,0.036501,-0.255755
1144793616.538,0.959784,0.038458,-0.246001
1144793616.548,0.975478,-0.006556,-0.214787
1144793616.558,0.983325,-0.008514,-0.206984
1144793616.568,0.993134,-0.006556,-0.179672
1144793616.578,0.949975,0.056072,-0.166016
1144793616.588,0.895047,0.144143,-0.199181
1144793616.598,0.857773,-0.147470,-0.208935
1144793616.608,0.877391,-0.098542,-0.427429
1144793616.618,0.906817,0.322243,-0.376707
1144793616.628,0.906817,0.101086,-0.349395
1144793616.638,0.928396,0.134358,-0.365002
1144793616.648,0.897008,0.283100,-0.314280
1144793616.658,0.900932,0.202857,-0.286968
1144793616.667,0.924473,0.081515,-0.148459
1144793616.677,0.871506,-0.131813,-0.302575
1144793616.687,0.820500,0.277229,-0.534725
1144793616.697,0.796959,0.349643,-0.441085
1144793616.707,0.855812,0.124572,-0.530823
1144793616.717,0.849926,0.236129,-0.419625
1144793616.727,0.842079,0.353557,-0.359149
1144793616.737,0.867582,0.314414,-0.363051
1144793616.747,0.906817,0.169586,-0.210886
1144793616.757,0.916626,0.067815,-0.341592
1144793616.767,0.883276,0.155886,-0.292821
1144793616.777,0.840118,0.228300,-0.429380
1144793616.787,0.791074,0.341814,-0.429380
1144793616.797,0.861697,0.226343,-0.396215
1144793616.807,0.853850,0.181329,-0.396215
1144793616.817,0.887200,0.251786,-0.290870
1144793616.828,0.863659,0.279186,-0.329887
1144793616.836,0.842079,0.312457,-0.357199
1144793616.846,0.875429,0.183286,-0.378658
1144793616.856,0.881314,0.124572,-0.285018
1144793616.866,0.857773,0.230257,-0.444986
1144793616.876,0.822462,0.273314,-0.400117
1144793616.886,0.853850,0.232215,-0.394265
1144793616.896,0.834232,0.357471,-0.382560
1144793616.906,0.814615,0.359428,-0.376707
1144793616.916,0.855812,0.285057,-0.388412
1144793616.926,0.812653,0.406400,-0.386461
1144793616.936,0.846003,0.324200,-0.347444
1144793616.946,0.889161,0.253743,-0.187476
1144793616.956,0.910741,0.118700,-0.316231
1144793616.966,0.834232,0.238086,-0.478151
1144793616.976,0.800883,0.294843,-0.476200
1144793616.986,0.855812,0.220472,-0.437183
1144793616.996,0.836194,0.308543,-0.378658
1144793617.006,0.822462,0.410314,-0.345494
1144793617.016,0.849926,0.314414,-0.355248
1144793617.026,0.849926,0.288972,-0.331838
1144793617.036,0.838156,0.361386,-0.331838
1144793617.046,0.857773,0.310500,-0.249902
1144793617.056,0.893085,0.257657,-0.240148
1144793617.066,0.887200,0.242000,-0.281116
1144793617.076,0.875429,0.204815,-0.349395
1144793617.087,0.838156,0.267443,-0.425478
1144793617.096,0.844041,0.228300,-0.419625
1144793617.105,0.840118,0.273314,-0.355248
1144793617.116,0.842079,0.371171,-0.316231
1144793617.126,0.859735,0.349643,-0.253804
1144793617.135,0.857773,0.347686,-0.316231
1144793617.145,0.871506,0.281143,-0.271362
1144793617.155,0.883276,0.240043,-0.329887
1144793617.165,0.863659,0.290929,-0.333789
1144793617.175,0.877391,0.240043,-0.296723
1144793617.185,0.869544,0.247872,-0.347444
1144793617.195,0.847965,0.281143,-0.363051
1144793617.205,0.838156,0.283100,-0.372805
1144793617.215,0.838156,0.273314,-0.402068
1144793617.225,0.849926,0.249829,-0.361100
1144793617.235,0.830309,0.333986,-0.384510
1144793617.245,0.844041,0.330071,-0.325985
1144793617.255,0.906817,0.187200,-0.246001
1144793617.265,0.877391,0.247872,-0.347444
1144793617.275,0.836194,0.361386,-0.339641
1144793617.285,0.846003,0.316371,-0.333789
1144793617.296,0.820500,0.314414,-0.388412
1144793617.305,0.865620,0.275272,-0.316231
1144793617.315,0.881314,0.269400,-0.294772
1144793617.325,0.879353,0.290929,-0.275263
1144793617.335,0.881314,0.253743,-0.296723
1144793617.344,0.867582,0.288972,-0.271362
1144793617.355,0.857773,0.298757,-0.343543
1144793617.364,0.863659,0.298757,-0.288919
1144793617.374,0.871506,0.296800,-0.316231
1144793617.384,0.861697,0.273314,-0.296723
1144793617.394,0.861697,0.267443,-0.335739
1144793617.404,0.867582,0.275272,-0.298673
1144793617.414,0.881314,0.294843,-0.277214
1144793617.424,0.859735,0.333986,-0.292821
1144793617.434,0.855812,0.312457,-0.281116
1144793617.444,0.863659,0.312457,-0.325985
1144793617.454,0.847965,0.294843,-0.353297
1144793617.464,0.840118,0.287014,-0.363051
1144793617.474,0.871506,0.290929,-0.294772
1144793617.484,0.855812,0.379000,-0.279165
1144793617.494,0.865620,0.275272,-0.279165
1144793617.503,0.893085,0.243957,-0.285018
1144793617.514,0.851888,0.335943,-0.310378
1144793617.524,0.867582,0.292886,-0.269411
1144793617.534,0.877391,0.281143,-0.322084
1144793617.544,0.844041,0.353557,-0.296723
1144793617.554,0.855812,0.328114,-0.329887
1144793617.564,0.838156,0.326157,-0.341592
1144793617.573,0.844041,0.308543,-0.316231
1144793617.583,0.855812,0.267443,-0.366953
1144793617.593,0.830309,0.365300,-0.325985
1144793617.603,0.832271,0.355514,-0.337690
1144793617.613,0.826385,0.306586,-0.388412
1144793617.623,0.830309,0.320286,-0.372805
1144793617.633,0.826385,0.304629,-0.390363
1144793617.643,0.844041,0.253743,-0.370854
1144793617.653,0.855812,0.275272,-0.343543
1144793617.663,0.832271,0.357471,-0.343543
1144793617.673,0.853850,0.324200,-0.316231
1144793617.683,0.847965,0.339857,-0.325985
1144793617.693,0.830309,0.330071,-0.361100
1144793617.703,0.828347,0.253743,-0.413773
1144793617.713,0.822462,0.304629,-0.390363
1144793617.723,0.834232,0.332029,-0.361100
1144793617.733,0.849926,0.292886,-0.320133
1144793617.743,0.836194,0.308543,-0.365002
1144793617.753,0.855812,0.298757,-0.345494
1144793617.763,0.857773,0.255700,-0.357199
1144793617.773,0.842079,0.333986,-0.368904
1144793617.783,0.840118,0.306586,-0.343543
1144793617.792,0.863659,0.228300,-0.394265
1144793617.802,0.838156,0.300714,-0.361100
1144793617.812,0.857773,0.296800,-0.331838
1144793617.822,0.849926,0.271357,-0.378658
1144793617.832,0.842079,0.302671,-0.331838
1144793617.842,0.859735,0.269400,-0.329887
1144793617.852,0.847965,0.275272,-0.380609
1144793617.862,0.861697,0.243957,-0.333789
1144793617.872,0.851888,0.306586,-0.353297
1144793617.882,0.867582,0.259614,-0.263558
1144793617.892,0.867582,0.296800,-0.314280
1144793617.902,0.865620,0.294843,-0.294772
1144793617.912,0.881314,0.249829,-0.296723
1144793617.922,0.881314,0.273314,-0.318182
1144793617.932,0.871506,0.247872,-0.286968
1144793617.942,0.910741,0.144143,-0.314280
1144793617.953,0.881314,0.212643,-0.347444
1144793617.962,0.898970,0.134358,-0.327936
1144793617.972,0.920549,0.155886,-0.290870
1144793617.982,0.926435,0.108915,-0.259657
1144793617.992,0.928396,0.116743,-0.220640
1144793618.001,0.906817,0.067815,-0.281116
1144793618.011,0.865620,0.214600,-0.335739
1144793618.021,0.871506,0.157843,-0.355248
1144793618.031,0.902894,0.112829,-0.355248
1144793618.041,0.932320,0.106958,-0.285018
1144793618.051,0.951937,0.013015,-0.208935
1144793618.061,0.953899,0.011058,-0.197230
1144793618.071,0.895047,0.138272,-0.236247
1144793618.081,0.873467,0.108915,-0.372805
1144793618.091,0.881314,0.067815,-0.388412
1144793618.101,0.922511,-0.024171,-0.316231
1144793618.111,0.949975,0.052158,-0.263558
1144793618.121,0.977440,-0.016342,-0.167967
1144793618.131,0.977440,0.001272,-0.206984
1144793618.141,0.969593,0.022801,-0.206984
1144793618.151,0.942129,0.020844,-0.271362
1144793618.161,0.916626,0.069772,-0.335739
1144793618.171,0.898970,-0.012428,-0.333789
1144793618.181,0.879353,0.065858,-0.361100
1144793618.191,0.895047,0.048243,-0.333789
1144793618.201,0.922511,0.079558,-0.261607
1144793618.211,0.938205,0.063901,-0.255755
1144793618.221,0.944090,0.011058,-0.253804
1144793618.230,0.928396,0.018886,-0.281116
1144793618.240,0.900932,0.087386,-0.312329
1144793618.250,0.906817,0.056072,-0.306477
1144793618.260,0.912702,0.050201,-0.269411
1144793618.270,0.936243,0.046286,-0.240148
1144793618.280,0.930358,0.011058,-0.283067
1144793618.290,0.920549,0.052158,-0.318182
1144793618.300,0.924473,0.081515,-0.286968
1144793618.310,0.904855,0.085429,-0.296723
1144793618.320,0.912702,0.061943,-0.286968
1144793618.330,0.926435,-0.014385,-0.251853
1144793618.340,0.948014,0.022801,-0.232345
1144793618.350,0.940167,0.022801,-0.242099
1144793618.360,0.928396,0.061943,-0.292821
1144793618.370,0.902894,0.106958,-0.318182
1144793618.379,0.910741,0.071729,-0.312329
1144793618.390,0.922511,0.042372,-0.296723
1144793618.400,0.930358,0.003229,-0.263558
1144793618.410,0.926435,0.071729,-0.277214
1144793618.421,0.922511,0.077601,-0.259657
1144793618.429,0.916626,0.091301,-0.300624
1144793618.439,0.914664,0.067815,-0.281116
1144793618.449,0.924473,0.034544,-0.275263
1144793618.459,0.920549,0.028672,-0.294772
1144793618.469,0.912702,0.032586,-0.308428
1144793618.479,0.922511,0.065858,-0.279165
1144793618.489,0.916626,0.071729,-0.273313
1144793618.499,0.910741,0.085429,-0.300624
1144793618.509,0.920549,0.058029,-0.290870
1144793618.519,0.930358,0.038458,-0.275263
1144793618.529,0.926435,0.046286,-0.269411
1144793618.539,0.914664,0.048243,-0.290870
1144793618.549,0.918588,0.056072,-0.288919
1144793618.559,0.912702,0.079558,-0.312329
1144793618.569,0.914664,0.059986,-0.300624
1144793618.579,0.924473,0.042372,-0.275263
1144793618.589,0.930358,0.050201,-0.269411
1144793618.599,0.928396,0.036501,-0.251853
1144793618.610,0.926435,0.058029,-0.259657
1144793618.619,0.926435,0.071729,-0.271362
1144793618.628,0.918588,0.048243,-0.277214
1144793618.638,0.916626,0.061943,-0.286968
1144793618.648,0.924473,0.050201,-0.275263
1144793618.658,0.926435,0.054115,-0.279165
1144793618.668,0.930358,0.048243,-0.267460
1144793618.678,0.932320,0.046286,-0.273313
1144793618.688,0.953899,0.026715,-0.273313
1144793618.698,0.953899,0.007144,-0.267460
1144793618.708,0.965669,-0.004599,-0.251853
1144793618.718,0.965669,-0.008514,-0.187476
1144793618.728,0.944090,0.026715,-0.240148
1144793618.738,0.916626,0.058029,-0.183574
1144793618.748,0.885238,-0.022214,-0.361100
1144793618.758,0.898970,0.148058,-0.361100
1144793618.768,0.914664,-0.008514,-0.285018
1144793618.778,0.918588,0.103043,-0.365002
1144793618.788,0.893085,0.220472,-0.337690
1144793618.798,0.902894,0.204815,-0.320133
1144793618.808,0.906817,0.220472,-0.279165
1144793618.818,0.910741,0.116743,-0.216738
1144793618.828,0.889161,0.105000,-0.216738
1144793618.838,0.855812,-0.010471,-0.343543
1144793618.847,0.818539,0.283100,-0.595201
1144793618.857,0.794998,0.275272,-0.460593
1144793618.867,0.879353,0.183286,-0.400117
1144793618.877,0.897008,0.214600,-0.222591
1144793618.887,0.889161,0.171543,-0.339641
1144793618.897,0.842079,0.267443,-0.425478
1144793618.907,0.838156,0.263529,-0.404019
1144793618.917,0.869544,0.193072,-0.419625
1144793618.927,0.885238,0.126529,-0.327936
1144793618.937,0.847965,0.236129,-0.382560
1144793618.947,0.840118,0.345729,-0.398166
1144793618.956,0.840118,0.230257,-0.359149
1144793618.967,0.849926,0.210686,-0.458642
1144793618.977,0.873467,0.163715,-0.255755
1144793618.987,0.902894,0.126529,-0.300624
1144793618.997,0.816577,0.398571,-0.415724
1144793619.007,0.787151,0.412271,-0.366953
1144793619.017,0.838156,0.196986,-0.521069
1144793619.026,0.814615,0.169586,-0.534725
1144793619.037,0.798921,0.335943,-0.458642
1144793619.046,0.842079,0.320286,-0.398166
1144793619.056,0.877391,0.257657,-0.226492
1144793619.066,0.885238,0.287014,-0.314280
1144793619.079,0.828347,0.519914,-0.173820
1144793619.086,0.808730,0.439671,-0.325985
1144793619.096,0.834232,0.210686,-0.478151
1144793619.106,0.796959,0.326157,-0.368904
1144793619.116,0.855812,0.255700,-0.404019
1144793619.126,0.847965,0.179372,-0.443036
1144793619.136,0.861697,0.251786,-0.351346
1144793619.146,0.822462,0.359428,-0.396215
1144793619.156,0.806768,0.424014,-0.341592
1144793619.166,0.830309,0.353557,-0.341592
1144793619.176,0.814615,0.386828,-0.310378
1144793619.186,0.834232,0.332029,-0.302575
1144793619.196,0.861697,0.220472,-0.396215
1144793619.206,0.887200,0.220472,-0.273313
1144793619.216,0.924473,0.124572,-0.300624
1144793619.226,0.857773,0.261572,-0.382560
1144793619.236,0.832271,0.388786,-0.339641
1144793619.245,0.808730,0.365300,-0.372805
1144793619.255,0.842079,0.271357,-0.370854
1144793619.266,0.842079,0.275272,-0.339641
1144793619.275,0.855812,0.302671,-0.341592
1144793619.285,0.840118,0.337900,-0.327936
1144793619.295,0.847965,0.330071,-0.351346
1144793619.305,0.844041,0.363343,-0.312329
1144793619.315,0.867582,0.308543,-0.263558
1144793619.325,0.865620,0.333986,-0.257706
1144793619.335,0.879353,0.351600,-0.234296
1144793619.345,0.898970,0.212643,-0.253804
1144793619.355,0.887200,0.200900,-0.325985
1144793619.365,0.849926,0.283100,-0.374756
1144793619.375,0.822462,0.345729,-0.386461
1144793619.385,0.838156,0.341814,-0.355248
1144793619.395,0.846003,0.285057,-0.355248
1144793619.405,0.863659,0.261572,-0.359149
1144793619.415,0.865620,0.257657,-0.324034
1144793619.425,0.875429,0.281143,-0.290870
1144793619.435,0.859735,0.300714,-0.296723
1144793619.445,0.855812,0.345729,-0.288919
1144793619.455,0.859735,0.328114,-0.304526
1144793619.464,0.857773,0.308543,-0.314280
1144793619.474,0.849926,0.320286,-0.302575
1144793619.484,0.869544,0.312457,-0.296723
1144793619.494,0.873467,0.318329,-0.277214
1144793619.505,0.869544,0.324200,-0.246001
1144793619.514,0.867582,0.316371,-0.263558
1144793619.524,0.865620,0.326157,-0.298673
1144793619.534,0.863659,0.279186,-0.343543
1144793619.544,0.855812,0.310500,-0.312329
1144793619.554,0.855812,0.318329,-0.318182
1144793619.564,0.869544,0.283100,-0.286968
1144793619.574,0.869544,0.267443,-0.312329
1144793619.584,0.853850,0.300714,-0.294772
1144793619.594,0.853850,0.304629,-0.345494
1144793619.604,0.838156,0.330071,-0.343543
1144793619.614,0.838156,0.310500,-0.376707
1144793619.624,0.873467,0.271357,-0.316231
1144793619.634,0.883276,0.271357,-0.279165
1144793619.644,0.881314,0.294843,-0.290870
1144793619.654,0.849926,0.328114,-0.288919
1144793619.664,0.846003,0.357471,-0.318182
1144793619.674,0.857773,0.326157,-0.275263
1144793619.683,0.875429,0.341814,-0.222591
1144793619.693,0.881314,0.277229,-0.290870
1144793619.703,0.889161,0.298757,-0.249902
1144793619.713,0.875429,0.357471,-0.238197
1144793619.723,0.869544,0.294843,-0.302575
1144793619.734,0.863659,0.308543,-0.300624
1144793619.743,0.871506,0.261572,-0.314280
1144793619.753,0.849926,0.257657,-0.372805
1144793619.763,0.847965,0.292886,-0.357199
1144793619.773,0.851888,0.275272,-0.374756
1144793619.783,0.842079,0.288972,-0.390363
1144793619.793,0.836194,0.296800,-0.353297
1144793619.803,0.838156,0.343771,-0.359149
1144793619.813,0.830309,0.332029,-0.333789
1144793619.823,0.853850,0.312457,-0.325985
1144793619.833,0.842079,0.324200,-0.357199
1144793619.843,0.855812,0.257657,-0.357199
1144793619.853,0.838156,0.290929,-0.372805
1144793619.863,0.834232,0.328114,-0.366953
1144793619.873,0.832271,0.294843,-0.376707
1144793619.883,0.832271,0.330071,-0.339641
1144793619.893,0.820500,0.326157,-0.413773
1144793619.902,0.830309,0.304629,-0.384510
1144793619.912,0.847965,0.273314,-0.382560
1144793619.922,0.853850,0.267443,-0.325985
1144793619.932,0.861697,0.318329,-0.322084
1144793619.942,0.861697,0.330071,-0.279165
1144793619.952,0.865620,0.377043,-0.259657
1144793619.962,0.846003,0.371171,-0.286968
1144793619.972,0.863659,0.285057,-0.304526
1144793619.982,0.869544,0.296800,-0.288919
1144793619.992,0.857773,0.283100,-0.327936
1144793620.002,0.840118,0.300714,-0.388412
1144793620.012,0.853850,0.271357,-0.320133
1144793620.022,0.877391,0.212643,-0.372805
1144793620.032,0.865620,0.243957,-0.322084
1144793620.042,0.867582,0.234172,-0.314280
1144793620.052,0.875429,0.232215,-0.306477
1144793620.062,0.879353,0.236129,-0.316231
1144793620.072,0.834232,0.310500,-0.359149
1144793620.081,0.867582,0.220472,-0.308428
1144793620.092,0.859735,0.200900,-0.359149
1144793620.102,0.857773,0.187200,-0.345494
1144793620.111,0.855812,0.200900,-0.402068
1144793620.121,0.836194,0.310500,-0.376707
1144793620.131,0.883276,0.150015,-0.372805
1144793620.141,0.906817,0.134358,-0.337690
1144793620.151,0.946052,-0.041785,-0.206984
1144793620.161,0.949975,-0.069185,-0.302575
1144793620.171,0.889161,0.232215,-0.351346
1144793620.181,0.898970,0.165672,-0.296723
1144793620.191,0.930358,0.073686,-0.267460
1144793620.202,0.949975,-0.088756,-0.175771
1144793620.211,0.922511,-0.129856,-0.322084
1144793620.221,0.895047,0.155886,-0.349395
1144793620.231,0.918588,0.026715,-0.343543
1144793620.241,0.957823,-0.026128,-0.275263
1144793620.251,0.963708,-0.004599,-0.206984
1144793620.261,0.951937,-0.069185,-0.167967
1144793620.271,0.944090,-0.051571,-0.242099
1144793620.281,0.932320,-0.022214,-0.246001
1144793620.291,0.930358,-0.086799,-0.290870
1144793620.301,0.926435,-0.055485,-0.277214
1144793620.311,0.914664,-0.006556,-0.288919
1144793620.320,0.910741,0.105000,-0.288919
1144793620.330,0.942129,0.063901,-0.277214
1144793620.340,0.918588,0.026715,-0.322084
1144793620.350,0.900932,0.087386,-0.327936
1144793620.360,0.887200,0.157843,-0.368904
1144793620.370,0.902894,0.132400,-0.349395
1144793620.380,0.916626,0.059986,-0.288919
1144793620.391,0.942129,0.044329,-0.261607
1144793620.400,0.934282,0.007144,-0.273313
1144793620.410,0.942129,0.032586,-0.253804
1144793620.420,0.926435,0.001272,-0.253804
1144793620.430,0.881314,0.085429,-0.390363
1144793620.440,0.881314,0.095215,-0.359149
1144793620.450,0.914664,0.036501,-0.296723
1144793620.460,0.928396,0.056072,-0.246001
1144793620.470,0.934282,0.063901,-0.228443
1144793620.479,0.930358,0.065858,-0.267460
1144793620.490,0.918588,0.073686,-0.290870
1144793620.500,0.920549,0.056072,-0.294772
1144793620.510,0.920549,0.032586,-0.300624
1144793620.520,0.922511,0.024758,-0.290870
1144793620.529,0.926435,0.030629,-0.269411
1144793620.539,0.928396,0.067815,-0.263558
1144793620.549,0.926435,0.105000,-0.277214
1144793620.559,0.918588,0.075643,-0.285018
1144793620.569,0.922511,0.063901,-0.296723
1144793620.579,0.924473,0.034544,-0.290870
1144793620.589,0.920549,0.016929,-0.275263
1144793620.599,0.928396,0.048243,-0.296723
1144793620.609,0.926435,0.028672,-0.279165
1144793620.619,0.914664,0.063901,-0.285018
1144793620.629,0.918588,0.079558,-0.308428
1144793620.639,0.916626,0.079558,-0.310378
1144793620.649,0.916626,0.048243,-0.310378
1144793620.659,0.920549,0.038458,-0.281116
1144793620.669,0.934282,0.044329,-0.242099
1144793620.679,0.932320,0.054115,-0.261607
1144793620.689,0.924473,0.048243,-0.281116
1144793620.699,0.910741,0.093258,-0.316231
1144793620.708,0.908779,0.081515,-0.316231
1144793620.719,0.920549,0.046286,-0.290870
1144793620.729,0.930358,0.040415,-0.285018
1144793620.739,0.934282,0.013015,-0.259657
1144793620.748,0.930358,0.016929,-0.259657
1144793620.758,0.940167,-0.000685,-0.253804
1144793620.768,0.922511,0.028672,-0.279165
1144793620.778,0.926435,0.036501,-0.286968
1144793620.788,0.914664,0.052158,-0.294772
1144793620.798,0.922511,0.079558,-0.288919
1144793620.808,0.918588,0.077601,-0.296723
1144793620.818,0.924473,0.058029,-0.283067
1144793620.828,0.930358,0.063901,-0.286968
1144793620.838,0.932320,0.028672,-0.300624
1144793620.848,0.949975,0.048243,-0.288919
1144793620.860,0.946052,0.054115,-0.240148
1144793620.868,0.959784,0.059986,-0.181623
1144793620.878,0.938205,-0.153342,-0.166016
1144793620.888,0.898970,0.136315,-0.368904
1144793620.898,0.853850,0.200900,-0.378658
1144793620.908,0.889161,0.042372,-0.390363
1144793620.918,0.918588,0.128486,-0.349395
1144793620.928,0.920549,0.132400,-0.316231
1144793620.938,0.926435,0.140229,-0.279165
1144793620.947,0.918588,0.169586,-0.249902
1144793620.958,0.916626,0.146100,-0.240148
1144793620.968,0.916626,-0.122028,-0.138705
1144793620.977,0.873467,-0.035913,-0.515217
1144793620.987,0.812653,0.337900,-0.404019
1144793620.997,0.863659,0.136315,-0.427429
1144793621.007,0.875429,0.116743,-0.433281
1144793621.017,0.859735,0.230257,-0.415724
1144793621.027,0.855812,0.312457,-0.347444
1144793621.037,0.891123,0.249829,-0.290870
1144793621.047,0.889161,0.013015,-0.292821
1144793621.057,0.869544,0.167629,-0.314280
1144793621.068,0.857773,0.126529,-0.404019
1144793621.077,0.842079,0.085429,-0.585447
1144793621.087,0.834232,0.183286,-0.450839
1144793621.097,0.842079,0.333986,-0.396215
1144793621.107,0.859735,0.281143,-0.343543
1144793621.117,0.853850,0.296800,-0.347444
1144793621.127,0.844041,0.388786,-0.265509
1144793621.137,0.877391,0.255700,-0.228443
1144793621.147,0.879353,0.218515,-0.324034
1144793621.157,0.851888,0.232215,-0.343543
1144793621.167,0.875429,0.191115,-0.398166
1144793621.177,0.867582,0.245914,-0.384510
1144793621.186,0.842079,0.365300,-0.324034
1144793621.196,0.830309,0.292886,-0.404019
1144793621.206,0.826385,0.308543,-0.380609
1144793621.216,0.812653,0.326157,-0.444986
1144793621.226,0.834232,0.198943,-0.429380
1144793621.236,0.875429,0.202857,-0.271362
1144793621.246,0.859735,0.306586,-0.407920
1144793621.256,0.816577,0.365300,-0.351346
1144793621.266,0.849926,0.347686,-0.324034
1144793621.276,0.812653,0.388786,-0.349395
1144793621.286,0.804806,0.488600,-0.283067
1144793621.296,0.810692,0.443585,-0.333789
1144793621.306,0.871506,0.240043,-0.294772
1144793621.316,0.897008,0.242000,-0.298673
1144793621.328,0.863659,0.320286,-0.296723
1144793621.336,0.914664,0.151972,-0.210886
1144793621.346,0.861697,0.380957,-0.302575
1144793621.356,0.812653,0.429885,-0.337690
1144793621.366,0.808730,0.345729,-0.396215
1144793621.376,0.844041,0.242000,-0.392314
1144793621.386,0.877391,0.212643,-0.339641
1144793621.396,0.875429,0.271357,-0.310378
1144793621.406,0.863659,0.300714,-0.300624
1144793621.416,0.861697,0.298757,-0.312329
1144793621.425,0.867582,0.287014,-0.314280
1144793621.435,0.885238,0.226343,-0.333789
1144793621.445,0.867582,0.277229,-0.296723
1144793621.455,0.883276,0.330071,-0.220640
1144793621.465,0.877391,0.367257,-0.158213
1144793621.475,0.877391,0.355514,-0.222591
1144793621.485,0.871506,0.326157,-0.259657
1144793621.495,0.861697,0.347686,-0.302575
1144793621.505,0.863659,0.290929,-0.281116
1144793621.516,0.863659,0.302671,-0.314280
1144793621.525,0.889161,0.253743,-0.267460
1144793621.535,0.887200,0.288972,-0.271362
1144793621.545,0.871506,0.333986,-0.283067
1144793621.555,0.879353,0.320286,-0.267460
1144793621.565,0.873467,0.330071,-0.283067
1144793621.575,0.869544,0.332029,-0.261607
1144793621.585,0.873467,0.273314,-0.294772
1144793621.595,0.879353,0.259614,-0.298673
1144793621.605,0.877391,0.261572,-0.306477
1144793621.615,0.865620,0.292886,-0.286968
1144793621.625,0.873467,0.290929,-0.257706
1144793621.635,0.867582,0.330071,-0.292821
1144793621.644,0.883276,0.251786,-0.267460
1144793621.654,0.871506,0.251786,-0.353297
1144793621.664,0.828347,0.355514,-0.361100
1144793621.674,0.840118,0.367257,-0.322084
1144793621.684,0.849926,0.361386,-0.300624
1144793621.694,0.865620,0.351600,-0.246001
1144793621.704,0.863659,0.320286,-0.283067
1144793621.714,0.853850,0.316371,-0.312329
1144793621.724,0.865620,0.298757,-0.310378
1144793621.734,0.889161,0.257657,-0.271362
1144793621.744,0.877391,0.298757,-0.265509
1144793621.754,0.861697,0.332029,-0.318182
1144793621.764,0.842079,0.341814,-0.325985
1144793621.774,0.847965,0.288972,-0.349395
1144793621.784,0.857773,0.279186,-0.292821
1144793621.794,0.875429,0.292886,-0.275263
1144793621.804,0.869544,0.320286,-0.298673
1144793621.814,0.867582,0.314414,-0.261607
1144793621.824,0.883276,0.273314,-0.318182
1144793621.834,0.869544,0.277229,-0.316231
1144793621.844,0.893085,0.257657,-0.281116
1144793621.853,0.857773,0.347686,-0.308428
1144793621.863,0.865620,0.296800,-0.277214
1144793621.873,0.879353,0.283100,-0.325985
1144793621.883,0.846003,0.343771,-0.331838
1144793621.893,0.842079,0.367257,-0.324034
1144793621.903,0.810692,0.363343,-0.386461
1144793621.913,0.816577,0.380957,-0.341592
1144793621.923,0.844041,0.330071,-0.353297
1144793621.933,0.847965,0.314414,-0.316231
1144793621.943,0.875429,0.273314,-0.312329
1144793621.953,0.834232,0.345729,-0.345494
1144793621.963,0.855812,0.292886,-0.329887
1144793621.973,0.847965,0.304629,-0.337690
1144793621.984,0.851888,0.316371,-0.292821
1144793621.993,0.832271,0.304629,-0.384510
1144793622.002,0.826385,0.328114,-0.351346
1144793622.013,0.855812,0.243957,-0.366953
1144793622.023,0.846003,0.285057,-0.357199
1144793622.033,0.844041,0.365300,-0.331838
1144793622.043,0.849926,0.330071,-0.314280
1144793622.053,0.847965,0.341814,-0.294772
1144793622.062,0.875429,0.304629,-0.277214
1144793622.072,0.838156,0.300714,-0.376707
1144793622.082,0.840118,0.324200,-0.333789
1144793622.092,0.853850,0.265486,-0.351346
1144793622.102,0.840118,0.292886,-0.368904
1144793622.112,0.861697,0.312457,-0.316231
1144793622.122,0.857773,0.298757,-0.329887
1144793622.132,0.867582,0.279186,-0.292821
1144793622.142,0.873467,0.249829,-0.324034
1144793622.152,0.847965,0.339857,-0.320133
1144793622.162,0.863659,0.294843,-0.304526
1144793622.172,0.863659,0.302671,-0.324034
1144793622.182,0.847965,0.353557,-0.329887
1144793622.192,0.877391,0.206772,-0.329887
1144793622.202,0.851888,0.224386,-0.388412
1144793622.212,0.887200,0.163715,-0.310378
1144793622.222,0.898970,0.134358,-0.355248
1144793622.232,0.873467,0.273314,-0.322084
1144793622.241,0.900932,0.185243,-0.265509
1144793622.252,0.887200,0.273314,-0.341592
1144793622.262,0.859735,0.322243,-0.238197
1144793622.271,0.906817,0.193072,-0.277214
1144793622.281,0.879353,0.243957,-0.296723
1144793622.291,0.883276,0.193072,-0.308428
1144793622.301,0.861697,0.202857,-0.390363
1144793622.311,0.877391,0.157843,-0.304526
1144793622.321,0.912702,0.056072,-0.300624
1144793622.331,0.891123,0.220472,-0.279165
1144793622.341,0.875429,0.247872,-0.283067
1144793622.351,0.861697,0.271357,-0.388412
1144793622.361,0.898970,0.206772,-0.306477
1144793622.371,0.940167,0.061943,-0.279165
1144793622.381,0.973516,-0.000685,-0.246001
1144793622.390,0.979402,-0.039828,-0.214787
1144793622.401,0.953899,-0.063313,-0.253804
1144793622.411,0.965669,-0.151385,-0.222591
1144793622.421,0.953899,-0.178785,-0.214787
1144793622.431,0.904855,0.026715,-0.310378
1144793622.441,0.910741,-0.006556,-0.281116
1144793622.452,0.912702,-0.002642,-0.271362
1144793622.461,0.918588,0.085429,-0.283067
1144793622.471,0.910741,0.007144,-0.333789
1144793622.480,0.879353,0.187200,-0.400117
1144793622.490,0.889161,0.124572,-0.363051
1144793622.500,0.906817,0.071729,-0.325985
1144793622.510,0.928396,0.065858,-0.279165
1144793622.520,0.942129,0.038458,-0.236247
1144793622.530,0.936243,0.034544,-0.240148
1144793622.540,0.922511,-0.022214,-0.269411
1144793622.550,0.891123,0.079558,-0.361100
1144793622.560,0.891123,0.108915,-0.351346
1144793622.570,0.908779,0.110872,-0.322084
1144793622.579,0.912702,0.122615,-0.314280
1144793622.590,0.928396,0.075643,-0.296723
1144793622.600,0.924473,0.036501,-0.281116
1144793622.610,0.914664,0.054115,-0.312329
1144793622.620,0.906817,0.040415,-0.310378
1144793622.629,0.898970,0.067815,-0.320133
1144793622.641,0.908779,0.052158,-0.318182
1144793622.650,0.912702,0.073686,-0.329887
1144793622.660,0.916626,0.083472,-0.308428
1144793622.670,0.922511,0.048243,-0.290870
1144793622.679,0.916626,0.091301,-0.292821
1144793622.690,0.916626,0.071729,-0.302575
1144793622.700,0.916626,0.040415,-0.302575
1144793622.709,0.916626,0.059986,-0.296723
1144793622.720,0.908779,0.059986,-0.324034
1144793622.730,0.912702,0.065858,-0.310378
1144793622.739,0.922511,0.024758,-0.300624
1144793622.749,0.930358,0.048243,-0.285018
1144793622.759,0.932320,0.030629,-0.269411
1144793622.769,0.928396,0.042372,-0.267460
1144793622.780,0.916626,0.063901,-0.269411
1144793622.789,0.904855,0.073686,-0.314280
1144793622.799,0.904855,0.069772,-0.310378
1144793622.809,0.912702,0.018886,-0.285018
1144793622.819,0.930358,0.022801,-0.283067
1144793622.829,0.928396,0.038458,-0.269411
1144793622.839,0.930358,0.038458,-0.259657
1144793622.849,0.908779,0.058029,-0.290870
1144793622.859,0.910741,0.083472,-0.329887
1144793622.869,0.906817,0.079558,-0.314280
1144793622.879,0.916626,0.048243,-0.281116
1144793622.889,0.934282,0.038458,-0.269411
1144793622.899,0.936243,0.036501,-0.269411
1144793622.909,0.930358,0.022801,-0.265509
1144793622.919,0.908779,0.069772,-0.314280
1144793622.929,0.906817,0.081515,-0.320133
1144793622.939,0.918588,0.083472,-0.306477
1144793622.949,0.916626,0.052158,-0.292821
1144793622.959,0.916626,0.042372,-0.288919
1144793622.968,0.918588,0.050201,-0.290870
1144793622.978,0.922511,0.059986,-0.285018
1144793622.988,0.916626,0.061943,-0.279165
1144793622.998,0.914664,0.079558,-0.318182
1144793623.008,0.912702,0.081515,-0.294772
1144793623.018,0.922511,0.077601,-0.310378
1144793623.028,0.920549,0.059986,-0.290870
1144793623.038,0.914664,0.063901,-0.288919
1144793623.048,0.916626,0.042372,-0.286968
1144793623.059,0.928396,0.022801,-0.283067
1144793623.068,0.922511,0.048243,-0.275263
1144793623.078,0.918588,0.069772,-0.304526
1144793623.088,0.918588,0.081515,-0.314280
1144793623.098,0.918588,0.050201,-0.312329
1144793623.109,0.942129,0.018886,-0.230394
1144793623.118,0.932320,-0.018299,-0.224542
1144793623.128,0.889161,0.142186,-0.337690
1144793623.138,0.887200,0.079558,-0.339641
1144793623.148,0.893085,0.118700,-0.366953
1144793623.158,0.889161,0.108915,-0.404019
1144793623.168,0.897008,0.128486,-0.351346
1144793623.178,0.908779,0.118700,-0.294772
1144793623.187,0.916626,0.106958,-0.302575
1144793623.197,0.897008,0.138272,-0.306477
1144793623.207,0.898970,0.106958,-0.312329
1144793623.217,0.893085,0.130443,-0.322084
1144793623.227,0.904855,0.106958,-0.314280
1144793623.237,0.910741,0.106958,-0.304526
1144793623.247,0.914664,0.101086,-0.320133
1144793623.257,0.916626,0.101086,-0.294772
1144793623.267,0.916626,0.085429,-0.285018
1144793623.277,0.924473,0.079558,-0.285018
1144793623.287,0.918588,0.073686,-0.269411
1144793623.297,0.918588,0.050201,-0.316231
1144793623.307,0.898970,0.087386,-0.325985
1144793623.317,0.902894,0.097172,-0.327936
1144793623.327,0.914664,0.108915,-0.320133
1144793623.337,0.930358,0.093258,-0.246001
1144793623.347,0.928396,0.052158,-0.263558
1144793623.357,0.893085,0.157843,-0.327936
1144793623.367,0.875429,0.142186,-0.357199
1144793623.377,0.887200,0.103043,-0.363051
1144793623.387,0.906817,0.110872,-0.339641
1144793623.397,0.908779,0.126529,-0.331838
1144793623.406,0.914664,0.126529,-0.302575
1144793623.416,0.908779,0.165672,-0.275263
1144793623.426,0.924473,0.079558,-0.232345
1144793623.436,0.871506,0.202857,-0.361100
1144793623.446,0.877391,0.144143,-0.294772
1144793623.456,0.879353,0.118700,-0.386461
1144793623.466,0.851888,0.183286,-0.439134
1144793623.476,0.847965,0.198943,-0.435232
1144793623.486,0.877391,0.185243,-0.345494
1144793623.496,0.900932,0.169586,-0.320133
1144793623.506,0.908779,0.185243,-0.292821
1144793623.516,0.906817,0.179372,-0.292821
1144793623.526,0.920549,0.148058,-0.247952
1144793623.536,0.897008,0.165672,-0.333789
1144793623.546,0.906817,0.126529,-0.238197
1144793623.556,0.914664,0.077601,-0.337690
1144793623.566,0.869544,0.224386,-0.366953
1144793623.577,0.885238,0.177415,-0.329887
1144793623.586,0.895047,0.144143,-0.327936
1144793623.596,0.897008,0.140229,-0.302575
1144793623.606,0.906817,0.091301,-0.322084
1144793623.615,0.879353,0.187200,-0.359149
1144793623.626,0.887200,0.196986,-0.327936
1144793623.635,0.887200,0.200900,-0.324034
1144793623.645,0.883276,0.181329,-0.322084
1144793623.655,0.893085,0.142186,-0.304526
1144793623.665,0.879353,0.189157,-0.355248
1144793623.675,0.871506,0.198943,-0.343543
1144793623.685,0.873467,0.175457,-0.363051
1144793623.695,0.887200,0.165672,-0.339641
1144793623.705,0.893085,0.163715,-0.325985
1144793623.715,0.891123,0.173500,-0.329887
1144793623.725,0.877391,0.218515,-0.302575
1144793623.735,0.900932,0.185243,-0.283067
1144793623.745,0.904855,0.146100,-0.300624
1144793623.755,0.895047,0.136315,-0.310378
1144793623.766,0.895047,0.157843,-0.357199
1144793623.775,0.877391,0.226343,-0.325985
1144793623.785,0.863659,0.242000,-0.357199
1144793623.795,0.879353,0.195029,-0.329887
1144793623.804,0.902894,0.063901,-0.320133
1144793623.815,0.879353,0.157843,-0.372805
1144793623.825,0.836194,0.308543,-0.242099
1144793623.834,0.889161,0.071729,-0.462544
1144793623.844,0.828347,0.128486,-0.517167
1144793623.854,0.810692,0.316371,-0.454741
1144793623.864,0.846003,0.263529,-0.372805
1144793623.874,0.875429,0.253743,-0.316231
1144793623.884,0.873467,0.343771,-0.279165
1144793623.894,0.867582,0.347686,-0.298673
1144793623.904,0.889161,0.267443,-0.259657
1144793623.914,0.885238,0.218515,-0.341592
1144793623.924,0.847965,0.320286,-0.325985
1144793623.934,0.898970,0.212643,-0.162115
1144793623.944,0.910741,0.079558,-0.404019
1144793623.953,0.816577,0.267443,-0.431330
1144793623.964,0.838156,0.269400,-0.411822
1144793623.974,0.855812,0.193072,-0.398166
1144793623.984,0.877391,0.208729,-0.349395
1144793623.994,0.857773,0.287014,-0.304526
1144793624.003,0.853850,0.294843,-0.343543
1144793624.014,0.861697,0.267443,-0.366953
1144793624.024,0.851888,0.285057,-0.359149
1144793624.033,0.844041,0.285057,-0.372805
1144793624.043,0.865620,0.294843,-0.302575
1144793624.053,0.871506,0.302671,-0.275263
1144793624.063,0.879353,0.224386,-0.318182
1144793624.073,0.871506,0.247872,-0.314280
1144793624.083,0.861697,0.271357,-0.357199
1144793624.093,0.840118,0.265486,-0.370854
1144793624.103,0.849926,0.263529,-0.372805
1144793624.113,0.861697,0.249829,-0.331838
1144793624.123,0.877391,0.220472,-0.341592
1144793624.133,0.877391,0.200900,-0.374756
1144793624.143,0.859735,0.249829,-0.351346
1144793624.153,0.865620,0.249829,-0.355248
1144793624.163,0.865620,0.245914,-0.288919
1144793624.173,0.871506,0.198943,-0.349395
1144793624.183,0.832271,0.275272,-0.394265
1144793624.193,0.810692,0.298757,-0.437183
1144793624.203,0.822462,0.249829,-0.402068
1144793624.213,0.842079,0.236129,-0.365002
1144793624.223,0.859735,0.261572,-0.365002
1144793624.234,0.881314,0.214600,-0.275263
1144793624.243,0.879353,0.261572,-0.368904
1144793624.253,0.840118,0.300714,-0.384510
1144793624.263,0.828347,0.281143,-0.419625
1144793624.273,0.820500,0.330071,-0.382560
1144793624.282,0.822462,0.357471,-0.378658
1144793624.292,0.840118,0.271357,-0.400117
1144793624.302,0.851888,0.288972,-0.349395
1144793624.312,0.863659,0.281143,-0.327936
1144793624.322,0.851888,0.290929,-0.349395
1144793624.332,0.853850,0.298757,-0.327936
1144793624.342,0.853850,0.259614,-0.366953
1144793624.352,0.859735,0.243957,-0.333789
1144793624.362,0.897008,0.195029,-0.263558
1144793624.372,0.883276,0.251786,-0.302575
1144793624.382,0.836194,0.355514,-0.357199
1144793624.392,0.847965,0.312457,-0.374756
1144793624.402,0.838156,0.267443,-0.402068
1144793624.412,0.834232,0.263529,-0.421576
1144793624.422,0.846003,0.234172,-0.398166
1144793624.432,0.846003,0.288972,-0.366953
1144793624.442,0.840118,0.333986,-0.339641
1144793624.452,0.846003,0.353557,-0.310378
1144793624.462,0.855812,0.326157,-0.296723
1144793624.472,0.885238,0.243957,-0.275263
1144793624.482,0.867582,0.263529,-0.325985
1144793624.492,0.857773,0.308543,-0.329887
1144793624.502,0.853850,0.300714,-0.339641
1144793624.511,0.861697,0.302671,-0.304526
1144793624.521,0.859735,0.314414,-0.318182
1144793624.532,0.897008,0.191115,-0.257706
1144793624.541,0.887200,0.222429,-0.339641
1144793624.551,0.846003,0.326157,-0.372805
1144793624.561,0.834232,0.314414,-0.376707
1144793624.571,0.838156,0.322243,-0.359149
1144793624.581,0.834232,0.302671,-0.394265
1144793624.591,0.847965,0.259614,-0.361100
1144793624.601,0.885238,0.204815,-0.322084
1144793624.611,0.867582,0.247872,-0.368904
1144793624.621,0.838156,0.314414,-0.374756
1144793624.631,0.832271,0.306586,-0.386461
1144793624.641,0.834232,0.310500,-0.363051
1144793624.651,0.840118,0.318329,-0.335739
1144793624.661,0.844041,0.304629,-0.349395
1144793624.671,0.849926,0.283100,-0.333789
1144793624.681,0.849926,0.279186,-0.365002
1144793624.691,0.844041,0.302671,-0.376707
1144793624.701,0.840118,0.310500,-0.347444
1144793624.711,0.828347,0.345729,-0.347444
1144793624.721,0.846003,0.322243,-0.337690
1144793624.731,0.842079,0.318329,-0.331838
1144793624.740,0.846003,0.310500,-0.304526
1144793624.751,0.895047,0.185243,-0.277214
1144793624.760,0.867582,0.196986,-0.353297
1144793624.770,0.822462,0.349643,-0.407920
1144793624.780,0.828347,0.320286,-0.372805
1144793624.790,0.836194,0.302671,-0.376707
1144793624.800,0.830309,0.314414,-0.378658
1144793624.810,0.836194,0.290929,-0.355248
1144793624.820,0.865620,0.251786,-0.322084
1144793624.830,0.887200,0.234172,-0.275263
1144793624.840,0.871506,0.242000,-0.331838
1144793624.850,0.822462,0.330071,-0.386461
1144793624.860,0.800883,0.371171,-0.400117
1144793624.870,0.820500,0.324200,-0.388412
1144793624.879,0.836194,0.316371,-0.372805
1144793624.891,0.826385,0.324200,-0.396215
1144793624.900,0.818539,0.330071,-0.372805
1144793624.910,0.832271,0.347686,-0.345494
1144793624.920,0.844041,0.320286,-0.329887
1144793624.930,0.844041,0.316371,-0.320133
1144793624.940,0.847965,0.337900,-0.339641
1144793624.950,0.853850,0.298757,-0.322084
1144793624.959,0.857773,0.283100,-0.343543
1144793624.969,0.875429,0.259614,-0.285018
1144793624.979,0.889161,0.234172,-0.259657
1144793624.989,0.900932,0.210686,-0.267460
1144793625.006,0.891123,0.222429,-0.267460
1144793625.016,0.885238,0.206772,-0.349395
1144793625.026,0.791074,0.420100,-0.437183
1144793625.036,0.824424,0.379000,-0.343543
1144793625.046,0.832271,0.290929,-0.404019
1144793625.057,0.840118,0.279186,-0.355248
1144793625.066,0.844041,0.249829,-0.421576
1144793625.076,0.822462,0.332029,-0.382560
1144793625.086,0.832271,0.375086,-0.322084
1144793625.096,0.842079,0.324200,-0.329887
1144793625.106,0.867582,0.279186,-0.275263
1144793625.116,0.859735,0.255700,-0.372805
1144793625.126,0.824424,0.314414,-0.396215
1144793625.136,0.855812,0.263529,-0.370854
1144793625.146,0.855812,0.294843,-0.359149
1144793625.156,0.842079,0.355514,-0.300624
1144793625.166,0.853850,0.314414,-0.304526
1144793625.175,0.834232,0.357471,-0.347444
1144793625.186,0.814615,0.379000,-0.361100
1144793625.195,0.828347,0.281143,-0.384510
1144793625.205,0.847965,0.261572,-0.376707
1144793625.215,0.857773,0.283100,-0.312329
1144793625.225,0.853850,0.320286,-0.324034
1144793625.235,0.838156,0.367257,-0.318182
1144793625.245,0.838156,0.330071,-0.331838
1144793625.255,0.847965,0.304629,-0.339641
1144793625.265,0.867582,0.226343,-0.314280
1144793625.275,0.873467,0.196986,-0.359149
1144793625.285,0.851888,0.275272,-0.363051
1144793625.295,0.846003,0.267443,-0.357199
1144793625.305,0.842079,0.259614,-0.380609
1144793625.315,0.842079,0.273314,-0.368904
1144793625.325,0.824424,0.324200,-0.384510
1144793625.335,0.814615,0.349643,-0.365002
1144793625.345,0.826385,0.332029,-0.365002
1144793625.355,0.836194,0.347686,-0.339641
1144793625.366,0.865620,0.259614,-0.304526
1144793625.375,0.849926,0.335943,-0.345494
1144793625.385,0.828347,0.379000,-0.333789
1144793625.394,0.849926,0.296800,-0.349395
1144793625.404,0.849926,0.302671,-0.337690
1144793625.414,0.851888,0.306586,-0.320133
1144793625.424,0.869544,0.204815,-0.368904
1144793625.434,0.836194,0.285057,-0.380609
1144793625.444,0.853850,0.304629,-0.325985
1144793625.454,0.830309,0.326157,-0.372805
1144793625.464,0.861697,0.253743,-0.322084
1144793625.474,0.857773,0.265486,-0.366953
1144793625.484,0.810692,0.363343,-0.384510
1144793625.494,0.820500,0.310500,-0.407920
1144793625.503,0.822462,0.308543,-0.384510
1144793625.514,0.853850,0.300714,-0.318182
1144793625.524,0.865620,0.255700,-0.343543
1144793625.534,0.847965,0.318329,-0.314280
1144793625.544,0.857773,0.287014,-0.310378
1144793625.554,0.836194,0.292886,-0.355248
1144793625.564,0.838156,0.267443,-0.409871
1144793625.574,0.846003,0.242000,-0.382560
1144793625.584,0.846003,0.298757,-0.380609
1144793625.594,0.846003,0.296800,-0.343543
1144793625.603,0.865620,0.271357,-0.339641
1144793625.613,0.847965,0.310500,-0.345494
1144793625.623,0.875429,0.287014,-0.300624
1144793625.634,0.885238,0.228300,-0.316231
1144793625.643,0.838156,0.332029,-0.343543
1144793625.653,0.844041,0.320286,-0.327936
1144793625.663,0.869544,0.230257,-0.351346
1144793625.673,0.857773,0.265486,-0.322084
1144793625.683,0.873467,0.236129,-0.337690
1144793625.693,0.842079,0.285057,-0.363051
1144793625.703,0.844041,0.283100,-0.361100
1144793625.713,0.867582,0.236129,-0.380609
1144793625.723,0.861697,0.287014,-0.339641
1144793625.733,0.867582,0.263529,-0.312329
1144793625.743,0.851888,0.318329,-0.325985
1144793625.753,0.863659,0.288972,-0.273313
1144793625.763,0.891123,0.210686,-0.325985
1144793625.773,0.863659,0.263529,-0.357199
1144793625.783,0.869544,0.220472,-0.292821
1144793625.793,0.869544,0.238086,-0.339641
1144793625.803,0.847965,0.296800,-0.353297
1144793625.812,0.889161,0.153929,-0.339641
1144793625.822,0.861697,0.259614,-0.374756
1144793625.832,0.849926,0.337900,-0.337690
1144793625.842,0.861697,0.267443,-0.345494
1144793625.852,0.875429,0.259614,-0.316231
1144793625.862,0.887200,0.245914,-0.294772
1144793625.872,0.875429,0.230257,-0.329887
1144793625.882,0.847965,0.318329,-0.335739
1144793625.892,0.828347,0.283100,-0.404019
1144793625.902,0.857773,0.240043,-0.355248
1144793625.912,0.898970,0.210686,-0.263558
1144793625.922,0.885238,0.226343,-0.302575
1144793625.932,0.863659,0.296800,-0.308428
1144793625.942,0.859735,0.263529,-0.380609
1144793625.952,0.849926,0.243957,-0.384510
1144793625.962,0.865620,0.214600,-0.353297
1144793625.972,0.883276,0.216557,-0.324034
1144793625.982,0.908779,0.173500,-0.226492
1144793625.992,0.900932,0.175457,-0.335739
1144793626.002,0.846003,0.292886,-0.345494
1144793626.012,0.840118,0.249829,-0.419625
1144793626.023,0.840118,0.234172,-0.409871
1144793626.032,0.881314,0.193072,-0.314280
1144793626.041,0.902894,0.163715,-0.316231
1144793626.051,0.887200,0.208729,-0.286968
1144793626.061,0.875429,0.195029,-0.345494
1144793626.071,0.865620,0.243957,-0.355248
1144793626.081,0.877391,0.214600,-0.335739
1144793626.091,0.875429,0.167629,-0.366953
1144793626.101,0.881314,0.216557,-0.325985
1144793626.111,0.895047,0.175457,-0.310378
1144793626.121,0.889161,0.214600,-0.329887
1144793626.131,0.904855,0.208729,-0.285018
1144793626.141,0.922511,0.132400,-0.292821
1144793626.151,0.897008,0.185243,-0.310378
1144793626.161,0.912702,0.095215,-0.300624
1144793626.171,0.887200,0.171543,-0.372805
1144793626.181,0.891123,0.130443,-0.329887
1144793626.191,0.916626,0.140229,-0.308428
1144793626.201,0.920549,0.138272,-0.234296
1144793626.211,0.928396,0.059986,-0.255755
1144793626.221,0.863659,0.238086,-0.405970
1144793626.231,0.861697,0.140229,-0.333789
1144793626.241,0.900932,0.126529,-0.339641
1144793626.251,0.906817,0.136315,-0.290870
1144793626.261,0.922511,0.067815,-0.314280
1144793626.271,0.902894,0.167629,-0.333789
1144793626.280,0.906817,0.106958,-0.285018
1144793626.290,0.920549,0.093258,-0.324034
1144793626.300,0.908779,0.161757,-0.298673
1144793626.310,0.938205,0.079558,-0.273313
1144793626.320,0.914664,0.134358,-0.285018
1144793626.330,0.928396,0.069772,-0.261607
1144793626.340,0.893085,0.105000,-0.361100
1144793626.350,0.871506,0.128486,-0.384510
1144793626.360,0.885238,0.118700,-0.378658
1144793626.370,0.895047,0.122615,-0.341592
1144793626.380,0.922511,0.052158,-0.294772
1144793626.390,0.940167,0.079558,-0.265509
1144793626.400,0.949975,0.032586,-0.203082
1144793626.410,0.930358,0.077601,-0.279165
1144793626.420,0.885238,0.159800,-0.339641
1144793626.430,0.887200,0.087386,-0.329887
1144793626.440,0.897008,0.097172,-0.327936
1144793626.450,0.908779,0.093258,-0.294772
1144793626.460,0.918588,0.101086,-0.285018
1144793626.470,0.912702,0.112829,-0.294772
1144793626.479,0.906817,0.126529,-0.306477
1144793626.491,0.910741,0.101086,-0.304526
1144793626.500,0.918588,0.069772,-0.325985
1144793626.510,0.914664,0.079558,-0.302575
1144793626.520,0.926435,0.063901,-0.275263
1144793626.529,0.918588,0.085429,-0.279165
1144793626.539,0.926435,0.063901,-0.294772
1144793626.549,0.910741,0.095215,-0.283067
1144793626.559,0.898970,0.116743,-0.306477
1144793626.569,0.902894,0.112829,-0.333789
1144793626.579,0.897008,0.114786,-0.302575
1144793626.589,0.902894,0.103043,-0.339641
1144793626.599,0.902894,0.146100,-0.308428
1144793626.609,0.916626,0.120658,-0.294772
1144793626.619,0.910741,0.110872,-0.288919
1144793626.629,0.922511,0.089343,-0.298673
1144793626.639,0.916626,0.087386,-0.290870
1144793626.649,0.906817,0.097172,-0.281116
1144793626.659,0.920549,0.087386,-0.285018
1144793626.669,0.897008,0.114786,-0.320133
1144793626.679,0.889161,0.128486,-0.325985
1144793626.689,0.902894,0.116743,-0.320133
1144793626.699,0.906817,0.105000,-0.312329
1144793626.709,0.910741,0.106958,-0.298673
1144793626.718,0.912702,0.106958,-0.306477
1144793626.729,0.922511,0.093258,-0.273313
1144793626.739,0.920549,0.101086,-0.277214
1144793626.748,0.912702,0.089343,-0.288919
1144793626.758,0.912702,0.093258,-0.281116
1144793626.768,0.918588,0.044329,-0.279165
1144793626.778,0.898970,0.126529,-0.325985
1144793626.788,0.904855,0.116743,-0.316231
1144793626.798,0.914664,0.118700,-0.302575
1144793626.807,0.920549,0.110872,-0.288919
1144793626.818,0.922511,0.128486,-0.273313
1144793626.828,0.920549,0.093258,-0.271362
1144793626.838,0.926435,0.103043,-0.247952
1144793626.848,0.936243,-0.000685,-0.244050
1144793626.858,0.873467,0.181329,-0.365002
1144793626.868,0.869544,0.148058,-0.394265
1144793626.878,0.885238,0.142186,-0.349395
1144793626.888,0.898970,0.142186,-0.347444
1144793626.898,0.904855,0.155886,-0.298673
1144793626.908,0.910741,0.150015,-0.296723
1144793626.918,0.920549,0.146100,-0.246001
1144793626.928,0.924473,0.110872,-0.273313
1144793626.938,0.900932,0.163715,-0.253804
1144793626.948,0.904855,0.095215,-0.327936
1144793626.957,0.881314,0.183286,-0.351346
1144793626.967,0.881314,0.165672,-0.349395
1144793626.977,0.891123,0.163715,-0.349395
1144793626.987,0.902894,0.159800,-0.335739
1144793626.997,0.902894,0.175457,-0.294772
1144793627.007,0.932320,0.095215,-0.197230
1144793627.017,0.918588,0.122615,-0.331838
1144793627.027,0.879353,0.204815,-0.285018
1144793627.037,0.881314,0.114786,-0.380609
1144793627.048,0.879353,0.151972,-0.351346
1144793627.057,0.895047,0.185243,-0.337690
1144793627.067,0.879353,0.200900,-0.343543
1144793627.077,0.897008,0.177415,-0.242099
1144793627.087,0.924473,0.061943,-0.286968
1144793627.097,0.857773,0.249829,-0.376707
1144793627.107,0.830309,0.267443,-0.423527
1144793627.117,0.867582,0.140229,-0.384510
1144793627.127,0.873467,0.163715,-0.402068
1144793627.137,0.883276,0.232215,-0.314280
1144793627.148,0.898970,0.153929,-0.261607
1144793627.157,0.885238,0.253743,-0.337690
1144793627.167,0.853850,0.292886,-0.347444
1144793627.177,0.873467,0.243957,-0.351346
1144793627.187,0.887200,0.230257,-0.337690
1144793627.196,0.855812,0.249829,-0.361100
1144793627.206,0.861697,0.259614,-0.333789
1144793627.216,0.881314,0.206772,-0.320133
1144793627.226,0.897008,0.196986,-0.314280
1144793627.236,0.883276,0.232215,-0.327936
1144793627.246,0.867582,0.242000,-0.363051
1144793627.256,0.885238,0.224386,-0.316231
1144793627.266,0.938205,0.073686,-0.173820
1144793627.276,0.936243,0.042372,-0.318182
1144793627.286,0.855812,0.294843,-0.324034
1144793627.296,0.873467,0.240043,-0.329887
1144793627.306,0.875429,0.191115,-0.359149
1144793627.316,0.885238,0.255700,-0.322084
1144793627.326,0.908779,0.206772,-0.156262
1144793627.336,0.946052,0.073686,-0.265509
1144793627.346,0.840118,0.310500,-0.425478
1144793627.356,0.806768,0.369214,-0.433281
1144793627.366,0.859735,0.212643,-0.415724
1144793627.376,0.871506,0.185243,-0.386461
1144793627.386,0.863659,0.249829,-0.351346
1144793627.396,0.889161,0.251786,-0.298673
1144793627.406,0.879353,0.269400,-0.329887
1144793627.416,0.871506,0.279186,-0.308428
1144793627.425,0.879353,0.263529,-0.320133
1144793627.435,0.869544,0.265486,-0.339641
1144793627.445,0.881314,0.296800,-0.208935
1144793627.455,0.912702,0.198943,-0.167967
1144793627.465,0.918588,0.095215,-0.290870
1144793627.475,0.826385,0.306586,-0.439134
1144793627.485,0.824424,0.312457,-0.452790
1144793627.495,0.861697,0.161757,-0.425478
1144793627.505,0.859735,0.243957,-0.357199
1144793627.515,0.822462,0.343771,-0.335739
1144793627.525,0.902894,0.228300,-0.158213
1144793627.535,0.924473,0.087386,-0.425478
1144793627.545,0.789112,0.283100,-0.491807
1144793627.555,0.800883,0.335943,-0.446937
1144793627.565,0.838156,0.242000,-0.435232
1144793627.575,0.836194,0.247872,-0.407920
1144793627.585,0.849926,0.281143,-0.365002
1144793627.595,0.861697,0.245914,-0.365002
1144793627.605,0.861697,0.255700,-0.382560
1144793627.616,0.857773,0.261572,-0.353297
1144793627.625,0.861697,0.275272,-0.345494
1144793627.635,0.853850,0.294843,-0.351346
1144793627.644,0.853850,0.332029,-0.279165
1144793627.654,0.883276,0.265486,-0.246001
1144793627.664,0.930358,0.103043,-0.185525
1144793627.674,0.906817,0.187200,-0.337690
1144793627.684,0.842079,0.355514,-0.331838
1144793627.694,0.832271,0.296800,-0.384510
1144793627.704,0.826385,0.287014,-0.423527
1144793627.714,0.861697,0.242000,-0.341592
1144793627.724,0.863659,0.285057,-0.327936
1144793627.734,0.863659,0.343771,-0.335739
1144793627.744,0.889161,0.230257,-0.226492
1144793627.754,0.928396,0.122615,-0.357199
1144793627.764,0.846003,0.302671,-0.365002
1144793627.774,0.822462,0.361386,-0.376707
1144793627.784,0.857773,0.230257,-0.378658
1144793627.794,0.859735,0.243957,-0.366953
1144793627.804,0.849926,0.277229,-0.368904
1144793627.824,0.836194,0.322243,-0.366953
1144793627.834,0.816577,0.380957,-0.312329
1144793627.844,0.867582,0.300714,-0.226492
1144793627.854,0.910741,0.132400,-0.327936
1144793627.864,0.834232,0.298757,-0.409871
1144793627.873,0.828347,0.257657,-0.460593
1144793627.883,0.820500,0.292886,-0.446937
1144793627.893,0.812653,0.386828,-0.398166
1144793627.903,0.832271,0.375086,-0.331838
1144793627.913,0.846003,0.355514,-0.351346
1144793627.923,0.820500,0.328114,-0.382560
1144793627.933,0.820500,0.320286,-0.365002
1144793627.943,0.830309,0.312457,-0.351346
1144793627.953,0.859735,0.245914,-0.392314
1144793627.963,0.853850,0.255700,-0.351346
1144793627.973,0.885238,0.240043,-0.316231
1144793627.983,0.869544,0.273314,-0.324034
1144793627.993,0.849926,0.369214,-0.267460
1144793628.002,0.859735,0.328114,-0.259657
1144793628.013,0.897008,0.202857,-0.249902
1144793628.023,0.869544,0.257657,-0.306477
1144793628.033,0.834232,0.377043,-0.419625
1144793628.043,0.800883,0.361386,-0.404019
1144793628.053,0.826385,0.312457,-0.404019
1144793628.062,0.838156,0.302671,-0.359149
1144793628.073,0.824424,0.335943,-0.355248
1144793628.083,0.832271,0.365300,-0.337690
1144793628.093,0.859735,0.302671,-0.283067
1144793628.103,0.871506,0.220472,-0.386461
1144793628.112,0.828347,0.306586,-0.390363
1144793628.122,0.830309,0.316371,-0.396215
1144793628.132,0.853850,0.287014,-0.325985
1144793628.142,0.861697,0.363343,-0.290870
1144793628.152,0.883276,0.328114,-0.191377
1144793628.162,0.871506,0.320286,-0.290870
1144793628.172,0.838156,0.373128,-0.339641
1144793628.182,0.836194,0.259614,-0.407920
1144793628.192,0.844041,0.265486,-0.384510
1144793628.202,0.853850,0.302671,-0.355248
1144793628.212,0.846003,0.320286,-0.357199
1144793628.222,0.846003,0.349643,-0.318182
1144793628.232,0.851888,0.343771,-0.308428
1144793628.241,0.840118,0.333986,-0.310378
1144793628.252,0.844041,0.300714,-0.331838
1144793628.262,0.879353,0.177415,-0.363051
1144793628.273,0.842079,0.269400,-0.374756
1144793628.282,0.828347,0.379000,-0.298673
1144793628.292,0.853850,0.308543,-0.327936
1144793628.302,0.859735,0.318329,-0.255755
1144793628.312,0.885238,0.210686,-0.285018
1144793628.322,0.812653,0.312457,-0.450839
1144793628.332,0.814615,0.318329,-0.392314
1144793628.341,0.849926,0.253743,-0.407920
1144793628.351,0.824424,0.337900,-0.396215
1144793628.361,0.828347,0.359428,-0.318182
1144793628.371,0.851888,0.324200,-0.329887
1144793628.381,0.820500,0.400528,-0.359149
