absolute_timestamp,accel_x,accel_y,accel_z
1775859187613213814,-0.794417,6.259624,6.168697
1775859187615371522,-1.043271,6.154340,5.800202
1775859187617532043,-1.124627,5.986842,5.436493
1775859187619692512,-1.057628,5.833702,5.005785
1775859187621853033,-1.043271,5.685347,4.551149
1775859187624013606,-1.048056,5.599205,4.292724
1775859187626174074,-1.081556,5.594419,4.311866
1775859187628334595,-1.067199,5.637490,4.646862
1775859187630495116,-1.009771,5.690132,5.010571
1775859187632655637,-0.904487,5.685347,5.216353
1775859187634816158,-0.765703,5.680561,5.216353
1775859187636976679,-0.583849,5.651847,5.154140
1775859187639137199,-0.354138,5.670990,5.134997
1775859187641297772,-0.047856,5.747560,5.264210
1775859187643458241,0.186640,5.804988,5.599205
1775859187645618762,0.401994,5.828916,6.111269
1775859187647779283,0.641276,5.790631,6.455835
1775859187649939804,0.981057,5.752346,6.628119
1775859187652100324,1.182054,5.737988,7.211967
1775859187654260845,1.296910,5.699704,7.891529
1775859187656421366,1.426122,5.637490,8.456235
1775859187658581887,1.545763,5.570491,8.882157
1775859187660742408,1.665405,5.503492,9.241081
1775859187662902876,1.785046,5.431707,9.556933
1775859187665063449,1.866402,5.350351,9.824930
1775859187667223970,1.885544,5.264210,10.068997
1775859187669384439,1.866402,5.178068,10.289138
1775859187671544960,1.837688,5.082355,10.509277
1775859187673705481,1.813760,4.977071,10.628919
1775859187675866001,1.718047,4.881358,10.762917
1775859187678026522,1.617548,4.771288,10.944771
1775859187680187043,1.545763,4.642076,11.059627
1775859187682347564,1.430908,4.551149,11.246266
1775859187684508085,1.330409,4.417150,11.380264
1775859187686668606,1.191626,4.311866,11.528620
1775859187688829126,1.024128,4.192225,11.657832
1775859187690989647,0.904487,4.063013,11.758330
1775859187693150168,0.760918,3.909872,11.854043
1775859187695310689,0.641276,3.790231,11.940185
1775859187697471210,0.526421,3.641876,11.988042
1775859187699631731,0.435494,3.483950,11.911471
1775859187701792251,0.354138,3.335595,11.815758
1775859187703952772,0.291924,3.206382,11.605190
1775859187706113293,0.181855,3.091527,11.504691
1775859187708273814,0.043071,2.976671,11.499906
1775859187710434335,-0.047856,2.871387,11.380264
1775859187712594804,-0.129212,2.746960,11.169696
1775859187714755376,-0.234497,2.656033,11.006984
1775859187716915845,-0.325424,2.574677,10.892129
1775859187719076366,-0.416351,2.517249,10.748559
1775859187721236887,-0.468993,2.469393,10.628919
1775859187723397408,-0.521635,2.402394,10.557134
1775859187725557929,-0.559920,2.349752,10.533205
1775859187727718449,-0.602991,2.297110,10.494920
1775859187729878970,-0.626920,2.254039,10.432707
1775859187732039491,-0.641276,2.196611,10.365707
1775859187734200012,-0.655633,2.158326,10.260424
1775859187736360533,-0.650848,2.129612,10.169497
1775859187738521054,-0.636491,2.115255,10.054641
1775859187740681574,-0.607777,2.124826,9.954143
1775859187742842095,-0.588634,2.143969,9.863214
1775859187745002616,-0.564706,2.167897,9.786645
1775859187747163085,-0.555135,2.201397,9.734002
1775859187749323658,-0.516850,2.258825,9.647861
1775859187751484179,-0.483350,2.301895,9.576077
1775859187753644647,-0.445065,2.340181,9.556933
1775859187755805220,-0.425922,2.383251,9.542577
1775859187757965689,-0.378066,2.421536,9.556933
1775859187760126210,-0.339781,2.488536,9.614362
1775859187762286783,-0.287139,2.536392,9.662218
1775859187764447251,-0.239282,2.584249,9.729217
1775859187766607824,-0.177069,2.636891,9.786645
1775859187768768293,-0.110070,2.694318,9.868001
1775859187770928814,-0.043071,2.718246,9.968499
1775859187773089335,0.000000,2.766103,10.049855
1775859187775249856,0.076570,2.809174,10.145568
1775859187777410376,0.129212,2.828316,10.217353
1775859187779570897,0.181855,2.828316,10.284351
1775859187781731418,0.248854,2.852245,10.289138
1775859187783891887,0.311067,2.837888,10.308280
1775859187786052460,0.363709,2.813959,10.313066
1775859187788212981,0.435494,2.780460,10.308280
1775859187790373501,0.468993,2.746960,10.308280
1775859187792533970,0.531207,2.713461,10.269995
1775859187794694543,0.559920,2.670390,10.246066
1775859187796855012,0.583849,2.632105,10.217353
1775859187799015585,0.617348,2.579463,10.207782
1775859187801176054,0.607777,2.526821,10.164711
1775859187803336574,0.631705,2.498107,10.107283
1775859187805497095,0.650848,2.445465,10.040284
1775859187807657616,0.650848,2.397608,9.925428
1775859187809818137,0.669990,2.378466,9.815358
1775859187811978658,0.655633,2.330609,9.695718
1775859187814139179,0.660419,2.321038,9.647861
1775859187816299699,0.631705,2.292324,9.595219
1775859187818460220,0.588634,2.258825,9.604790
1775859187820620741,0.550349,2.254039,9.609575
1775859187822781262,0.516850,2.239682,9.628718
1775859187824941783,0.459422,2.239682,9.628718
1775859187827102304,0.445065,2.210968,9.633504
1775859187829262824,0.421137,2.182254,9.590433
1775859187831423345,0.392423,2.153540,9.576077
1775859187833583866,0.373280,2.115255,9.513863
1775859187835744387,0.363709,2.100898,9.437292
1775859187837904908,0.354138,2.096113,9.370294
1775859187840065429,0.363709,2.057827,9.255438
1775859187842225949,0.358923,2.053042,9.145369
1775859187844386418,0.354138,2.024328,9.020942
1775859187846546939,0.354138,2.014757,8.886943
1775859187848707460,0.344566,1.990828,8.738588
1775859187850867981,0.330210,1.995614,8.590233
1775859187853028501,0.301496,1.981257,8.456235
1775859187855189022,0.291924,1.976472,8.346166
1775859187857349543,0.248854,1.981257,8.269595
1775859187859510064,0.244068,1.990828,8.164310
1775859187861670585,0.224925,1.995614,8.068598
1775859187863831106,0.215354,2.005185,8.015956
1775859187865991626,0.215354,2.029114,7.939385
1775859187868152147,0.205783,2.062613,7.891529
1775859187870312668,0.196211,2.100898,7.901100
1775859187872473189,0.181855,2.158326,7.896315
1775859187874633710,0.162712,2.196611,7.896315
1775859187876794231,0.162712,2.254039,7.901100
1775859187878954699,0.148355,2.277967,7.929814
1775859187881115272,0.148355,2.325824,7.958528
1775859187883275741,0.153141,2.359323,7.996813
1775859187885436262,0.167498,2.378466,8.030313
1775859187887596783,0.191426,2.411965,8.054241
1775859187889757356,0.205783,2.435894,8.106883
1775859187891917824,0.200997,2.455036,8.188239
1775859187894078345,0.229711,2.459822,8.269595
1775859187896238866,0.239282,2.469393,8.355737
1775859187898399387,0.253639,2.478964,8.484949
1775859187900559908,0.263211,2.488536,8.604590
1775859187902720429,0.277567,2.478964,8.733803
1775859187904880949,0.291924,2.474179,8.819944
1775859187907041470,0.306281,2.455036,8.949157
1775859187909201991,0.315853,2.440679,9.078369
1775859187911362512,0.334995,2.416751,9.212367
1775859187913523033,0.320638,2.402394,9.332008
1775859187915683554,0.339781,2.368894,9.466006
1775859187917844074,0.325424,2.349752,9.590433
1775859187920004595,0.315853,2.330609,9.686146
1775859187922165116,0.291924,2.297110,9.781859
1775859187924325637,0.267996,2.273181,9.848858
1775859187926486158,0.258425,2.249253,9.901500
1775859187928646626,0.234497,2.196611,9.925428
1775859187930807199,0.239282,2.163112,9.949356
1775859187932967668,0.220140,2.120041,9.954143
1775859187935128189,0.205783,2.062613,9.934999
1775859187937288710,0.191426,2.014757,9.911072
1775859187939449231,0.153141,1.971686,9.891929
1775859187941609751,0.129212,1.942972,9.853643
1775859187943770272,0.124427,1.895115,9.815358
1775859187945930793,0.081356,1.875973,9.791430
1775859187948091314,0.047856,1.866402,9.743574
1775859187950251835,0.033500,1.832902,9.705289
1775859187952412356,0.033500,1.818545,9.695718
1775859187954572876,0.033500,1.808974,9.667004
1775859187956733397,0.047856,1.818545,9.657433
1775859187958893918,0.028714,1.828117,9.662218
1775859187961054439,0.023928,1.852045,9.686146
1775859187963214908,0.019143,1.866402,9.705289
1775859187965375481,0.038285,1.890330,9.734002
1775859187967536001,0.028714,1.957329,9.738789
1775859187969696522,0.023928,1.990828,9.772287
1775859187971856991,0.028714,2.029114,9.772287
1775859187974017512,0.071785,2.076970,9.734002
1775859187976178033,0.081356,2.115255,9.729217
1775859187978338554,0.119641,2.163112,9.676575
1775859187980499126,0.119641,2.206182,9.638289
1775859187982659595,0.129212,2.249253,9.600004
1775859187984820116,0.153141,2.287539,9.585648
1775859187986980637,0.148355,2.344966,9.537791
1775859187989141158,0.129212,2.378466,9.451650
1775859187991301679,0.090927,2.411965,9.375079
1775859187993462199,0.081356,2.435894,9.284152
1775859187995622720,0.076570,2.464607,9.202796
1775859187997783241,0.047856,2.483750,9.097511
1775859187999943762,0.033500,2.493321,9.006584
1775859188002104283,0.033500,2.502892,8.915657
1775859188004264804,-0.028714,2.522035,8.839087
1775859188006425272,-0.033500,2.545963,8.757730
1775859188008585793,-0.066999,2.541178,8.690732
1775859188010746366,-0.114855,2.545963,8.638090
1775859188012906887,-0.162712,2.545963,8.590233
1775859188015067356,-0.167498,2.565106,8.561520
1775859188017227876,-0.196211,2.579463,8.537591
1775859188019388397,-0.220140,2.574677,8.528020
1775859188021548970,-0.224925,2.579463,8.513663
1775859188023709439,-0.239282,2.589034,8.518449
1775859188025869960,-0.234497,2.589034,8.504091
1775859188028030481,-0.239282,2.584249,8.528020
1775859188030191001,-0.224925,2.574677,8.523234
1775859188032351522,-0.215354,2.560320,8.513663
1775859188034512043,-0.220140,2.555535,8.561520
1775859188036672564,-0.205783,2.560320,8.585447
1775859188038833085,-0.215354,2.545963,8.614161
1775859188040993606,-0.205783,2.545963,8.662018
1775859188043154126,-0.210568,2.536392,8.690732
1775859188045314647,-0.220140,2.526821,8.724232
1775859188047475168,-0.215354,2.517249,8.757730
1775859188049635689,-0.205783,2.522035,8.800801
1775859188051796210,-0.196211,2.522035,8.853444
1775859188053956679,-0.181855,2.536392,8.877372
1775859188056117251,-0.153141,2.545963,8.877372
1775859188058277720,-0.129212,2.579463,8.896515
1775859188060438293,-0.110070,2.598605,8.925228
1775859188062598762,-0.114855,2.593820,8.930014
1775859188064759283,-0.095713,2.612962,8.944371
1775859188066919804,-0.086142,2.651248,8.953942
1775859188069080324,-0.090927,2.684747,8.987442
1775859188071240845,-0.110070,2.708675,8.997013
1775859188073401366,-0.095713,2.742175,8.997013
1775859188075561887,-0.081356,2.780460,8.992228
1775859188077722408,-0.066999,2.809174,8.973084
1775859188079882929,-0.062213,2.852245,8.930014
1775859188082043449,-0.057428,2.914458,8.906086
1775859188084203970,-0.076570,2.943172,8.853444
1775859188086364491,-0.105284,2.991028,8.810373
1775859188088525012,-0.143569,3.053242,8.719446
1775859188090685481,-0.157926,3.081956,8.666803
1775859188092846001,-0.191426,3.096313,8.618947
1775859188095006522,-0.210568,3.129812,8.618947
1775859188097167043,-0.224925,3.148955,8.595019
1775859188099327564,-0.258425,3.177669,8.618947
1775859188101488085,-0.267996,3.192025,8.666803
1775859188103648606,-0.263211,3.215954,8.671589
1775859188105809126,-0.253639,3.230311,8.700303
1775859188107969647,-0.229711,3.254239,8.733803
1775859188110130168,-0.177069,3.273381,8.729017
1775859188112290689,-0.114855,3.297310,8.752945
1775859188114451210,-0.066999,3.326024,8.757730
1775859188116611731,-0.004786,3.326024,8.781659
1775859188118772251,0.052642,3.359523,8.819944
1775859188120932772,0.124427,3.373880,8.853444
1775859188123093293,0.186640,3.393023,8.867801
1775859188125253814,0.248854,3.416951,8.944371
1775859188127414335,0.287139,3.412165,8.992228
1775859188129574856,0.334995,3.416951,9.054440
1775859188131735376,0.320638,3.431308,9.087940
1775859188133895897,0.325424,3.426522,9.150154
1775859188136056418,0.330210,3.426522,9.212367
1775859188138216887,0.330210,3.469593,9.255438
1775859188140377408,0.320638,3.460021,9.284152
1775859188142537929,0.344566,3.483950,9.332008
1775859188144698449,0.387637,3.488735,9.384650
1775859188146858970,0.406780,3.507878,9.432507
1775859188149019491,0.430708,3.536592,9.485149
1775859188151180012,0.459422,3.546163,9.533006
1775859188153340533,0.454636,3.560520,9.585648
1775859188155501054,0.449851,3.555734,9.600004
1775859188157661574,0.449851,3.546163,9.609575
1775859188159822095,0.435494,3.555734,9.609575
1775859188161982616,0.425922,3.550949,9.590433
1775859188164143137,0.416351,3.536592,9.580862
1775859188166303658,0.397209,3.517449,9.585648
1775859188168464179,0.382852,3.517449,9.576077
1775859188170624699,0.373280,3.527021,9.537791
1775859188172785220,0.354138,3.507878,9.509077
1775859188174945741,0.334995,3.517449,9.446864
1775859188177106210,0.306281,3.541378,9.384650
1775859188179266783,0.282353,3.579663,9.336794
1775859188181427251,0.253639,3.598805,9.212367
1775859188183587772,0.224925,3.632305,9.107083
1775859188185748293,0.196211,3.665804,9.006584
1775859188187908814,0.177069,3.699304,8.915657
1775859188190069335,0.157926,3.728018,8.815159
1775859188192229856,0.119641,3.756732,8.738588
1775859188194390376,0.095713,3.804588,8.681161
1775859188196550897,0.066999,3.857230,8.575876
1775859188198711418,0.095713,3.905087,8.499306
1775859188200871939,0.066999,3.938586,8.446664
1775859188203032460,0.071785,3.986443,8.394022
1775859188205192981,0.071785,4.048656,8.303095
1775859188207353501,0.076570,4.086941,8.240881
1775859188209513970,0.062213,4.115655,8.164310
1775859188211674543,0.052642,4.134798,8.097312
1775859188213835064,0.023928,4.139583,8.054241
1775859188215995585,-0.009571,4.177868,8.030313
1775859188218156054,-0.062213,4.187439,7.996813
1775859188220316626,-0.129212,4.206582,7.987242
1775859188222477147,-0.177069,4.220939,7.992028
1775859188224637668,-0.205783,4.220939,7.992028
1775859188226798137,-0.239282,4.211368,8.001599
1775859188228958658,-0.263211,4.187439,8.030313
1775859188231119179,-0.296710,4.163511,8.039884
1775859188233279699,-0.325424,4.144369,8.054241
1775859188235440220,-0.320638,4.072584,8.068598
1775859188237600741,-0.301496,4.024728,8.078169
1775859188239761262,-0.287139,3.962514,8.126026
1775859188241921783,-0.301496,3.914658,8.207381
1775859188244082304,-0.306281,3.866802,8.274381
1775859188246242824,-0.320638,3.852444,8.384451
1775859188248403293,-0.334995,3.799802,8.475378
1775859188250563866,-0.330210,3.761517,8.547162
1775859188252724387,-0.349352,3.723232,8.642876
1775859188254884908,-0.344566,3.694518,8.762517
1775859188257045429,-0.306281,3.656233,8.824730
1775859188259205949,-0.272782,3.617948,8.915657
1775859188261366470,-0.215354,3.608377,8.992228
1775859188263526939,-0.162712,3.565306,9.049655
1775859188265687512,-0.110070,3.550949,9.102298
1775859188267847981,-0.090927,3.541378,9.150154
1775859188270008501,-0.062213,3.512664,9.183653
1775859188272169022,-0.071785,3.493521,9.226724
1775859188274329543,-0.057428,3.488735,9.221938
1775859188276490116,-0.076570,3.483950,9.231510
1775859188278650585,-0.066999,3.488735,9.226724
1775859188280811106,-0.023928,3.531806,9.198010
1775859188282971626,-0.009571,3.531806,9.178867
1775859188285132147,-0.047856,3.574877,9.121440
1775859188287292668,-0.210568,3.742375,9.183653
1775859188289453189,-0.430708,3.828516,9.245867
1775859188291613710,-0.550349,3.866802,9.193225
1775859188293774231,-0.545564,3.885944,9.073584
1775859188295934751,-0.497707,3.895515,8.939586
1775859188298095272,-0.459422,3.895515,8.805588
1775859188300255793,-0.392423,3.919444,8.690732
1775859188302416262,-0.320638,3.909872,8.537591
1775859188304576783,-0.234497,3.914658,8.398808
1775859188306737356,-0.162712,3.909872,8.279166
1775859188308897876,-0.081356,3.909872,8.202596
1775859188311058345,-0.043071,3.933800,8.126026
1775859188313218866,-0.009571,3.938586,8.111669
1775859188315379387,0.038285,3.962514,8.092526
1775859188317539908,0.071785,3.991228,8.092526
1775859188319700429,0.100499,4.039084,8.121240
1775859188321860949,0.157926,4.101298,8.145168
1775859188324021470,0.220140,4.149155,8.173882
1775859188326181991,0.272782,4.216154,8.245667
1775859188328342512,0.363709,4.292724,8.307880
1775859188330503033,0.445065,4.335794,8.394022
1775859188332663554,0.502493,4.402794,8.489735
1775859188334824074,0.531207,4.441079,8.580662
1775859188336984595,0.545564,4.474578,8.647661
1775859188339145116,0.540778,4.493721,8.733803
1775859188341305637,0.502493,4.493721,8.772088
1775859188343466106,0.440279,4.465007,8.800801
1775859188345626626,0.406780,4.417150,8.800801
1775859188347787147,0.373280,4.359723,8.834301
1775859188349947720,0.373280,4.307081,8.843872
1775859188352108189,0.378066,4.254439,8.867801
1775859188354268710,0.425922,4.206582,8.863015
1775859188356429231,0.445065,4.158726,8.886943
1775859188358589751,0.492921,4.115655,8.858230
1775859188360750272,0.531207,4.082155,8.858230
1775859188362910793,0.531207,4.034299,8.853444
1775859188365071314,0.555135,3.996014,8.886943
1775859188367231835,0.564706,3.943372,8.886943
1775859188369392356,0.550349,3.895515,8.877372
1775859188371552876,0.559920,3.852444,8.896515
1775859188373713397,0.559920,3.833302,8.886943
1775859188375873918,0.598206,3.790231,8.834301
1775859188378034439,0.593420,3.747160,8.815159
1775859188380194960,0.531207,3.704089,8.834301
1775859188382355481,0.454636,3.675375,8.819944
1775859188384516001,0.354138,3.646662,8.815159
1775859188386676470,0.291924,3.641876,8.834301
1775859188388837043,0.215354,3.641876,8.815159
1775859188390997512,0.162712,3.665804,8.810373
1775859188393158085,0.095713,3.708875,8.776874
1775859188395318606,0.071785,3.751946,8.752945
1775859188397479074,0.047856,3.804588,8.743374
1775859188399639595,0.043071,3.871587,8.743374
1775859188401800116,0.019143,3.919444,8.748159
1775859188403960637,0.023928,3.972085,8.781659
1775859188406121158,-0.004786,4.034299,8.791230
1775859188408281679,-0.009571,4.086941,8.829515
1775859188410442199,-0.033500,4.134798,8.886943
1775859188412602720,-0.062213,4.177868,8.953942
1775859188414763241,-0.090927,4.216154,9.025727
1775859188416923762,-0.119641,4.235296,9.116654
1775859188419084283,-0.153141,4.249653,9.188439
1775859188421244751,-0.157926,4.249653,9.284152
1775859188423405272,-0.172283,4.264010,9.341579
1775859188425565793,-0.177069,4.230510,9.365508
1775859188427726366,-0.181855,4.206582,9.351151
1775859188429886835,-0.181855,4.173083,9.351151
1775859188432047356,-0.205783,4.130012,9.322437
1775859188434207929,-0.220140,4.072584,9.250652
1775859188436368397,-0.248854,4.010371,9.202796
1775859188438528918,-0.244068,3.933800,9.135797
1775859188440689491,-0.253639,3.866802,9.035298
1775859188442849960,-0.244068,3.790231,8.920443
1775859188445010481,-0.239282,3.728018,8.796016
1775859188447171001,-0.263211,3.675375,8.705089
1775859188449331522,-0.277567,3.613162,8.595019
1775859188451492043,-0.287139,3.574877,8.504091
1775859188453652564,-0.306281,3.517449,8.408379
1775859188455813085,-0.315853,3.498307,8.336594
1775859188457973606,-0.349352,3.460021,8.274381
1775859188460134126,-0.397209,3.416951,8.193025
1775859188462294647,-0.459422,3.383451,8.159525
1775859188464455116,-0.492921,3.330809,8.145168
1775859188466615689,-0.531207,3.287738,8.140383
1775859188468776210,-0.583849,3.249453,8.121240
1775859188470936679,-0.612563,3.172883,8.164310
1775859188473097251,-0.631705,3.110669,8.169097
1775859188475257720,-0.669990,3.058027,8.193025
1775859188477418241,-0.679562,3.010171,8.216953
1775859188479578762,-0.698704,2.967100,8.216953
1775859188481739283,-0.713061,2.909672,8.240881
1775859188483899804,-0.732204,2.871387,8.274381
1775859188486060324,-0.717847,2.842673,8.303095
1775859188488220845,-0.689133,2.799603,8.303095
1775859188490381366,-0.679562,2.751746,8.360522
1775859188492541887,-0.631705,2.703890,8.374879
1775859188494702408,-0.588634,2.670390,8.403593
1775859188496862929,-0.559920,2.598605,8.437093
1775859188499023449,-0.540778,2.569891,8.475378
1775859188501183970,-0.526421,2.526821,8.542377
1775859188503344491,-0.521635,2.474179,8.609376
1775859188505505012,-0.516850,2.440679,8.662018
1775859188507665533,-0.507278,2.392823,8.729017
1775859188509826001,-0.478565,2.359323,8.762517
1775859188511986574,-0.445065,2.297110,8.824730
1775859188514147043,-0.425922,2.297110,8.891729
1775859188516307564,-0.382852,2.258825,8.968299
1775859188518468137,-0.387637,2.239682,9.030513
1775859188520628606,-0.387637,2.244468,9.107083
1775859188522789126,-0.421137,2.234896,9.164511
1775859188524949647,-0.449851,2.244468,9.207582
1775859188527110168,-0.459422,2.249253,9.265009
1775859188529270689,-0.473779,2.268396,9.308080
1775859188531431210,-0.473779,2.277967,9.375079
1775859188533591731,-0.478565,2.306681,9.413364
1775859188535752251,-0.483350,2.325824,9.470792
1775859188537912772,-0.473779,2.335395,9.523434
1775859188540073293,-0.445065,2.359323,9.585648
1775859188542233814,-0.440279,2.383251,9.662218
1775859188544394335,-0.416351,2.402394,9.714860
1775859188546554804,-0.382852,2.426322,9.781859
1775859188548715376,-0.397209,2.421536,9.815358
1775859188550875845,-0.373280,2.416751,9.872787
1775859188553036366,-0.382852,2.402394,9.877572
1775859188555196887,-0.397209,2.368894,9.930214
1775859188557357408,-0.435494,2.340181,9.982856
1775859188559517929,-0.478565,2.316252,10.054641
1775859188561678449,-0.512064,2.263610,10.073783
1775859188563838970,-0.535992,2.234896,10.116854
1775859188565999491,-0.545564,2.177469,10.155139
1775859188568160012,-0.559920,2.139184,10.207782
1775859188570320533,-0.593420,2.124826,10.246066
1775859188572481054,-0.617348,2.091327,10.265209
1775859188574641574,-0.622134,2.067399,10.265209
1775859188576802095,-0.636491,2.043471,10.250853
1775859188578962616,-0.655633,1.990828,10.269995
1775859188581123137,-0.674776,1.966900,10.298709
1775859188583283658,-0.679562,1.942972,10.298709
1775859188585444179,-0.708275,1.923829,10.313066
1775859188587604699,-0.722632,1.890330,10.332209
1775859188589765220,-0.756132,1.885544,10.365707
1775859188591925689,-0.784846,1.880759,10.389636
1775859188594086262,-0.813560,1.856830,10.408778
1775859188596246731,-0.866202,1.832902,10.447063
1775859188598407251,-0.890130,1.808974,10.461421
1775859188600567772,-0.899701,1.775474,10.485349
1775859188602728293,-0.914058,1.746760,10.490134
1775859188604888814,-0.909273,1.713261,10.499705
1775859188607049335,-0.894916,1.679762,10.480563
1775859188609209856,-0.856631,1.665405,10.470992
1775859188611370376,-0.827917,1.641476,10.418350
1775859188613530897,-0.803988,1.627119,10.394422
1775859188615691418,-0.770489,1.612762,10.356136
1775859188617851939,-0.756132,1.607977,10.298709
1775859188620012460,-0.741775,1.593620,10.255638
1775859188622172981,-0.727418,1.588834,10.188639
1775859188624333501,-0.698704,1.588834,10.135997
1775859188626494022,-0.689133,1.584049,10.092926
1775859188628654543,-0.679562,1.588834,10.021141
1775859188630815064,-0.684347,1.603191,9.963714
1775859188632975533,-0.689133,1.593620,9.911072
1775859188635136106,-0.684347,1.612762,9.882358
1775859188637296574,-0.698704,1.631905,9.839287
1775859188639457095,-0.717847,1.636691,9.815358
1775859188641617616,-0.741775,1.655833,9.805787
1775859188643778137,-0.727418,1.679762,9.796216
1775859188645938658,-0.746561,1.684547,9.781859
1775859188648099179,-0.736989,1.698904,9.796216
1775859188650259699,-0.741775,1.694118,9.834501
1775859188652420220,-0.732204,1.684547,9.882358
1775859188654580741,-0.727418,1.684547,9.925428
1775859188656741262,-0.713061,1.679762,10.006784
1775859188658901783,-0.698704,1.636691,10.040284
1775859188661062304,-0.689133,1.617548,10.107283
1775859188663222824,-0.650848,1.579263,10.159925
1775859188665383345,-0.650848,1.536192,10.207782
1775859188667543866,-0.612563,1.483550,10.269995
1775859188669704335,-0.583849,1.450050,10.317851
1775859188671864908,-0.555135,1.416551,10.365707
1775859188674025429,-0.531207,1.387837,10.380065
1775859188676185897,-0.502493,1.349552,10.351351
1775859188678346470,-0.478565,1.330409,10.322637
1775859188680506939,-0.473779,1.320838,10.274780
1775859188682667460,-0.449851,1.325624,10.231709
1775859188684828033,-0.445065,1.306481,10.155139
1775859188686988501,-0.435494,1.311267,10.073783
1775859188689149022,-0.425922,1.301695,10.035499
1775859188691309543,-0.421137,1.316052,9.963714
1775859188693470064,-0.421137,1.311267,9.934999
1775859188695630585,-0.430708,1.316052,9.915857
1775859188697791106,-0.445065,1.306481,9.887143
1775859188699951626,-0.492921,1.287339,9.891929
1775859188702112147,-0.545564,1.258625,9.958928
1775859188704272668,-0.593420,1.249053,9.963714
1775859188706433189,-0.636491,1.196411,10.016356
1775859188708593710,-0.684347,1.162912,10.049855
1775859188710754231,-0.732204,1.110270,10.073783
1775859188712914751,-0.746561,1.100698,10.116854
1775859188715075272,-0.741775,1.081556,10.155139
1775859188717235741,-0.751346,1.095913,10.202995
1775859188719396314,-0.751346,1.100698,10.236495
1775859188721556835,-0.736989,1.124627,10.322637
1775859188723717356,-0.727418,1.124627,10.394422
1775859188725877824,-0.693919,1.162912,10.461421
1775859188728038345,-0.684347,1.191626,10.537991
1775859188730198866,-0.655633,1.220340,10.628919
1775859188732359387,-0.641276,1.277767,10.705488
1775859188734519908,-0.607777,1.330409,10.801202
1775859188736680429,-0.583849,1.368695,10.868200
1775859188738840949,-0.569492,1.397408,10.949556
1775859188741001470,-0.540778,1.440479,11.002198
1775859188743161991,-0.521635,1.464407,10.973485
1775859188745322512,-0.492921,1.512264,10.973485
1775859188747483033,-0.483350,1.555335,10.949556
1775859188749643554,-0.483350,1.593620,10.863415
1775859188751804074,-0.464208,1.631905,10.743773
1775859188753964543,-0.445065,1.665405,10.609776
1775859188756125064,-0.464208,1.713261,10.470992
1775859188758285637,-0.497707,1.727618,10.308280
1775859188760446106,-0.488136,1.761117,10.169497
1775859188762606626,-0.521635,1.789831,10.030712
1775859188764767147,-0.535992,1.789831,9.915857
1775859188766927668,-0.564706,1.804188,9.786645
1775859188769088189,-0.574277,1.813760,9.671789
1775859188771248762,-0.588634,1.837688,9.552148
1775859188773409231,-0.598206,1.856830,9.456435
1775859188775569751,-0.617348,1.852045,9.355937
1775859188777730272,-0.660419,1.885544,9.298509
1775859188779890793,-0.684347,1.904687,9.265009
1775859188782051314,-0.708275,1.909472,9.231510
1775859188784211835,-0.732204,1.938186,9.212367
1775859188786372356,-0.746561,1.928615,9.226724
1775859188788532876,-0.756132,1.933401,9.231510
1775859188790693397,-0.775275,1.923829,9.250652
1775859188792853918,-0.784846,1.909472,9.293723
1775859188795014439,-0.751346,1.895115,9.312865
1775859188797174960,-0.717847,1.885544,9.327223
1775859188799335481,-0.689133,1.847259,9.332008
1775859188801495949,-0.636491,1.808974,9.346365
1775859188803656522,-0.593420,1.794617,9.379865
1775859188805817043,-0.516850,1.794617,9.384650
1775859188807977512,-0.445065,1.794617,9.427721
1775859188810138033,-0.382852,1.804188,9.418150
1775859188812298554,-0.291924,1.842473,9.446864
1775859188814459074,-0.248854,1.880759,9.475577
1775859188816619595,-0.191426,1.914258,9.489935
1775859188818780116,-0.129212,1.971686,9.537791
1775859188820940637,-0.090927,2.024328,9.580862
1775859188823101158,-0.052642,2.091327,9.604790
1775859188825261679,-0.023928,2.158326,9.623933
1775859188827422199,-0.014357,2.239682,9.638289
1775859188829582720,0.009571,2.292324,9.647861
1775859188831743241,0.028714,2.344966,9.628718
1775859188833903762,0.038285,2.397608,9.628718
1775859188836064283,0.033500,2.435894,9.600004
1775859188838224804,0.052642,2.478964,9.552148
1775859188840385324,0.047856,2.526821,9.504292
1775859188842545845,0.062213,2.574677,9.418150
1775859188844706366,0.052642,2.612962,9.384650
1775859188846866835,0.052642,2.646462,9.327223
1775859188849027408,0.062213,2.689533,9.250652
1775859188851187876,0.047856,2.723032,9.178867
1775859188853348449,0.043071,2.732604,9.116654
1775859188855508918,0.019143,2.766103,9.059227
1775859188857669439,0.028714,2.790031,9.030513
1775859188859830012,0.014357,2.770889,8.958728
1775859188861990481,0.004786,2.766103,8.944371
1775859188864151001,0.019143,2.790031,8.920443
1775859188866311522,0.019143,2.780460,8.920443
1775859188868472043,0.052642,2.775674,8.915657
1775859188870632564,0.076570,2.790031,8.953942
1775859188872793085,0.110070,2.780460,8.997013
1775859188874953606,0.167498,2.794817,9.035298
1775859188877114126,0.215354,2.799603,9.087940
1775859188879274647,0.277567,2.809174,9.145369
1775859188881435168,0.330210,2.813959,9.188439
1775859188883595689,0.368495,2.847459,9.279366
1775859188885756210,0.430708,2.880959,9.365508
1775859188887916679,0.502493,2.914458,9.451650
1775859188890077199,0.540778,2.938386,9.499506
1775859188892237772,0.593420,2.967100,9.585648
1775859188894398241,0.622134,2.995814,9.657433
1775859188896558762,0.660419,3.010171,9.705289
1775859188898719283,0.698704,3.058027,9.738789
1775859188900879804,0.713061,3.062813,9.757931
1775859188903040324,0.736989,3.077170,9.738789
1775859188905200845,0.736989,3.086741,9.738789
1775859188907361418,0.770489,3.067599,9.695718
1775859188909521887,0.770489,3.067599,9.667004
1775859188911682408,0.799203,3.072384,9.604790
1775859188913842929,0.789631,3.048456,9.528220
1775859188916003449,0.775275,3.062813,9.461221
1775859188918163970,0.756132,3.053242,9.413364
1775859188920324491,0.732204,3.053242,9.379865
1775859188922485012,0.727418,3.043670,9.351151
1775859188924645533,0.703490,3.034099,9.293723
1775859188926806054,0.703490,3.048456,9.322437
1775859188928966574,0.674776,3.048456,9.312865
1775859188931127095,0.674776,3.053242,9.322437
1775859188933287616,0.650848,3.024528,9.355937
1775859188935448137,0.626920,3.005385,9.365508
1775859188937608658,0.602991,3.005385,9.389436
1775859188939769126,0.559920,2.967100,9.446864
1775859188941929647,0.521635,2.938386,9.489935
1775859188944090168,0.483350,2.914458,9.509077
1775859188946250741,0.459422,2.885744,9.556933
1775859188948411210,0.421137,2.828316,9.566504
1775859188950571731,0.378066,2.804388,9.571291
1775859188952732251,0.363709,2.794817,9.571291
1775859188954892824,0.363709,2.737389,9.556933
1775859188957053293,0.330210,2.708675,9.513863
1775859188959213814,0.301496,2.694318,9.528220
1775859188961374335,0.306281,2.684747,9.537791
1775859188963534856,0.277567,2.684747,9.533006
1775859188965695376,0.267996,2.670390,9.547362
1775859188967855897,0.248854,2.679961,9.580862
1775859188970016418,0.229711,2.689533,9.580862
1775859188972176939,0.229711,2.684747,9.609575
1775859188974337460,0.248854,2.675176,9.638289
1775859188976497981,0.234497,2.679961,9.667004
1775859188978658501,0.239282,2.694318,9.690931
1775859188980819022,0.263211,2.679961,9.719646
1775859188982979491,0.258425,2.684747,9.738789
1775859188985140064,0.272782,2.689533,9.753145
1775859188987300585,0.282353,2.699104,9.734002
1775859188989461054,0.263211,2.694318,9.719646
1775859188991621626,0.272782,2.737389,9.705289
1775859188993782095,0.272782,2.732604,9.690931
1775859188995942616,0.272782,2.756532,9.652647
1775859188998103137,0.272782,2.756532,9.619147
1775859189000263658,0.282353,2.770889,9.576077
1775859189002424179,0.277567,2.775674,9.533006
1775859189004584699,0.258425,2.790031,9.485149
1775859189006745220,0.263211,2.775674,9.451650
1775859189008905741,0.253639,2.770889,9.408579
1775859189011066262,0.239282,2.780460,9.394221
1775859189013226783,0.244068,2.770889,9.355937
1775859189015387304,0.229711,2.761317,9.332008
1775859189017547824,0.234497,2.751746,9.322437
1775859189019708345,0.239282,2.751746,9.317652
1775859189021868866,0.244068,2.727818,9.312865
1775859189024029387,0.234497,2.713461,9.346365
1775859189026189908,0.215354,2.694318,9.389436
1775859189028350429,0.215354,2.636891,9.432507
1775859189030510897,0.177069,2.603391,9.499506
1775859189032671470,0.177069,2.579463,9.580862
1775859189034831991,0.157926,2.541178,9.657433
1775859189036992512,0.143569,2.507678,9.734002
1775859189039153033,0.119641,2.464607,9.820144
1775859189041313554,0.124427,2.431108,9.911072
1775859189043474074,0.124427,2.397608,9.997213
1775859189045634543,0.133998,2.378466,10.064212
1775859189047795064,0.133998,2.349752,10.121640
1775859189049955585,0.148355,2.311467,10.183853
1775859189052116106,0.153141,2.282753,10.236495
1775859189054276626,0.177069,2.277967,10.289138
1775859189056437147,0.167498,2.254039,10.341780
1775859189058597668,0.181855,2.244468,10.384851
1775859189060758189,0.196211,2.234896,10.403993
1775859189062918710,0.205783,2.225325,10.451849
1775859189065079231,0.220140,2.206182,10.442278
1775859189067239751,0.234497,2.215754,10.451849
1775859189069400272,0.272782,2.215754,10.427921
1775859189071560793,0.296710,2.220539,10.399207
1775859189073721314,0.315853,2.225325,10.394422
1775859189075881783,0.349352,2.249253,10.375279
1775859189078042356,0.354138,2.268396,10.327422
1775859189080202876,0.378066,2.297110,10.293923
1775859189082363397,0.392423,2.311467,10.269995
1775859189084523918,0.387637,2.330609,10.226924
1775859189086684439,0.411565,2.344966,10.193424
1775859189088844908,0.435494,2.368894,10.150353
1775859189091005429,0.464208,2.373680,10.102497
1775859189093166001,0.521635,2.392823,10.049855
1775859189095326470,0.531207,2.402394,10.001999
1775859189097486991,0.555135,2.407180,9.963714
1775859189099647564,0.579063,2.407180,9.930214
1775859189101808033,0.598206,2.407180,9.925428
1775859189103968554,0.607777,2.407180,9.891929
1775859189106129074,0.650848,2.431108,9.911072
1775859189108289595,0.674776,2.459822,9.896714
1775859189110450116,0.665205,2.502892,9.896714
1775859189112610637,0.689133,2.531606,9.901500
1775859189114771158,0.708275,2.569891,9.915857
1775859189116931679,0.708275,2.617748,9.920643
1775859189119092199,0.732204,2.636891,9.853643
1775859189121252720,0.760918,2.636891,9.791430
1775859189123413189,0.775275,2.660819,9.734002
1775859189125573710,0.799203,2.675176,9.690931
1775859189127734231,0.813560,2.703890,9.600004
1775859189129894751,0.832702,2.732604,9.528220
1775859189132055272,0.851845,2.732604,9.480363
1775859189134215793,0.861416,2.751746,9.399008
1775859189136376314,0.880559,2.766103,9.360723
1775859189138536835,0.890130,2.780460,9.303294
1775859189140697356,0.904487,2.799603,9.255438
1775859189142857876,0.909273,2.799603,9.236296
1775859189145018397,0.885344,2.785246,9.193225
1775859189147178918,0.808774,2.756532,9.169296
1775859189149339439,0.765703,2.727818,9.131011
1775859189151499960,0.736989,2.694318,9.116654
1775859189153660481,0.727418,2.641676,9.107083
1775859189155821001,0.756132,2.646462,9.092726
1775859189157981522,0.808774,2.627319,9.087940
1775859189160142043,0.866202,2.617748,9.107083
1775859189162302564,0.933201,2.612962,9.164511
1775859189164463085,0.947558,2.603391,9.221938
1775859189166623606,0.976272,2.589034,9.260223
1775859189168784126,0.976272,2.603391,9.332008
1775859189170944647,0.971486,2.608177,9.370294
1775859189173105168,1.000200,2.598605,9.432507
1775859189175265637,0.990629,2.598605,9.470792
1775859189177426210,0.947558,2.598605,9.504292
1775859189179586679,0.894916,2.603391,9.542577
1775859189181747251,0.856631,2.584249,9.547362
1775859189183907772,0.827917,2.565106,9.317652
1775859189186068241,0.770489,2.545963,8.930014
1775859189188228762,0.780060,2.569891,8.484949
1775859189190389283,0.794417,2.612962,7.996813
1775859189192549804,0.866202,2.713461,7.331609
1775859189194710324,0.966700,2.833102,6.608976
1775859189196870845,1.067199,2.976671,5.900701
1775859189199031366,1.167697,3.144169,5.321638
1775859189201191887,1.220340,3.278167,4.986642
1775859189203352408,1.253839,3.407379,4.981857
1775859189205512929,1.210768,3.498307,5.249853
1775859189207673449,1.167697,3.531806,5.771488
1775859189209833970,1.134198,3.512664,6.374479
1775859189211994491,1.095913,3.460021,7.001399
1775859189214155012,1.115055,3.364309,7.551748
1775859189216315533,1.134198,3.263810,8.006385
1775859189218476054,1.196411,3.148955,8.355737
1775859189220636522,1.277767,3.067599,8.571091
1775859189222797043,1.359123,2.995814,8.714660
1775859189224957616,1.459622,2.933601,8.796016
1775859189227118085,1.536192,2.924029,8.805588
1775859189229278658,1.622334,2.900101,8.805588
1775859189231439179,1.684547,2.885744,8.800801
1775859189233599699,1.713261,2.890530,8.810373
1775859189235760168,1.722832,2.880959,8.815159
1775859189237920689,1.718047,2.885744,8.882157
1775859189240081210,1.689333,2.890530,8.944371
1775859189242241731,1.607977,2.866601,9.040084
1775859189244402251,1.545763,2.866601,9.159725
1775859189246562772,1.483550,2.833102,9.274581
1775859189248723293,1.387837,2.799603,9.370294
1775859189250883814,1.311267,2.761317,9.446864
1775859189253044335,1.225125,2.732604,9.518648
1775859189255204856,1.172483,2.694318,9.533006
1775859189257365376,1.100698,2.656033,9.580862
1775859189259525897,1.019342,2.617748,9.604790
1775859189261686418,0.957129,2.560320,9.623933
1775859189263846939,0.842274,2.502892,9.671789
1775859189266007460,0.756132,2.445465,9.710074
1775859189268167929,0.679562,2.388037,9.729217
1775859189270328501,0.636491,2.364109,9.729217
1775859189272489022,0.622134,2.321038,9.686146
1775859189274649491,0.622134,2.292324,9.633504
1775859189276810064,0.636491,2.277967,9.590433
1775859189278970533,0.665205,2.249253,9.528220
1775859189281131106,0.689133,2.263610,9.432507
1775859189283291574,0.746561,2.273181,9.327223
1775859189285452147,0.760918,2.287539,9.288938
1775859189287612616,0.756132,2.316252,9.221938
1775859189289773137,0.756132,2.354537,9.178867
1775859189291933658,0.741775,2.397608,9.178867
1775859189294094179,0.727418,2.445465,9.164511
1775859189296254699,0.722632,2.488536,9.193225
1775859189298415220,0.717847,2.545963,9.193225
1775859189300575741,0.746561,2.574677,9.198010
1775859189302736262,0.751346,2.608177,9.212367
1775859189304896783,0.770489,2.641676,9.250652
1775859189307057304,0.799203,2.670390,9.250652
1775859189309217772,0.823131,2.694318,9.260223
1775859189311378345,0.842274,2.703890,9.250652
1775859189313538866,0.851845,2.732604,9.274581
1775859189315699387,0.885344,2.770889,9.293723
1775859189317859908,0.914058,2.794817,9.298509
1775859189320020429,0.957129,2.809174,9.322437
1775859189322180949,0.990629,2.828316,9.336794
1775859189324341470,1.014557,2.842673,9.336794
1775859189326501991,1.033699,2.857030,9.341579
1775859189328662512,1.057628,2.857030,9.336794
1775859189330823033,1.110270,2.857030,9.327223
1775859189332983554,1.172483,2.885744,9.293723
1775859189335144022,1.239482,2.866601,9.293723
1775859189337304543,1.320838,2.885744,9.303294
1775859189339465064,1.378266,2.895315,9.265009
1775859189341625585,1.402194,2.885744,9.236296
1775859189343786106,1.402194,2.890530,9.188439
1775859189345946626,1.368695,2.880959,9.140582
1775859189348107147,1.292124,2.866601,9.044869
1775859189350267720,1.220340,2.876173,8.973084
1775859189352428189,1.134198,2.866601,8.867801
1775859189354588710,1.052842,2.852245,8.772088
1775859189356749231,0.981057,2.871387,8.652447
1775859189358909751,0.933201,2.890530,8.590233
1775859189361070272,0.866202,2.880959,8.508878
1775859189363230793,0.827917,2.909672,8.484949
1775859189365391314,0.803988,2.914458,8.461020
1775859189367551835,0.799203,2.933601,8.451449
1775859189369712356,0.813560,2.981457,8.461020
1775859189371872876,0.827917,2.976671,8.461020
1775859189374033397,0.851845,2.995814,8.489735
1775859189376193866,0.856631,3.029314,8.547162
1775859189378354439,0.880559,3.034099,8.599805
1775859189380514960,0.890130,3.038885,8.652447
1775859189382675429,0.894916,3.019742,8.719446
1775859189384836001,0.866202,2.986243,8.786445
1775859189386996470,0.741775,2.866601,8.738588
1775859189389156991,0.679562,2.766103,8.752945
1775859189391317564,0.679562,2.723032,8.829515
1775859189393478033,0.732204,2.732604,9.001799
1775859189395638606,0.928415,2.770889,9.269794
1775859189397799074,1.191626,2.842673,9.609575
1775859189399959595,1.531407,2.967100,9.901500
1775859189402120116,1.976472,3.091527,10.159925
1775859189404280637,2.435894,3.268596,10.399207
1775859189406441158,2.823531,3.460021,10.600204
1775859189408601679,3.034099,3.632305,10.801202
1775859189410762199,3.010171,3.756732,10.997413
1775859189412922720,2.790031,3.804588,11.131411
1775859189415083241,2.474179,3.775874,11.174481
1775859189417243762,2.215754,3.718446,11.121840
1775859189419404283,1.995614,3.627519,10.973485
1775859189421564804,1.847259,3.522235,10.777273
1775859189423725324,1.689333,3.383451,10.518848
1775859189425885845,1.469193,3.206382,10.217353
1775859189428046366,1.100698,3.010171,9.939785
1775859189430206887,0.650848,2.790031,9.714860
1775859189432367408,0.153141,2.550749,9.595219
1775859189434527929,-0.301496,2.321038,9.556933
1775859189436688449,-0.602991,2.124826,9.580862
1775859189438848970,-0.770489,1.976472,9.628718
1775859189441009491,-0.813560,1.861616,9.681360
1775859189443170012,-0.837488,1.751546,9.695718
1775859189445330533,-0.823131,1.674976,9.695718
1775859189447491001,-0.823131,1.612762,9.657433
1775859189449651522,-0.803988,1.569692,9.571291
1775859189451812043,-0.760918,1.569692,9.485149
1775859189453972564,-0.636491,1.598405,9.365508
1775859189456133137,-0.545564,1.679762,9.284152
1775859189458293606,-0.382852,1.818545,9.198010
1775859189460454126,-0.239282,1.990828,9.111869
1775859189462614647,-0.095713,2.201397,9.016156
1775859189464775168,0.038285,2.421536,8.939586
1775859189466935689,0.119641,2.622534,8.824730
1775859189469096210,0.200997,2.804388,8.714660
1775859189471256731,0.263211,2.981457,8.604590
1775859189473417251,0.306281,3.101098,8.504091
1775859189475577772,0.349352,3.187240,8.437093
1775859189477738293,0.387637,3.249453,8.360522
1775859189479898814,0.416351,3.278167,8.350951
1775859189482059335,0.430708,3.302095,8.317451
1775859189484219856,0.416351,3.292524,8.283952
1775859189486380376,0.382852,3.259024,8.245667
1775859189488540897,0.339781,3.220739,8.159525
1775859189490701366,0.301496,3.139383,8.054241
1775859189492861939,0.220140,3.072384,7.929814
1775859189495022460,0.181855,3.019742,7.838887
1775859189497182981,0.138784,2.995814,7.843673
1775859189499343449,0.138784,2.976671,7.848458
1775859189501504022,0.181855,2.967100,7.891529
1775859189503664491,0.239282,2.976671,7.939385
1775859189505825012,0.282353,2.981457,7.982456
1775859189507985585,0.315853,2.986243,8.073383
1775859189510146054,0.339781,3.005385,8.193025
1775859189512306626,0.358923,3.019742,8.288737
1775859189514467095,0.411565,3.058027,8.427522
1775859189516627616,0.492921,3.120241,8.547162
1775859189518788137,0.593420,3.182454,8.638090
1775859189520948710,0.698704,3.235096,8.724232
1775859189523109179,0.823131,3.326024,8.781659
1775859189525269699,0.937986,3.393023,8.781659
1775859189527430220,1.033699,3.450450,8.757730
1775859189529590741,1.081556,3.474379,8.705089
1775859189531751262,1.081556,3.483950,8.575876
1775859189533911783,1.062413,3.503092,8.456235
1775859189536072304,1.019342,3.488735,8.288737
1775859189538232824,0.937986,3.488735,8.097312
1775859189540393345,0.842274,3.483950,7.867601
1775859189542553866,0.765703,3.517449,7.613962
1775859189544714387,0.679562,3.608377,7.197610
1775859189546874908,0.559920,3.756732,6.374479
1775859189549035429,0.387637,3.948157,5.398208
1775859189551195897,0.186640,3.909872,5.493921
1775859189553356470,0.133998,3.780660,6.053841
1775859189555516991,0.191426,3.632305,6.647261
1775859189557677512,0.244068,3.464807,7.159325
1775859189559838033,0.287139,3.345166,7.700103
1775859189561998554,0.296710,3.215954,8.178668
1775859189564159074,0.330210,3.110669,8.714660
1775859189566319595,0.354138,3.029314,9.293723
1775859189568480064,0.406780,2.967100,9.868001
1775859189570640637,0.454636,2.924029,10.408778
1775859189572801158,0.497707,2.895315,10.872986
1775859189574961679,0.531207,2.861816,11.260623
1775859189577122147,0.531207,2.871387,11.586047
1775859189579282668,0.459422,2.861816,11.863615
1775859189581443189,0.397209,2.857030,12.026326
1775859189583603710,0.349352,2.866601,12.141182
1775859189585764231,0.296710,2.866601,12.222538
1775859189587924751,0.296710,2.866601,12.241681
1775859189590085272,0.306281,2.852245,12.208181
1775859189592245793,0.330210,2.852245,12.174682
1775859189594406314,0.392423,2.847459,12.122040
1775859189596566835,0.459422,2.842673,12.069397
1775859189598727356,0.564706,2.857030,11.978470
1775859189600887929,0.646062,2.885744,11.868401
1775859189603048397,0.722632,2.947958,11.710474
1775859189605208918,0.760918,3.000600,11.552547
1775859189607369439,0.813560,3.053242,11.346765
1775859189609529960,0.875773,3.125026,11.126625
1775859189611690481,0.909273,3.196811,10.916057
1775859189613851001,0.952343,3.268596,10.710274
1775859189616011522,1.009771,3.345166,10.490134
1775859189618172043,1.019342,3.421736,10.279566
1775859189620332512,1.004985,3.512664,10.121640
1775859189622493085,1.009771,3.598805,10.016356
1775859189624653606,1.019342,3.704089,9.978070
1775859189626814074,1.071985,3.799802,9.958928
1775859189628974647,1.115055,3.938586,9.944571
1775859189631135116,1.143769,4.058227,9.877572
1775859189633295637,1.153340,4.149155,9.791430
1775859189635456158,1.153340,4.273581,9.719646
1775859189637616679,1.124627,4.374080,9.676575
1775859189639777199,1.076770,4.465007,9.614362
1775859189641937772,1.048056,4.570291,9.580862
1775859189644098241,0.961915,4.675575,9.523434
1775859189646258762,0.861416,4.776074,9.470792
1775859189648419283,0.751346,4.867001,9.389436
1775859189650579856,0.612563,4.953143,9.312865
1775859189652740324,0.454636,5.029713,9.183653
1775859189654900845,0.358923,5.082355,9.111869
1775859189657061366,0.368495,5.182854,9.059227
1775859189659221887,0.483350,5.283352,9.030513
1775859189661382408,0.602991,5.359923,9.073584
1775859189663542929,0.684347,5.398208,9.059227
1775859189665703449,0.770489,5.407779,8.963513
1775859189667863970,0.861416,5.422136,8.843872
1775859189670024491,0.923630,5.426922,8.714660
1775859189672185012,0.961915,5.402994,8.575876
1775859189674345533,0.961915,5.393422,8.437093
1775859189676506054,1.024128,5.374279,8.355737
1775859189678666574,1.004985,5.302495,8.322237
1775859189680827095,1.000200,5.225924,8.298309
1775859189682987616,0.995414,5.134997,8.312666
1775859189685148085,0.990629,5.044070,8.370093
1775859189687308658,0.928415,4.977071,8.461020
1775859189689469179,0.827917,4.895715,8.585447
1775859189691629699,0.708275,4.838287,8.757730
1775859189693790220,0.526421,4.823930,8.944371
1775859189695950741,0.334995,4.838287,9.135797
1775859189698111262,0.157926,4.838287,9.284152
1775859189700271783,0.052642,4.823930,9.375079
1775859189702432304,-0.043071,4.809574,9.475577
1775859189704592772,-0.100499,4.809574,9.547362
1775859189706753293,-0.110070,4.814359,9.585648
1775859189708913814,-0.090927,4.843073,9.657433
1775859189711074335,-0.052642,4.905286,9.690931
1775859189713234856,-0.009571,4.962714,9.705289
1775859189715395376,0.057428,5.024928,9.676575
1775859189717555897,0.100499,5.063213,9.638289
1775859189719716418,0.215354,5.111069,9.576077
1775859189721876939,0.344566,5.206782,9.566504
1775859189724037460,0.449851,5.316852,9.590433
1775859189726197981,0.564706,5.402994,9.600004
1775859189728358501,0.679562,5.474778,9.643075
1775859189730519022,0.741775,5.498706,9.662218
1775859189732679543,0.794417,5.479564,9.710074
1775859189734840064,0.789631,5.446064,9.724431
1775859189737000585,0.741775,5.383851,9.743574
1775859189739161106,0.674776,5.316852,9.777073
1775859189741321626,0.622134,5.278567,9.796216
1775859189743482147,0.550349,5.216353,9.772287
1775859189745642668,0.454636,5.192425,9.719646
1775859189747803189,0.320638,5.187640,9.633504
1775859189749963710,0.210568,5.192425,9.504292
1775859189752124231,0.138784,5.211568,9.332008
1775859189754284751,0.119641,5.254639,9.135797
1775859189756445272,0.119641,5.288138,8.982656
1775859189758605741,0.153141,5.374279,8.805588
1775859189760766262,0.177069,5.417350,8.642876
1775859189762926835,0.234497,5.455636,8.513663
1775859189765087304,0.277567,5.474778,8.408379
1775859189767247876,0.320638,5.455636,8.374879
1775859189769408397,0.392423,5.436493,8.379665
1775859189771568918,0.440279,5.422136,8.437093
1775859189773729387,0.512064,5.393422,8.513663
1775859189775889908,0.583849,5.335995,8.571091
1775859189778050429,0.588634,5.288138,8.647661
1775859189780210949,0.583849,5.201996,8.705089
1775859189782371470,0.540778,5.197211,8.666803
1775859189784531991,0.478565,5.264210,8.642876
1775859189786692512,0.454636,5.307281,8.580662
1775859189788853033,0.507278,5.335995,8.499306
1775859189791013554,0.550349,5.307281,8.417950
1775859189793174126,0.646062,5.288138,8.307880
1775859189795334595,0.693919,5.288138,8.173882
1775859189797495116,0.770489,5.331209,8.030313
1775859189799655637,0.794417,5.412565,7.920243
1775859189801816158,0.789631,5.517849,7.795816
1775859189803976679,0.751346,5.623133,7.676175
1775859189806137199,0.693919,5.757131,7.566105
1775859189808297720,0.631705,5.895915,7.499106
1775859189810458241,0.564706,6.010770,7.436893
1775859189812618762,0.507278,6.111269,7.374680
1775859189814779283,0.430708,6.178268,7.355537
1775859189816939804,0.354138,6.240481,7.427321
1775859189819100324,0.263211,6.273981,7.542177
1775859189821260845,0.172283,6.297909,7.690532
1775859189823421366,0.148355,6.312266,7.925029
1775859189825581887,0.129212,6.321837,8.130812
1775859189827742408,0.143569,6.288338,8.360522
1775859189829902929,0.157926,6.254838,8.571091
1775859189832063449,0.239282,6.020342,8.824730
1775859189834223970,0.421137,5.828916,9.078369
1775859189836384491,0.684347,5.938986,9.260223
1775859189838545012,0.923630,6.058627,9.231510
1775859189840705533,1.129412,6.173482,9.102298
1775859189842866001,1.272982,6.250053,8.901300
1775859189845026522,1.335195,6.312266,8.676374
1775859189847187043,1.325624,6.350551,8.432307
1775859189849347564,1.220340,6.293124,8.226524
1775859189851508085,1.067199,6.230910,7.992028
1775859189853668606,0.890130,6.168697,7.834101
1775859189855829126,0.775275,6.111269,7.695318
1775859189857989647,0.679562,6.058627,7.613962
1775859189860151574,0.636491,6.058627,7.570891
1775859189862313814,0.631705,6.082555,7.561319
1775859189864471210,0.679562,6.020342,7.542177
1775859189866631731,0.741775,5.910272,7.604390
1775859189868792251,0.823131,5.804988,7.647461
1775859189870952772,0.894916,5.699704,7.704889
1775859189873113293,0.985843,5.623133,7.733603
1775859189875273814,1.024128,5.536992,7.800602
1775859189877434335,1.067199,5.436493,7.834101
1775859189879594856,1.071985,5.412565,7.858029
1775859189881755376,1.057628,5.379066,7.862815
1775859189883915897,1.033699,5.345566,7.891529
1775859189886076418,1.019342,5.292923,7.862815
1775859189888236939,1.009771,5.225924,7.867601
1775859189890397460,1.033699,5.120640,7.858029
1775859189892557929,1.024128,5.067998,7.843673
1775859189894718501,1.033699,4.986642,7.771888
1775859189896879022,1.004985,4.953143,7.704889
1775859189899039491,1.033699,4.914858,7.542177
1775859189901200012,1.062413,4.895715,7.403393
1775859189903360585,1.124627,4.895715,7.188039
1775859189905521106,1.191626,4.871787,7.006185
1775859189907681574,1.277767,4.876573,6.714260
1775859189909842147,1.373480,4.914858,6.417551
1775859189912002616,1.497907,4.953143,6.101698
1775859189914163137,1.603191,5.048856,5.867201
1775859189916323710,1.674976,5.101498,5.651847
1775859189918484179,1.718047,5.163711,5.503492
1775859189920644699,1.727618,5.230711,5.422136
1775859189922805220,1.713261,5.292923,5.393422
1775859189924965793,1.679762,5.316852,5.412565
1775859189927126262,1.598405,5.350351,5.460421
1775859189929286783,1.512264,5.355137,5.565705
1775859189931447304,1.387837,5.326423,5.699704
1775859189933607824,1.282553,5.240282,5.862415
1775859189935768345,1.158126,5.087141,6.029913
1775859189937928866,1.076770,4.929214,6.192625
1775859189940089387,1.004985,4.776074,6.374479
1775859189942249908,0.976272,4.675575,6.518049
1775859189944410429,0.961915,4.536792,6.637690
1775859189946570949,0.966700,4.445865,6.733403
1775859189948731470,1.004985,4.388437,6.776474
1775859189950891991,1.019342,4.340580,6.805188
1775859189953052512,1.057628,4.340580,6.742974
1775859189955213033,1.119841,4.321438,6.647261
1775859189957373554,1.134198,4.331009,6.508478
1775859189959534074,1.158126,4.421936,6.336195
1775859189961694595,1.172483,4.469793,6.183053
1775859189963855116,1.172483,4.465007,6.058627
1775859189966015637,1.162912,4.417150,5.972486
1775859189968176158,1.138984,4.307081,5.919843
1775859189970336626,1.134198,4.216154,5.891129
1775859189972497199,1.158126,4.163511,5.871987
1775859189974657668,1.167697,4.144369,5.862415
1775859189976818241,1.191626,4.110869,5.867201
1775859189978978710,1.225125,4.120440,5.881558
1775859189981139283,1.292124,4.134798,5.891129
1775859189983299751,1.301695,4.192225,5.915058
1775859189985460272,1.292124,4.197011,5.900701
1775859189987620845,1.268196,4.153940,5.910272
1775859189989781366,1.301695,4.187439,5.938986
1775859189991941887,1.316052,4.206582,5.953343
1775859189994102356,1.335195,4.168297,5.986842
1775859189996262876,1.368695,4.158726,6.044270
1775859189998423449,1.426122,4.149155,6.139983
1775859190000583918,1.493121,4.177868,6.192625
1775859190002744439,1.540978,4.211368,6.235696
1775859190004904960,1.607977,4.230510,6.273981
1775859190007065481,1.641476,4.211368,6.264410
1775859190009226001,1.660619,4.101298,6.235696
1775859190011386522,1.670190,3.914658,6.221339
1775859190013547043,1.703690,3.771089,6.250053
1775859190015707564,1.761117,3.704089,6.331409
1775859190017868085,1.866402,3.708875,6.345766
1775859190020028606,1.966900,3.828516,6.345766
1775859190022189126,2.057827,3.948157,6.317052
1775859190024349647,2.110470,4.067799,6.273981
1775859190026510168,2.134398,4.211368,6.192625
1775859190028670689,2.120041,4.326223,6.096912
1775859190030831210,2.043471,4.259224,6.005985
1775859190032991731,1.947758,4.115655,5.953343
1775859190035152251,1.899901,3.852444,6.005985
1775859190037312772,1.880759,3.603591,6.111269
1775859190039473293,1.914258,3.464807,6.360123
1775859190041633814,1.947758,3.464807,6.671189
1775859190043794335,2.009971,3.565306,6.958328
1775859190045954856,2.062613,3.632305,7.082755
1775859190048115376,2.158326,3.632305,7.183254
1775859190050275897,2.268396,3.675375,7.197610
1775859190052436418,2.340181,3.742375,7.168897
1775859190054596939,2.397608,3.766303,7.058827
1775859190056757408,2.440679,3.670590,6.891329
1775859190058917929,2.469393,3.594020,6.690332
1775859190061078449,2.502892,3.426522,6.532406
1775859190063238970,2.560320,3.311666,6.427122
1775859190065399543,2.703890,3.627519,6.216553
1775859190067560012,2.833102,4.106084,5.962914
1775859190069720533,2.885744,4.398008,5.603991
1775859190071881054,2.866601,4.374080,5.326423
1775859190074041574,2.837888,4.240082,5.168497
1775859190076202095,2.833102,4.125226,5.125426
1775859190078362616,2.809174,4.029513,5.120640
1775859190080523137,2.833102,3.962514,5.139783
1775859190082683658,2.885744,3.914658,5.144569
1775859190084844179,2.914458,3.876373,5.163711
1775859190087004699,2.943172,3.866802,5.216353
1775859190089165220,2.991028,3.818945,5.268995
1775859190091325741,3.024528,3.771089,5.340780
1775859190093486262,3.024528,3.699304,5.393422
1775859190095646783,3.014956,3.617948,5.393422
1775859190097807304,2.995814,3.550949,5.379066
1775859190099967824,2.995814,3.483950,5.369494
1775859190102128345,2.981457,3.445665,5.355137
1775859190104288866,3.005385,3.421736,5.359923
1775859190106449335,3.038885,3.445665,5.379066
1775859190108609908,3.077170,3.469593,5.407779
1775859190110770429,3.086741,3.488735,5.479564
1775859190112930949,3.091527,3.536592,5.517849
1775859190115091470,3.086741,3.560520,5.589633
1775859190117251991,3.067599,3.598805,5.603991
1775859190119412512,3.053242,3.632305,5.651847
1775859190121573033,3.029314,3.656233,5.714060
1775859190123733554,3.019742,3.718446,5.785845
1775859190125894074,3.019742,3.737589,5.871987
1775859190128054595,3.010171,3.809374,5.996414
1775859190130215116,3.014956,3.842873,6.139983
1775859190132375637,3.019742,3.885944,6.259624
1775859190134536158,3.048456,3.914658,6.369694
1775859190136696679,3.120241,3.957729,6.489335
1775859190138857199,3.153740,3.996014,6.589834
1775859190141017668,3.182454,4.048656,6.666404
1775859190143178241,3.220739,4.082155,6.738189
1775859190145338710,3.220739,4.115655,6.771688
1775859190147499231,3.206382,4.153940,6.829116
1775859190149659804,3.182454,4.158726,6.857830
1775859190151820324,3.163311,4.187439,6.876972
1775859190153980793,3.139383,4.201797,6.862615
1775859190156141366,3.139383,4.220939,6.848258
1775859190158301887,3.148955,4.216154,6.809973
1775859190160462356,3.182454,4.240082,6.776474
1775859190162622876,3.220739,4.244867,6.762117
1775859190164783397,3.263810,4.244867,6.733403
1775859190166943918,3.311666,4.230510,6.709475
1775859190169104491,3.354737,4.201797,6.685546
1775859190171264960,3.388237,4.187439,6.685546
1775859190173425481,3.436093,4.134798,6.695118
1775859190175586001,3.474379,4.115655,6.671189
1775859190177746522,3.507878,4.072584,6.656833
1775859190179907043,3.517449,4.039084,6.613762
1775859190182067564,3.560520,4.010371,6.551548
1775859190184228085,3.589234,3.986443,6.460621
1775859190186388606,3.603591,3.996014,6.364908
1775859190188549126,3.613162,4.024728,6.345766
1775859190190709647,3.603591,4.048656,6.293124
1775859190192870168,3.584448,4.077370,6.278767
1775859190195030689,3.570091,4.101298,6.264410
1775859190197191210,3.546163,4.139583,6.264410
1775859190199351731,3.541378,4.206582,6.264410
1775859190201512251,3.560520,4.244867,6.293124
1775859190203672772,3.546163,4.311866,6.345766
1775859190205833293,3.560520,4.369294,6.384051
1775859190207993814,3.565306,4.407579,6.460621
1775859190210154335,3.541378,4.417150,6.522834
1775859190212314856,3.546163,4.388437,6.599405
1775859190214475376,3.512664,4.345366,6.623333
1775859190216635897,3.517449,4.292724,6.671189
1775859190218796418,3.512664,4.283153,6.656833
1775859190220956939,3.522235,4.254439,6.642476
1775859190223117460,3.550949,4.259224,6.608976
1775859190225277981,3.570091,4.259224,6.585048
1775859190227438501,3.594020,4.283153,6.546763
1775859190229598970,3.632305,4.297510,6.513263
1775859190231759543,3.656233,4.297510,6.470192
1775859190233920012,3.670590,4.297510,6.422336
1775859190236080585,3.708875,4.302295,6.407979
1775859190238241054,3.713661,4.340580,6.407979
1775859190240401626,3.761517,4.383651,6.422336
1775859190242562147,3.785445,4.450650,6.436693
1775859190244722616,3.790231,4.493721,6.465407
1775859190246883137,3.799802,4.551149,6.470192
1775859190249043658,3.838088,4.603791,6.489335
1775859190251204179,3.857230,4.670790,6.527620
1775859190253364699,3.890730,4.742575,6.556334
1775859190255525220,3.900301,4.828716,6.589834
1775859190257685741,3.929015,4.929214,6.671189
1775859190259846314,3.929015,5.024928,6.719046
1775859190262006783,3.948157,5.149354,6.786045
1775859190264167304,3.972085,5.264210,6.853044
1775859190266327824,4.000800,5.402994,6.910472
1775859190268488345,4.048656,5.527421,6.905686
1775859190270648866,4.082155,5.656633,6.939186
1775859190272809387,4.115655,5.781060,6.948757
1775859190274969908,4.168297,5.910272,6.982256
1775859190277130429,4.230510,6.001199,7.010970
1775859190279290949,4.268795,6.092126,7.068398
1775859190281451470,4.316652,6.187840,7.154540
1775859190283611991,4.359723,6.230910,7.226325
1775859190285772512,4.426722,6.273981,7.317252
1775859190287933033,4.493721,6.345766,7.422536
1775859190290093554,4.575077,6.388836,7.532606
1775859190292254074,4.632504,6.427122,7.676175
1775859190294414595,4.685147,6.441479,7.829316
1775859190296575116,4.709075,6.427122,7.968100
1775859190298735637,4.761717,6.403193,8.106883
1775859190300896158,4.766503,6.355337,8.207381
1775859190303056679,4.761717,6.302695,8.279166
1775859190305217199,4.809574,6.259624,8.298309
1775859190307377720,4.828716,6.235696,8.293523
1775859190309538241,4.895715,6.240481,8.298309
1775859190311698710,4.943572,6.235696,8.240881
1775859190313859231,4.991428,6.235696,8.159525
1775859190316019804,5.039285,6.245267,8.092526
1775859190318180324,5.077569,6.216553,7.992028
1775859190320340845,5.082355,6.187840,7.881958
1775859190322501366,5.096712,6.183053,7.771888
1775859190324661835,5.111069,6.159125,7.613962
1775859190326822408,5.130212,6.120841,7.503892
1775859190328982929,5.134997,6.087341,7.389036
1775859190331143449,5.154140,6.044270,7.298109
1775859190333303970,5.149354,6.025127,7.207182
1775859190335464439,5.178068,5.991628,7.125826
1775859190337625012,5.206782,5.943771,7.058827
1775859190339785481,5.230711,5.910272,6.972685
1775859190341946054,5.245067,5.876772,6.920043
1775859190344106522,5.288138,5.833702,6.862615
1775859190346267043,5.335995,5.800202,6.752545
1775859190348427564,5.374279,5.761917,6.685546
1775859190350588137,5.441278,5.733203,6.589834
1775859190352748606,5.484350,5.709275,6.522834
1775859190354909179,5.532206,5.685347,6.470192
1775859190357069647,5.580062,5.666204,6.403193
1775859190359230168,5.637490,5.666204,6.369694
1775859190361390689,5.694918,5.675776,6.374479
1775859190363551210,5.781060,5.656633,6.345766
1775859190365711731,5.867201,5.661418,6.307480
1775859190367872251,5.948557,5.656633,6.312266
1775859190370032772,6.020342,5.651847,6.302695
1775859190372193293,6.087341,5.670990,6.297909
1775859190374353866,6.168697,5.714060,6.254838
1775859190376514335,6.264410,5.761917,6.202196
1775859190378674856,6.336195,5.809773,6.163911
1775859190380835376,6.417551,5.876772,6.120841
1775859190382995897,6.479764,5.929415,6.058627
1775859190385156418,6.508478,5.977271,6.025127
1775859190387316939,6.532406,6.029913,5.982057
1775859190389477460,6.599405,6.087341,5.958128
1775859190391637981,6.637690,6.139983,5.958128
1775859190393798501,6.671189,6.202196,5.962914
1775859190395959022,6.719046,6.278767,5.996414
1775859190398119543,6.733403,6.321837,6.072984
1775859190400280064,6.704689,6.364908,6.178268
1775859190402440585,6.699903,6.398408,6.278767
1775859190404601106,6.666404,6.431907,6.441479
1775859190406761626,6.661618,6.470192,6.565906
1775859190408922147,6.623333,6.494121,6.699903
1775859190411082668,6.580262,6.522834,6.809973
1775859190413243189,6.551548,6.541977,6.896115
1775859190415403710,6.522834,6.561120,6.953543
1775859190417564231,6.494121,6.556334,6.967899
1775859190419724751,6.455835,6.589834,6.963114
1775859190421885272,6.422336,6.585048,6.943971
1775859190424045793,6.364908,6.575477,6.924829
1775859190426206314,6.345766,6.551548,6.843473
1775859190428366835,6.297909,6.556334,6.747760
1775859190430527304,6.269196,6.532406,6.628119
1775859190432687876,6.250053,6.522834,6.537191
1775859190434848397,6.221339,6.513263,6.417551
1775859190437008918,6.206982,6.484550,6.369694
1775859190439169387,6.163911,6.446264,6.283552
1775859190441329960,6.154340,6.403193,6.206982
1775859190443490481,6.139983,6.360123,6.149554
1775859190445651001,6.139983,6.355337,6.068198
1775859190447811470,6.139983,6.379265,6.025127
1775859190449972043,6.125626,6.374479,5.953343
1775859190452132512,6.139983,6.388836,5.905486
1775859190454293033,6.144769,6.403193,5.876772
1775859190456453606,6.149554,6.422336,5.848059
1775859190458614126,6.183053,6.427122,5.809773
1775859190460774595,6.197411,6.455835,5.766703
1775859190462935116,6.221339,6.484550,5.718846
1775859190465095637,6.254838,6.494121,5.670990
1775859190467256210,6.283552,6.494121,5.685347
1775859190469416679,6.307480,6.498906,5.685347
1775859190471577251,6.317052,6.484550,5.694918
1775859190473737720,6.355337,6.479764,5.742774
1775859190475898293,6.407979,6.508478,5.785845
1775859190478058762,6.451050,6.503692,5.809773
1775859190480219283,6.513263,6.532406,5.886343
1775859190482379804,6.575477,6.580262,5.905486
1775859190484540376,6.647261,6.618547,5.948557
1775859190486700845,6.728617,6.652047,5.972486
1775859190488861366,6.809973,6.690332,5.967700
1775859190491021887,6.900900,6.742974,6.005985
1775859190493182408,6.967899,6.786045,6.005985
1775859190495342929,7.039684,6.809973,6.010770
1775859190497503449,7.121040,6.805188,6.015556
1775859190499663970,7.207182,6.786045,6.001199
1775859190501824491,7.245467,6.781260,5.982057
1775859190503985012,7.312466,6.771688,6.025127
1775859190506145533,7.393822,6.762117,6.025127
1775859190508306054,7.470392,6.781260,6.053841
1775859190510466574,7.551748,6.790831,6.087341
1775859190512627095,7.613962,6.795616,6.092126
1775859190514787616,7.671390,6.795616,6.101698
1775859190516948137,7.709674,6.809973,6.077769
1775859190519108658,7.724031,6.819544,6.053841
1775859190521269179,7.728817,6.838687,6.001199
1775859190523429699,7.738389,6.857830,5.953343
1775859190525590220,7.747960,6.843473,5.905486
1775859190527750741,7.757531,6.848258,5.871987
1775859190529911262,7.767102,6.824330,5.828916
1775859190532071783,7.776674,6.771688,5.781060
1775859190534232304,7.757531,6.738189,5.728417
1775859190536392824,7.771888,6.699903,5.690132
1775859190538553345,7.771888,6.642476,5.647061
1775859190540713866,7.791030,6.604190,5.599205
1775859190542874387,7.786245,6.570691,5.546563
1775859190545034908,7.791030,6.532406,5.474778
1775859190547195429,7.814959,6.498906,5.422136
1775859190549355949,7.829316,6.479764,5.379066
1775859190551516470,7.838887,6.479764,5.340780
1775859190553676991,7.858029,6.470192,5.292923
1775859190555837512,7.872386,6.484550,5.273781
1775859190557998033,7.877172,6.484550,5.268995
1775859190560158554,7.877172,6.498906,5.264210
1775859190562319074,7.886744,6.513263,5.273781
1775859190564479595,7.905886,6.503692,5.316852
1775859190566640064,7.905886,6.527620,5.379066
1775859190568800637,7.925029,6.541977,5.426922
1775859190570961158,7.948957,6.585048,5.455636
1775859190573121679,7.958528,6.599405,5.469993
1775859190575282147,7.934600,6.642476,5.498706
1775859190577442720,7.896315,6.652047,5.493921
1775859190579603241,7.877172,6.680761,5.489135
1775859190581763710,7.881958,6.695118,5.450850
1775859190583924283,7.867601,6.738189,5.369494
1775859190586084751,7.862815,6.776474,5.307281
1775859190588245324,7.858029,6.848258,5.268995
1775859190590405793,7.824530,6.891329,5.254639
1775859190592566314,7.800602,6.905686,5.249853
1775859190594726835,7.747960,6.910472,5.278567
1775859190596887408,7.695318,6.910472,5.292923
1775859190599047929,7.642675,6.891329,5.331209
1775859190601208397,7.609176,6.881758,5.321638
1775859190603368918,7.556534,6.862615,5.345566
1775859190605529491,7.503892,6.829116,5.379066
1775859190607690012,7.475178,6.786045,5.374279
1775859190609850533,7.441679,6.752545,5.388637
1775859190612011001,7.417750,6.719046,5.402994
1775859190614171522,7.389036,6.680761,5.417350
1775859190616332095,7.326823,6.652047,5.422136
1775859190618492616,7.288538,6.613762,5.426922
1775859190620653085,7.231110,6.570691,5.431707
1775859190622813606,7.173682,6.527620,5.431707
1775859190624974126,7.144969,6.470192,5.417350
1775859190627134647,7.087541,6.427122,5.374279
1775859190629295168,7.030113,6.398408,5.350351
1775859190631455689,6.967899,6.369694,5.331209
1775859190633616210,6.915257,6.355337,5.312066
1775859190635776731,6.876972,6.331409,5.292923
1775859190637937251,6.814759,6.312266,5.273781
1775859190640097772,6.781260,6.283552,5.187640
1775859190642258293,6.747760,6.259624,5.134997
1775859190644418814,6.742974,6.240481,5.096712
1775859190646579335,6.704689,6.216553,5.058427
1775859190648739856,6.704689,6.206982,4.986642
1775859190650900376,6.704689,6.187840,4.895715
1775859190653060897,6.714260,6.173482,4.819145
1775859190655221418,6.714260,6.168697,4.747360
1775859190657381939,6.714260,6.159125,4.675575
1775859190659542460,6.699903,6.144769,4.637290
1775859190661702981,6.690332,6.120841,4.594220
1775859190663863501,6.675975,6.096912,4.536792
1775859190666024022,6.666404,6.068198,4.484149
1775859190668184543,6.680761,6.068198,4.460221
1775859190670345064,6.704689,6.053841,4.431508
1775859190672505585,6.728617,6.049056,4.393222
1775859190674666106,6.728617,6.029913,4.350152
1775859190676826626,6.738189,6.010770,4.321438
1775859190678987147,6.728617,5.991628,4.292724
1775859190681147668,6.747760,5.982057,4.283153
1775859190683308189,6.757331,5.967700,4.264010
1775859190685468710,6.752545,5.962914,4.278367
1775859190687629231,6.762117,5.934200,4.264010
1775859190689789751,6.786045,5.905486,4.259224
1775859190691950272,6.805188,5.876772,4.182654
1775859190694110793,6.872187,5.862415,4.000800
1775859190696271314,6.929615,5.857630,3.919444
1775859190698431835,6.991828,5.867201,3.862016
1775859190700592356,7.044470,5.862415,3.828516
1775859190702752876,7.101898,5.848059,3.828516
1775859190704913397,7.130611,5.828916,3.775874
1775859190707073918,7.178468,5.800202,3.780660
1775859190709234439,7.202396,5.752346,3.823730
1775859190711394960,7.245467,5.718846,3.924229
1775859190713555481,7.259824,5.656633,3.957729
1775859190715716001,7.293324,5.613562,3.895515
1775859190717876522,7.322037,5.556134,3.747160
1775859190720037043,7.360322,5.522635,3.656233
1775859190722197564,7.360322,5.474778,3.641876
1775859190724358085,7.355537,5.426922,3.680161
1775859190726518606,7.331609,5.369494,3.795017
1775859190728679126,7.302895,5.307281,3.967300
1775859190730839647,7.274181,5.278567,4.211368
1775859190733000168,7.278966,5.235496,4.536792
1775859190735160689,7.269395,5.225924,4.914858
1775859190737321210,7.307680,5.182854,5.331209
1775859190739481731,7.345965,5.168497,5.733203
1775859190741642251,7.389036,5.158926,6.049056
1775859190743802772,7.436893,5.130212,6.221339
1775859190745963241,7.513463,5.154140,6.321837
1775859190748123814,7.575676,5.182854,6.336195
1775859190750284335,7.671390,5.216353,6.245267
1775859190752444856,7.776674,5.254639,6.087341
1775859190754605324,7.891529,5.316852,5.867201
1775859190756765897,8.006385,5.359923,5.575277
1775859190758926418,8.130812,5.393422,5.297709
1775859190761086939,8.279166,5.436493,4.986642
1775859190763247460,8.389236,5.474778,4.651647
1775859190765407981,8.532805,5.508278,4.326223
1775859190767568501,8.618947,5.517849,4.063013
1775859190769728970,8.714660,5.508278,3.814159
1775859190771889543,8.776874,5.489135,3.589234
1775859190774050064,8.815159,5.460421,3.345166
1775859190776210533,8.839087,5.431707,3.172883
1775859190778371106,8.848659,5.374279,2.995814
1775859190780531626,8.858230,5.316852,2.852245
1775859190782692095,8.877372,5.273781,2.718246
1775859190784852668,8.886943,5.182854,2.646462
1775859190787013137,8.891729,5.130212,2.612962
1775859190789173658,8.886943,5.072784,2.632105
1775859190791334231,8.901300,5.010571,2.660819
1775859190793494699,8.872586,4.929214,2.684747
1775859190795655220,8.848659,4.867001,2.708675
1775859190797815793,8.829515,4.823930,2.761317
1775859190799976314,8.815159,4.766503,2.833102
1775859190802136835,8.800801,4.728218,2.880959
1775859190804297304,8.776874,4.699504,2.909672
1775859190806457876,8.748159,4.680361,2.943172
1775859190808618345,8.748159,4.651647,2.967100
1775859190810778918,8.733803,4.627719,2.967100
1775859190812939387,8.733803,4.608576,3.043670
1775859190815099908,8.724232,4.555934,3.115455
1775859190817260429,8.719446,4.527220,3.134598
1775859190819421001,8.719446,4.498507,3.158526
1775859190821581470,8.681161,4.517649,3.153740
1775859190823741991,8.647661,4.551149,3.110669
1775859190825902564,8.595019,4.570291,3.067599
1775859190828063085,8.561520,4.632504,3.058027
1775859190830223554,8.508878,4.661219,3.034099
1775859190832384126,8.461020,4.704289,3.000600
1775859190834544595,8.422736,4.718646,2.947958
1775859190836705116,8.374879,4.728218,2.904887
1775859190838865637,8.370093,4.747360,2.833102
1775859190841026158,8.360522,4.776074,2.766103
1775859190843186731,8.360522,4.785645,2.689533
1775859190845347251,8.350951,4.833502,2.608177
1775859190847507772,8.374879,4.886144,2.493321
1775859190849668293,8.370093,4.934000,2.431108
1775859190851828762,8.360522,5.005785,2.368894
1775859190853989283,8.355737,5.053641,2.321038
1775859190856149804,8.336594,5.096712,2.344966
1775859190858310324,8.307880,5.096712,2.383251
1775859190860470845,8.283952,5.077569,2.474179
1775859190862631366,8.240881,5.044070,2.560320
1775859190864791887,8.164310,5.010571,2.646462
1775859190866952408,8.106883,4.967500,2.756532
1775859190869112929,8.025527,4.953143,2.823531
1775859190871273449,7.972885,4.914858,2.909672
1775859190873433970,7.896315,4.914858,3.000600
1775859190875594491,7.848458,4.900501,3.077170
1775859190877755012,7.819745,4.914858,3.158526
1775859190879915533,7.786245,4.929214,3.220739
1775859190882076054,7.771888,4.938786,3.316452
1775859190884236574,7.743174,4.919643,3.431308
1775859190886397147,7.724031,4.910072,3.546163
1775859190888557616,7.695318,4.886144,3.622734
1775859190890718137,7.661818,4.862216,3.713661
1775859190892878658,7.628319,4.838287,3.785445
1775859190895039179,7.542177,4.800002,3.814159
1775859190897199699,7.456035,4.771288,3.814159
1775859190899360220,7.331609,4.737789,3.751946
1775859190901520741,7.211967,4.747360,3.713661
1775859190903681262,7.111469,4.737789,3.656233
1775859190905841783,7.015756,4.718646,3.637090
1775859190908002304,6.896115,4.704289,3.641876
1775859190910162824,6.786045,4.694718,3.608377
1775859190912323345,6.690332,4.689932,3.584448
1775859190914483866,6.599405,4.713861,3.570091
1775859190916644387,6.522834,4.723432,3.546163
1775859190918804908,6.460621,4.776074,3.503092
1775859190920965429,6.455835,4.843073,3.412165
1775859190923125949,6.431907,4.876573,3.345166
1775859190925286470,6.460621,4.919643,3.220739
1775859190927446991,6.489335,4.953143,3.101098
1775859190929607512,6.513263,4.991428,3.000600
1775859190931768033,6.518049,5.015356,2.895315
1775859190933928554,6.494121,5.029713,2.761317
1775859190936089074,6.489335,5.034499,2.608177
1775859190938249595,6.455835,5.029713,2.459822
1775859190940410116,6.379265,5.010571,2.402394
1775859190942570637,6.302695,5.015356,2.316252
1775859190944731158,6.163911,4.972285,2.268396
1775859190946891679,6.034698,4.953143,2.263610
1775859190949052199,5.900701,4.919643,2.244468
1775859190951212720,5.771488,4.886144,2.230111
1775859190953373241,5.651847,4.871787,2.225325
1775859190955533762,5.589633,4.871787,2.239682
1775859190957694283,5.556134,4.900501,2.263610
1775859190959854804,5.580062,4.924429,2.254039
1775859190962015324,5.632705,4.934000,2.273181
1775859190964175845,5.699704,4.934000,2.234896
1775859190966336366,5.785845,4.929214,2.225325
1775859190968496887,5.833702,4.895715,2.167897
1775859190970657408,5.900701,4.862216,2.096113
1775859190972817929,5.943771,4.843073,2.009971
1775859190974978449,5.991628,4.823930,1.919044
1775859190977138970,6.044270,4.819145,1.832902
1775859190979299491,6.058627,4.819145,1.732404
1775859190981460012,6.063413,4.852644,1.603191
1775859190983620533,6.029913,4.876573,1.469193
1775859190985781054,6.001199,4.938786,1.354338
1775859190987941574,5.953343,4.991428,1.244268
1775859190990102095,5.919843,5.029713,1.186840
1775859190992262616,5.881558,5.067998,1.167697
1775859190994423137,5.838487,5.101498,1.162912
1775859190996583658,5.766703,5.144569,1.167697
1775859190998744179,5.709275,5.163711,1.177269
1775859191000904699,5.661418,5.216353,1.172483
1775859191003065220,5.666204,5.273781,1.158126
1775859191005225741,5.680561,5.374279,1.162912
1775859191007386262,5.776274,5.474778,1.177269
1775859191009546783,5.915058,5.570491,1.172483
1775859191011707304,6.106483,5.685347,1.263410
1775859191013867824,6.479764,5.675776,1.579263
1775859191016028345,6.833901,5.761917,1.746760
1775859191018188866,7.240681,5.785845,1.957329
1775859191020349387,7.561319,5.785845,1.990828
1775859191022509908,7.814959,5.733203,2.072184
1775859191024670429,8.049456,5.608776,2.153540
1775859191026830949,8.269595,5.508278,2.258825
1775859191028991470,8.451449,5.388637,2.359323
1775859191031151991,8.575876,5.331209,2.445465
1775859191033312512,8.690732,5.254639,2.517249
1775859191035473033,8.752945,5.259424,2.622534
1775859191037633554,8.786445,5.312066,2.593820
1775859191039794074,8.762517,5.316852,2.699104
1775859191041954595,8.695518,5.345566,2.828316
1775859191044115116,8.590233,5.422136,2.909672
1775859191046275637,8.456235,5.536992,2.952743
1775859191048436158,8.298309,5.623133,3.014956
1775859191050596679,8.130812,5.699704,2.995814
1775859191052757199,7.963314,5.824131,2.904887
1775859191054917720,7.791030,5.972486,2.794817
1775859191057078241,7.618747,6.120841,2.718246
1775859191059238762,7.475178,6.230910,2.665604
1775859191061399283,7.384251,6.293124,2.589034
1775859191063559804,7.317252,6.355337,2.569891
1775859191065720324,7.231110,6.393622,2.488536
1775859191067880845,7.154540,6.470192,2.354537
1775859191070041366,7.121040,6.503692,2.335395
1775859191072201887,7.077970,6.494121,2.392823
1775859191074362408,7.039684,6.470192,2.263610
1775859191076522929,6.996614,6.427122,2.110470
1775859191078683449,6.953543,6.369694,2.033899
1775859191080843970,6.982256,6.302695,1.942972
1775859191083004491,7.001399,6.173482,1.919044
1775859191085165012,6.982256,6.025127,1.832902
1775859191087325533,6.953543,5.958128,1.607977
1775859191089486054,6.924829,5.862415,1.584049
1775859191091646574,6.910472,5.737988,1.655833
1775859191093807095,6.872187,5.675776,1.598405
1775859191095967616,6.819544,5.570491,1.665405
1775859191098128137,6.719046,5.446064,1.727618
1775859191100288658,6.623333,5.340780,1.761117
1775859191102449179,6.565906,5.254639,1.957329
1775859191104609699,6.498906,5.173283,2.191826
1775859191106770220,6.412765,5.096712,2.292324
1775859191108930741,6.321837,5.034499,2.311467
1775859191111091262,6.202196,4.967500,2.297110
1775859191113251783,6.120841,4.991428,2.244468
1775859191115412304,6.010770,5.048856,2.167897
1775859191117572824,5.967700,5.072784,2.215754
1775859191119733345,5.929415,5.000999,2.445465
1775859191121893866,5.924629,4.924429,2.589034
1775859191124054387,5.910272,4.886144,2.699104
1775859191126214908,5.852844,4.910072,2.670390
1775859191128375429,5.733203,5.053641,2.608177
1775859191130535949,5.608776,5.417350,2.703890
1775859191132696470,5.331209,6.120841,3.206382
1775859191134856991,4.699504,7.503892,5.355137
1775859191137017512,4.728218,7.905886,4.733003
1775859191139178033,5.407779,7.556534,1.416551
1775859191141338554,6.240481,7.331609,-0.698704
1775859191143499074,7.025327,7.441679,-1.450050
1775859191145659595,7.671390,7.537391,-1.593620
1775859191147820116,8.126026,7.599605,-1.689333
1775859191149980637,8.336594,7.570891,-1.885544
1775859191152141158,8.365308,7.460821,-2.067399
1775859191154301679,8.322237,7.326823,-2.029114
1775859191156462199,8.197810,7.197610,-1.928615
1775859191158622720,8.011170,7.058827,-1.698904
1775859191160783241,7.814959,7.025327,-1.646262
1775859191162943762,7.633104,7.125826,-1.804188
1775859191165104283,7.398608,7.283752,-2.024328
1775859191167264804,7.144969,7.460821,-2.215754
1775859191169425324,6.900900,7.671390,-2.344966
1775859191171585845,6.699903,7.877172,-2.416751
1775859191173746366,6.484550,8.092526,-2.435894
1775859191175906887,6.340980,8.274381,-2.478964
1775859191178067408,6.235696,8.432307,-2.502892
1775859191180227929,6.135197,8.614161,-2.421536
1775859191182388449,6.034698,8.719446,-2.230111
1775859191184548970,6.015556,8.834301,-1.899901
1775859191186709491,5.982057,8.915657,-1.383052
1775859191188870012,6.010770,8.915657,-0.976272
1775859191191030533,6.072984,8.848659,-0.545564
1775859191193191054,6.216553,8.776874,0.004786
1775859191195351574,6.422336,8.662018,0.531207
1775859191197512095,6.723832,8.642876,0.167498
1775859191199672616,6.833901,8.561520,0.851845
1775859191201833137,6.604190,8.264810,1.818545
1775859191203993658,6.489335,7.934600,2.368894
1775859191206154179,6.407979,7.666604,2.488536
1775859191208314699,6.312266,7.451250,2.421536
1775859191210475220,6.187840,7.322037,2.445465
1775859191212635741,6.072984,7.183254,2.517249
1775859191214796262,6.005985,7.159325,2.560320
1775859191216956783,5.929415,7.173682,2.172683
1775859191219117304,5.915058,7.293324,1.718047
1775859191221277824,5.871987,7.475178,1.330409
1775859191223438345,5.800202,7.685746,1.483550
1775859191225598866,5.603991,7.743174,1.339981
1775859191227759387,5.594419,7.891529,2.134398
1775859191229919908,5.450850,7.939385,3.215954
1775859191232080429,5.283352,7.795816,3.713661
1775859191234240949,5.082355,7.489535,3.675375
1775859191236401470,4.953143,7.116254,3.340380
1775859191238561991,4.905286,6.829116,2.928815
1775859191240722512,4.823930,6.695118,2.775674
1775859191242883033,4.833502,6.618547,2.632105
1775859191245043554,4.838287,6.565906,2.411965
1775859191247204074,4.843073,6.551548,2.268396
1775859191249364595,4.823930,6.508478,2.033899
1775859191251525116,4.838287,6.532406,1.765903
1775859191253685637,4.823930,6.608976,1.421337
1775859191255846158,4.809574,6.723832,1.182054
1775859191258006679,4.728218,6.848258,0.928415
1775859191260167199,4.608576,6.910472,0.775275
1775859191262327720,4.450650,6.872187,0.679562
1775859191264488241,4.268795,6.733403,0.669990
1775859191266648762,4.115655,6.518049,0.751346
1775859191268809283,3.996014,6.312266,0.789631
1775859191270969804,3.905087,6.178268,0.799203
1775859191273130324,3.828516,6.092126,0.961915
1775859191275290845,3.713661,6.058627,1.129412
1775859191277451366,3.594020,5.972486,1.129412
1775859191279611887,3.440879,5.814559,1.081556
1775859191281772408,3.282953,5.651847,1.000200
1775859191283932929,3.158526,5.489135,0.837488
1775859191286093449,3.043670,5.364708,0.708275
1775859191288253970,2.981457,5.407779,0.464208
1775859191290414491,2.924029,5.527421,0.153141
1775859191292575012,2.833102,5.627919,-0.267996
1775859191294735533,2.723032,5.680561,-1.024128
1775859191296896054,2.636891,5.742774,-2.641676
1775859191299056574,2.335395,5.551349,-6.723832
1775859191301217095,2.225325,5.613562,-10.001999
1775859191303377616,2.416751,5.565705,-8.671589
1775859191305538137,2.330609,4.900501,-7.125826
1775859191307698658,2.167897,4.173083,-5.895915
1775859191309859179,1.493121,3.129812,-5.785845
1775859191312019699,0.885344,1.957329,-6.029913
1775859191314180220,1.009771,1.517050,-4.699504
1775859191316340741,0.914058,1.454836,-3.163311
1775859191318501262,1.091127,3.005385,-0.899701
1775859191320661783,0.880559,3.986443,1.186840
1775859191322822304,0.564706,4.421936,2.933601
1775859191324982824,0.607777,5.130212,4.627719
1775859191327143345,0.890130,6.015556,6.307480
1775859191329303918,1.272982,6.838687,8.135597
1775859191331464387,1.785046,7.647461,9.523434
1775859191333624908,2.344966,8.494520,10.581061
1775859191335785429,3.010171,9.633504,11.447264
1775859191337945949,3.646662,10.834701,11.820544
1775859191340106470,4.149155,11.791830,11.504691
1775859191342266991,4.455436,12.418750,10.676775
1775859191344427512,4.589434,12.638889,9.087940
1775859191346588033,4.632504,12.830315,7.412964
1775859191348748554,4.603791,12.916456,5.862415
1775859191350909074,4.551149,12.978670,4.455436
1775859191353069595,4.532006,13.112668,3.464807
1775859191355230116,4.661219,13.452449,2.790031
1775859191357390637,4.819145,13.873586,2.316252
1775859191359551158,5.010571,14.242081,2.091327
1775859191361711679,5.201996,14.567504,1.962115
1775859191363872199,5.345566,14.802001,2.038685
1775859191366032720,5.513063,14.859428,2.526821
1775859191368193241,5.723632,14.715859,3.340380
1775859191370353762,5.991628,14.457435,4.173083
1775859191372514283,6.355337,14.151154,4.790431
1775859191374674804,6.719046,13.849657,5.221139
1775859191376835324,6.967899,13.375878,5.307281
1775859191378995845,6.738189,12.418750,4.177868
1775859191381156366,6.077769,11.873186,1.722832
1775859191383316887,5.790631,12.002398,0.138784
1775859191385477408,5.623133,12.131611,-0.732204
1775859191387637929,5.417350,12.045469,-0.899701
1775859191389798449,5.254639,11.820544,-0.727418
1775859191391958970,5.144569,11.590833,-0.646062
1775859191394119491,4.914858,11.308480,-0.770489
1775859191396280012,4.661219,11.251052,-0.923630
1775859191398440533,4.369294,11.246266,-1.134198
1775859191400601054,4.039084,11.341979,-1.579263
1775859191402761574,3.699304,11.504691,-1.765903
1775859191404922095,3.349952,11.653047,-1.665405
1775859191407082616,3.105884,11.839686,-1.368695
1775859191409243137,2.933601,12.040684,-1.229911
1775859191411403658,2.818745,12.256038,-0.914058
1775859191413564179,2.785246,12.543177,-0.636491
1775859191415724699,2.794817,12.796816,-0.387637
1775859191417885220,2.837888,12.997812,-0.009571
1775859191420045741,2.904887,13.141382,0.306281
1775859191422206262,2.986243,13.246666,0.526421
1775859191424366783,3.072384,13.313665,0.636491
1775859191426527304,3.211168,13.323236,0.746561
1775859191428687824,3.201597,13.189239,0.875773
1775859191430848345,3.077170,13.060026,0.890130
1775859191433008866,2.861816,12.902100,0.703490
1775859191435169387,2.708675,12.739388,0.665205
1775859191437329908,2.632105,12.552748,0.684347
1775859191439490429,2.502892,12.370893,0.665205
1775859191441650949,2.206182,12.179467,0.617348
1775859191443811470,1.808974,11.720045,0.617348
1775859191445971991,1.521835,11.255837,0.641276
1775859191448132512,1.272982,10.872986,0.693919
1775859191450293033,1.186840,10.542776,1.091127
1775859191452453554,1.320838,10.222138,1.789831
1775859191454614074,1.244268,9.834501,2.383251
1775859191456774595,0.770489,9.413364,2.732604
1775859191458935116,0.569492,9.193225,2.928815
1775859191461095637,0.875773,9.188439,3.110669
1775859191463256158,1.392623,9.250652,3.225525
1775859191465416679,1.823331,9.250652,3.230311
1775859191467577199,2.158326,9.207582,3.091527
1775859191469737720,2.675176,9.140582,2.943172
1775859191471898241,4.450650,9.403793,2.416751
1775859191474058762,5.666204,9.437292,2.005185
1775859191476219283,5.393422,9.269794,1.488336
1775859191478379804,4.828716,9.150154,1.019342
1775859191480540324,4.153940,9.269794,0.526421
1775859191482700845,3.665804,9.422935,0.502493
1775859191484861366,3.747160,9.408579,0.157926
1775859191487021887,4.168297,9.284152,0.368495
1775859191489182408,4.584648,9.121440,0.559920
1775859191491342929,5.168497,8.767303,0.803988
1775859191493503449,5.642276,8.212168,1.048056
1775859191495663970,5.852844,7.546963,1.186840
1775859191497824491,5.986842,6.967899,0.990629
1775859191499985012,5.804988,6.594619,0.655633
1775859191502145533,5.560920,6.455835,0.550349
1775859191504306054,5.546563,6.589834,0.066999
1775859191506466626,5.513063,6.723832,-0.148355
1775859191508627147,5.455636,6.867401,-0.488136
1775859191510787616,5.240282,7.068398,-0.263211
1775859191512948137,4.819145,7.613962,0.401994
1775859191515108658,4.283153,7.733603,1.445265
1775859191517269179,3.991228,7.791030,2.880959
1775859191519429699,3.522235,7.905886,3.881158
1775859191521590220,3.105884,8.082955,3.833302
1775859191523750741,2.684747,8.207381,3.919444
1775859191525911314,2.167897,8.264810,4.378865
1775859191528071783,1.785046,8.274381,4.264010
1775859191530232304,1.411765,8.236095,4.115655
1775859191532392824,1.052842,8.054241,3.761517
1775859191534553345,0.713061,7.814959,3.378666
1775859191536713866,0.425922,7.728817,3.029314
1775859191538874387,0.358923,8.097312,3.378666
1775859191541034908,0.334995,8.604590,3.857230
1775859191543195429,0.401994,9.087940,4.278367
1775859191545356001,0.617348,9.499506,4.618148
1775859191547516470,0.827917,9.834501,4.733003
1775859191549676991,1.091127,10.097712,4.584648
1775859191551837512,1.306481,10.236495,4.230510
1775859191553998033,1.430908,10.274780,3.665804
1775859191556158554,1.555335,10.217353,3.101098
1775859191558319074,1.679762,10.001999,2.713461
1775859191560479595,1.919044,9.690931,2.378466
1775859191562640116,2.268396,9.480363,2.029114
1775859191564800637,2.531606,9.341579,1.689333
1775859191566961158,2.689533,9.231510,1.373480
1775859191569121679,2.746960,9.154940,1.138984
1775859191571282199,2.732604,9.126225,1.028914
1775859191573442720,2.679961,9.087940,0.985843
1775859191575603241,2.675176,9.068798,1.009771
1775859191577763762,2.670390,9.054440,1.234697
1775859191579924335,2.813959,9.140582,1.378266
1775859191582084856,2.761317,9.236296,1.000200
1775859191584245324,2.569891,9.217153,0.799203
1775859191586405845,2.383251,9.164511,0.842274
1775859191588566366,2.306681,9.121440,1.033699
1775859191590726887,2.244468,9.121440,1.234697
1775859191592887460,2.172683,9.126225,1.430908
1775859191595047981,2.076970,9.188439,1.574477
1775859191597208501,1.957329,9.279366,1.698904
1775859191599368970,1.852045,9.351151,1.780260
1775859191601529543,1.789831,9.399008,1.837688
1775859191603690012,1.689333,9.442079,1.837688
1775859191605850533,1.593620,9.480363,1.856830
1775859191608011106,1.536192,9.489935,1.885544
1775859191610171626,1.593620,9.518648,1.928615
1775859191612332147,1.718047,9.547362,1.904687
1775859191614492616,1.875973,9.561719,1.847259
1775859191616653137,2.005185,9.561719,1.751546
1775859191618813658,2.081756,9.556933,1.737189
1775859191620974231,2.100898,9.547362,1.694118
1775859191623134751,2.120041,9.499506,1.660619
1775859191625295220,2.100898,9.489935,1.636691
1775859191627455741,2.076970,9.470792,1.617548
1775859191629616262,2.057827,9.446864,1.617548
1775859191631776783,2.033899,9.461221,1.641476
1775859191633937356,1.981257,9.470792,1.679762
1775859191636097824,1.952543,9.494720,1.665405
1775859191638258397,1.942972,9.509077,1.603191
1775859191640418866,1.923829,9.533006,1.564906
1775859191642579439,1.909472,9.552148,1.502693
1775859191644739908,1.923829,9.561719,1.483550
1775859191646900481,1.962115,9.580862,1.497907
1775859191649061001,2.000400,9.633504,1.560120
1775859191651221522,2.033899,9.638289,1.574477
1775859191653381991,2.043471,9.643075,1.588834
1775859191655542564,2.048256,9.657433,1.564906
1775859191657703085,2.038685,9.647861,1.536192
1775859191659863606,2.019542,9.643075,1.507478
1775859191662024126,2.014757,9.623933,1.454836
1775859191664184647,2.009971,9.595219,1.421337
1775859191666345168,2.005185,9.561719,1.450050
1775859191668505689,2.019542,9.552148,1.488336
1775859191670666158,1.986043,9.533006,1.507478
1775859191672826731,1.947758,9.504292,1.473979
1775859191674987251,1.938186,9.475577,1.450050
1775859191677147720,1.770689,9.293723,1.464407
1775859191679308293,1.057628,8.690732,1.469193
1775859191681468814,0.191426,7.929814,1.560120
1775859191683629335,0.234497,7.661818,1.564906
1775859191685789856,1.804188,8.078169,1.406980
1775859191687950376,3.713661,8.528020,1.105484
1775859191690110897,5.111069,8.595019,0.689133
1775859191692271366,5.752346,7.886744,0.674776
1775859191694431939,5.905486,7.283752,0.224925
1775859191696592460,5.972486,6.929615,-0.287139
1775859191698752981,5.675776,6.709475,-0.478565
1775859191700913501,5.469993,5.757131,1.148555
1775859191703074022,4.699504,5.776274,1.780260
1775859191705234543,3.943372,5.862415,2.182254
1775859191707395064,3.292524,5.977271,2.876173
1775859191709555585,2.818745,6.049056,3.393023
1775859191711716106,2.426322,6.077769,3.905087
1775859191713876626,2.167897,6.029913,4.249653
1775859191716037147,2.076970,5.900701,4.264010
1775859191718197668,2.029114,5.709275,4.182654
1775859191720358189,2.100898,5.484350,3.957729
1775859191722518710,2.230111,5.187640,3.684947
1775859191724679231,2.325824,4.919643,3.397808
1775859191726839751,2.364109,4.656433,3.153740
1775859191729000272,2.378466,4.455436,2.967100
1775859191731160793,2.388037,4.287938,2.876173
1775859191733321314,2.301895,4.153940,2.732604
1775859191735481835,2.172683,4.120440,2.550749
1775859191737642356,1.990828,4.063013,2.450250
1775859191739802876,1.799403,4.039084,2.378466
1775859191741963397,1.636691,4.039084,2.297110
1775859191744123918,1.512264,4.058227,2.210968
1775859191746284439,1.373480,4.072584,1.981257
1775859191748444960,1.239482,4.110869,1.713261
1775859191750605481,1.129412,4.173083,1.512264
1775859191752766001,1.100698,4.240082,1.311267
1775859191754926522,1.143769,4.268795,1.330409
1775859191757087043,1.239482,4.364509,1.359123
1775859191759247564,1.292124,4.512864,1.383052
1775859191761408085,1.244268,4.508078,1.368695
1775859191763568606,1.105484,4.465007,1.402194
1775859191765729126,0.866202,4.656433,1.545763
1775859191767889647,0.636491,4.852644,1.875973
1775859191770050168,0.531207,4.508078,1.631905
1775859191772210689,0.411565,3.962514,1.057628
1775859191774371210,0.205783,3.522235,0.354138
1775859191776531731,-0.047856,3.316452,0.043071
1775859191778692251,-0.330210,3.354737,0.363709
1775859191780852772,-0.540778,3.751946,1.014557
1775859191783013293,-0.732204,4.383651,1.895115
1775859191785173814,-0.842274,5.115855,2.402394
1775859191787334335,-0.665205,5.776274,2.746960
1775859191789494856,-0.287139,6.446264,2.924029
1775859191791655376,0.258425,7.322037,3.168097
1775859191793815897,0.942772,8.288737,3.397808
1775859191795976418,1.378266,9.107083,3.483950
1775859191798136939,1.593620,9.595219,3.479164
1775859191800297460,1.406980,9.566504,3.110669
1775859191802457981,1.746760,9.858429,2.579463
1775859191804618501,1.804188,10.212567,2.694318
1775859191806779022,1.584049,10.423136,2.689533
1775859191808939543,1.172483,10.279566,2.603391
1775859191811100064,0.497707,9.868001,2.440679
1775859191813260585,-0.196211,9.226724,1.880759
1775859191815421106,-0.760918,8.504091,0.851845
1775859191817581626,-1.062413,8.149954,0.148355
1775859191819742147,-1.277767,8.030313,0.014357
1775859191821902668,-1.205983,8.216953,0.043071
1775859191824063189,-1.138984,8.370093,-0.019143
1775859191826223710,-1.000200,8.504091,-0.133998
1775859191828384283,-0.990629,8.475378,-0.282353
1775859191830544751,-1.071985,8.772088,0.191426
1775859191832705324,-1.301695,9.073584,0.435494
1775859191834865793,-1.536192,9.178867,0.181855
1775859191837026314,-1.670190,9.403793,-0.177069
1775859191839186835,-1.875973,9.638289,-0.239282
1775859191841347356,-1.464407,10.107283,-0.669990
1775859191843507876,-1.732404,10.183853,-0.574277
1775859191845668397,-1.899901,10.375279,-0.713061
1775859191847828918,-1.756332,11.059627,-0.564706
1775859191849989439,-1.205983,12.031113,0.071785
1775859191852149960,-0.593420,12.887743,1.138984
1775859191854310481,-0.172283,13.576876,2.282753
1775859191856471001,-0.066999,14.074583,3.340380
1775859191858631522,-0.234497,14.438292,3.689733
1775859191860792043,-0.382852,14.768501,3.445665
1775859191862952564,-0.023928,15.132211,3.211168
1775859191865113085,0.205783,15.443277,3.426522
1775859191867273606,0.665205,15.749558,3.316452
1775859191869434126,0.784846,15.926627,3.144169
1775859191871594647,0.961915,16.036697,2.976671
1775859191873755220,1.000200,16.046268,2.837888
1775859191875915689,1.009771,15.888342,3.067599
1775859191878076210,1.172483,16.199409,3.316452
1775859191880236783,1.435694,16.950756,3.617948
1775859191882397251,1.493121,17.620747,3.527021
1775859191884557824,1.363909,18.242880,2.837888
1775859191886718293,1.445265,18.711874,2.469393
1775859191888878814,1.502693,18.687944,2.081756
1775859191891039335,1.670190,18.415163,1.981257
1775859191893199856,2.172683,18.089739,2.569891
1775859191895360429,2.608177,17.721245,2.713461
1775859191897520949,2.842673,17.190039,2.541178
1775859191899681418,2.627319,17.003397,1.598405
1775859191901841939,2.239682,17.252251,1.502693
1775859191904002512,1.981257,17.601603,1.100698
1775859191906162981,1.952543,17.525034,0.488136
1775859191908323501,1.981257,17.089539,0.248854
1775859191910484074,2.167897,16.280766,-0.234497
1775859191912644543,2.225325,15.452848,-0.210568
1775859191914805116,1.861616,14.328222,-0.411565
1775859191916965637,1.239482,13.083954,-0.421137
1775859191919126158,0.306281,12.031113,-0.727418
1775859191921286679,-0.602991,11.160125,-1.028914
1775859191923447199,-1.383052,10.528419,-1.205983
1775859191925607720,-2.048256,10.083355,-1.124627
1775859191927768241,-2.636891,9.681360,-0.875773
1775859191929928762,-3.005385,9.413364,-0.622134
1775859191932089283,-3.359523,9.178867,-0.181855
1775859191934249751,-3.756732,8.762517,0.062213
1775859191936410324,-4.240082,7.489535,0.473779
1775859191938570845,-4.532006,6.628119,0.593420
1775859191940731366,-5.024928,5.307281,0.411565
1775859191942891887,-5.800202,4.934000,0.387637
1775859191945052408,-7.164111,5.436493,-8.288737
1775859191947212929,-6.029913,9.523434,-7.676175
1775859191949373449,-5.067998,10.868200,-2.526821
1775859191951533970,-3.986443,12.165111,-1.215554
1775859191953694491,-3.129812,13.275380,-0.985843
1775859191955855012,-3.182454,13.562519,0.775275
1775859191958015533,-3.010171,13.232309,1.981257
1775859191960176054,-2.622534,12.830315,2.550749
1775859191962336574,-2.335395,12.361321,2.957529
1775859191964497095,-1.990828,12.055040,3.081956
1775859191966657616,-1.383052,11.925828,2.833102
1775859191968818137,-0.957129,11.581262,2.608177
1775859191970978658,-0.727418,11.198410,2.541178
1775859191973139179,-0.526421,10.944771,2.349752
1775859191975299699,-0.291924,10.753345,2.234896
1775859191977460220,-0.373280,10.250853,2.043471
1775859191979620741,-0.354138,9.920643,1.942972
1775859191981781262,-0.382852,9.628718,1.804188
1775859191983941783,-0.459422,9.389436,1.842473
1775859191986102304,-0.459422,9.212367,1.828117
1775859191988262824,-0.334995,9.298509,2.000400
1775859191990423345,-0.296710,8.920443,1.832902
1775859191992583866,-0.138784,8.532805,1.708475
1775859191994744387,0.129212,8.331808,1.684547
1775859191996904908,0.368495,8.197810,1.579263
1775859191999065429,0.526421,8.059027,1.397408
1775859192001225949,0.669990,7.786245,1.148555
1775859192003386470,1.316052,7.523035,-0.244068
1775859192005546991,0.770489,7.527820,-0.196211
1775859192007707512,-0.052642,7.628319,0.378066
1775859192009868033,-0.741775,7.819745,0.808774
1775859192012028554,-1.225125,8.097312,1.234697
1775859192014189074,-1.493121,8.413164,1.579263
1775859192016349595,-1.555335,8.781659,1.880759
1775859192018510116,-1.502693,9.107083,2.048256
1775859192020670689,-1.502693,9.303294,2.225325
1775859192022831158,-1.450050,9.427721,2.249253
1775859192024991679,-1.363909,9.561719,2.297110
1775859192027152199,-1.253839,9.695718,2.225325
1775859192029312720,-1.110270,9.810573,2.129612
1775859192031473241,-0.976272,9.954143,1.981257
1775859192033633814,-0.851845,10.030712,1.684547
1775859192035794283,-0.717847,10.112068,1.450050
1775859192037954804,-0.622134,10.145568,1.249053
1775859192040115376,-0.574277,10.121640,1.105484
1775859192042275845,-0.531207,10.059426,0.995414
1775859192044436366,-0.507278,9.982856,0.952343
1775859192046596939,-0.497707,9.915857,0.937986
1775859192048757460,-0.435494,9.868001,0.870987
1775859192050917981,-0.378066,9.805787,0.799203
1775859192053078501,-0.315853,9.757931,0.789631
1775859192055239022,-0.296710,9.714860,0.803988
1775859192057399543,-0.272782,9.690931,0.808774
1775859192059560012,-0.282353,9.633504,0.842274
1775859192061720585,-0.287139,9.595219,0.885344
1775859192063881054,-0.291924,9.547362,0.923630
1775859192066041626,-0.320638,9.504292,0.952343
1775859192068202095,-0.334995,9.475577,0.995414
1775859192070362616,-0.358923,9.475577,1.052842
1775859192072523189,-0.373280,9.466006,1.105484
1775859192074683710,-0.354138,9.461221,1.138984
1775859192076844231,-0.344566,9.466006,1.148555
1775859192079004751,-0.349352,9.461221,1.191626
1775859192081165272,-0.344566,9.475577,1.201197
1775859192083325793,-0.354138,9.489935,1.205983
1775859192085486314,-0.373280,9.489935,1.162912
1775859192087646835,-0.392423,9.480363,1.129412
1775859192089807356,-0.373280,9.489935,1.115055
1775859192091967876,-0.392423,9.509077,1.095913
1775859192094128397,-0.411565,9.552148,1.086342
1775859192096288918,-0.406780,9.537791,1.062413
1775859192098449439,-0.392423,9.528220,1.081556
1775859192100609960,-0.373280,9.542577,1.057628
1775859192102770481,-0.349352,9.705289,1.062413
1775859192104931001,-0.358923,9.643075,0.976272
1775859192107091522,-0.406780,9.576077,1.119841
1775859192109252043,-0.483350,9.518648,1.158126
1775859192111412564,-0.473779,9.513863,1.095913
1775859192113573085,-0.468993,9.523434,1.014557
1775859192115733606,-0.468993,9.537791,0.990629
1775859192117894126,-0.440279,9.552148,0.995414
1775859192120054647,-0.454636,9.537791,1.009771
1775859192122215168,-0.440279,9.533006,1.024128
1775859192124375689,-0.449851,9.552148,1.028914
1775859192126536210,-0.468993,9.571291,1.019342
1775859192128696731,-0.502493,9.590433,1.009771
1775859192130857251,-0.516850,9.571291,1.000200
1775859192133017772,-0.459422,9.547362,1.086342
1775859192135178293,-0.492921,9.556933,1.028914
1775859192137338814,-0.535992,9.566504,0.971486
1775859192139499335,-0.559920,9.556933,0.957129
1775859192141659856,-0.583849,9.556933,0.933201
1775859192143820429,-0.593420,9.542577,0.914058
1775859192145980897,-0.593420,9.556933,0.909273
1775859192148141418,-0.602991,9.580862,0.947558
1775859192150301939,-0.593420,9.619147,0.981057
1775859192152462460,-0.602991,9.662218,1.009771
1775859192154623033,-0.607777,9.676575,1.004985
1775859192156783501,-0.641276,9.676575,0.957129
1775859192158944022,-0.612563,9.657433,0.976272
1775859192161104543,-0.607777,9.671789,0.947558
1775859192163265064,-0.588634,9.820144,0.890130
1775859192165425637,-0.559920,9.834501,0.866202
1775859192167586106,-0.545564,9.757931,1.052842
1775859192169746626,-0.760918,9.600004,1.091127
1775859192171907147,-0.732204,9.571291,0.894916
1775859192174067720,-0.727418,9.623933,0.727418
1775859192176228189,-0.679562,9.667004,0.669990
1775859192178388762,-0.655633,9.662218,0.698704
1775859192180549283,-0.641276,9.662218,0.713061
1775859192182709804,-0.617348,9.662218,0.722632
1775859192184870324,-0.641276,9.652647,0.765703
1775859192187030793,-0.655633,9.667004,0.760918
1775859192189191366,-0.660419,9.652647,0.746561
1775859192191351887,-0.679562,9.667004,0.732204
1775859192193512356,-0.684347,9.671789,0.717847
1775859192195672929,-0.669990,9.671789,0.693919
1775859192197833449,-0.679562,9.676575,0.689133
1775859192199993970,-0.703490,9.690931,0.684347
1775859192202154491,-0.746561,9.695718,0.646062
1775859192204315012,-0.780060,9.667004,0.631705
1775859192206475533,-0.803988,9.714860,0.626920
1775859192208636054,-0.813560,9.700503,0.598206
1775859192210796574,-0.770489,9.667004,0.631705
1775859192212957095,-0.736989,9.676575,0.636491
1775859192215117616,-0.727418,9.686146,0.612563
1775859192217278137,-0.751346,9.676575,0.617348
1775859192219438658,-0.751346,9.662218,0.617348
1775859192221599179,-0.751346,9.667004,0.593420
1775859192223759699,-0.760918,9.657433,0.602991
1775859192225920220,-0.765703,9.633504,0.607777
1775859192228080741,-0.756132,9.690931,0.593420
1775859192230241262,-0.717847,9.858429,0.583849
1775859192232401783,-0.861416,9.609575,0.411565
1775859192234562304,-0.732204,9.489935,0.923630
1775859192236722824,-0.808774,9.580862,0.918844
1775859192238883345,-0.736989,9.676575,0.660419
1775859192241043866,-0.708275,9.690931,0.507278
1775859192243204387,-0.708275,9.652647,0.473779
1775859192245364908,-0.708275,9.652647,0.502493
1775859192247525481,-0.689133,9.662218,0.516850
1775859192249685949,-0.679562,9.667004,0.526421
1775859192251846470,-0.684347,9.695718,0.574277
1775859192254006991,-0.660419,9.719646,0.579063
1775859192256167512,-0.660419,9.734002,0.559920
1775859192258328085,-0.660419,9.753145,0.550349
1775859192260488606,-0.660419,9.762716,0.521635
1775859192262649126,-0.660419,9.767502,0.512064
1775859192264809647,-0.674776,9.781859,0.516850
1775859192266970116,-0.689133,9.781859,0.497707
1775859192269130689,-0.698704,9.777073,0.488136
1775859192271291158,-0.698704,9.796216,0.488136
1775859192273451679,-0.727418,9.810573,0.492921
1775859192275612251,-0.722632,9.781859,0.468993
1775859192277772720,-0.669990,9.757931,0.512064
1775859192279933293,-0.660419,9.753145,0.502493
1775859192282093814,-0.660419,9.762716,0.454636
1775859192284254335,-0.674776,9.753145,0.454636
1775859192286414856,-0.693919,9.767502,0.454636
1775859192288575376,-0.703490,9.767502,0.478565
1775859192290735845,-0.736989,9.777073,0.497707
1775859192292896418,-0.741775,9.791430,0.502493
1775859192295056939,-0.746561,9.796216,0.502493
1775859192297217460,-0.756132,9.815358,0.526421
1775859192299377981,-0.746561,9.801002,0.521635
1775859192301538501,-0.756132,9.820144,0.526421
1775859192303699022,-0.736989,9.820144,0.535992
1775859192305859543,-0.722632,9.824930,0.521635
1775859192308020064,-0.717847,9.844072,0.526421
1775859192310180585,-0.717847,9.930214,0.473779
1775859192312341106,-0.713061,9.839287,0.473779
1775859192314501626,-0.665205,9.810573,0.512064
1775859192316662147,-0.641276,9.820144,0.550349
1775859192318822668,-0.646062,9.796216,0.521635
1775859192320983189,-0.660419,9.796216,0.492921
1775859192323143710,-0.689133,9.791430,0.492921
1775859192325304231,-0.693919,9.781859,0.473779
1775859192327464751,-0.693919,9.781859,0.459422
1775859192329625272,-0.689133,9.762716,0.478565
1775859192331785793,-0.693919,9.753145,0.473779
1775859192333946314,-0.698704,9.772287,0.488136
1775859192336106835,-0.669990,9.777073,0.488136
1775859192338267356,-0.655633,9.777073,0.464208
1775859192340427876,-0.636491,9.791430,0.473779
1775859192342588397,-0.636491,9.777073,0.497707
1775859192344748918,-0.646062,9.786645,0.516850
1775859192346909439,-0.631705,9.772287,0.521635
1775859192349069960,-0.626920,9.786645,0.521635
1775859192351230533,-0.612563,9.786645,0.507278
1775859192353391054,-0.602991,9.767502,0.488136
1775859192355551574,-0.598206,9.767502,0.497707
1775859192357712043,-0.583849,9.762716,0.502493
1775859192359872616,-0.579063,9.772287,0.497707
1775859192362033085,-0.569492,9.743574,0.507278
1775859192364193606,-0.579063,9.743574,0.512064
1775859192366354179,-0.574277,9.734002,0.531207
1775859192368514647,-0.555135,9.724431,0.502493
1775859192370675220,-0.531207,9.743574,0.468993
1775859192372835689,-0.526421,9.743574,0.473779
1775859192374996210,-0.512064,9.734002,0.468993
1775859192377156783,-0.497707,9.738789,0.473779
1775859192379317251,-0.492921,9.734002,0.478565
1775859192381477772,-0.497707,9.738789,0.464208
1775859192383638293,-0.492921,9.729217,0.459422
1775859192385798866,-0.488136,9.743574,0.449851
1775859192387959387,-0.478565,9.743574,0.440279
1775859192390119908,-0.473779,9.748360,0.421137
1775859192392280429,-0.459422,9.734002,0.454636
1775859192394440949,-0.464208,9.753145,0.425922
1775859192396601470,-0.464208,9.753145,0.430708
1775859192398761991,-0.468993,9.743574,0.440279
1775859192400922512,-0.492921,9.767502,0.449851
1775859192403083033,-0.468993,9.748360,0.440279
1775859192405243554,-0.483350,9.738789,0.411565
1775859192407404074,-0.478565,9.753145,0.425922
1775859192409564595,-0.483350,9.743574,0.406780
1775859192411725116,-0.497707,9.734002,0.406780
1775859192413885637,-0.464208,9.743574,0.387637
1775859192416046158,-0.468993,9.748360,0.397209
1775859192418206679,-0.478565,9.762716,0.382852
1775859192420367199,-0.454636,9.757931,0.363709
1775859192422527720,-0.454636,9.757931,0.330210
1775859192424688241,-0.449851,9.796216,0.349352
1775859192426848762,-0.459422,9.781859,0.368495
1775859192429009283,-0.459422,9.772287,0.368495
1775859192431169804,-0.449851,9.786645,0.397209
1775859192433330324,-0.464208,9.781859,0.397209
1775859192435490845,-0.468993,9.781859,0.382852
1775859192437651366,-0.468993,9.762716,0.378066
1775859192439811939,-0.464208,9.729217,0.363709
1775859192441972408,-0.473779,9.719646,0.363709
1775859192444132929,-0.483350,9.705289,0.368495
1775859192446293501,-0.507278,9.700503,0.354138
1775859192448453970,-0.488136,9.676575,0.349352
1775859192450614491,-0.512064,9.676575,0.334995
1775859192452775012,-0.502493,9.667004,0.344566
1775859192454935585,-0.507278,9.662218,0.354138
1775859192457096054,-0.540778,9.671789,0.349352
1775859192459256626,-0.526421,9.681360,0.349352
1775859192461417147,-0.535992,9.681360,0.344566
1775859192463577616,-0.540778,9.681360,0.334995
1775859192465738189,-0.540778,9.676575,0.330210
1775859192467898710,-0.540778,9.681360,0.301496
1775859192470059231,-0.545564,9.695718,0.287139
1775859192472219751,-0.550349,9.695718,0.272782
1775859192474380272,-0.550349,9.705289,0.263211
1775859192476540793,-0.559920,9.719646,0.296710
1775859192478701314,-0.569492,9.729217,0.282353
1775859192480861835,-0.583849,9.757931,0.287139
1775859192483022356,-0.602991,9.762716,0.296710
1775859192485182876,-0.602991,9.777073,0.277567
1775859192487343397,-0.607777,9.762716,0.282353
1775859192489503918,-0.631705,9.781859,0.287139
1775859192491664439,-0.641276,9.791430,0.258425
1775859192493824960,-0.636491,9.805787,0.253639
1775859192495985481,-0.636491,9.810573,0.234497
1775859192498146001,-0.650848,9.786645,0.215354
1775859192500306522,-0.646062,9.796216,0.229711
1775859192502467043,-0.655633,9.791430,0.205783
1775859192504627564,-0.665205,9.791430,0.205783
1775859192506788085,-0.650848,9.781859,0.200997
1775859192508948606,-0.650848,9.772287,0.191426
1775859192511109126,-0.660419,9.748360,0.196211
1775859192513269647,-0.660419,9.743574,0.191426
1775859192515430220,-0.669990,9.714860,0.191426
1775859192517590689,-0.665205,9.705289,0.210568
1775859192519751210,-0.660419,9.710074,0.186640
1775859192521911731,-0.669990,9.690931,0.186640
1775859192524072251,-0.660419,9.700503,0.205783
1775859192526232772,-0.655633,9.686146,0.205783
1775859192528393293,-0.674776,9.681360,0.200997
1775859192530553866,-0.679562,9.705289,0.220140
1775859192532714387,-0.679562,9.705289,0.215354
1775859192534874908,-0.693919,9.710074,0.244068
1775859192537035429,-0.684347,9.714860,0.224925
1775859192539195949,-0.717847,9.724431,0.244068
1775859192541356470,-0.717847,9.724431,0.253639
1775859192543516991,-0.741775,9.734002,0.277567
1775859192545677512,-0.732204,9.729217,0.263211
1775859192547838033,-0.736989,9.714860,0.272782
1775859192549998554,-0.751346,9.738789,0.272782
1775859192552159074,-0.746561,9.719646,0.277567
1775859192554319595,-0.741775,9.734002,0.282353
1775859192556480116,-0.746561,9.738789,0.267996
1775859192558640637,-0.732204,9.753145,0.291924
1775859192560801158,-0.732204,9.748360,0.277567
1775859192562961679,-0.727418,9.743574,0.267996
1775859192565122199,-0.736989,9.772287,0.253639
1775859192567282720,-0.708275,9.753145,0.267996
1775859192569443241,-0.703490,9.753145,0.229711
1775859192571603762,-0.693919,9.738789,0.229711
1775859192573764283,-0.684347,9.757931,0.200997
1775859192575924804,-0.684347,9.757931,0.205783
1775859192578085324,-0.669990,9.757931,0.191426
1775859192580245845,-0.679562,9.748360,0.172283
1775859192582406366,-0.655633,9.748360,0.181855
1775859192584566939,-0.674776,9.734002,0.210568
1775859192586727408,-0.674776,9.734002,0.191426
1775859192588887929,-0.650848,9.719646,0.210568
1775859192591048449,-0.669990,9.719646,0.224925
1775859192593208970,-0.679562,9.719646,0.215354
1775859192595369543,-0.684347,9.714860,0.215354
1775859192597530012,-0.679562,9.695718,0.224925
1775859192599690585,-0.674776,9.690931,0.248854
1775859192601851106,-0.679562,9.686146,0.277567
1775859192604011574,-0.679562,9.710074,0.287139
1775859192606172095,-0.684347,9.729217,0.301496
1775859192608332668,-0.693919,9.734002,0.296710
1775859192610493137,-0.703490,9.767502,0.325424
1775859192612653658,-0.708275,9.767502,0.315853
1775859192614814231,-0.698704,9.781859,0.320638
1775859192616974751,-0.713061,9.805787,0.291924
1775859192619135272,-0.713061,9.810573,0.311067
1775859192621295793,-0.717847,9.820144,0.315853
1775859192623456314,-0.713061,9.815358,0.301496
1775859192625616835,-0.717847,9.810573,0.282353
1775859192627777356,-0.727418,9.810573,0.272782
1775859192629937876,-0.717847,9.810573,0.258425
1775859192632098397,-0.717847,9.801002,0.263211
1775859192634258918,-0.713061,9.781859,0.258425
1775859192636419439,-0.717847,9.757931,0.244068
1775859192638579960,-0.722632,9.748360,0.234497
1775859192640740481,-0.689133,9.753145,0.244068
1775859192642901001,-0.684347,9.724431,0.234497
1775859192645061522,-0.684347,9.710074,0.220140
1775859192647222043,-0.655633,9.700503,0.220140
1775859192649382564,-0.650848,9.710074,0.196211
1775859192651543085,-0.650848,9.690931,0.220140
1775859192653703606,-0.646062,9.690931,0.224925
1775859192655864126,-0.631705,9.667004,0.229711
1775859192658024647,-0.626920,9.676575,0.244068
1775859192660185220,-0.631705,9.667004,0.248854
1775859192662345689,-0.641276,9.652647,0.267996
1775859192664506210,-0.641276,9.638289,0.267996
1775859192666666731,-0.655633,9.647861,0.267996
1775859192668827304,-0.650848,9.662218,0.258425
1775859192670987824,-0.650848,9.662218,0.229711
1775859192673148345,-0.655633,9.652647,0.229711
1775859192675308866,-0.660419,9.671789,0.234497
1775859192677469335,-0.665205,9.681360,0.253639
1775859192679629908,-0.660419,9.695718,0.258425
1775859192681790429,-0.674776,9.700503,0.253639
1775859192683950949,-0.679562,9.719646,0.291924
1775859192686111470,-0.684347,9.705289,0.315853
1775859192688271991,-0.689133,9.724431,0.311067
1775859192690432512,-0.693919,9.719646,0.330210
1775859192692593033,-0.684347,9.705289,0.330210
1775859192694753554,-0.679562,9.710074,0.330210
1775859192696914074,-0.679562,9.705289,0.334995
1775859192699074595,-0.693919,9.690931,0.330210
1775859192701235064,-0.669990,9.710074,0.325424
1775859192703395637,-0.669990,9.695718,0.344566
1775859192705556158,-0.665205,9.681360,0.330210
1775859192707716679,-0.669990,9.705289,0.344566
1775859192709877199,-0.669990,9.690931,0.315853
1775859192712037720,-0.665205,9.719646,0.315853
1775859192714198241,-0.641276,9.738789,0.287139
1775859192716358762,-0.650848,9.729217,0.291924
1775859192718519283,-0.631705,9.743574,0.277567
1775859192720679804,-0.641276,9.748360,0.277567
1775859192722840324,-0.617348,9.738789,0.282353
1775859192725000845,-0.612563,9.753145,0.267996
1775859192727161366,-0.622134,9.729217,0.253639
1775859192729321887,-0.631705,9.734002,0.239282
1775859192731482408,-0.636491,9.743574,0.248854
1775859192733642981,-0.622134,9.734002,0.229711
1775859192735803449,-0.626920,9.705289,0.244068
1775859192737964022,-0.622134,9.705289,0.263211
1775859192740124543,-0.622134,9.724431,0.258425
1775859192742285064,-0.602991,9.714860,0.282353
1775859192744445585,-0.622134,9.719646,0.277567
1775859192746606106,-0.607777,9.724431,0.277567
1775859192748766626,-0.617348,9.719646,0.277567
1775859192750927147,-0.612563,9.705289,0.277567
1775859192753087616,-0.612563,9.700503,0.282353
1775859192755248189,-0.607777,9.724431,0.306281
1775859192757408710,-0.593420,9.714860,0.282353
1775859192759569231,-0.607777,9.700503,0.291924
1775859192761729751,-0.622134,9.710074,0.282353
1775859192763890272,-0.617348,9.690931,0.296710
1775859192766050793,-0.636491,9.695718,0.287139
1775859192768211314,-0.631705,9.681360,0.301496
1775859192770371835,-0.655633,9.705289,0.287139
1775859192772532356,-0.660419,9.695718,0.306281
1775859192774692876,-0.679562,9.690931,0.320638
1775859192776853397,-0.684347,9.681360,0.301496
1775859192779013918,-0.679562,9.686146,0.315853
1775859192781174439,-0.703490,9.681360,0.272782
1775859192783334960,-0.698704,9.695718,0.282353
1775859192785495481,-0.698704,9.714860,0.272782
1775859192787656001,-0.722632,9.705289,0.248854
1775859192789816522,-0.722632,9.738789,0.253639
1775859192791977043,-0.732204,9.738789,0.244068
1775859192794137564,-0.736989,9.748360,0.282353
1775859192796298137,-0.741775,9.753145,0.272782
1775859192798458606,-0.746561,9.777073,0.272782
1775859192800619126,-0.760918,9.767502,0.296710
1775859192802779647,-0.746561,9.757931,0.277567
1775859192804940168,-0.775275,9.753145,0.287139
1775859192807100741,-0.784846,9.753145,0.263211
1775859192809261210,-0.770489,9.729217,0.253639
1775859192811421783,-0.770489,9.719646,0.272782
1775859192813582304,-0.775275,9.705289,0.258425
1775859192815742772,-0.784846,9.700503,0.253639
1775859192817903293,-0.789631,9.705289,0.239282
1775859192820063866,-0.789631,9.700503,0.277567
1775859192822224387,-0.789631,9.700503,0.277567
1775859192824384908,-0.780060,9.710074,0.258425
1775859192826545429,-0.799203,9.719646,0.267996
1775859192828705949,-0.780060,9.724431,0.263211
1775859192830866470,-0.780060,9.734002,0.277567
1775859192833026991,-0.775275,9.748360,0.258425
1775859192835187512,-0.784846,9.748360,0.239282
1775859192837348033,-0.794417,9.781859,0.215354
1775859192839508554,-0.799203,9.781859,0.196211
1775859192841669074,-0.789631,9.772287,0.181855
1775859192843829595,-0.780060,9.762716,0.172283
1775859192845990116,-0.799203,9.772287,0.162712
1775859192848150637,-0.818345,9.762716,0.167498
1775859192850311158,-0.827917,9.767502,0.157926
1775859192852471679,-0.851845,9.757931,0.167498
1775859192854632199,-0.851845,9.757931,0.143569
1775859192856792720,-0.875773,9.729217,0.153141
1775859192858953293,-0.875773,9.738789,0.124427
1775859192861113762,-0.880559,9.724431,0.157926
1775859192863274283,-0.899701,9.724431,0.162712
1775859192865434804,-0.914058,9.719646,0.181855
1775859192867595376,-0.928415,9.729217,0.186640
1775859192869755897,-0.918844,9.729217,0.196211
1775859192871916418,-0.937986,9.729217,0.200997
1775859192874076887,-0.942772,9.719646,0.239282
1775859192876237460,-0.971486,9.748360,0.244068
1775859192878397981,-0.952343,9.748360,0.234497
1775859192880558449,-0.957129,9.757931,0.244068
1775859192882719022,-0.961915,9.762716,0.272782
1775859192884879543,-0.961915,9.781859,0.287139
1775859192887040064,-0.961915,9.786645,0.315853
1775859192889200585,-0.961915,9.772287,0.325424
1775859192891361106,-0.961915,9.767502,0.311067
1775859192893521626,-0.952343,9.772287,0.349352
1775859192895682147,-0.918844,9.757931,0.368495
1775859192897842668,-0.914058,9.743574,0.368495
1775859192900003189,-0.894916,9.738789,0.368495
1775859192902163710,-0.861416,9.714860,0.368495
1775859192904324231,-0.847059,9.719646,0.358923
1775859192906484751,-0.827917,9.710074,0.373280
1775859192908645272,-0.808774,9.719646,0.373280
1775859192910805793,-0.765703,9.710074,0.358923
1775859192912966314,-0.732204,9.719646,0.354138
1775859192915126835,-0.641276,9.748360,0.454636
1775859192917287356,-0.684347,9.714860,0.401994
1775859192919447876,-0.732204,9.667004,0.253639
1775859192921608449,-0.717847,9.647861,0.162712
1775859192923768918,-0.708275,9.662218,0.124427
1775859192925929439,-0.669990,9.681360,0.148355
1775859192928090012,-0.636491,9.700503,0.181855
1775859192930250533,-0.631705,9.690931,0.205783
1775859192932411054,-0.626920,9.714860,0.224925
1775859192934571574,-0.631705,9.690931,0.229711
1775859192936732095,-0.636491,9.695718,0.244068
1775859192938892564,-0.650848,9.700503,0.244068
1775859192941053137,-0.646062,9.710074,0.258425
1775859192943213658,-0.646062,9.719646,0.282353
1775859192945374179,-0.646062,9.714860,0.306281
1775859192947534699,-0.650848,9.705289,0.315853
1775859192949695220,-0.655633,9.710074,0.349352
1775859192951855741,-0.655633,9.729217,0.349352
1775859192954016262,-0.646062,9.724431,0.368495
1775859192956176783,-0.646062,9.743574,0.373280
1775859192958337304,-0.646062,9.724431,0.406780
1775859192960497824,-0.636491,9.748360,0.406780
1775859192962658345,-0.612563,9.757931,0.421137
1775859192964818866,-0.622134,9.753145,0.411565
1775859192966979387,-0.607777,9.743574,0.401994
1775859192969139908,-0.612563,9.738789,0.430708
1775859192971300429,-0.583849,9.743574,0.421137
1775859192973460949,-0.579063,9.743574,0.392423
1775859192975621470,-0.598206,9.743574,0.392423
1775859192977782043,-0.588634,9.738789,0.382852
1775859192979942512,-0.564706,9.757931,0.411565
1775859192982103033,-0.445065,9.810573,0.602991
1775859192984263554,-0.593420,9.753145,0.526421
1775859192986424074,-0.689133,9.671789,0.267996
1775859192988584647,-0.698704,9.671789,0.143569
1775859192990745168,-0.689133,9.667004,0.119641
1775859192992905689,-0.646062,9.690931,0.157926
1775859192995066210,-0.641276,9.686146,0.177069
1775859192997226731,-0.612563,9.710074,0.200997
1775859192999387251,-0.646062,9.719646,0.220140
1775859193001547772,-0.650848,9.719646,0.200997
1775859193003708293,-0.660419,9.743574,0.191426
1775859193005868814,-0.669990,9.753145,0.191426
1775859193008029335,-0.669990,9.753145,0.186640
1775859193010189856,-0.684347,9.772287,0.224925
1775859193012350376,-0.693919,9.772287,0.244068
1775859193014510897,-0.703490,9.767502,0.267996
1775859193016671418,-0.703490,9.772287,0.315853
1775859193018831939,-0.727418,9.762716,0.311067
1775859193020992460,-0.727418,9.757931,0.334995
1775859193023152981,-0.722632,9.762716,0.330210
1775859193025313501,-0.736989,9.748360,0.363709
1775859193027474022,-0.732204,9.748360,0.368495
1775859193029634543,-0.746561,9.738789,0.373280
1775859193031795064,-0.751346,9.724431,0.373280
1775859193033955585,-0.736989,9.738789,0.354138
1775859193036116106,-0.756132,9.743574,0.339781
1775859193038276679,-0.756132,9.748360,0.339781
1775859193040437147,-0.746561,9.748360,0.373280
1775859193042597720,-0.746561,9.743574,0.349352
1775859193044758189,-0.746561,9.738789,0.378066
1775859193046918710,-0.756132,9.743574,0.392423
1775859193049079231,-0.732204,9.753145,0.378066
1775859193051239804,-0.746561,9.734002,0.387637
1775859193053400324,-0.727418,9.738789,0.354138
1775859193055560845,-0.732204,9.753145,0.373280
1775859193057721366,-0.736989,9.748360,0.368495
1775859193059881887,-0.722632,9.748360,0.354138
1775859193062042408,-0.717847,9.734002,0.325424
1775859193064202929,-0.717847,9.743574,0.311067
