time,seconds_elapsed,z,y,x,local_time
1775952797736094200,0.09009423828125,0.21514614098072052,1.53885382784307,0.9126824884939938,2026-04-11T19:13:17.736-05:00
1775952797746151200,0.100151123046875,-0.5793219829559326,1.7646353446066378,1.2230609815690665,2026-04-11T19:13:17.746-05:00
1775952797756208000,0.1102080078125,-1.372459735071659,1.622657900211215,1.4854092379033565,2026-04-11T19:13:17.756-05:00
1775952797766265000,0.12026513671875,-1.2167565476626157,1.6348223852574824,1.4987088644593953,2026-04-11T19:13:17.766-05:00
1775952797776321300,0.1303212890625,-0.8073246829003096,1.6597703640311956,1.5100636405579746,2026-04-11T19:13:17.776-05:00
1775952797786378200,0.140378173828125,-0.3718903618752956,1.4382634558469056,1.4741460856109856,2026-04-11T19:13:17.786-05:00
1775952797796435200,0.150435302734375,0.0982423475652933,1.294853348299861,1.436709504403174,2026-04-11T19:13:17.796-05:00
1775952797806492200,0.1604921875,0.6606956133067607,1.261001347580552,1.198847235354036,2026-04-11T19:13:17.806-05:00
1775952797816548000,0.170548095703125,1.1311813739687204,1.2500532525867223,0.5006356919929384,2026-04-11T19:13:17.816-05:00
1775952797826605000,0.18060498046875,1.2210188812822103,1.1896791556447743,-0.11327910011224449,2026-04-11T19:13:17.826-05:00
1775952797836662000,0.190662109375,0.30990649164915085,1.1699924584001302,0.10442505478821694,2026-04-11T19:13:17.836-05:00
1775952797846719200,0.20071923828125,-0.7083154426157474,0.5341852026343346,-0.009417743621394038,2026-04-11T19:13:17.846-05:00
1775952797856775200,0.210775146484375,-1.1805132678925991,1.1419734016180039,0.48237822383381423,2026-04-11T19:13:17.856-05:00
1775952797866832400,0.220832275390625,-0.4145505229502916,1.9634271476358174,-0.3673077102601528,2026-04-11T19:13:17.866-05:00
1775952797876889300,0.230889404296875,0.7609089686840772,0.9832400527328252,-1.0140146187681705,2026-04-11T19:13:17.876-05:00
1775952797886946300,0.2409462890625,1.8555378508031368,0.42429625641703606,0.3358291606739163,2026-04-11T19:13:17.886-05:00
1775952797897002200,0.251002197265625,3.1208477092325686,0.2637257552325725,0.6309048706769943,2026-04-11T19:13:17.897-05:00
1775952797907059200,0.26105908203125,3.105484720405936,-0.6981874318331479,0.3561348665997386,2026-04-11T19:13:17.907-05:00
1775952797917116200,0.2711162109375,1.8629057492226362,-1.07774964351058,1.8408070224002002,2026-04-11T19:13:17.917-05:00
1775952797927173000,0.281173095703125,1.0898784727215767,-0.2851578348398208,1.9225303429715335,2026-04-11T19:13:17.927-05:00
1775952797937229300,0.291229248046875,0.30740006178617474,0.06229191326200962,0.2496107937056571,2026-04-11T19:13:17.937-05:00
1775952797947286300,0.301286376953125,0.2400900281012058,0.3971788246497512,-0.6716455349314957,2026-04-11T19:13:17.947-05:00
1775952797957343200,0.31134326171875,-0.03248948019444942,0.9534987022027372,-0.6034242316205054,2026-04-11T19:13:17.957-05:00
1775952797967400200,0.321400146484375,-1.1492004302620886,0.7855468585953116,-0.7499256562463938,2026-04-11T19:13:17.967-05:00
1775952797977456000,0.3314560546875,-1.3933879568099974,0.6808437905833125,-0.9992088984981179,2026-04-11T19:13:17.977-05:00
1775952797987513000,0.34151318359375,-1.5847165843516586,0.7730410127654671,-1.120881148424372,2026-04-11T19:13:17.987-05:00
1775952797997570000,0.351570068359375,-1.126396477779746,0.025810148561000824,-1.6687920210070908,2026-04-11T19:13:17.997-05:00
1775952798007627300,0.361627197265625,-0.2996083849966526,0.3382756770431995,-1.5932408131994307,2026-04-11T19:13:18.007-05:00
1775952798017683200,0.37168310546875,-0.8046148394197226,1.9262948100715875,0.7187836451381444,2026-04-11T19:13:18.017-05:00
1775952798027740400,0.381740478515625,-1.0717366668313741,3.0205110197365284,2.864440752580762,2026-04-11T19:13:18.027-05:00
1775952798037797400,0.39179736328125,-0.3136164520829916,3.1196956165879963,3.6170138545960184,2026-04-11T19:13:18.037-05:00
1775952798047854300,0.401854248046875,0.10451660552918911,2.2163509383469817,2.871527788232267,2026-04-11T19:13:18.047-05:00
1775952798057910300,0.41191015625,0.5539829590380192,0.9837854116559028,0.4349523827269673,2026-04-11T19:13:18.057-05:00
1775952798067967200,0.42196728515625,1.0045061281234025,0.835425572746992,-1.8418562391921878,2026-04-11T19:13:18.067-05:00
1775952798078024200,0.432024169921875,0.5315811576157808,0.993982980543375,-2.761447118835151,2026-04-11T19:13:18.078-05:00
1775952798088081200,0.4420810546875,2.783990082293749,1.1015180571109056,-2.4252651992008087,2026-04-11T19:13:18.088-05:00
1775952798098138000,0.45213818359375,4.225541473770141,3.204999572125077,-3.682750939875841,2026-04-11T19:13:18.098-05:00
1775952798108194000,0.462194091796875,3.276878813421726,5.550948950287699,-4.528239056953788,2026-04-11T19:13:18.108-05:00
1775952798118251300,0.472251220703125,3.2362866907924412,6.33650720705986,-3.100226069225371,2026-04-11T19:13:18.118-05:00
1775952798128308200,0.48230810546875,4.442756822240352,4.249502195072174,-1.7801693060860038,2026-04-11T19:13:18.128-05:00
1775952798138365400,0.492365478515625,5.302338346600532,1.1924690786242484,-1.8829358530774711,2026-04-11T19:13:18.138-05:00
1775952798148421000,0.502421142578125,5.875339309841394,-0.6357417893141508,-3.2797686896443365,2026-04-11T19:13:18.148-05:00
1775952798158478300,0.512478271484375,4.939455467045307,-1.1965043254896999,-4.529853798674047,2026-04-11T19:13:18.158-05:00
1775952798168535300,0.522535400390625,1.1368693564772605,-2.102691825941205,-2.718542627610266,2026-04-11T19:13:18.168-05:00
1775952798178592300,0.53259228515625,0.45287353160381316,-4.204900544540584,3.349729237838089,2026-04-11T19:13:18.178-05:00
1775952798188648200,0.542648193359375,3.1686504938930273,-5.717796632045507,9.506163663125038,2026-04-11T19:13:18.188-05:00
1775952798198705200,0.552705078125,3.6375545383214947,-3.3044635704398155,10.21581064660549,2026-04-11T19:13:18.198-05:00
1775952798208762000,0.56276220703125,4.968269473597407,1.9417460617035627,8.81071646991074,2026-04-11T19:13:18.208-05:00
1775952798218819000,0.572819091796875,5.308568765422701,6.331481487852335,6.54893122960031,2026-04-11T19:13:18.218-05:00
1775952798228875300,0.582875244140625,6.848186563375592,6.039058045923709,2.9144957000821825,2026-04-11T19:13:18.228-05:00
1775952798238932200,0.59293212890625,6.73147741574943,3.303318784318864,-0.12436813794672488,2026-04-11T19:13:18.238-05:00
1775952798248989200,0.6029892578125,7.049449724954366,2.3619971343830226,-0.5305418776959181,2026-04-11T19:13:18.248-05:00
1775952798259046100,0.613046142578125,7.253841832208633,2.8747023266151546,-1.9145967734932898,2026-04-11T19:13:18.259-05:00
1775952798269103000,0.62310302734375,7.686144284948706,5.257268201774359,-2.1974147672086954,2026-04-11T19:13:18.269-05:00
1775952798279159000,0.633158935546875,6.824442699694633,7.139100769785046,-1.5850357333034275,2026-04-11T19:13:18.279-05:00
1775952798289216000,0.643216064453125,4.714041030028462,5.881015017390251,1.109594396060705,2026-04-11T19:13:18.289-05:00
1775952798299273200,0.653273193359375,2.6839292871296405,5.504627344095707,3.145401135730743,2026-04-11T19:13:18.299-05:00
1775952798309330200,0.663330078125,-1.015859296786785,6.951086965879798,-0.3581488367706537,2026-04-11T19:13:18.309-05:00
1775952798319386400,0.673386474609375,-3.902100962287187,8.155045991289615,-3.8689164855659004,2026-04-11T19:13:18.319-05:00
1775952798329443300,0.683443359375,-3.200975138914585,8.496216805252432,-4.249059127479791,2026-04-11T19:13:18.329-05:00
1775952798339500300,0.693500244140625,-0.1037847841233015,7.481144859451055,-1.4453250647962093,2026-04-11T19:13:18.339-05:00
1775952798349557200,0.70355712890625,2.9334967531502247,7.29332920846641,1.4272820431053637,2026-04-11T19:13:18.349-05:00
1775952798359613200,0.71361328125,4.785487140604853,7.1833216043055055,2.5797739161282776,2026-04-11T19:13:18.359-05:00
1775952798369670100,0.723670166015625,5.726101519054174,5.980304828181862,1.814124474918842,2026-04-11T19:13:18.369-05:00
1775952798379727000,0.73372705078125,5.311119618949294,4.900242816075682,0.07030629289150238,2026-04-11T19:13:18.379-05:00
1775952798389784000,0.7437841796875,3.8964544808328148,4.606875955817103,-1.2319447644442318,2026-04-11T19:13:18.389-05:00
1775952798399840300,0.75384033203125,2.3970646483719347,4.897310269755125,-1.8039023561120031,2026-04-11T19:13:18.399-05:00
1775952798409897200,0.763897216796875,0.13000409800708293,5.570622788050771,-3.909789178702235,2026-04-11T19:13:18.409-05:00
1775952798419954200,0.7739541015625,-2.684230608163774,5.366412467104197,-7.7600103161484,2026-04-11T19:13:18.419-05:00
1775952798430011100,0.78401123046875,-3.687878950414061,3.729849960181117,-8.94106368226707,2026-04-11T19:13:18.430-05:00
1775952798440068400,0.794068359375,-3.1374557296842336,2.850223426657915,-7.892557084375619,2026-04-11T19:13:18.440-05:00
1775952798450124300,0.804124267578125,-1.9870155284941196,2.5008652145862578,-5.327391539314389,2026-04-11T19:13:18.450-05:00
1775952798460181200,0.81418115234375,-1.6353525466114283,2.1009055270463226,-2.279382271799445,2026-04-11T19:13:18.460-05:00
1775952798470238200,0.82423828125,-1.6756550386443734,2.5836273766860365,-0.9346154302954673,2026-04-11T19:13:18.470-05:00
1775952798480295200,0.834295166015625,-3.0578765815347433,3.0489243365332483,-2.9134821391254664,2026-04-11T19:13:18.480-05:00
1775952798490351400,0.844351318359375,-4.029727809768915,2.8544901441916823,-5.499078477796912,2026-04-11T19:13:18.490-05:00
1775952798500408300,0.854408203125,-4.2566175800353285,3.2564030116260048,-3.1816245417565105,2026-04-11T19:13:18.500-05:00
1775952798510465300,0.86446533203125,-5.9554749228298665,2.6553052501916885,-1.8263059110999107,2026-04-11T19:13:18.510-05:00
1775952798520522200,0.874522216796875,-8.260723457291721,3.3568180270552634,-1.826443273743987,2026-04-11T19:13:18.520-05:00
1775952798530578200,0.884578125,-10.931235044443607,3.542748010423779,-5.383890840649604,2026-04-11T19:13:18.530-05:00
1775952798540635100,0.89463525390625,-12.070074239689111,2.6002947261095044,-8.032699130037427,2026-04-11T19:13:18.540-05:00
1775952798550692000,0.904692138671875,-10.062559528523684,1.3047872978150843,-8.102296397876739,2026-04-11T19:13:18.550-05:00
1775952798560749000,0.9147490234375,-5.13688007337451,0.22461948724687097,-5.869802133980393,2026-04-11T19:13:18.560-05:00
1775952798570805200,0.92480517578125,-3.29376798890233,-0.5447399143964052,-6.4269274826973675,2026-04-11T19:13:18.570-05:00
1775952798580862200,0.9348623046875,-1.7721616484582423,-1.3408803554594515,-6.924868821039795,2026-04-11T19:13:18.580-05:00
1775952798590919400,0.94491943359375,-0.4509317498862743,-2.464799044948816,-8.1218235206455,2026-04-11T19:13:18.590-05:00
1775952798600976400,0.954976318359375,0.17456274964716284,-2.7421143495947122,-10.031024572575092,2026-04-11T19:13:18.600-05:00
1775952798611032300,0.9650322265625,-0.4003893476614728,-2.8302088126331566,-11.821005955362319,2026-04-11T19:13:18.611-05:00
1775952798621089300,0.97508935546875,-1.4304548279225826,-4.073424912676215,-13.28525783894658,2026-04-11T19:13:18.621-05:00
1775952798631146200,0.985146240234375,-1.3826434215642511,-5.178088866597414,-13.661533284038304,2026-04-11T19:13:18.631-05:00
1775952798641203200,0.995203125,-0.0697988548260182,-6.31407091884613,-13.019226729381083,2026-04-11T19:13:18.641-05:00
1775952798651260200,1.00526025390625,2.3028408887982366,-7.37691817677915,-12.483631659948825,2026-04-11T19:13:18.651-05:00
1775952798661316000,1.015316162109375,4.58864179546833,-7.525706470233201,-10.870645843446255,2026-04-11T19:13:18.661-05:00
1775952798671373000,1.025373046875,6.1702235889256,-7.151976033449173,-8.857441396206617,2026-04-11T19:13:18.671-05:00
1775952798681430300,1.03543017578125,6.641576195549964,-6.62507981877923,-6.827888456234335,2026-04-11T19:13:18.681-05:00
1775952798691487200,1.0454873046875,5.758533131581545,-6.068889120563864,-4.532706557756662,2026-04-11T19:13:18.691-05:00
1775952798701543200,1.055543212890625,3.824479962468147,-5.707032076925039,-4.290592914873361,2026-04-11T19:13:18.701-05:00
1775952798711600000,1.06560009765625,1.1626163766741753,-4.659252624264359,-5.055660172280669,2026-04-11T19:13:18.711-05:00
1775952798721657000,1.075656982421875,-0.8063503579754382,-4.511886472567916,-5.505303051400184,2026-04-11T19:13:18.721-05:00
1775952798731714300,1.08571435546875,-1.823744536179304,-5.195998032775521,-5.02762591792941,2026-04-11T19:13:18.731-05:00
1775952798741770200,1.095770263671875,-1.075938867761567,-4.648294884659349,-2.2592232808679342,2026-04-11T19:13:18.741-05:00
1775952798751827200,1.1058271484375,3.2969384356319904,-2.1327605087295174,1.9192992520958183,2026-04-11T19:13:18.751-05:00
1775952798761884200,1.11588427734375,6.412022759032249,0.5553332046031951,4.818374095684289,2026-04-11T19:13:18.761-05:00
1775952798771941000,1.125941162109375,5.397113894838094,0.6108195295035839,4.366144122681021,2026-04-11T19:13:18.771-05:00
1775952798781997300,1.135997314453125,2.724872707414627,-0.18925211352854965,2.5601094307154417,2026-04-11T19:13:18.781-05:00
1775952798792054300,1.14605419921875,2.143257060563564,1.1827806283026934,1.0904442899107933,2026-04-11T19:13:18.792-05:00
1775952798802111200,1.156111328125,0.7096024867516011,-0.3789928873568773,0.1455640707105398,2026-04-11T19:13:18.802-05:00
1775952798812168200,1.166168212890625,-0.9351425959747284,1.3756149842321872,2.2655583291083574,2026-04-11T19:13:18.812-05:00
1775952798822224100,1.17622412109375,-2.3059072906315325,2.7971386099413036,0.8555839791566133,2026-04-11T19:13:18.822-05:00
1775952798832281000,1.186281005859375,-2.3512650202274323,3.8905341508731244,-0.4611801721781492,2026-04-11T19:13:18.832-05:00
1775952798842338000,1.196338134765625,-1.0938625008564442,4.0482644601956,1.7167226698309181,2026-04-11T19:13:18.842-05:00
1775952798852395000,1.20639501953125,-1.502286722946167,-0.29467092859447,2.109763371762633,2026-04-11T19:13:18.852-05:00
1775952798862452200,1.2164521484375,-0.18908004489727318,-0.8578736975289881,1.4638427182614802,2026-04-11T19:13:18.862-05:00
1775952798872508200,1.226508056640625,-2.1622809099853035,0.9315822000794112,0.48051381820142264,2026-04-11T19:13:18.872-05:00
1775952798882565400,1.2365654296875,-3.703978436821699,1.3920255824156105,-1.1558493667572736,2026-04-11T19:13:18.882-05:00
1775952798892622300,1.246622314453125,-2.6840570051625368,1.1311192685179412,-2.0655074659287926,2026-04-11T19:13:18.892-05:00
1775952798902679300,1.25667919921875,-3.1292975576698776,-0.5445230567753314,-1.7849696921050549,2026-04-11T19:13:18.902-05:00
1775952798912735200,1.2667353515625,-2.49916425588727,-0.28837182845026255,-1.7186884169459342,2026-04-11T19:13:18.912-05:00
1775952798922792200,1.276792236328125,-2.275313561055809,0.08989917437285184,0.23580665169358253,2026-04-11T19:13:18.922-05:00
1775952798932849200,1.28684912109375,-2.501584176510572,0.3346900736413896,0.6948819605469704,2026-04-11T19:13:18.932-05:00
1775952798942906000,1.296906005859375,-0.6581729629613459,0.06584639087319373,-1.1109674379795789,2026-04-11T19:13:18.942-05:00
1775952798952962300,1.30696240234375,-1.0450817380093038,-1.6953770994633435,-0.608562690487504,2026-04-11T19:13:18.952-05:00
1775952798963019300,1.317019287109375,-1.0621790032826364,-2.160640741562843,-4.065803331756592,2026-04-11T19:13:18.963-05:00
1775952798973076200,1.327076171875,-0.7256126143753528,-0.6066920743100345,-4.205797493380308,2026-04-11T19:13:18.973-05:00
1775952798983133200,1.33713330078125,-0.8935704493321478,0.37381672682799394,-2.2611638935416933,2026-04-11T19:13:18.983-05:00
1775952798993189000,1.347189208984375,-1.534698461729288,1.256607496535778,-1.3562433442860842,2026-04-11T19:13:18.993-05:00
1775952799003246000,1.35724609375,-1.385404556840658,2.1855274916686116,0.7722621373474597,2026-04-11T19:13:19.003-05:00
1775952799013303000,1.367302978515625,-1.6257938601493835,2.3828467379271983,1.8907845207512377,2026-04-11T19:13:19.013-05:00
1775952799023360000,1.377360107421875,-2.1127724904507397,2.050399182515591,2.0502298172980544,2026-04-11T19:13:19.023-05:00
1775952799033417000,1.3874169921875,-4.250881082209944,2.927968052856624,1.7060341025561094,2026-04-11T19:13:19.033-05:00
1775952799043473200,1.39747314453125,-5.940447449567913,3.8629748205572363,0.8980822276681661,2026-04-11T19:13:19.043-05:00
1775952799053530000,1.407530029296875,-6.986949137377739,5.159350263857841,1.572080974662304,2026-04-11T19:13:19.053-05:00
1775952799063587000,1.417587158203125,-6.228464765492081,5.174761183479428,3.256213042011857,2026-04-11T19:13:19.063-05:00
1775952799073644300,1.427644287109375,-0.9296090003103017,3.598161562348902,3.116383715561032,2026-04-11T19:13:19.073-05:00
1775952799083700200,1.4377001953125,2.789243180516362,2.3931501052767037,4.198312690582871,2026-04-11T19:13:19.083-05:00
1775952799093757200,1.447757080078125,3.150313457691669,1.8381690751120447,5.229428008690476,2026-04-11T19:13:19.093-05:00
1775952799103814100,1.457814208984375,2.1842462196864187,0.938084859971702,6.367234938278794,2026-04-11T19:13:19.103-05:00
1775952799113871000,1.46787109375,0.7604045993585139,0.8179252796307206,6.032257133737206,2026-04-11T19:13:19.113-05:00
1775952799123927000,1.477927001953125,-1.1921032409865409,1.6163433102369307,4.250734951737523,2026-04-11T19:13:19.123-05:00
1775952799133984300,1.487984375,-2.425667642521858,1.468815245977044,3.393379871255159,2026-04-11T19:13:19.133-05:00
1775952799144041200,1.498041259765625,-2.0089479588389394,1.3140589840292929,3.5201235061615703,2026-04-11T19:13:19.144-05:00
1775952799154098200,1.50809814453125,-0.882945010421425,1.4235706213667987,4.088489210817218,2026-04-11T19:13:19.154-05:00
1775952799164154000,1.518154052734375,0.42144481250867244,0.35657033540755506,3.8116391855955123,2026-04-11T19:13:19.164-05:00
1775952799174211000,1.528211181640625,0.863256267350167,-0.9068418727070092,3.1654958292543887,2026-04-11T19:13:19.174-05:00
1775952799184268000,1.53826806640625,-0.5672181420557201,-0.7729606410056352,2.59651754565835,2026-04-11T19:13:19.184-05:00
1775952799194325000,1.548324951171875,-0.1487064603894949,-0.6905161665529013,1.1239052454859018,2026-04-11T19:13:19.194-05:00
1775952799204381000,1.558380859375,-0.2347330311127007,-0.14852525860369203,-0.2003764418721199,2026-04-11T19:13:19.204-05:00
1775952799214438000,1.56843798828125,-0.6195500945784151,0.17137597283720968,-0.8852414507955312,2026-04-11T19:13:19.214-05:00
1775952799224495000,1.5784951171875,-0.7946149850614368,-0.03603986615240574,-0.9203408212274312,2026-04-11T19:13:19.224-05:00
1775952799234552300,1.58855224609375,-0.9013951516084372,-0.12302899829745292,-0.5730553237766027,2026-04-11T19:13:19.234-05:00
1775952799244609300,1.598609375,-1.0891098264366388,0.2298123797148466,-0.3466203115403652,2026-04-11T19:13:19.244-05:00
1775952799254665200,1.608665283203125,-1.036117729504779,0.7733288897961378,-0.6899123554408549,2026-04-11T19:13:19.254-05:00
1775952799264722200,1.61872216796875,-0.5205955801557749,-0.029285715717077252,-1.586286610147357,2026-04-11T19:13:19.264-05:00
1775952799274779100,1.628779052734375,0.23227906208932397,-0.8356237256675958,-1.7721090414881706,2026-04-11T19:13:19.274-05:00
1775952799284836000,1.638836181640625,0.4620703990161419,-2.1828169175356624,-0.6706815852701663,2026-04-11T19:13:19.284-05:00
1775952799294892000,1.64889208984375,0.39875031175017356,-2.6685277198582886,0.21869126624166965,2026-04-11T19:13:19.294-05:00
1775952799304949000,1.658948974609375,0.3097335462350398,-2.5997669028431174,0.540508560436964,2026-04-11T19:13:19.304-05:00
1775952799315006000,1.669005859375,0.19616908984277395,-2.6346219431251288,0.847592980402708,2026-04-11T19:13:19.315-05:00
1775952799325063200,1.679063232421875,-0.0004120513996109366,-2.6676275561481715,1.1244085188329218,2026-04-11T19:13:19.325-05:00
1775952799335119000,1.689119140625,-0.238660835548304,-2.858383936759829,1.2263976517111062,2026-04-11T19:13:19.335-05:00
1775952799345176000,1.699176025390625,-0.3880815816869959,-3.212923935383558,1.2116899119228124,2026-04-11T19:13:19.345-05:00
1775952799355233000,1.70923291015625,-0.5083417363256216,-3.634814884224534,1.157088845424354,2026-04-11T19:13:19.355-05:00
1775952799365290200,1.719290283203125,-0.7767132715374231,-4.09516211270988,1.1260676842167974,2026-04-11T19:13:19.365-05:00
1775952799375347200,1.72934716796875,-1.0610288103342056,-4.461157571327686,0.9761252522915601,2026-04-11T19:13:19.375-05:00
1775952799385403100,1.739403076171875,-1.1756769337773323,-4.896366851425171,0.9797456347458064,2026-04-11T19:13:19.385-05:00
1775952799395460000,1.749460205078125,-1.092611697077751,-5.579506936252117,0.948902022062242,2026-04-11T19:13:19.395-05:00
1775952799405517000,1.75951708984375,-0.8716250133752822,-6.231495511490106,0.6902241248037666,2026-04-11T19:13:19.405-05:00
1775952799415574000,1.769573974609375,-0.8001368172228336,-6.760134770435094,0.3448077456930652,2026-04-11T19:13:19.415-05:00
1775952799425630200,1.779630126953125,-0.7291442956328391,-6.816236012363434,-0.36552605100776997,2026-04-11T19:13:19.425-05:00
1775952799435687200,1.789687255859375,-0.3888064253628254,-6.153876265236735,-1.1184805900886654,2026-04-11T19:13:19.435-05:00
1775952799445744000,1.799744140625,0.13380641289949416,-4.405918499186635,-1.0076539246298373,2026-04-11T19:13:19.445-05:00
1775952799455801000,1.809801025390625,1.0782945640422403,-2.4635019908756015,-0.09448723281547426,2026-04-11T19:13:19.455-05:00
1775952799465857000,1.81985693359375,2.269800204461813,2.099752265357971,1.534905382478237,2026-04-11T19:13:19.465-05:00
1775952799475914000,1.8299140625,3.712314888012409,9.962350264799595,4.311792647029459,2026-04-11T19:13:19.475-05:00
1775952799485971000,1.839970947265625,5.37446133352518,19.778008916163444,5.837995375353097,2026-04-11T19:13:19.485-05:00
1775952799496028200,1.850028076171875,4.654074344843626,25.31941671564579,0.7234528059929609,2026-04-11T19:13:19.496-05:00
1775952799506085000,1.860085205078125,2.1441548861861226,23.427148678338526,-3.1964775352343917,2026-04-11T19:13:19.506-05:00
1775952799516141300,1.870141357421875,-0.0428161553543061,19.340887080442904,2.6104426106363534,2026-04-11T19:13:19.516-05:00
1775952799526198300,1.8801982421875,-1.2768132492184638,13.968095141434668,7.981488582760095,2026-04-11T19:13:19.526-05:00
1775952799536255200,1.890255126953125,-2.319270630073547,8.56907044453919,7.298126379615068,2026-04-11T19:13:19.536-05:00
1775952799546312200,1.900312255859375,-4.11107104498148,2.1553321137607098,4.950723880034685,2026-04-11T19:13:19.546-05:00
1775952799556368100,1.9103681640625,-4.714373622983694,-2.7931875342279673,2.979536035269499,2026-04-11T19:13:19.556-05:00
1775952799566425000,1.920425048828125,-2.9498996064186094,-3.8560505742520093,1.9411685540765522,2026-04-11T19:13:19.566-05:00
1775952799576482000,1.93048193359375,-1.3808558074951172,-3.598177636700868,1.1444172876387835,2026-04-11T19:13:19.576-05:00
1775952799586539000,1.9405390625,-0.2647058523111045,-3.313541195386648,0.5939870526462793,2026-04-11T19:13:19.586-05:00
1775952799596595200,1.95059521484375,0.7493310513541102,-3.1076620644450186,0.21323680022805927,2026-04-11T19:13:19.596-05:00
1775952799606652200,1.960652099609375,1.4163701884686946,-2.9116724593549965,-0.03966828578263521,2026-04-11T19:13:19.606-05:00
1775952799616709000,1.970709228515625,1.7763515013635158,-2.4561428602844475,-0.4081768962651491,2026-04-11T19:13:19.616-05:00
1775952799626766000,1.98076611328125,1.8211638720363377,-1.709559938594699,-1.195336450754106,2026-04-11T19:13:19.626-05:00
1775952799636822000,1.990822021484375,2.0328858837872743,-1.2291764687746762,-2.1535005144193766,2026-04-11T19:13:19.636-05:00
1775952799646879000,2.00087890625,2.2561098250225187,-1.2110194653153419,-2.7401500637844203,2026-04-11T19:13:19.646-05:00
1775952799656936200,2.010936279296875,2.15664582670778,-1.0875935766547917,-2.7214772197574377,2026-04-11T19:13:19.656-05:00
1775952799666993200,2.0209931640625,1.5835796892762184,-0.3762386202126741,-2.502636608172953,2026-04-11T19:13:19.666-05:00
1775952799677050000,2.031050048828125,0.801866709755361,1.182266249039769,-2.483239833785593,2026-04-11T19:13:19.677-05:00
1775952799687106300,2.041106201171875,0.9209991390056907,3.079510321193933,-2.9136306076854463,2026-04-11T19:13:19.687-05:00
1775952799697163300,2.051163330078125,3.412235378372669,4.3175382049441335,-4.215511954925954,2026-04-11T19:13:19.697-05:00
1775952799707220200,2.06122021484375,8.90738177741766,4.691726322367787,-6.421983012032508,2026-04-11T19:13:19.707-05:00
1775952799717277200,2.071277099609375,18.824844268220662,4.5357332121014595,-9.738024792063236,2026-04-11T19:13:19.717-05:00
1775952799727333000,2.0813330078125,17.629086669445037,3.4385523074120283,-8.609553846096992,2026-04-11T19:13:19.727-05:00
1775952799737390000,2.09139013671875,12.402834368181228,2.2185773822247983,-4.910462012273073,2026-04-11T19:13:19.737-05:00
1775952799747447000,2.101447021484375,7.408536719357967,1.8250187938988207,-1.0669128999367357,2026-04-11T19:13:19.747-05:00
1775952799757504000,2.11150390625,3.0901573874145742,2.3035347162812947,1.634221642885357,2026-04-11T19:13:19.757-05:00
1775952799767560000,2.121559814453125,0.13560790936350822,3.1376772634804246,3.541331129363179,2026-04-11T19:13:19.767-05:00
1775952799777617200,2.1316171875,-1.4562836811840534,3.760629129326343,4.949163206589222,2026-04-11T19:13:19.777-05:00
1775952799787674000,2.141674072265625,-3.0121301448822018,3.8326381344825027,4.86650947329998,2026-04-11T19:13:19.787-05:00
1775952799797731300,2.1517314453125,-3.566218317860365,3.7575533751428125,3.8126042312353845,2026-04-11T19:13:19.797-05:00
1775952799807788300,2.161788330078125,-3.684070790302753,3.558520749095082,2.615364869469404,2026-04-11T19:13:19.807-05:00
1775952799817844200,2.17184423828125,-4.105653988368809,3.6110903097659346,1.9610295849747954,2026-04-11T19:13:19.817-05:00
1775952799827901200,2.181901123046875,-4.616439318454265,3.8088223746091123,1.9480099444039165,2026-04-11T19:13:19.827-05:00
1775952799837958100,2.191958251953125,-5.161173972153663,3.824843535083532,2.291769751946628,2026-04-11T19:13:19.837-05:00
1775952799848015000,2.20201513671875,-5.5957578138291835,3.84346055727005,2.792984705132246,2026-04-11T19:13:19.848-05:00
1775952799858071000,2.212071044921875,-5.970402442848682,3.6843227192372083,3.284749400666356,2026-04-11T19:13:19.858-05:00
1775952799868128000,2.2221279296875,-5.828208140832185,3.2504058170378207,3.661704644715786,2026-04-11T19:13:19.868-05:00
1775952799878185000,2.23218505859375,-4.620020099550485,2.861020130482316,3.7684558774292465,2026-04-11T19:13:19.878-05:00
1775952799888242200,2.2422421875,-3.504147938394546,2.151482452595234,3.666187635348737,2026-04-11T19:13:19.888-05:00
1775952799898298000,2.252298095703125,-3.1203248544022437,1.1229010368794201,3.4588469074219463,2026-04-11T19:13:19.898-05:00
1775952799908355000,2.26235498046875,-2.8261095606207847,0.17555588887035845,3.318362624193728,2026-04-11T19:13:19.908-05:00
1775952799918412000,2.272412109375,-2.6070085445344446,-0.7112000581413507,3.142291187016666,2026-04-11T19:13:19.918-05:00
1775952799928469200,2.28246923828125,-2.5972081582710147,-1.37486387360394,2.911813036869466,2026-04-11T19:13:19.928-05:00
1775952799938526200,2.292526123046875,-2.654158418244123,-1.8958388815313576,2.4942259227022525,2026-04-11T19:13:19.938-05:00
1775952799948582100,2.30258203125,-2.579465873092413,-2.4551345600247383,2.0337848784536123,2026-04-11T19:13:19.948-05:00
1775952799958639600,2.3126396484375,-2.5944611976504324,-3.095838940182328,1.5588094051569699,2026-04-11T19:13:19.958-05:00
1775952799968696600,2.322696533203125,-2.6385201196074486,-3.6987247540771957,1.05899248220101,2026-04-11T19:13:19.968-05:00
1775952799978753500,2.33275341796875,-2.4541233371555804,-4.001564376080036,0.4971751032102853,2026-04-11T19:13:19.978-05:00
1775952799988809700,2.342809814453125,-2.303504613403976,-4.294301706263423,0.15063772071301937,2026-04-11T19:13:19.988-05:00
1775952799998866700,2.35286669921875,-2.1703763920269905,-4.330933693090081,-0.07265665540993213,2026-04-11T19:13:19.998-05:00
1775952800008923600,2.362923583984375,-1.8072483055390416,-4.224363077640533,0.06009074995592236,2026-04-11T19:13:20.008-05:00
1775952800018980600,2.372980712890625,-1.460168267532438,-3.953661638176441,0.5441588996380567,2026-04-11T19:13:20.018-05:00
1775952800029036500,2.38303662109375,-1.147125231423229,-3.814243230614066,1.110421640665084,2026-04-11T19:13:20.029-05:00
1775952800039093500,2.393093505859375,-0.8283845681942998,-3.8199434880822896,1.5445073235601186,2026-04-11T19:13:20.039-05:00
1775952800049150500,2.403150390625,-0.6323322731316089,-3.8458693719774484,1.8736299723327159,2026-04-11T19:13:20.049-05:00
1775952800059207700,2.413207763671875,-0.628750469122082,-3.8415053315490484,2.1286437210604547,2026-04-11T19:13:20.059-05:00
1775952800069264600,2.4232646484375,-0.7229553778648377,-3.7091076164036987,2.2946184193760155,2026-04-11T19:13:20.069-05:00
1775952800079320800,2.43332080078125,-0.7214731764830649,-3.482370406350493,2.238838664487004,2026-04-11T19:13:20.079-05:00
1775952800089377800,2.443377685546875,-0.3300023542165756,-3.022124300152063,2.0887289131708444,2026-04-11T19:13:20.089-05:00
1775952800099434800,2.453434814453125,0.46285015121698375,-2.4256688115656373,1.9594239033438263,2026-04-11T19:13:20.099-05:00
1775952800109491700,2.46349169921875,1.3322935827694833,-1.7047224354356527,1.4500763509765267,2026-04-11T19:13:20.109-05:00
1775952800119547600,2.473547607421875,1.843805181302875,-1.175097672584653,0.6297719211243092,2026-04-11T19:13:20.119-05:00
1775952800129604600,2.4836044921875,2.142578722910583,-0.9123504069954156,-0.5214673214890062,2026-04-11T19:13:20.129-05:00
1775952800139661600,2.49366162109375,2.3801813181102274,-0.7128069088160991,-1.9318651575498282,2026-04-11T19:13:20.139-05:00
1775952800149718500,2.503718505859375,2.0906617809295653,-0.4807219079941511,-2.953079697759449,2026-04-11T19:13:20.149-05:00
1775952800159774700,2.513774658203125,1.4764638610340655,-0.05289280127584934,-3.2793285446614027,2026-04-11T19:13:20.159-05:00
1775952800169831700,2.523831787109375,1.0118437775351106,0.47682548507750033,-2.914442800851166,2026-04-11T19:13:20.169-05:00
1775952800179888600,2.533888671875,1.3250282679416239,0.9349211352437734,-2.531967916597426,2026-04-11T19:13:20.179-05:00
1775952800189945600,2.543945556640625,2.3193173918247223,1.179438916659355,-2.251139489264041,2026-04-11T19:13:20.189-05:00
1775952800200002800,2.5540029296875,3.4723031858444213,1.1796990289002656,-2.21586505452618,2026-04-11T19:13:20.200-05:00
1775952800210058500,2.56405859375,4.149012360841035,1.108300264596939,-2.19457106821537,2026-04-11T19:13:20.210-05:00
1775952800220115700,2.57411572265625,4.040058649647236,1.2334937474519014,-1.7809714162491261,2026-04-11T19:13:20.220-05:00
1775952800230172700,2.584172607421875,3.295209419882297,1.6077964311659334,-1.0858616382956505,2026-04-11T19:13:20.230-05:00
1775952800240229600,2.594229736328125,2.2739093933463095,1.9240461543619631,-0.3989180695325136,2026-04-11T19:13:20.240-05:00
1775952800250285600,2.60428564453125,1.3434569279491901,2.107950769382715,0.06403349623233079,2026-04-11T19:13:20.250-05:00
1775952800260342500,2.614342529296875,1.30561614985466,2.32068283495903,0.087059420902282,2026-04-11T19:13:20.260-05:00
1775952800270399700,2.624399658203125,2.8760885202765465,2.8848499188810584,-0.3472564174868166,2026-04-11T19:13:20.270-05:00
1775952800280456700,2.634456787109375,5.6610641064763065,4.179883884444832,-1.2696154466688632,2026-04-11T19:13:20.280-05:00
1775952800290512600,2.6445126953125,7.803555443364381,6.019492344710231,-2.637591898846626,2026-04-11T19:13:20.290-05:00
1775952800300569600,2.654569580078125,6.738612674456834,7.633024689179658,-3.4988621069461106,2026-04-11T19:13:20.300-05:00
1775952800310626600,2.66462646484375,3.5207226410984993,8.34355020906031,-3.117713795121014,2026-04-11T19:13:20.310-05:00
1775952800320683500,2.67468359375,1.186007773655653,7.55562346959114,-1.7291493129447102,2026-04-11T19:13:20.320-05:00
1775952800330740500,2.684740478515625,0.48075646785087883,4.675392442682385,-0.5771669603465125,2026-04-11T19:13:20.330-05:00
1775952800340796400,2.69479638671875,-0.8300223254639655,0.46359366306066513,-0.5592817960985005,2026-04-11T19:13:20.340-05:00
1775952800350853600,2.704853515625,-2.9903450140535828,-2.9953163727253673,-0.8325890341468155,2026-04-11T19:13:20.350-05:00
1775952800360910600,2.71491064453125,-5.023779763895273,-5.227646385970711,-0.6745859722975641,2026-04-11T19:13:20.360-05:00
1775952800370967600,2.724967529296875,-5.845466734147071,-6.3178369933813805,-0.34053317364640534,2026-04-11T19:13:20.370-05:00
1775952800381023700,2.735023681640625,-4.199589870911836,-7.385696526518464,0.09456446277014911,2026-04-11T19:13:20.381-05:00
1775952800391080700,2.745080810546875,-0.46213688838109374,-8.72904707148373,1.0556356460537761,2026-04-11T19:13:20.391-05:00
1775952800401137700,2.7551376953125,1.4960430062510073,-9.31779271634519,1.692190578381717,2026-04-11T19:13:20.401-05:00
1775952800411194600,2.765194580078125,-1.1258895511709153,-8.213761215108633,2.718679405732453,2026-04-11T19:13:20.411-05:00
1775952800421250600,2.77525048828125,-4.458439544540643,-4.96904747223258,4.190412877243757,2026-04-11T19:13:20.421-05:00
1775952800431307500,2.7853076171875,-3.5891011807978153,-0.8882067303419112,3.6307802218809724,2026-04-11T19:13:20.431-05:00
1775952800441364500,2.795364501953125,-0.04265840750932693,2.4106121122092006,2.1225787219330665,2026-04-11T19:13:20.441-05:00
1775952800451421400,2.80542138671875,1.7451099754035473,5.064364287739992,1.4949031885661184,2026-04-11T19:13:20.451-05:00
1775952800461478400,2.815478515625,1.9751076485574244,7.002334922558068,1.6247697777986525,2026-04-11T19:13:20.461-05:00
1775952800471534600,2.82553466796875,1.8833365428328512,7.865294398918747,1.6364993785589932,2026-04-11T19:13:20.471-05:00
1775952800481591600,2.835591552734375,1.3662135341584682,6.880088014549017,0.5975915799442678,2026-04-11T19:13:20.481-05:00
1775952800491648800,2.845648681640625,0.8869676170010119,4.051171579813957,-0.2323547576740384,2026-04-11T19:13:20.491-05:00
1775952800501705700,2.855705810546875,0.9999662196714431,1.188186286738515,-0.06531564499735831,2026-04-11T19:13:20.501-05:00
1775952800511761700,2.86576171875,0.8119161023437976,-0.3503150744050741,0.26315401975922287,2026-04-11T19:13:20.511-05:00
1775952800521818600,2.875818603515625,-0.1317301180820912,-0.8528583535850047,0.16605207440070807,2026-04-11T19:13:20.521-05:00
1775952800531875600,2.88587548828125,-0.8397639672774821,-1.400013512429595,-0.2583260881461203,2026-04-11T19:13:20.531-05:00
1775952800541932500,2.8959326171875,-1.1626491098999976,-1.929596774226427,-0.8348014494992793,2026-04-11T19:13:20.541-05:00
1775952800551988700,2.90598876953125,-1.4857013527177274,-2.0825129612654445,-1.2743968357264994,2026-04-11T19:13:20.551-05:00
1775952800562045700,2.916045654296875,-2.3034254106879235,-1.8025521105468272,-1.7331740384161471,2026-04-11T19:13:20.562-05:00
1775952800572102700,2.9261025390625,-3.5287621551692485,-1.0961433783352375,-2.034834972028434,2026-04-11T19:13:20.572-05:00
1775952800582159600,2.93615966796875,-3.868669817328453,-0.7500280937075614,-2.6825448470339177,2026-04-11T19:13:20.582-05:00
1775952800592216600,2.946216552734375,-2.9313983195662496,-0.6979694051682949,-3.4282205907508727,2026-04-11T19:13:20.592-05:00
1775952800602272500,2.9562724609375,-1.7963994331359863,-0.40998716055750845,-3.39839506906867,2026-04-11T19:13:20.602-05:00
1775952800612329500,2.96632958984375,-1.318502373304218,0.15576514672935007,-2.8868530753970143,2026-04-11T19:13:20.612-05:00
1775952800622386400,2.976386474609375,-0.8607284293729811,0.746677614235878,-2.5669018673345447,2026-04-11T19:13:20.622-05:00
1775952800632443600,2.986443603515625,-0.3618449148096144,1.3043208493471146,-2.467432900583744,2026-04-11T19:13:20.632-05:00
1775952800642499800,2.996499755859375,0.6189876383900642,1.4213134900897741,-1.8202093477904795,2026-04-11T19:13:20.642-05:00
1775952800652556800,3.006556884765625,1.7659611863829194,1.3062643846303224,-1.0192083880189806,2026-04-11T19:13:20.652-05:00
1775952800662613800,3.01661376953125,2.4305028075933457,1.0238999799013138,-0.22957586754523215,2026-04-11T19:13:20.662-05:00
1775952800672670700,3.026670654296875,1.8073055886842309,0.7223492286652327,0.029794468956813213,2026-04-11T19:13:20.672-05:00
1775952800682726700,3.0367265625,1.0533961234986782,0.4194909019619226,-0.22964579097628593,2026-04-11T19:13:20.682-05:00
1775952800692783600,3.04678369140625,0.9467734856009483,-0.03297463336288929,-0.5571859928630292,2026-04-11T19:13:20.692-05:00
1775952800702840600,3.056840576171875,0.04539733095392585,-0.3982721728444099,-1.0030169855441897,2026-04-11T19:13:20.702-05:00
1775952800712897500,3.0668974609375,-0.3012704729899764,-0.9421136770963668,-1.3321765322610735,2026-04-11T19:13:20.712-05:00
1775952800722954500,3.07695458984375,-0.5376737754024565,-1.4987264001160858,-1.137969207477942,2026-04-11T19:13:20.722-05:00
1775952800733010700,3.0870107421875,-0.5260008732654154,-1.8423282406181096,-0.8121658393211663,2026-04-11T19:13:20.733-05:00
1775952800743067600,3.097067626953125,-0.15795754220709204,-2.032377349743247,-0.3214226688545197,2026-04-11T19:13:20.743-05:00
1775952800753124600,3.10712451171875,-0.06916296807527542,-1.916364367687702,0.0361118354100734,2026-04-11T19:13:20.753-05:00
1775952800763181800,3.117181884765625,0.4510729119226336,-1.6107359917491673,0.16623203407749532,2026-04-11T19:13:20.763-05:00
1775952800773237500,3.127237548828125,0.8384314765647053,-1.1298942567676304,0.004671937333792448,2026-04-11T19:13:20.773-05:00
1775952800783294700,3.137294677734375,0.5047685540139675,-0.49812137108445165,-0.20719233243204652,2026-04-11T19:13:20.783-05:00
1775952800793351700,3.1473515625,0.19570874232202767,-0.1652449227362871,0.11566760268397629,2026-04-11T19:13:20.793-05:00
1775952800803408600,3.15740869140625,-0.3914110549032688,-0.02183130805790424,0.3469464016895741,2026-04-11T19:13:20.803-05:00
1775952800813464600,3.167464599609375,0.2155235959909856,-0.684817078128457,1.178508357810974,2026-04-11T19:13:20.813-05:00
1775952800823521800,3.177521728515625,0.5189969858527184,-1.8996639927774666,1.7186419474557042,2026-04-11T19:13:20.823-05:00
1775952800833578800,3.187578857421875,-1.3164210369855165,-1.4700141003727911,1.238403146803379,2026-04-11T19:13:20.833-05:00
1775952800843635700,3.1976357421875,-2.1878189636066554,-0.564427196162939,0.6103457014467567,2026-04-11T19:13:20.843-05:00
1775952800853692700,3.207692626953125,0.15492255842536687,0.2298252391964197,0.4271030574660748,2026-04-11T19:13:20.853-05:00
1775952800863748600,3.21774853515625,0.2774547131165862,0.5585977593570948,0.45421427868828174,2026-04-11T19:13:20.863-05:00
1775952800873805600,3.2278056640625,-0.36869390392154455,0.3865396494746208,0.800468971786648,2026-04-11T19:13:20.873-05:00
1775952800883862500,3.237862548828125,-1.1406965135499834,0.3115811468631029,1.4448048403143883,2026-04-11T19:13:20.883-05:00
1775952800893919500,3.24791943359375,-1.0208508214637637,0.642772418603301,1.640464775058627,2026-04-11T19:13:20.893-05:00
1775952800903975400,3.257975341796875,-0.7007420847520232,0.9340981284230947,1.4929586303696036,2026-04-11T19:13:20.903-05:00
1775952800914032400,3.268032470703125,-0.41193741784244775,1.0794622926473616,0.9792910228461027,2026-04-11T19:13:20.914-05:00
1775952800924089600,3.278089599609375,-1.1633347540766,1.3854396281540393,0.5946664132125675,2026-04-11T19:13:20.924-05:00
1775952800934146800,3.288146728515625,-1.2657903354227542,1.317910398760438,0.717819330150634,2026-04-11T19:13:20.934-05:00
1775952800944202800,3.29820263671875,-1.4177373851686714,0.9965215591102838,0.5304065608784556,2026-04-11T19:13:20.944-05:00
1775952800954259700,3.308259765625,-1.3981909731775521,0.5088128609687089,0.3766720431938767,2026-04-11T19:13:20.954-05:00
1775952800964316700,3.318316650390625,-1.2997054645061492,0.35460488055348394,-0.12106938866227865,2026-04-11T19:13:20.964-05:00
1775952800974373600,3.32837353515625,-0.8855120844304561,0.4449895003557205,-0.4355295980930328,2026-04-11T19:13:20.974-05:00
1775952800984430600,3.3384306640625,-0.5600950121775269,0.6681529435753822,-0.2458018298767507,2026-04-11T19:13:20.984-05:00
1775952800994486500,3.348486572265625,-0.6013081893146037,1.3016776413619517,-0.5861009755715727,2026-04-11T19:13:20.994-05:00
1775952801004543500,3.35854345703125,-0.8540817579001188,1.943255881744623,-1.0637259404636918,2026-04-11T19:13:21.004-05:00
1775952801014600700,3.3686005859375,-1.2854483910948038,2.5786791066288948,-1.808970599287003,2026-04-11T19:13:21.014-05:00
1775952801024657700,3.37865771484375,-0.867763077250123,2.9220816251665354,-2.33714691689536,2026-04-11T19:13:21.024-05:00
1775952801034713900,3.3887138671875,0.22982933084964752,2.707098565793037,-2.058928964321315,2026-04-11T19:13:21.034-05:00
1775952801044770800,3.398770751953125,0.0885439603716135,2.4476737226247787,-2.217425581841171,2026-04-11T19:13:21.044-05:00
1775952801054827800,3.408827880859375,0.03536474336981773,2.1357143900990483,-2.5762083326011895,2026-04-11T19:13:21.054-05:00
1775952801064884700,3.418884765625,-0.05268120435178279,2.232871280515194,-2.1638892219647765,2026-04-11T19:13:21.064-05:00
1775952801074940700,3.428940673828125,-0.6180202546626329,2.2911796770989894,-0.9287750337041913,2026-04-11T19:13:21.074-05:00
1775952801084997600,3.43899755859375,-0.13675766392052172,2.708383929428458,-0.5611272778347134,2026-04-11T19:13:21.084-05:00
1775952801095054600,3.4490546875,-0.2319686809659004,3.207724028652906,0.26531170924976466,2026-04-11T19:13:21.095-05:00
1775952801105111600,3.459111572265625,-0.7723094836205243,3.546633327424526,0.3592113514356315,2026-04-11T19:13:21.105-05:00
1775952801115168500,3.46916845703125,-0.8831500314742327,3.784479375991225,-0.34864874862805006,2026-04-11T19:13:21.115-05:00
1775952801125224700,3.479224609375,-0.9443097258359193,4.114101206457614,-1.5059886462040244,2026-04-11T19:13:21.125-05:00
1775952801135281700,3.48928173828125,-1.1105600262224673,4.108824727359414,-2.0811016331627963,2026-04-11T19:13:21.135-05:00
1775952801145338600,3.499338623046875,-1.503681392174959,4.126358630484343,-2.2768726270660755,2026-04-11T19:13:21.145-05:00
1775952801155395800,3.509395751953125,-2.6689012293457983,3.4417665932834147,-1.9613664157137274,2026-04-11T19:13:21.155-05:00
1775952801165451800,3.51945166015625,-3.8629824193418023,2.2264561527758837,-0.5347396216467023,2026-04-11T19:13:21.165-05:00
1775952801175508700,3.5295087890625,-4.9102971771001815,0.5466004475712776,1.4449907182753086,2026-04-11T19:13:21.175-05:00
1775952801185565700,3.539565673828125,-5.259960509598255,-1.609181163522601,3.0556229573890565,2026-04-11T19:13:21.185-05:00
1775952801195622700,3.54962255859375,-4.657570954787731,-3.929153804385662,4.655257417148351,2026-04-11T19:13:21.195-05:00
1775952801205678800,3.559678955078125,-4.252477411490679,-4.165453500293195,6.123761112958192,2026-04-11T19:13:21.205-05:00
1775952801215735800,3.56973583984375,-2.560686353820562,-1.3698536442264915,6.359141648194194,2026-04-11T19:13:21.215-05:00
1775952801225792800,3.579792724609375,-0.5320797547876834,1.9702640079185365,5.428367111235857,2026-04-11T19:13:21.225-05:00
1775952801235849700,3.589849609375,0.6829366712093353,3.1179929043233394,3.261501211547851,2026-04-11T19:13:21.235-05:00
1775952801245906700,3.59990673828125,1.8882517874032259,2.566782917129993,1.2138222477763891,2026-04-11T19:13:21.245-05:00
1775952801255962600,3.609962646484375,2.0904741494029757,1.9525836820602416,-0.13867226537019015,2026-04-11T19:13:21.255-05:00
1775952801266019600,3.62001953125,1.254897185486555,1.5221829712882637,-0.6319950040012597,2026-04-11T19:13:21.266-05:00
1775952801276076500,3.63007666015625,1.2052350366950035,1.2549851560309528,-0.0008978256225585938,2026-04-11T19:13:21.276-05:00
1775952801286133800,3.6401337890625,1.4546066878825425,1.478037832352519,0.7418652455180883,2026-04-11T19:13:21.286-05:00
1775952801296189700,3.650189697265625,1.7380629795014857,1.2792989285543561,0.79390493709594,2026-04-11T19:13:21.296-05:00
1775952801306247000,3.660246826171875,1.715697418436408,0.7007090592652558,0.9558835515126586,2026-04-11T19:13:21.306-05:00
1775952801316304000,3.670303955078125,2.5520342608094215,0.4987523624643683,1.3760419774726032,2026-04-11T19:13:21.316-05:00
1775952801326360800,3.68036083984375,3.7813568600565195,0.9498173833414911,1.9670988218858836,2026-04-11T19:13:21.326-05:00
1775952801336417800,3.690417724609375,4.529973917922377,1.6415511089906096,2.282433476063609,2026-04-11T19:13:21.336-05:00
1775952801346473700,3.7004736328125,5.036477332904934,1.8695739749401807,2.25677851806432,2026-04-11T19:13:21.346-05:00
1775952801356530700,3.71053076171875,4.373752844119072,1.7038190568551421,1.9353706814527512,2026-04-11T19:13:21.356-05:00
1775952801366587600,3.720587646484375,2.657631647312641,1.5190215846478938,1.461457868951559,2026-04-11T19:13:21.366-05:00
1775952801376644600,3.73064453125,1.239824119517207,1.1531211108371615,1.4321052254781126,2026-04-11T19:13:21.376-05:00
1775952801386700800,3.74070068359375,0.16044307541251182,0.4674944698914885,1.7962194003939627,2026-04-11T19:13:21.386-05:00
1775952801396757800,3.7507578125,-0.4619482339411974,0.060343847934156654,1.3276838970169424,2026-04-11T19:13:21.396-05:00
1775952801406814700,3.760814697265625,-1.2583645693361758,-0.3196263600222766,0.6563797959342599,2026-04-11T19:13:21.406-05:00
1775952801416871700,3.77087158203125,-3.128163585203886,-1.2254456116832793,0.37914369400441644,2026-04-11T19:13:21.416-05:00
1775952801426927600,3.780927734375,-3.9855782869189977,-2.2817862642012536,-1.5740180802047252,2026-04-11T19:13:21.426-05:00
1775952801436984600,3.790984619140625,-5.227920526736974,-2.957539307516813,-3.567732229554653,2026-04-11T19:13:21.436-05:00
1775952801447041800,3.801041748046875,-8.856529542058706,-3.4621114621758458,-5.905966503295302,2026-04-11T19:13:21.447-05:00
1775952801457098800,3.8110986328125,-9.841184722286462,-4.321845254488289,-7.96413529689908,2026-04-11T19:13:21.457-05:00
1775952801467155700,3.82115576171875,-7.989550308662652,-4.265254183216393,-9.240382728928328,2026-04-11T19:13:21.467-05:00
1775952801477211600,3.831211669921875,-8.480575584006308,-3.3238270270794628,-9.520068269836901,2026-04-11T19:13:21.477-05:00
1775952801487268900,3.841268798828125,-12.144736389702558,-3.281874722012877,-9.733587101876735,2026-04-11T19:13:21.487-05:00
1775952801497325800,3.851325927734375,-15.558154840379952,-3.2269816868305203,-9.397087202334404,2026-04-11T19:13:21.497-05:00
1775952801507382800,3.8613828125,-17.183706708467007,-3.121481623221934,-8.675875453266501,2026-04-11T19:13:21.507-05:00
1775952801517438700,3.871438720703125,-18.270763109505175,-2.941193152871728,-8.105508930182456,2026-04-11T19:13:21.517-05:00
1775952801527495700,3.88149560546875,-18.23116292052269,-2.7848557592123746,-7.1937892223060125,2026-04-11T19:13:21.527-05:00
1775952801537552600,3.891552734375,-17.04117455279827,-2.1968980498582122,-5.91305792286098,2026-04-11T19:13:21.537-05:00
1775952801547609600,3.901609619140625,-15.857877791666983,-1.6076009085938334,-4.34035384786427,2026-04-11T19:13:21.547-05:00
1775952801557665500,3.91166552734375,-14.292551551961898,-1.0857789284482597,-2.5835242085725065,2026-04-11T19:13:21.557-05:00
1775952801567722500,3.921722412109375,-13.321364925116299,-0.38828035566210745,-1.0868073947131633,2026-04-11T19:13:21.567-05:00
1775952801577779700,3.93177978515625,-13.532168068456649,-0.42535014938414095,0.285817760053277,2026-04-11T19:13:21.577-05:00
1775952801587836700,3.941836669921875,-13.502749081748723,-0.4358832338362932,1.575060867255926,2026-04-11T19:13:21.587-05:00
1775952801597894000,3.951893798828125,-12.826253841763734,-0.48809974328577516,2.4035253688186407,2026-04-11T19:13:21.597-05:00
1775952801607949800,3.96194970703125,-11.639743379282951,-0.46061026333570476,3.5012212372928855,2026-04-11T19:13:21.607-05:00
1775952801618006800,3.9720068359375,-10.306329706442355,-0.2321387768357992,4.935637954583764,2026-04-11T19:13:21.618-05:00
1775952801628063700,3.982063720703125,-9.378075043350458,0.07540975351035595,6.83123718214035,2026-04-11T19:13:21.628-05:00
1775952801638120700,3.99212060546875,-8.543793964463472,0.7694441573172808,8.896759261116385,2026-04-11T19:13:21.638-05:00
1775952801648176600,4.0021767578125,-7.720104422217607,1.6878332599550485,10.77035474665761,2026-04-11T19:13:21.648-05:00
1775952801658233600,4.012233642578125,-6.561404342204332,2.738763285601139,12.025095280277728,2026-04-11T19:13:21.658-05:00
1775952801668290600,4.02229052734375,-5.200067474171519,3.644759355133772,12.86736794244051,2026-04-11T19:13:21.668-05:00
1775952801678347500,4.032347412109375,-3.5813650335878133,4.9041070902884005,12.346070278429984,2026-04-11T19:13:21.678-05:00
1775952801688404700,4.04240478515625,-1.8851959069639443,6.371701270037889,11.324459286248683,2026-04-11T19:13:21.688-05:00
1775952801698460700,4.052460693359375,-0.9164791773632168,7.548497563233971,10.355401488125324,2026-04-11T19:13:21.698-05:00
1775952801708517600,4.062517578125,-1.7339996755853295,9.184736245030164,11.267944202822447,2026-04-11T19:13:21.708-05:00
1775952801718574800,4.072574951171875,-3.1264117731004952,10.403857183736562,13.226804480934142,2026-04-11T19:13:21.718-05:00
1775952801728631800,4.0826318359375,-3.857981250053644,11.096755276989937,13.967524648070334,2026-04-11T19:13:21.728-05:00
1775952801738687700,4.092687744140625,-3.7971006648942827,11.492453215432166,13.802329409694671,2026-04-11T19:13:21.738-05:00
1775952801748744700,4.10274462890625,-3.1651942159593105,12.078380295741557,13.195508009916542,2026-04-11T19:13:21.748-05:00
1775952801758801700,4.1128017578125,-2.0723539708226917,12.872348068940639,12.537789951115846,2026-04-11T19:13:21.758-05:00
1775952801768858600,4.122858642578125,-0.5108148484408855,12.667872959578036,10.837844813084601,2026-04-11T19:13:21.768-05:00
1775952801778915600,4.13291552734375,1.1592027688384055,11.403961277508735,8.406411446642876,2026-04-11T19:13:21.778-05:00
1775952801788971800,4.1429716796875,2.46055833863914,9.992408718454838,6.524181403747201,2026-04-11T19:13:21.788-05:00
1775952801799028700,4.15302880859375,3.707387368482351,8.515659756869077,4.940208915761113,2026-04-11T19:13:21.799-05:00
1775952801809085700,4.163085693359375,4.849087213855982,7.248937693554162,3.200754774162173,2026-04-11T19:13:21.809-05:00
1775952801819142700,4.173142578125,5.071563259333372,8.024590057861804,3.1276983057796954,2026-04-11T19:13:21.819-05:00
1775952801829198600,4.183198486328125,5.496342915353178,9.022315732064843,3.254498054787516,2026-04-11T19:13:21.829-05:00
1775952801839255600,4.193255615234375,6.180677178400755,9.150511319345235,3.230624719507992,2026-04-11T19:13:21.839-05:00
1775952801849312500,4.2033125,6.959061013498902,8.214466148507595,2.9653008814290165,2026-04-11T19:13:21.849-05:00
1775952801859369700,4.21336962890625,7.844254533499479,6.631934506979584,2.3229764988541604,2026-04-11T19:13:21.859-05:00
1775952801869426700,4.2234267578125,8.704614056494831,4.868723642218113,1.4409414428845047,2026-04-11T19:13:21.869-05:00
1775952801879483000,4.23348291015625,9.08543357475698,3.389152316688001,0.5026981774806976,2026-04-11T19:13:21.879-05:00
1775952801889539800,4.243539794921875,9.016529549878834,2.448379532806575,-0.37365327989459035,2026-04-11T19:13:21.889-05:00
1775952801899596800,4.2535966796875,9.003060411974786,1.6236578710339962,-1.1316188886031509,2026-04-11T19:13:21.899-05:00
1775952801909653800,4.26365380859375,9.360164123606681,0.8145334452353418,-1.7150582437500357,2026-04-11T19:13:21.909-05:00
1775952801919709700,4.273709716796875,10.330828187882899,0.024320056133717297,-2.384399520327151,2026-04-11T19:13:21.919-05:00
1775952801929766700,4.2837666015625,9.822234522622823,-0.13212868894562124,-2.8677129061192272,2026-04-11T19:13:21.929-05:00
1775952801939823600,4.29382373046875,8.347630171850323,0.3807140120610594,-2.7952070573568344,2026-04-11T19:13:21.939-05:00
1775952801949880600,4.303880615234375,7.825543987810612,0.7513488209173083,-2.957735706871748,2026-04-11T19:13:21.949-05:00
1775952801959936800,4.313936767578125,7.436336580431461,1.3332690036728978,-2.9783553010523316,2026-04-11T19:13:21.959-05:00
1775952801969993700,4.32399365234375,7.0001534868657584,2.328029544460028,-2.4768144769132134,2026-04-11T19:13:21.969-05:00
1775952801980050700,4.33405078125,6.372810108062625,3.3075539376705883,-2.012449829480052,2026-04-11T19:13:21.980-05:00
1775952801990107600,4.344107666015625,5.6079801665425295,4.019716411103308,-1.5869868673712013,2026-04-11T19:13:21.990-05:00
1775952802000164600,4.35416455078125,4.486795870453119,4.713766597001254,-0.7893401133984327,2026-04-11T19:13:22.000-05:00
1775952802010220500,4.364220458984375,3.265108880650997,5.204141007220745,0.06314356165528297,2026-04-11T19:13:22.010-05:00
1775952802020277500,4.374277587890625,1.8059937754333018,5.709302359944582,0.7182248422116041,2026-04-11T19:13:22.020-05:00
1775952802030334500,4.38433447265625,0.1992909847229719,6.041737494266033,1.7368921821564436,2026-04-11T19:13:22.030-05:00
1775952802040391400,4.394391357421875,-1.226038170748949,6.278060863310098,2.555007723662257,2026-04-11T19:13:22.040-05:00
1775952802050447600,4.404447509765625,-3.149139153215289,5.704222864723206,2.869648842617869,2026-04-11T19:13:22.050-05:00
1775952802060504600,4.414504638671875,-4.86630489063859,4.733937862892448,2.932447536358237,2026-04-11T19:13:22.060-05:00
1775952802070561500,4.4245615234375,-6.235940215939283,3.3426664598450064,2.9221628737092016,2026-04-11T19:13:22.070-05:00
1775952802080618800,4.43461865234375,-7.027389284315705,1.6897107442647217,2.6457097388505932,2026-04-11T19:13:22.080-05:00
1775952802090675700,4.44467578125,-7.908603963813185,0.14970920769125223,2.5319781457304953,2026-04-11T19:13:22.090-05:00
1775952802100731600,4.454731689453125,-8.446392743897437,-1.6584291785553096,2.124879107829928,2026-04-11T19:13:22.100-05:00
1775952802110788600,4.46478857421875,-8.203793947845696,-3.380308208236098,1.1599468652039766,2026-04-11T19:13:22.110-05:00
1775952802120845600,4.474845458984375,-7.387310975977778,-4.760198677830398,-0.11956687514483928,2026-04-11T19:13:22.120-05:00
1775952802130902500,4.484902587890625,-5.9344748048990965,-5.73746696267724,-1.1837111871510744,2026-04-11T19:13:22.130-05:00
1775952802140958700,4.494958740234375,-4.429355488875508,-6.314013635700941,-1.7804326331973075,2026-04-11T19:13:22.140-05:00
1775952802151015700,4.505015625,-2.969098812407255,-6.192063664811849,-2.0389725102245806,2026-04-11T19:13:22.151-05:00
1775952802161072600,4.51507275390625,-1.9657962148547172,-5.819774659007788,-2.02780288143456,2026-04-11T19:13:22.161-05:00
1775952802171129600,4.525129638671875,-1.4758470443099736,-5.124841260534525,-1.8218202901184557,2026-04-11T19:13:22.171-05:00
1775952802181186600,4.5351865234375,-1.059918218743801,-4.295149263003468,-1.5539835924357175,2026-04-11T19:13:22.181-05:00
1775952802191242500,4.545242431640625,-0.6006453414916992,-3.322914296148717,-1.2404431281983852,2026-04-11T19:13:22.191-05:00
1775952802201299500,4.555299560546875,-0.18330255747437477,-2.190854093518853,-0.8362783901840448,2026-04-11T19:13:22.201-05:00
1775952802211356700,4.565356689453125,0.047398880034685134,-0.9680264092490076,-0.3346931423813104,2026-04-11T19:13:22.211-05:00
1775952802221413600,4.57541357421875,0.05281915151774883,0.2848801869422197,0.29421558604240416,2026-04-11T19:13:22.221-05:00
1775952802231469600,4.585469482421875,-0.07441197464466094,1.4916834958672522,1.0152695142000914,2026-04-11T19:13:22.231-05:00
1775952802241526500,4.595526611328125,-0.2162485492646694,2.6358541152685877,1.5875561916917562,2026-04-11T19:13:22.241-05:00
1775952802251583700,4.605583740234375,-0.3046446255981922,3.567581130646169,1.9748522124916315,2026-04-11T19:13:22.251-05:00
1775952802261640700,4.615640625,-0.24559271717071532,4.118105473662912,2.1864590734302998,2026-04-11T19:13:22.261-05:00
1775952802271696600,4.625696533203125,-0.04846680152714252,4.091900188304484,2.2958628664791583,2026-04-11T19:13:22.271-05:00
1775952802281753600,4.635753662109375,0.39833237859904763,3.574999590209126,1.9509452672034502,2026-04-11T19:13:22.281-05:00
1775952802291810600,4.645810546875,1.1324246520280838,2.8136159897506237,0.825721924856305,2026-04-11T19:13:22.291-05:00
1775952802301867500,4.655867431640625,1.8886480932444334,1.9068349073201416,-0.6316361075609922,2026-04-11T19:13:22.301-05:00
1775952802311924500,4.665924560546875,2.4806717368632554,1.1641010622739791,-1.8464952971696853,2026-04-11T19:13:22.311-05:00
1775952802321980400,4.67598046875,2.9133564669191836,0.6469131716698407,-2.739517903360724,2026-04-11T19:13:22.321-05:00
1775952802332037400,4.686037353515625,3.2333108898520466,0.29911534078270197,-3.3283623324215412,2026-04-11T19:13:22.332-05:00
1775952802342094600,4.696094482421875,3.400582349979877,0.07967880913168192,-3.6673973033994436,2026-04-11T19:13:22.342-05:00
1775952802352151800,4.70615185546875,3.3734459212511774,0.07661883703917265,-3.5426486417025327,2026-04-11T19:13:22.352-05:00
1775952802362207500,4.71620751953125,3.0641438252359627,0.39557723467200995,-2.8788895491719244,2026-04-11T19:13:22.362-05:00
1775952802372264700,4.7262646484375,2.6516736156910654,0.8934151126399635,-2.0827263117551804,2026-04-11T19:13:22.372-05:00
1775952802382321700,4.73632177734375,2.246513436898589,1.4317071660712362,-1.2989695514470339,2026-04-11T19:13:22.382-05:00
1775952802392378600,4.746378662109375,1.8713345548719167,1.9967364197805522,-0.5904325750350952,2026-04-11T19:13:22.392-05:00
1775952802402435600,4.756435546875,1.5683330203056334,2.4469787260979414,-0.06795008515417575,2026-04-11T19:13:22.402-05:00
1775952802412491500,4.766491455078125,1.307329968035221,2.612610310064256,0.25711656622588636,2026-04-11T19:13:22.412-05:00
1775952802422548500,4.776548583984375,1.1562760677367447,2.3625375248700378,0.14253507827818393,2026-04-11T19:13:22.422-05:00
1775952802432605400,4.78660546875,1.135874500221014,1.739322916434705,-0.48383331801295276,2026-04-11T19:13:22.432-05:00
1775952802442662700,4.79666259765625,1.0798206045657395,1.1485951578453182,-0.9663473701208829,2026-04-11T19:13:22.442-05:00
1775952802452718600,4.806718505859375,0.8449041797101497,0.652822980235517,-1.0896049164772033,2026-04-11T19:13:22.452-05:00
1775952802462775600,4.816775634765625,0.41546237709820266,0.2301031793549657,-0.8911708408445119,2026-04-11T19:13:22.462-05:00
1775952802472832500,4.82683251953125,-0.1512713424414396,-0.06991933940052986,-0.45275136652886866,2026-04-11T19:13:22.472-05:00
1775952802482889500,4.836889404296875,-0.8037532541543245,-0.22976327987611292,0.18126257607936858,2026-04-11T19:13:22.482-05:00
1775952802492946700,4.84694677734375,-1.4494552964687346,-0.20769728627949952,0.9672861122757196,2026-04-11T19:13:22.492-05:00
1775952802503002600,4.857002685546875,-2.1074737995207307,-0.12800444862246513,1.7975678923934697,2026-04-11T19:13:22.503-05:00
1775952802513059600,4.8670595703125,-2.4923569139599797,-0.08080489055216312,2.4326959337234495,2026-04-11T19:13:22.513-05:00
1775952802523116500,4.877116455078125,-2.6483207981318233,-0.13148118482232093,2.8751410102933646,2026-04-11T19:13:22.523-05:00
1775952802533173500,4.887173583984375,-2.4563912820875644,-0.25352029529958964,3.0365736812651156,2026-04-11T19:13:22.533-05:00
1775952802543229700,4.897229736328125,-1.8906050725311039,-0.4881251699879765,2.8801708211541173,2026-04-11T19:13:22.543-05:00
1775952802553286700,4.90728662109375,-1.0710644666582345,-0.7155652676135301,2.4756600461810825,2026-04-11T19:13:22.553-05:00
1775952802563343600,4.917343505859375,-0.3645674716413021,-0.8932306959837675,2.0987813744992017,2026-04-11T19:13:22.563-05:00
1775952802573400600,4.927400634765625,0.1380056181550026,-0.9761781515225767,1.893911712861061,2026-04-11T19:13:22.573-05:00
1775952802583456500,4.93745654296875,0.5336205544888973,-0.9301724794119596,1.7597727070063351,2026-04-11T19:13:22.583-05:00
1775952802593513500,4.947513427734375,0.8533610424101352,-0.7560691274374723,1.6473294001311063,2026-04-11T19:13:22.593-05:00
1775952802603570400,4.9575703125,1.0689981817781924,-0.6292372297257185,1.5146826786607503,2026-04-11T19:13:22.603-05:00
1775952802613627400,4.96762744140625,1.172004967266321,-0.421843894828856,1.4614216285943984,2026-04-11T19:13:22.613-05:00
1775952802623684600,4.9776845703125,1.188499005949497,-0.2803042573288083,1.4294202241778373,2026-04-11T19:13:22.623-05:00
1775952802633740500,4.987740478515625,1.1293828001141548,-0.1927420014709234,1.3751900368183851,2026-04-11T19:13:22.633-05:00
1775952802643797800,4.9977978515625,1.03091950327456,-0.1494376972734928,1.2934084101885557,2026-04-11T19:13:22.643-05:00
1775952802653854700,5.007854736328125,0.767183226647973,-0.2121729703888297,1.3884049077004192,2026-04-11T19:13:22.653-05:00
1775952802663911700,5.01791162109375,0.3153022132128477,-0.2824807245850563,1.6298364135384558,2026-04-11T19:13:22.663-05:00
1775952802673967600,5.027967529296875,-0.016053309178352355,-0.3702072310939431,1.7404016515821217,2026-04-11T19:13:22.673-05:00
1775952802684024600,5.038024658203125,-0.10291676911711692,-0.5051148832336068,1.4867290883302688,2026-04-11T19:13:22.684-05:00
1775952802694081500,5.04808154296875,0.05256897614896297,-0.6020046471461653,1.0620932246953247,2026-04-11T19:13:22.694-05:00
1775952802704138500,5.058138427734375,0.21192484084665775,-0.7041238361448049,0.6658768153369427,2026-04-11T19:13:22.704-05:00
1775952802714194700,5.068194580078125,0.2838052511870861,-0.7447092367723583,0.4142255287796259,2026-04-11T19:13:22.714-05:00
1775952802724251600,5.078251708984375,0.2922890018939972,-0.6758750622600317,0.24286416898965835,2026-04-11T19:13:22.724-05:00
1775952802734308600,5.08830859375,0.26338497897088525,-0.5602192230790853,0.16841595398783682,2026-04-11T19:13:22.734-05:00
1775952802744365600,5.098365478515625,0.2007078657835722,-0.3400657753303647,0.113356914588809,2026-04-11T19:13:22.744-05:00
1775952802754422500,5.108422607421875,0.11671908449828625,-0.0656955842256546,0.03736439275443554,2026-04-11T19:13:22.754-05:00
1775952802764478500,5.118478515625,0.044427170747518535,0.2670896787077188,-0.08385667933821678,2026-04-11T19:13:22.764-05:00
1775952802774535400,5.128535400390625,0.03294073109328747,0.5693813114389776,-0.2860872246444225,2026-04-11T19:13:22.774-05:00
1775952802784592600,5.138592529296875,0.02740238618850708,0.7469120075136423,-0.5804056865394115,2026-04-11T19:13:22.784-05:00
1775952802794649600,5.148649658203125,-0.003797638717293739,0.7645265746593475,-0.8815624700218438,2026-04-11T19:13:22.794-05:00
1775952802804705800,5.158705810546875,-0.06600771891474723,0.6286705357536673,-1.205716682732105,2026-04-11T19:13:22.804-05:00
1775952802814762800,5.1687626953125,-0.17241759084463118,0.436573554188013,-1.4683756855159997,2026-04-11T19:13:22.814-05:00
1775952802824819700,5.17881982421875,-0.292156899946928,0.292660465554893,-1.6968565243661402,2026-04-11T19:13:22.824-05:00
1775952802834876700,5.188876708984375,-0.5043868612200021,0.22710896597504615,-1.7897329609841108,2026-04-11T19:13:22.834-05:00
1775952802844933600,5.19893359375,-0.8668471314489841,0.24288638082146644,-1.690523814213276,2026-04-11T19:13:22.844-05:00
1775952802854989600,5.208989501953125,-1.2656313454687595,0.32678222312629224,-1.4968495003283022,2026-04-11T19:13:22.854-05:00
1775952802865046500,5.219046630859375,-1.5006225891262293,0.4456283827811479,-1.4234879115194081,2026-04-11T19:13:22.865-05:00
1775952802875103500,5.229103515625,-1.4743810634106396,0.6031245910868048,-1.515964535164833,2026-04-11T19:13:22.875-05:00
1775952802885160400,5.239160400390625,-1.2674117991447449,0.8164575451657176,-1.6240794574469326,2026-04-11T19:13:22.885-05:00
1775952802895216600,5.249216552734375,-1.0977326933532952,1.023211413115263,-1.6205694034993647,2026-04-11T19:13:22.895-05:00
1775952802905273600,5.259273681640625,-1.0232938307017088,1.121957910810411,-1.5279887349575758,2026-04-11T19:13:22.905-05:00
1775952802915330600,5.26933056640625,-0.9606681554406881,1.1124524158403277,-1.3936246881753205,2026-04-11T19:13:22.915-05:00
1775952802925387800,5.2793876953125,-0.9101128572016954,1.006200657081604,-1.2793243552565574,2026-04-11T19:13:22.925-05:00
1775952802935444700,5.28944482421875,-0.8346037349700928,0.8521697867989539,-1.1687287220746279,2026-04-11T19:13:22.935-05:00
1775952802945500700,5.299500732421875,-0.8570750944972038,0.643417730769515,-0.9886579861283302,2026-04-11T19:13:22.945-05:00
1775952802955557600,5.3095576171875,-0.9374573757231235,0.47363516460359095,-0.70047758859694,2026-04-11T19:13:22.955-05:00
1775952802965614800,5.31961474609375,-1.0467056859493256,0.3950239847034216,-0.3487678449630737,2026-04-11T19:13:22.965-05:00
1775952802975672000,5.329672119140625,-1.0946434951663018,0.37165859894603487,0.012193711140751838,2026-04-11T19:13:22.975-05:00
1775952802985727700,5.339727783203125,-1.0692723225444554,0.3518096968770027,0.36395021652579307,2026-04-11T19:13:22.985-05:00
1775952802995785000,5.349784912109375,-0.9757371297568083,0.32550562731921673,0.7080161674082279,2026-04-11T19:13:22.995-05:00
1775952803005842000,5.359842041015625,-0.7841653411090374,0.24442893408834931,0.9499977083444595,2026-04-11T19:13:23.005-05:00
1775952803015899000,5.36989892578125,-0.48441900894641876,0.12747253370285033,1.134828206038475,2026-04-11T19:13:23.015-05:00
1775952803025955000,5.379955078125,-0.11754735201597213,-0.051581426416337485,1.2498363949656486,2026-04-11T19:13:23.025-05:00
1775952803036012000,5.390011962890625,0.31009704578518865,-0.22668723343163727,1.179700197944045,2026-04-11T19:13:23.036-05:00
1775952803046069000,5.400069091796875,0.7136462822496891,-0.3902405498191714,1.0182079057395457,2026-04-11T19:13:23.046-05:00
1775952803056126000,5.4101259765625,1.1142097809016704,-0.5668795577511191,0.838974789661169,2026-04-11T19:13:23.056-05:00
1775952803066183000,5.420182861328125,1.4296569555431604,-0.7369967626988887,0.6627268268734217,2026-04-11T19:13:23.066-05:00
1775952803076238800,5.43023876953125,1.6389432645797728,-0.8747332085236906,0.609543518218398,2026-04-11T19:13:23.076-05:00
1775952803086295800,5.4402958984375,1.854414399731159,-0.8743544383391737,0.5211228919655084,2026-04-11T19:13:23.086-05:00
1775952803096352800,5.450352783203125,2.067062294155359,-0.9958455595448612,0.35364918726384637,2026-04-11T19:13:23.096-05:00
1775952803106409700,5.46040966796875,2.1892805605918166,-1.0602993270158767,0.22065642883479594,2026-04-11T19:13:23.106-05:00
1775952803116466000,5.4704658203125,2.26857446205914,-1.1034911107495426,0.12469780829250812,2026-04-11T19:13:23.116-05:00
1775952803126523100,5.480523193359375,2.393531798070669,-1.0364242381706834,-0.026224574580788612,2026-04-11T19:13:23.126-05:00
1775952803136580000,5.490580078125,2.464500938785076,-0.8819730966493486,-0.2266717436015606,2026-04-11T19:13:23.136-05:00
1775952803146637000,5.500636962890625,2.4187176772534844,-0.6217535959720611,-0.3639309273034334,2026-04-11T19:13:23.146-05:00
1775952803156694000,5.510694091796875,2.3291174858272075,-0.29632044936716556,-0.470975590005517,2026-04-11T19:13:23.156-05:00
1775952803166750000,5.52075,2.1914391999304295,-0.006916939781606197,-0.5543243198215961,2026-04-11T19:13:23.166-05:00
1775952803176807000,5.530806884765625,2.0050673180133103,0.18820231221467257,-0.686163816562295,2026-04-11T19:13:23.176-05:00
1775952803186863900,5.54086376953125,1.7496417736142873,0.2658718273505568,-0.7555775445282459,2026-04-11T19:13:23.186-05:00
1775952803196920800,5.5509208984375,1.364859781461954,0.2508741647049785,-0.7519155148893595,2026-04-11T19:13:23.196-05:00
1775952803206977000,5.56097705078125,0.8771218572258949,0.18945465036332607,-0.684188717097044,2026-04-11T19:13:23.206-05:00
1775952803217034000,5.571033935546875,0.3870522751718759,0.09085749801099299,-0.6230664321362972,2026-04-11T19:13:23.217-05:00
1775952803227091000,5.581091064453125,-0.024144261175394057,-0.00997808091789484,-0.5898053830474614,2026-04-11T19:13:23.227-05:00
1775952803237148000,5.59114794921875,-0.3369476433098316,-0.08028729641884565,-0.573317774105072,2026-04-11T19:13:23.237-05:00
1775952803247203800,5.601203857421875,-0.5128694428831339,-0.14514964469075203,-0.6111328332364558,2026-04-11T19:13:23.247-05:00
1775952803257260800,5.6112607421875,-0.6030056408822536,-0.19296353526711463,-0.6719622727304697,2026-04-11T19:13:23.257-05:00
1775952803267318000,5.621318115234375,-0.5706932708203792,-0.2428995325639844,-0.7771861497461795,2026-04-11T19:13:23.267-05:00
1775952803277375000,5.631375,-0.4472317263245582,-0.276201790446043,-0.924910613361001,2026-04-11T19:13:23.277-05:00
1775952803287432000,5.641431884765625,-0.2557727504014969,-0.2606222362592816,-1.0216606765419245,2026-04-11T19:13:23.287-05:00
1775952803297488100,5.651488037109375,-0.0799824682533741,-0.19103198268264532,-1.02834585339427,2026-04-11T19:13:23.297-05:00
1775952803307545000,5.661545166015625,0.0647282004982233,0.031711773820221424,-0.9129740918517112,2026-04-11T19:13:23.307-05:00
1775952803317602000,5.67160205078125,0.22656536061763763,0.41118426138758657,-0.7696399721503258,2026-04-11T19:13:23.317-05:00
1775952803327659000,5.681658935546875,0.3716086223244667,0.8130693640321492,-0.6591121435075998,2026-04-11T19:13:23.327-05:00
1775952803337715000,5.69171484375,0.42487142595648764,1.0988488379016519,-0.5602285754293203,2026-04-11T19:13:23.337-05:00
1775952803347772000,5.70177197265625,0.39500703356862066,1.267969140766561,-0.43938335091173647,2026-04-11T19:13:23.347-05:00
1775952803357828900,5.711828857421875,0.17660510566234588,1.3282196113288403,-0.2703723536401987,2026-04-11T19:13:23.357-05:00
1775952803367885800,5.7218857421875,-0.20802549532055853,1.2542784690663218,0.027234628406167027,2026-04-11T19:13:23.367-05:00
1775952803377942800,5.73194287109375,-0.4639040441840887,1.0796832419216633,0.19167992519736288,2026-04-11T19:13:23.377-05:00
1775952803387999000,5.7419990234375,-0.4146680118501186,0.6841511615656316,0.08266133207380771,2026-04-11T19:13:23.387-05:00
1775952803398056000,5.752055908203125,-0.44991935797333715,0.1830544279322028,0.05706102687120437,2026-04-11T19:13:23.398-05:00
1775952803408113200,5.762113037109375,-0.521297079488635,-0.3343053121075034,0.047857145196199415,2026-04-11T19:13:23.408-05:00
1775952803418170000,5.772170166015625,-0.5431318946778774,-0.7733587004125118,0.06919277869164943,2026-04-11T19:13:23.418-05:00
1775952803428226000,5.78222607421875,-0.5227589687347411,-1.1459779610842467,0.18364859443306922,2026-04-11T19:13:23.428-05:00
1775952803438283000,5.792282958984375,-0.5478501553714274,-1.4600493173278868,0.35767654308378694,2026-04-11T19:13:23.438-05:00
1775952803448340000,5.802340087890625,-0.5314788662850857,-1.6299093326441942,0.5532943922519683,2026-04-11T19:13:23.448-05:00
1775952803458397000,5.81239697265625,-0.45967853544354437,-1.7218825368121264,0.671797437557578,2026-04-11T19:13:23.458-05:00
1775952803468452900,5.822452880859375,-0.35315409722328184,-1.7498893186345696,0.7089432191252708,2026-04-11T19:13:23.468-05:00
1775952803478510000,5.832510009765625,-0.23128888200819492,-1.632876950278133,0.7929162183195352,2026-04-11T19:13:23.478-05:00
1775952803488567000,5.842567138671875,-0.14556173262298105,-1.3966047268994153,0.9828045839250087,2026-04-11T19:13:23.488-05:00
1775952803498624000,5.8526240234375,-0.2257037753522396,-0.9999667311280965,1.3361258544087409,2026-04-11T19:13:23.498-05:00
1775952803508681000,5.862680908203125,-0.22384616478681563,-0.5661249399915337,1.6436995191961525,2026-04-11T19:13:23.508-05:00
1775952803518737000,5.87273681640625,0.183231245803833,-0.1959985190488398,1.4444839377969503,2026-04-11T19:13:23.518-05:00
1775952803528793900,5.8827939453125,0.6885849062293767,0.14488573305755853,0.9264800546348094,2026-04-11T19:13:23.528-05:00
1775952803538850800,5.892850830078125,1.0799264030277729,0.4643355674691498,0.3674246146380901,2026-04-11T19:13:23.538-05:00
1775952803548908000,5.902907958984375,1.2098457453608513,0.7649876162998378,-0.0023667291313409803,2026-04-11T19:13:23.548-05:00
1775952803558964000,5.9129638671875,1.1979489713400602,0.9621303369477391,-0.28916531691551206,2026-04-11T19:13:23.558-05:00
1775952803569021000,5.92302099609375,1.1717734965980051,1.1672837839633226,-0.4655681780040264,2026-04-11T19:13:23.569-05:00
1775952803579078000,5.933077880859375,1.1316460688710213,1.267736208793521,-0.583724601829052,2026-04-11T19:13:23.579-05:00
1775952803589135000,5.943135009765625,0.9790975461006164,1.154503066714853,-0.7348761172831058,2026-04-11T19:13:23.589-05:00
1775952803599192000,5.953192138671875,0.9580307926744223,0.914711729299277,-1.151228721219301,2026-04-11T19:13:23.599-05:00
1775952803609248000,5.963248046875,1.088325982582569,0.6835624018922448,-1.5880249782472848,2026-04-11T19:13:23.609-05:00
1775952803619305000,5.973304931640625,0.887093800663948,0.6264822319291532,-1.8295061684459446,2026-04-11T19:13:23.619-05:00
1775952803629362000,5.98336181640625,0.8090496069967746,0.7508312267839908,-1.76802557156682,2026-04-11T19:13:23.629-05:00
1775952803639419000,5.9934189453125,0.1933130793571472,1.0351190007910132,-1.4466975221931933,2026-04-11T19:13:23.639-05:00
1775952803649474800,6.003474853515625,-0.18460253415703773,1.2960270682543515,-1.1980974399000406,2026-04-11T19:13:23.649-05:00
1775952803659531800,6.01353173828125,-0.860828894072771,1.5377014429375528,-0.788311939394474,2026-04-11T19:13:23.659-05:00
1775952803669588700,6.023588623046875,-1.7055886968761682,1.6384544581495224,-0.4484656520336866,2026-04-11T19:13:23.669-05:00
1775952803679646000,6.03364599609375,-2.4163731599539515,1.5778741711109876,-0.14135609762668608,2026-04-11T19:13:23.679-05:00
1775952803689703000,6.043702880859375,-2.981539191785455,1.20525534883067,0.21644144148826597,2026-04-11T19:13:23.689-05:00
1775952803699759000,6.053759033203125,-3.270644302946329,0.6855898891318589,0.47554830474853516,2026-04-11T19:13:23.699-05:00
1775952803709816000,6.063816162109375,-2.8238872083961963,0.1855197220671922,0.41285950112342834,2026-04-11T19:13:23.709-05:00
1775952803719873000,6.073873046875,-2.4092846629977225,-0.18521350566223263,0.47137364941239357,2026-04-11T19:13:23.719-05:00
1775952803729930000,6.083929931640625,-2.301868828895688,-0.3593475450359285,0.5796493152141571,2026-04-11T19:13:23.729-05:00
1775952803739986000,6.09398583984375,-1.8031132515609263,-0.48288938822634514,0.8782271881192922,2026-04-11T19:13:23.739-05:00
1775952803750043000,6.10404296875,-0.9157131614267826,-0.542570315272361,1.3067495377987624,2026-04-11T19:13:23.750-05:00
1775952803760099800,6.114099853515625,0.11955518470704554,-0.3694342739600688,1.4344944587022066,2026-04-11T19:13:23.760-05:00
1775952803770156800,6.12415673828125,0.765726598098874,-0.15290771147161722,1.9633862311035393,2026-04-11T19:13:23.770-05:00
1775952803780213800,6.1342138671875,1.304293961340189,0.0324839272364974,2.5490420932561157,2026-04-11T19:13:23.780-05:00
1775952803790270000,6.14427001953125,1.8741729931682347,0.18607494479715822,3.1749364422947166,2026-04-11T19:13:23.790-05:00
1775952803800327000,6.154326904296875,2.1133979288727045,0.36725042711496353,3.717645143124461,2026-04-11T19:13:23.800-05:00
1775952803810384000,6.1643837890625,1.9357763396441936,0.17961849866677074,3.506675411045551,2026-04-11T19:13:23.810-05:00
1775952803820441000,6.174441162109375,1.439152513641119,0.09072963384762406,1.835682811254263,2026-04-11T19:13:23.820-05:00
1775952803830496800,6.184496826171875,1.3092483688771723,-0.4004446215126663,0.378357512062788,2026-04-11T19:13:23.830-05:00
1775952803840554000,6.194553955078125,0.7557318583071232,-0.9274494111236185,-0.21597791562974453,2026-04-11T19:13:23.840-05:00
1775952803850611000,6.20461083984375,-0.26845336827635763,-1.2364635570429265,-0.46847617440521716,2026-04-11T19:13:23.850-05:00
1775952803860668000,6.21466796875,-1.1114847398519516,-1.1673651786364614,-0.70327511036098,2026-04-11T19:13:23.860-05:00
1775952803870724000,6.22472412109375,-1.3311480659961699,-0.8250648491870611,-0.5992647007882594,2026-04-11T19:13:23.870-05:00
1775952803880781000,6.234781005859375,-0.9049731562256812,-0.20864265910452232,-0.1737462090998888,2026-04-11T19:13:23.880-05:00
1775952803890838000,6.244838134765625,-0.3567302021443844,0.4574182258287444,0.07897767512500285,2026-04-11T19:13:23.890-05:00
1775952803900895000,6.25489501953125,0.07977671654820442,0.8444920917779207,0.26582886499166486,2026-04-11T19:13:23.900-05:00
1775952803910952000,6.264951904296875,0.2966314150124788,1.0407860135767608,0.3373661609828472,2026-04-11T19:13:23.910-05:00
1775952803921007900,6.2750078125,0.2516185533314943,0.8602993903059512,0.26116671839952466,2026-04-11T19:13:23.921-05:00
1775952803931064800,6.28506494140625,-0.33988194319605824,0.4951985424403101,-0.013282675421237945,2026-04-11T19:13:23.931-05:00
1775952803941121800,6.295121826171875,-0.6074000764489174,0.20576522223837673,-0.12079992407113313,2026-04-11T19:13:23.941-05:00
1775952803951178800,6.3051787109375,-0.33798633870780465,0.047388719400274566,-0.19387100550085304,2026-04-11T19:13:23.951-05:00
1775952803961234700,6.315234619140625,0.02374327915906906,-0.04685484085243661,-0.07519055780172347,2026-04-11T19:13:23.961-05:00
1775952803971291600,6.325291748046875,0.29141923332214353,-0.03590341225720476,0.0729021546036005,2026-04-11T19:13:23.971-05:00
1775952803981348900,6.335348876953125,0.34287060361802574,-0.024831316424370743,0.2705839505642652,2026-04-11T19:13:23.981-05:00
1775952803991405800,6.34540576171875,0.5189759430646896,0.02857182041023625,0.30196079334169623,2026-04-11T19:13:23.991-05:00
1775952804001462800,6.355462890625,0.745730104252696,0.12167097128462045,0.34264497816860673,2026-04-11T19:13:24.001-05:00
1775952804011518700,6.365518798828125,0.7533014162898063,0.1722593498093076,0.33329642732590437,2026-04-11T19:13:24.011-05:00
1775952804021575700,6.37557568359375,0.4596516474366188,0.1604058852072805,0.3093561642900109,2026-04-11T19:13:24.021-05:00
1775952804031632600,6.385632568359375,0.1490630187422037,0.19263755471576005,0.20517682789117098,2026-04-11T19:13:24.031-05:00
1775952804041689600,6.395689697265625,0.11428981152474879,0.222240976346191,-0.023081308118999003,2026-04-11T19:13:24.041-05:00
1775952804051745800,6.405745849609375,0.13338789522647856,0.15271554990038275,-0.19447510887384414,2026-04-11T19:13:24.051-05:00
1775952804061802800,6.415802734375,-0.07593816129863262,0.0946007487930823,-0.17466040133535862,2026-04-11T19:13:24.061-05:00
1775952804071859700,6.425859619140625,-0.3789198221206665,0.033606474126176906,-0.1705003590464592,2026-04-11T19:13:24.071-05:00
1775952804081916700,6.435916748046875,-0.6907189956486225,-0.053117312480416144,-0.1447545078933239,2026-04-11T19:13:24.081-05:00
1775952804091973600,6.4459736328125,-0.9407429732650517,-0.04886840459797531,-0.019606910006701946,2026-04-11T19:13:24.091-05:00
1775952804102029600,6.456029541015625,-0.9574515314817428,0.0355643210625276,0.08252367716878652,2026-04-11T19:13:24.102-05:00
1775952804112086500,6.46608642578125,-0.9880015680462121,-0.04798267127200961,0.19947423233538863,2026-04-11T19:13:24.112-05:00
1775952804122143700,6.476143798828125,-0.8422557110279798,-0.15853545169290154,0.13581336880773306,2026-04-11T19:13:24.122-05:00
1775952804132200700,6.48620068359375,-0.6439958229184151,-0.2472062715808861,0.07467574014738201,2026-04-11T19:13:24.132-05:00
1775952804142257000,6.4962568359375,-0.3374620225727558,-0.2713354630513117,0.02427227146923542,2026-04-11T19:13:24.142-05:00
1775952804152313900,6.50631396484375,-0.056767596882581706,-0.20470643390044568,-0.02069134424254298,2026-04-11T19:13:24.152-05:00
1775952804162370800,6.516370849609375,0.09766074828505515,-0.12296667365096509,-0.053548050314188,2026-04-11T19:13:24.162-05:00
1775952804172427800,6.526427734375,0.20436638829112053,-0.04583703754544258,-0.04998758135363459,2026-04-11T19:13:24.172-05:00
1775952804182484700,6.536484619140625,0.19311843356788158,0.10777378069423138,0.13620572912618517,2026-04-11T19:13:24.182-05:00
1775952804192540700,6.546540771484375,0.10211246699690818,0.17391210371870547,0.15921178005188702,2026-04-11T19:13:24.192-05:00
1775952804202597600,6.55659765625,0.024746903243660925,0.09839633255060762,0.14330065582320092,2026-04-11T19:13:24.202-05:00
1775952804212654600,6.566654541015625,-0.01690261948406696,0.11644191152472048,0.12282441563606261,2026-04-11T19:13:24.212-05:00
1775952804222711600,6.576711669921875,0.030981413719058035,0.20585648071840404,0.06284530936107038,2026-04-11T19:13:24.222-05:00
1775952804232767700,6.586767822265625,-0.006838906109333038,0.1271927669133991,0.03093742844685912,2026-04-11T19:13:24.232-05:00
1775952804242824700,6.59682470703125,0.009721768069267273,0.08060867386031896,0.027681056999415157,2026-04-11T19:13:24.242-05:00
1775952804252882000,6.6068818359375,0.08106383374929428,0.059784058626927435,0.06018997254669666,2026-04-11T19:13:24.252-05:00
1775952804262939000,6.61693896484375,-0.0504109213322401,0.06278780702017248,0.15630159169360994,2026-04-11T19:13:24.262-05:00
1775952804272994800,6.626994873046875,-0.1750268965601921,0.07108582589663565,0.19045315988138317,2026-04-11T19:13:24.272-05:00
1775952804283051800,6.6370517578125,-0.19154548516273498,0.01338335931673646,0.09313450303226709,2026-04-11T19:13:24.283-05:00
1775952804293108700,6.647108642578125,-0.08490238899886608,-0.03206084298621863,0.015872253523021934,2026-04-11T19:13:24.293-05:00
1775952804303165700,6.657165771484375,-0.04191431114375591,-0.06778075646925717,-0.04508709596097469,2026-04-11T19:13:24.303-05:00
1775952804313222700,6.66722265625,0.03928688524961471,0.014326704581454396,0.016650544419139622,2026-04-11T19:13:24.313-05:00
1775952804323278600,6.677278564453125,0.04181318885684013,0.08375636076889932,0.07463336231037974,2026-04-11T19:13:24.323-05:00
1775952804333335800,6.687335693359375,-0.011893266889452933,0.08590389419160782,0.0787038266196847,2026-04-11T19:13:24.333-05:00
1775952804343392800,6.697392822265625,-0.0075111062824726104,0.0984611048825085,0.057607847099006175,2026-04-11T19:13:24.343-05:00
1775952804353449700,6.70744970703125,0.022912673553824422,0.11613211492318659,0.05134922509565949,2026-04-11T19:13:24.353-05:00
1775952804363505700,6.717505615234375,0.035194062978029246,0.13193349516708403,0.052419630806148046,2026-04-11T19:13:24.363-05:00
1775952804373562600,6.727562744140625,0.02732347573339939,0.11648220700249075,0.08160670845434069,2026-04-11T19:13:24.373-05:00
1775952804383619600,6.73761962890625,0.004992401459813118,0.08556355632133782,0.07264189623221755,2026-04-11T19:13:24.383-05:00
1775952804393676800,6.7476767578125,0.0057137014716863626,0.0559304154060781,0.07698182513266802,2026-04-11T19:13:24.393-05:00
1775952804403733800,6.757733642578125,0.040808395728468894,0.048532962098531425,0.05213818351626396,2026-04-11T19:13:24.403-05:00
1775952804413789700,6.767789794921875,0.017077976050972936,0.051516873280145224,0.07817498043999076,2026-04-11T19:13:24.413-05:00
1775952804423846700,6.7778466796875,0.034297990921139714,0.15500070169549435,0.10481778043285012,2026-04-11T19:13:24.423-05:00
1775952804433903900,6.78790380859375,-0.003911620485782623,0.10747914512921124,0.07416106862351297,2026-04-11T19:13:24.433-05:00
1775952804443960800,6.7979609375,0.018512977290153502,0.09535462676715105,0.0035253976471722125,2026-04-11T19:13:24.443-05:00
1775952804454016800,6.808016845703125,0.07205927403867245,0.08044036808870732,0.029502427207678556,2026-04-11T19:13:24.454-05:00
1775952804464073700,6.81807373046875,0.08600538180470466,0.01979618550110608,0.05400193156152963,2026-04-11T19:13:24.464-05:00
1775952804474130700,6.828130615234375,0.05101356340050697,-0.004448467308841645,0.03690393563583493,2026-04-11T19:13:24.474-05:00
1775952804484187600,6.838187744140625,-0.0014694880306720733,0.046633777413703496,0.02866056955605745,2026-04-11T19:13:24.484-05:00
1775952804494244600,6.84824462890625,-0.014489713123440742,0.0896011412743479,0.04013371133729815,2026-04-11T19:13:24.494-05:00
1775952804504300500,6.858300537109375,-0.017449731972813604,0.08219868299812078,0.053588528455048794,2026-04-11T19:13:24.504-05:00
1775952804514357500,6.868357421875,0.01928162357509136,0.07361052206866443,0.07746653990969062,2026-04-11T19:13:24.514-05:00
1775952804524414500,6.87841455078125,0.014734043273329734,0.07188121405802667,0.05761719944924116,2026-04-11T19:13:24.524-05:00
1775952804534471700,6.8884716796875,0.012001987960934638,0.0806548510896042,0.05015183200463652,2026-04-11T19:13:24.534-05:00
1775952804544528000,6.89852783203125,0.016485855376720426,0.06489855209644883,0.08009265062958001,2026-04-11T19:13:24.544-05:00
1775952804554584800,6.908584716796875,0.04347381554543972,0.053064869907125826,0.0693560064293444,2026-04-11T19:13:24.554-05:00
1775952804564641800,6.918641845703125,0.06259644916653632,0.0747876030240208,0.06888064400255679,2026-04-11T19:13:24.564-05:00
1775952804574698800,6.92869873046875,0.011095979031920432,0.0799102067347616,0.018542641776055097,2026-04-11T19:13:24.574-05:00
1775952804584755700,6.938755615234375,-0.036513913404941555,0.0588994943447411,0.039435353809595106,2026-04-11T19:13:24.584-05:00
1775952804594811600,6.948811767578125,0.006495791760087013,0.08161730291359126,0.03827843885943293,2026-04-11T19:13:24.594-05:00
1775952804604868600,6.95886865234375,-0.023357494711875915,0.08672847191486507,0.054872284655272954,2026-04-11T19:13:24.604-05:00
1775952804614925600,6.968925537109375,-0.0465986695677042,0.12156151956077664,0.025921353850513695,2026-04-11T19:13:24.614-05:00
1775952804624982500,6.978982421875,-0.0701525636345148,0.17791100062914192,0.06698387047052383,2026-04-11T19:13:24.624-05:00
1775952804635038700,6.989038818359375,-0.07978314628899097,0.271895983010903,0.10382511613368987,2026-04-11T19:13:24.635-05:00
1775952804645095700,6.999095703125,-0.17974398820996285,0.3409635644203052,0.06437485701590775,2026-04-11T19:13:24.645-05:00
1775952804655152600,7.009152587890625,-0.31963936563432216,0.50177642299328,0.03746507664993405,2026-04-11T19:13:24.655-05:00
1775952804665209900,7.0192099609375,-0.38668987160027024,0.7087211738724261,0.10319222505763173,2026-04-11T19:13:24.665-05:00
1775952804675266800,7.029266845703125,-0.4817226094692945,0.8890383588604629,0.25856150433719155,2026-04-11T19:13:24.675-05:00
1775952804685322800,7.03932275390625,-0.6954349182546138,0.9577226035080849,0.36975334984660146,2026-04-11T19:13:24.685-05:00
1775952804695379700,7.049379638671875,-1.2169652219772338,0.9167733380042016,0.3965830507136881,2026-04-11T19:13:24.695-05:00
1775952804705436700,7.059436767578125,-1.7048627206891773,0.8571535665608943,0.28450960006415843,2026-04-11T19:13:24.705-05:00
1775952804715493600,7.06949365234375,-1.9680425324767827,0.7130201862405985,0.11210194609165192,2026-04-11T19:13:24.715-05:00
1775952804725549800,7.0795498046875,-2.2156986119180915,0.45376178568042813,-0.014829320341348647,2026-04-11T19:13:24.725-05:00
1775952804735606800,7.089606689453125,-2.206210068082809,0.31475575831122693,-0.26722937943935393,2026-04-11T19:13:24.735-05:00
1775952804745663700,7.099663818359375,-2.0479846687197685,0.19836084599969908,-0.6263514451563358,2026-04-11T19:13:24.745-05:00
1775952804755720700,7.109720703125,-1.7615350405037402,0.10740629908870905,-0.9979241193845868,2026-04-11T19:13:24.755-05:00
1775952804765776600,7.119776611328125,-1.405773975652456,0.1554865124510601,-1.3153706511497496,2026-04-11T19:13:24.765-05:00
1775952804775833600,7.12983349609375,-0.9680617728233337,0.29304438683856276,-1.609225587186217,2026-04-11T19:13:24.775-05:00
1775952804785890600,7.139890625,-0.7716653404980898,0.4036484955878928,-1.7532056035757064,2026-04-11T19:13:24.785-05:00
1775952804795947500,7.149947509765625,-0.7833119391500949,0.6413149132713675,-1.5229536633998155,2026-04-11T19:13:24.795-05:00
1775952804806004700,7.160004638671875,-0.9111375240743159,0.8111691564340144,-1.0326730689436197,2026-04-11T19:13:24.806-05:00
1775952804816060700,7.170060791015625,-0.9967045144617557,0.8530227503664791,-0.5029425076305866,2026-04-11T19:13:24.816-05:00
1775952804826118000,7.180117919921875,-1.1832377244204282,0.9230646932333707,0.17798808445334433,2026-04-11T19:13:24.826-05:00
1775952804836174800,7.1901748046875,-1.0980413209110498,0.8291356788225471,0.7571399715393782,2026-04-11T19:13:24.836-05:00
1775952804846231800,7.200231689453125,-1.0661538982629775,0.6479653841365128,0.9985860904246568,2026-04-11T19:13:24.846-05:00
1775952804856287700,7.210287841796875,-1.055970357900858,0.2535516402859241,1.374082367837429,2026-04-11T19:13:24.856-05:00
1775952804866344700,7.2203447265625,-0.9907990898102521,-0.19197393970787524,1.5293617768764496,2026-04-11T19:13:24.866-05:00
1775952804876401700,7.230401611328125,-0.7682020483016967,-0.6455150683749467,1.3449158945858477,2026-04-11T19:13:24.876-05:00
1775952804886458600,7.240458740234375,-0.47939796591401096,-1.1995732115410267,1.1495365303486584,2026-04-11T19:13:24.886-05:00
1775952804896515600,7.250515625,-0.09213234025239944,-1.7269485880300401,0.8488795130819081,2026-04-11T19:13:24.896-05:00
1775952804906571800,7.26057177734375,0.33509353987574575,-2.1291329658821225,0.5022697229355574,2026-04-11T19:13:24.906-05:00
1775952804916628700,7.270628662109375,0.6418418597549199,-2.4004613050729033,0.3047890025049448,2026-04-11T19:13:24.916-05:00
1775952804926685700,7.280685791015625,0.6831026754260062,-2.478302377383411,0.2033516582906246,2026-04-11T19:13:24.926-05:00
1775952804936742700,7.29074267578125,0.6466174035936594,-2.4377646152898667,0.2566208916634321,2026-04-11T19:13:24.936-05:00
1775952804946798600,7.300798583984375,0.5553028094649315,-2.2628224744036793,0.3920405849784612,2026-04-11T19:13:24.946-05:00
1775952804956855600,7.31085546875,0.5510299544513225,-1.9722944908328353,0.32195641040503975,2026-04-11T19:13:24.956-05:00
1775952804966912500,7.32091259765625,0.6934656640082597,-1.6588048799999058,0.032687633115053176,2026-04-11T19:13:24.966-05:00
1775952804976969500,7.330969482421875,0.8965671469300985,-1.356468969735503,-0.14245266069173812,2026-04-11T19:13:24.976-05:00
1775952804987026400,7.3410263671875,0.9800888952255249,-0.9898432503901421,-0.11296586944460868,2026-04-11T19:13:24.987-05:00
1775952804997082600,7.35108251953125,1.0396014069020747,-0.5666964562691748,0.017267945665121076,2026-04-11T19:13:24.997-05:00
1775952805007139800,7.361139892578125,1.1062053381443022,-0.10164967179074882,0.10461538972854614,2026-04-11T19:13:25.007-05:00
1775952805017196800,7.37119677734375,1.101903257036209,0.3535628241546452,0.17189152114391326,2026-04-11T19:13:25.017-05:00
1775952805027253800,7.381253662109375,1.1319266393780707,0.7727424682103097,0.2684486921012401,2026-04-11T19:13:25.027-05:00
1775952805037309700,7.391309814453125,1.1183891124129295,1.101513380935788,0.33624387895464897,2026-04-11T19:13:25.037-05:00
1775952805047366700,7.40136669921875,1.0426683932572602,1.37743752348423,0.38575346753299233,2026-04-11T19:13:25.047-05:00
1775952805057423600,7.411423583984375,0.9276718947678804,1.546326647941768,0.41813422665596006,2026-04-11T19:13:25.057-05:00
1775952805067480600,7.42148046875,0.8340238892555236,1.6277398796506226,0.36849896587133407,2026-04-11T19:13:25.067-05:00
1775952805077537500,7.43153759765625,0.6795417680740357,1.617756391905248,0.3002572042942047,2026-04-11T19:13:25.077-05:00
1775952805087593700,7.44159375,0.46111295216083525,1.476764889807254,0.28579788630902764,2026-04-11T19:13:25.087-05:00
1775952805097650700,7.451650634765625,0.20201661029458046,1.2136404614686964,0.2649029823184013,2026-04-11T19:13:25.097-05:00
1775952805107707600,7.461707763671875,-0.01750526155233383,0.8659986979261041,0.1966588826537132,2026-04-11T19:13:25.107-05:00
1775952805117764600,7.4717646484375,-0.12889642902612686,0.43559535680562256,0.10446399855911731,2026-04-11T19:13:25.117-05:00
1775952805127820500,7.481820556640625,-0.13546119436919687,0.07651157727241516,0.031898528563976285,2026-04-11T19:13:25.127-05:00
1775952805137877500,7.49187744140625,-0.07837035688161849,-0.20617387610450386,0.03375204747617244,2026-04-11T19:13:25.137-05:00
1775952805147934700,7.501934814453125,0.015078326666355132,-0.4039981492757797,0.09544248771369457,2026-04-11T19:13:25.147-05:00
1775952805157991700,7.51199169921875,0.01962882957756519,-0.5229470386527478,0.2048591402441263,2026-04-11T19:13:25.157-05:00
1775952805168048600,7.522048583984375,0.022833178576827047,-0.6020579847685993,0.3806973531872034,2026-04-11T19:13:25.168-05:00
1775952805178104600,7.5321044921875,-0.0017599954098463056,-0.6738816964857279,0.5555652597934008,2026-04-11T19:13:25.178-05:00
1775952805188161500,7.54216162109375,-0.0022527473628520963,-0.8082438435718416,0.6309095468521118,2026-04-11T19:13:25.188-05:00
1775952805198218800,7.55221875,0.17789105381965636,-0.959656494180113,0.488956067854166,2026-04-11T19:13:25.198-05:00
1775952805208275700,7.562275634765625,0.4791781856834888,-1.0789360768161713,0.17343524345457553,2026-04-11T19:13:25.208-05:00
1775952805218331600,7.57233154296875,0.7963701581656932,-1.1233739150881767,-0.16125030014216898,2026-04-11T19:13:25.218-05:00
1775952805228388600,7.582388671875,1.037286700218916,-1.0119453382134438,-0.4239303457140922,2026-04-11T19:13:25.228-05:00
1775952805238445600,7.592445556640625,1.1879355268478393,-0.7770515635810792,-0.5833674589544534,2026-04-11T19:13:25.238-05:00
1775952805248502500,7.60250244140625,1.242489539334178,-0.41932314417958255,-0.6843903771489859,2026-04-11T19:13:25.248-05:00
1775952805258559500,7.6125595703125,1.2261316942512988,-0.03269610868245363,-0.7166945639044046,2026-04-11T19:13:25.258-05:00
1775952805268615400,7.622615478515625,1.1662743146598338,0.2653251532532275,-0.7550947294473648,2026-04-11T19:13:25.268-05:00
1775952805278672400,7.63267236328125,1.0991519125014544,0.41847018061205743,-0.899656345117092,2026-04-11T19:13:25.278-05:00
1775952805288729600,7.6427294921875,1.0724556287556886,0.45821138550043106,-1.1227397088378668,2026-04-11T19:13:25.288-05:00
1775952805298786800,7.652786865234375,1.0640402671098708,0.3949548649899661,-1.373700090521574,2026-04-11T19:13:25.298-05:00
1775952805308842800,7.6628427734375,0.9935217927724123,0.2937736874938011,-1.5558564005702733,2026-04-11T19:13:25.308-05:00
1775952805318899700,7.672899658203125,0.7693547254681586,0.18203005332052707,-1.6016899309843777,2026-04-11T19:13:25.318-05:00
1775952805328956700,7.682956787109375,0.3716244044154882,0.12546689296886324,-1.4951573094576596,2026-04-11T19:13:25.328-05:00
1775952805339013600,7.693013671875,-0.1305453652769327,0.09826046774387359,-1.3053414245665074,2026-04-11T19:13:25.339-05:00
1775952805349070600,7.703070556640625,-0.568054739010334,0.02931391889825463,-1.2239596109092234,2026-04-11T19:13:25.349-05:00
1775952805359126500,7.71312646484375,-0.7772101151436567,-0.13324629479870198,-1.2949714217215775,2026-04-11T19:13:25.359-05:00
1775952805369183500,7.72318359375,-0.832187906000018,-0.3174421478509903,-1.447910405114293,2026-04-11T19:13:25.369-05:00
1775952805379240400,7.733240478515625,-0.6939853039681911,-0.46028804564401504,-1.5807891817748545,2026-04-11T19:13:25.379-05:00
1775952805389297700,7.743297607421875,-0.3115378922432661,-0.5156802625201642,-1.6893717215687036,2026-04-11T19:13:25.389-05:00
1775952805399353600,7.753353515625,0.26784546551108357,-0.4869166709810495,-1.7689052770107982,2026-04-11T19:13:25.399-05:00
1775952805409410600,7.76341064453125,0.7349550277382135,-0.34239524119123815,-1.7123539532274006,2026-04-11T19:13:25.409-05:00
1775952805419467800,7.7734677734375,1.0157903232038021,-0.14375088380873202,-1.5878168884545563,2026-04-11T19:13:25.419-05:00
1775952805429524700,7.783524658203125,1.1316881544470787,0.08173807974904775,-1.3864637105047701,2026-04-11T19:13:25.429-05:00
1775952805439581700,7.793581787109375,1.2111369542151689,0.2628437117010355,-1.2214870833158493,2026-04-11T19:13:25.439-05:00
1775952805449637600,7.8036376953125,1.3424503812551498,0.4032023227229714,-1.1154939754933118,2026-04-11T19:13:25.449-05:00
1775952805459694600,7.813694580078125,1.4952046557307241,0.5559934220775962,-1.0576555345088243,2026-04-11T19:13:25.459-05:00
1775952805469751600,7.82375146484375,1.6569009460747242,0.7392360660582781,-0.9951987860739231,2026-04-11T19:13:25.469-05:00
1775952805479808500,7.83380859375,1.7487158909410236,0.9366147874191403,-0.901540259167552,2026-04-11T19:13:25.479-05:00
1775952805489864700,7.84386474609375,1.785750613349676,1.1180359150610863,-0.773522366541624,2026-04-11T19:13:25.489-05:00
1775952805499921700,7.853921630859375,1.7136434085160492,1.2699388334043322,-0.5300917958408594,2026-04-11T19:13:25.499-05:00
1775952805509978600,7.863978515625,1.484684430760145,1.3661582968398929,-0.21157646580040454,2026-04-11T19:13:25.509-05:00
1775952805520035600,7.87403564453125,1.2828455151200293,1.3828563336625694,0.07222527825534343,2026-04-11T19:13:25.520-05:00
1775952805530092500,7.884092529296875,1.1230576887458563,1.2873311361014843,0.2302303128659725,2026-04-11T19:13:25.530-05:00
1775952805540148500,7.8941484375,1.0315987177103758,1.109138615117222,0.2904115175843239,2026-04-11T19:13:25.540-05:00
1775952805550205400,7.904205322265625,0.9584738602668046,0.8709013752758502,0.304042568051815,2026-04-11T19:13:25.550-05:00
1775952805560262700,7.9142626953125,0.8051303877264261,0.6476340332902968,0.34941549521684645,2026-04-11T19:13:25.560-05:00
1775952805570319600,7.924319580078125,0.6047147828876972,0.40710283729285,0.4572568612545728,2026-04-11T19:13:25.570-05:00
1775952805580375800,7.934375732421875,0.3865092543363571,0.15027970105558633,0.6484598165899514,2026-04-11T19:13:25.580-05:00
1775952805590432800,7.944432861328125,0.1876929013878107,-0.07842895520105958,0.8291209196448326,2026-04-11T19:13:25.590-05:00
1775952805600489700,7.95448974609375,0.10047112953066825,-0.25571254464685916,0.9229682471215724,2026-04-11T19:13:25.600-05:00
1775952805610546700,7.964546630859375,0.07584989849328995,-0.40065833732858297,0.9082733668148517,2026-04-11T19:13:25.610-05:00
1775952805620602600,7.9746025390625,0.07596680287122726,-0.5438302522055805,0.8124199602127075,2026-04-11T19:13:25.620-05:00
1775952805630659600,7.98465966796875,0.05060790520906448,-0.6329639951638877,0.6891016235798597,2026-04-11T19:13:25.630-05:00
1775952805640716500,7.994716552734375,-0.04133914160430431,-0.752279964287579,0.5971218435406684,2026-04-11T19:13:25.640-05:00
1775952805650773500,8.0047734375,-0.14636311213374137,-0.8607670808829366,0.46729953184127804,2026-04-11T19:13:25.650-05:00
1775952805660830500,8.01483056640625,-0.3256640327513218,-0.9565580897733569,0.39610593472123146,2026-04-11T19:13:25.660-05:00
1775952805670886700,8.02488671875,-0.6527315025597811,-1.030738593749702,0.38617023164033887,2026-04-11T19:13:25.670-05:00
1775952805680943600,8.034943603515625,-0.9589999299675226,-1.0125950342938304,0.3728396254241466,2026-04-11T19:13:25.680-05:00
1775952805691000600,8.04500048828125,-1.2770540722370147,-0.880130829783529,0.4628583345234394,2026-04-11T19:13:25.691-05:00
1775952805701057800,8.055057861328125,-1.5330506945222615,-0.5815186162173748,0.6209031166225671,2026-04-11T19:13:25.701-05:00
1775952805711113500,8.065113525390625,-1.511785203653574,-0.1951883717097342,0.6984440369427204,2026-04-11T19:13:25.711-05:00
1775952805721170700,8.075170654296874,-1.2568278612881898,0.08692220438867806,0.615647680312395,2026-04-11T19:13:25.721-05:00
1775952805731227600,8.0852275390625,-0.9505395601361989,0.2282267179585993,0.20849895805120466,2026-04-11T19:13:25.731-05:00
1775952805741284600,8.09528466796875,-0.09235796570181846,0.2226718603104353,-0.3015466595828533,2026-04-11T19:13:25.741-05:00
1775952805751341600,8.105341552734375,0.7248334466964006,0.17522855661213396,-0.7334609897881745,2026-04-11T19:13:25.751-05:00
1775952805761397800,8.115397705078125,1.0114163459032774,0.18537717179134486,-0.9530676173090934,2026-04-11T19:13:25.761-05:00
1775952805771454700,8.125454833984374,0.8900789539545774,0.28547391505166886,-0.8510749772995709,2026-04-11T19:13:25.771-05:00
1775952805781511700,8.13551171875,0.1983680246591568,0.374706734470278,-0.35048166314363477,2026-04-11T19:13:25.781-05:00
1775952805791568600,8.145568603515626,-0.5745955389559269,0.41389980395659803,0.1831301235169172,2026-04-11T19:13:25.791-05:00
1775952805801624600,8.15562451171875,-1.1459160017639398,0.37069822948127984,0.579684971049428,2026-04-11T19:13:25.801-05:00
1775952805811681500,8.165681640625,-1.5115005414932965,0.17733605028539895,0.9059177435994148,2026-04-11T19:13:25.811-05:00
1775952805821738500,8.175738525390624,-1.0263274993091822,-0.11836319844350218,0.6214560743302107,2026-04-11T19:13:25.821-05:00
1775952805831795500,8.18579541015625,-0.26771570165157316,-0.3606001754455268,0.11484218471050262,2026-04-11T19:13:25.831-05:00
1775952805841852700,8.195852783203126,0.3415045759618282,-0.5223217463612556,-0.21400281616449354,2026-04-11T19:13:25.841-05:00
1775952805851908600,8.20590869140625,0.6831348241299391,-0.5327603574629872,-0.47729310258924956,2026-04-11T19:13:25.851-05:00
1775952805861965800,8.2159658203125,0.6760960115343332,-0.37632929417081173,-0.4170084374964237,2026-04-11T19:13:25.861-05:00
1775952805872022800,8.226022705078124,0.16495558440089225,-0.2479047935053706,-0.01563186889588833,2026-04-11T19:13:25.872-05:00
1775952805882079700,8.236079833984375,-0.24793080472946166,-0.24011918113045394,0.15014730684757233,2026-04-11T19:13:25.882-05:00
1775952805892136700,8.24613671875,-0.2770470090985298,-0.3233289408672601,0.043130701196193694,2026-04-11T19:13:25.892-05:00
1775952805902192600,8.256192626953125,0.22097674683034418,-0.4560535498794168,-0.37351942438185215,2026-04-11T19:13:25.902-05:00
1775952805912249600,8.26624951171875,0.8702525559782981,-0.42867834395878013,-0.6403425611078739,2026-04-11T19:13:25.912-05:00
1775952805922306600,8.276306640625,1.2794541191160678,-0.22160313510037957,-0.6829156284213066,2026-04-11T19:13:25.922-05:00
1775952805932363500,8.286363525390625,1.402825647240877,-0.0008788286611437797,-0.7526438291639089,2026-04-11T19:13:25.932-05:00
1775952805942419500,8.29641943359375,1.1668991685599088,-0.017590894009172915,-0.2844558240503073,2026-04-11T19:13:25.942-05:00
1775952805952476700,8.3064765625,0.7068494617164135,-0.004200520429760217,0.5555664288371801,2026-04-11T19:13:25.952-05:00
1775952805962534000,8.316533935546875,0.354116220253706,0.3892217281654477,1.4226742570489643,2026-04-11T19:13:25.962-05:00
1775952805972590800,8.3265908203125,0.05286006805002689,0.8833109211243688,2.458462243142724,2026-04-11T19:13:25.972-05:00
1775952805982646800,8.336646728515625,0.4506424115508795,1.2227804841272532,2.926177370047569,2026-04-11T19:13:25.982-05:00
1775952805992703700,8.346703857421875,0.6871510740339756,1.3649097580835223,3.308410846760869,2026-04-11T19:13:25.992-05:00
1775952806002760700,8.3567607421875,0.7530757908403873,1.2854378697007893,2.8096272123754025,2026-04-11T19:13:26.002-05:00
1775952806012817700,8.366817626953125,0.7360749716788529,0.8423666240565478,1.5255138692766428,2026-04-11T19:13:26.012-05:00
1775952806022874600,8.37687451171875,0.3886661401093006,0.24479864418357608,0.3799292914241552,2026-04-11T19:13:26.022-05:00
1775952806032930600,8.3869306640625,-0.14683306773304938,-0.26508743550721553,-0.22860446522980926,2026-04-11T19:13:26.032-05:00
1775952806042987500,8.396987548828125,-0.9413362629830837,-0.6874003726199269,-0.40092560996264215,2026-04-11T19:13:26.042-05:00
1775952806053044700,8.407044677734374,-1.7407289838403461,-0.966529667885229,-0.6367217402622103,2026-04-11T19:13:26.053-05:00
1775952806063101700,8.417101806640625,-1.9012772731930017,-0.8749548153851181,-0.9363938381448388,2026-04-11T19:13:26.063-05:00
1775952806073157600,8.42715771484375,-1.7086533451437949,-0.45735546279083933,-0.8049661370754242,2026-04-11T19:13:26.073-05:00
1775952806083214800,8.43721484375,-1.3444266497641801,0.07084923152863047,-0.45614656192511316,2026-04-11T19:13:26.083-05:00
1775952806093271800,8.447271728515625,-1.0725491522580384,0.4583553970810026,-0.168279468126595,2026-04-11T19:13:26.093-05:00
1775952806103328800,8.457328857421874,-0.8872609739243984,0.6857241099707782,-0.0466878091558814,2026-04-11T19:13:26.103-05:00
1775952806113385700,8.4673857421875,-0.39391339311301704,0.7990699186436832,0.17093407428860663,2026-04-11T19:13:26.113-05:00
1775952806123441700,8.477441650390626,-0.2363338904380798,0.7034815927185117,0.24916326913386583,2026-04-11T19:13:26.123-05:00
1775952806133498600,8.48749853515625,-0.4784469487994909,0.6054513535339385,0.18755436969995498,2026-04-11T19:13:26.133-05:00
1775952806143555600,8.4975556640625,-0.5814315224558114,0.45759526289608327,0.08833660123124717,2026-04-11T19:13:26.143-05:00
1775952806153612500,8.507612548828124,-0.46016251956820486,0.175572365081124,0.009589812252670527,2026-04-11T19:13:26.153-05:00
1775952806163668700,8.517668701171875,-0.31802257808744905,-0.06786437963210046,-0.0642334027186036,2026-04-11T19:13:26.163-05:00
1775952806173725700,8.5277255859375,-0.29968437284231186,-0.15837562148869036,-0.20210779570937157,2026-04-11T19:13:26.173-05:00
1775952806183782700,8.53778271484375,0.04941723411977291,-0.21634331487603484,-0.2750257324039936,2026-04-11T19:13:26.183-05:00
1775952806193839600,8.547839599609375,0.22143442746996878,-0.29164675846770405,-0.15158113904297352,2026-04-11T19:13:26.193-05:00
1775952806203896800,8.557896728515624,-0.16246318306326865,-0.35338374126069244,0.16890023037344215,2026-04-11T19:13:26.203-05:00
1775952806213952500,8.567952392578125,-0.43357203428447244,-0.3007999328687787,0.3381812767580151,2026-04-11T19:13:26.213-05:00
1775952806224009700,8.578009765625,-0.48019291568398476,-0.15121961225420236,0.36171573547199365,2026-04-11T19:13:26.224-05:00
1775952806234066700,8.588066650390624,-0.2745429173231125,0.025657588347792623,0.21734905785247682,2026-04-11T19:13:26.234-05:00
1775952806244123600,8.59812353515625,0.053421209064126014,0.060105874459818,0.061389703725278376,2026-04-11T19:13:26.244-05:00
1775952806254179800,8.608179931640626,0.20770400828123092,0.06454626806005835,-0.06067687928080558,2026-04-11T19:13:26.254-05:00
1775952806264236800,8.61823681640625,0.26866496520042416,0.09559373275265097,-0.03118424281477928,2026-04-11T19:13:26.264-05:00
1775952806274293800,8.628293701171875,0.3789309280365705,0.09254786225073039,0.12756401137858628,2026-04-11T19:13:26.274-05:00
1775952806284350700,8.638350830078124,-0.029833412727713584,0.10671616140007972,0.17333324438482522,2026-04-11T19:13:26.284-05:00
1775952806294407700,8.64840771484375,-0.2854781528353691,0.09342033423632383,0.10302987410277127,2026-04-11T19:13:26.294-05:00
1775952806304463600,8.658463623046876,-0.28382395588755605,0.1125819116283208,0.01612900476306677,2026-04-11T19:13:26.304-05:00
1775952806314520600,8.6685205078125,-0.13996259744167328,0.07215922728180885,-0.06058525547459721,2026-04-11T19:13:26.314-05:00
1775952806324577500,8.67857763671875,0.028595979887247085,0.03387830420434475,-0.04812134909033775,2026-04-11T19:13:26.324-05:00
1775952806334634500,8.688634521484374,0.0999900680154562,-0.007741627102717757,0.019066373389214276,2026-04-11T19:13:26.334-05:00
1775952806344690700,8.698690673828125,0.07703940053880214,-0.024085662855952976,0.06785495421662927,2026-04-11T19:13:26.344-05:00
1775952806354747600,8.70874755859375,0.027998598515987395,0.01951155987344682,0.08231529511511325,2026-04-11T19:13:26.354-05:00
1775952806364804900,8.718804931640625,-0.054071197405457495,0.026155747128278017,0.026418489717692135,2026-04-11T19:13:26.364-05:00
1775952806374861800,8.72886181640625,-0.036006548404693604,0.07966916452050209,-0.01707476118057966,2026-04-11T19:13:26.374-05:00
1775952806384918800,8.738918701171874,0.03302607128918171,0.12849084389992058,0.04975727972909808,2026-04-11T19:13:26.384-05:00
1775952806394974700,8.748974609375,0.041319852381944654,0.10327515410073101,0.07110270396620035,2026-04-11T19:13:26.394-05:00
1775952806405031700,8.75903173828125,0.023116087171435356,0.06775207836404443,0.059085518436133855,2026-04-11T19:13:26.405-05:00
1775952806415088600,8.769088623046875,0.016965163326263428,0.04154182456955313,0.026168314348906277,2026-04-11T19:13:26.415-05:00
1775952806425145600,8.7791455078125,0.006991466322541237,0.04387837775833905,-0.000040624271333217616,2026-04-11T19:13:26.425-05:00
1775952806435201800,8.789201904296876,0.028237083446979522,0.006643091276288032,0.011030366449803113,2026-04-11T19:13:26.435-05:00
1775952806445258800,8.7992587890625,0.03272738060355186,0.013387524035200476,0.03425517469272017,2026-04-11T19:13:26.445-05:00
1775952806455315700,8.809315673828126,-0.011895020455121993,0.0255601923879236,0.003026800475269556,2026-04-11T19:13:26.455-05:00
1775952806465372700,8.81937255859375,-0.04686170441806316,0.011314517153427003,-0.023214286848902702,2026-04-11T19:13:26.465-05:00
1775952806475429600,8.8294296875,-0.07521218511164188,-0.014978884879872202,-0.07826412002816796,2026-04-11T19:13:26.475-05:00
1775952806485485600,8.839485595703126,-0.10470599062144756,-0.04587262031547725,-0.1506324600160122,2026-04-11T19:13:26.485-05:00
1775952806495542800,8.849542724609375,-0.203666131067276,-0.13052666057646273,-0.22397198312357067,2026-04-11T19:13:26.495-05:00
1775952806505599700,8.859599853515626,-0.4702162960708141,-0.21833909180313346,-0.347353594250977,2026-04-11T19:13:26.505-05:00
1775952806515656700,8.86965673828125,-1.0120984829485415,-0.2377771480489522,-0.3609674013227224,2026-04-11T19:13:26.515-05:00
1775952806525713000,8.879712890625,-1.825986177626252,-0.2537396371386945,-0.3584353986270726,2026-04-11T19:13:26.525-05:00
1775952806535769900,8.889769775390626,-2.60964707634449,-0.2270499292641878,-0.32158085509091616,2026-04-11T19:13:26.535-05:00
1775952806545826800,8.899826904296875,-3.379008816075325,-0.2509704646863043,-0.35024580856114623,2026-04-11T19:13:26.545-05:00
1775952806555883800,8.9098837890625,-3.7413831615865227,-0.20870660945251582,-0.42448885637968775,2026-04-11T19:13:26.555-05:00
1775952806565940700,8.919940673828124,-3.0654648447066544,-0.011663001797534525,-0.5788409214407205,2026-04-11T19:13:26.565-05:00
1775952806575996700,8.92999658203125,-1.377692959550023,0.25855825293418017,-0.9053294223174452,2026-04-11T19:13:26.575-05:00
1775952806586053600,8.9400537109375,0.3294739464282989,0.3899105141472071,-1.0649991752699017,2026-04-11T19:13:26.586-05:00
1775952806596110600,8.950110595703125,1.247319443708658,0.42600496003106236,-1.1344336537629365,2026-04-11T19:13:26.596-05:00
1775952806606167600,8.96016748046875,1.4142150562614202,0.4839892026944086,-1.0393407101392744,2026-04-11T19:13:26.606-05:00
1775952806616223700,8.9702236328125,0.9774299051493406,0.519913552708365,-0.7429413503170013,2026-04-11T19:13:26.616-05:00
1775952806626280700,8.98028076171875,0.20352643033564088,0.5038925748970359,-0.39045068543851374,2026-04-11T19:13:26.626-05:00
1775952806636338000,8.990337890625,-0.5517044927120208,0.4363410606063902,-0.11956044540405272,2026-04-11T19:13:26.636-05:00
1775952806646395000,9.000394775390625,-0.9874036021530628,0.2730457375679165,0.020694412982463835,2026-04-11T19:13:26.646-05:00
1775952806656451800,9.010451904296875,-0.9988193146586417,0.06441321626491844,0.11131517962813377,2026-04-11T19:13:26.656-05:00
1775952806666507800,9.0205078125,-1.0350187552869319,-0.1437838362302631,0.3907780176967382,2026-04-11T19:13:26.666-05:00
1775952806676564700,9.030564697265625,-0.759641140705347,-0.27997506190706045,0.5775204864919186,2026-04-11T19:13:26.676-05:00
1775952806686621700,9.04062158203125,-0.8101169439673424,-0.23558822316993028,0.761118227520585,2026-04-11T19:13:26.686-05:00
1775952806696678700,9.0506787109375,-1.004676808515191,-0.028417335384711622,0.7536696650803089,2026-04-11T19:13:26.696-05:00
1775952806706734600,9.060734619140625,-1.2658370971739292,0.21993775917142627,0.88628832949996,2026-04-11T19:13:26.706-05:00
1775952806716791800,9.070791748046876,-1.5065122316867112,0.4358569303512573,0.9670534725636243,2026-04-11T19:13:26.716-05:00
1775952806726848800,9.080848876953125,-1.5176812759548424,0.5865971615906804,0.9096732967406511,2026-04-11T19:13:26.726-05:00
1775952806736905700,9.09090576171875,-0.966056278219819,0.6939704717252403,0.6454232253730297,2026-04-11T19:13:26.736-05:00
1775952806746962700,9.100962646484374,-0.10150514875352382,0.6906759602244943,0.21889175724983215,2026-04-11T19:13:26.746-05:00
1775952806757018600,9.1110185546875,0.6525134758949279,0.5919920063715428,-0.1495201148599386,2026-04-11T19:13:26.757-05:00
1775952806767075600,9.12107568359375,1.2326298240989446,0.4978029527850449,-0.4339882138699293,2026-04-11T19:13:26.767-05:00
1775952806777132800,9.1311328125,1.5331237597584724,0.4673012854069471,-0.3980418712198734,2026-04-11T19:13:26.777-05:00
1775952806787189800,9.141189697265625,1.5760767663002013,0.44382045657634733,-0.11503390789031982,2026-04-11T19:13:26.787-05:00
1775952806797245700,9.15124560546875,1.207085632997751,0.4103217262741178,0.29154490552842616,2026-04-11T19:13:26.797-05:00
1775952806807302700,9.161302734375,0.9209148217231035,0.30342911232858893,0.5880921493887901,2026-04-11T19:13:26.807-05:00
1775952806817359600,9.171359619140626,0.6375292572528124,0.05076850259825587,0.7483709741503,2026-04-11T19:13:26.817-05:00
1775952806827416800,9.181416748046875,0.36474691986143587,-0.3542196806281805,0.7630904043763875,2026-04-11T19:13:26.827-05:00
1775952806837473800,9.191473876953125,0.17584288911819457,-0.8322605328448116,0.6562672754704952,2026-04-11T19:13:26.837-05:00
1775952806847529700,9.20152978515625,0.09246551772952079,-1.2747905112192035,0.4220797494113445,2026-04-11T19:13:26.847-05:00
1775952806857586700,9.211586669921875,0.04787643441855907,-1.6232522128425537,0.2317249353379011,2026-04-11T19:13:26.857-05:00
1775952806867643600,9.2216435546875,0.04973521402776241,-1.8183458920061588,0.05997077683806419,2026-04-11T19:13:26.867-05:00
1775952806877700600,9.23170068359375,0.10340835202634334,-1.8471499616861342,-0.07032382854819297,2026-04-11T19:13:26.877-05:00
1775952806887757600,9.241757568359375,0.2668085236787796,-1.7239448761694132,-0.2154647054105997,2026-04-11T19:13:26.887-05:00
1775952806897813500,9.2518134765625,0.550945198777318,-1.3444115983255207,-0.3255582342892885,2026-04-11T19:13:26.897-05:00
1775952806907870700,9.26187060546875,0.8140940309047698,-0.8645591666422784,-0.2989712561368942,2026-04-11T19:13:26.907-05:00
1775952806917927700,9.271927734375,0.9154963038057088,-0.35710736489370465,-0.13156301788687705,2026-04-11T19:13:26.917-05:00
1775952806927984600,9.281984619140625,0.9485971938967704,0.060946928393840784,0.07355038937926292,2026-04-11T19:13:26.927-05:00
1775952806938040800,9.292040771484375,0.968247650784254,0.40614246782809493,0.18887714273631573,2026-04-11T19:13:26.938-05:00
1775952806948097800,9.302097900390624,0.9414841470211743,0.6367670407086611,0.2881704606592655,2026-04-11T19:13:26.948-05:00
1775952806958154800,9.31215478515625,0.8922083671987057,0.7294586222790181,0.353588396987319,2026-04-11T19:13:26.958-05:00
1775952806968211200,9.322211181640625,0.7949450937986373,0.7727860150910913,0.42194355581104753,2026-04-11T19:13:26.968-05:00
1775952806978268400,9.332268310546874,0.7701619501978159,0.6978944402359426,0.3797556884229183,2026-04-11T19:13:26.978-05:00
1775952806988324000,9.342323974609375,0.816231042933464,0.44282969197332855,0.09501169508099555,2026-04-11T19:13:26.988-05:00
1775952806998381300,9.35238134765625,0.836011263680458,0.023902415243536233,-0.21863690570592878,2026-04-11T19:13:26.998-05:00
1775952807008438500,9.3624384765625,0.7601496747493743,-0.3563683830946684,-0.41784079666733737,2026-04-11T19:13:27.008-05:00
1775952807018495500,9.37249560546875,0.5767056629776954,-0.6605028672136366,-0.5022241302281618,2026-04-11T19:13:27.018-05:00
1775952807028551400,9.382551513671874,0.3908370544075966,-0.8785814083844423,-0.5276905799180269,2026-04-11T19:13:27.028-05:00
1775952807038608400,9.3926083984375,0.32767478805184364,-0.9660331896051764,-0.6047714815109968,2026-04-11T19:13:27.038-05:00
1775952807048665300,9.402665283203126,0.4820546179026365,-0.9670936584435402,-0.7092080075412989,2026-04-11T19:13:27.048-05:00
1775952807058722300,9.412722412109375,0.7449649650990963,-0.786141025096178,-0.7967647104412316,2026-04-11T19:13:27.058-05:00
1775952807068778200,9.4227783203125,1.0201835897266864,-0.46903103180900213,-0.8312988482058048,2026-04-11T19:13:27.068-05:00
1775952807078835200,9.432835205078124,1.2246259658634662,-0.12736790428459643,-0.8422288230210542,2026-04-11T19:13:27.078-05:00
1775952807088892200,9.44289208984375,1.3605337349563835,0.14971154577881096,-0.8852911351561545,2026-04-11T19:13:27.088-05:00
1775952807098949000,9.45294921875,1.4070757059007881,0.35948388476669785,-0.9278753083854914,2026-04-11T19:13:27.098-05:00
1775952807109006300,9.46300634765625,1.4259306284964084,0.5196268081888556,-0.9396972636044025,2026-04-11T19:13:27.109-05:00
1775952807119062300,9.473062255859375,1.3954922356128692,0.6547542405590414,-0.9458926111131906,2026-04-11T19:13:27.119-05:00
1775952807129119500,9.483119384765626,1.2923790671408175,0.7738537904530763,-0.9009487230151891,2026-04-11T19:13:27.129-05:00
1775952807139176400,9.493176513671875,1.0467033478617667,0.9063945673309266,-0.7621107456892728,2026-04-11T19:13:27.139-05:00
1775952807149233400,9.5032333984375,0.7150742692261934,1.068652144819498,-0.6396925727665423,2026-04-11T19:13:27.149-05:00
1775952807159289300,9.513289306640624,0.32479075704813004,1.221393705943972,-0.45061610806584357,2026-04-11T19:13:27.159-05:00
1775952807169346300,9.52334619140625,-0.09876432561278342,1.39090256973505,-0.2572474991291761,2026-04-11T19:13:27.169-05:00
1775952807179403300,9.5334033203125,-0.4852402622014284,1.525116832783073,-0.02570259653329849,2026-04-11T19:13:27.179-05:00
1775952807189460200,9.543460205078125,-0.8504618138372898,1.5761635678008197,0.23721768753528594,2026-04-11T19:13:27.189-05:00
1775952807199517200,9.55351708984375,-1.0690385137885807,1.4070039558388292,0.36191491130590436,2026-04-11T19:13:27.199-05:00
1775952807209573400,9.563573486328124,-0.7540864291876554,0.944949046652764,0.04472235430181026,2026-04-11T19:13:27.209-05:00
1775952807219630300,9.57363037109375,0.030996611288189885,0.30641558079347014,-0.571898554956913,2026-04-11T19:13:27.219-05:00
1775952807229687300,9.583687255859376,0.6685398970663547,-0.3095161771573126,-1.0586293479770421,2026-04-11T19:13:27.229-05:00
1775952807239744300,9.593744140625,1.0343915632992982,-0.8647627263903618,-1.3572235874950884,2026-04-11T19:13:27.239-05:00
1775952807249800200,9.60380029296875,1.1421598641008137,-1.3088105619817971,-1.4342834463000296,2026-04-11T19:13:27.249-05:00
1775952807259857200,9.613857177734374,1.1311737751841544,-1.6655245436437427,-1.3808300885319709,2026-04-11T19:13:27.259-05:00
1775952807269914400,9.623914306640625,1.0284674339473248,-1.9266709499076007,-1.2328460971981285,2026-04-11T19:13:27.269-05:00
1775952807279971300,9.633971435546876,0.9150339469909667,-2.1044047673389312,-1.082232926404476,2026-04-11T19:13:27.279-05:00
1775952807290028300,9.6440283203125,0.8315402557462453,-2.168455799227953,-0.9745482122331857,2026-04-11T19:13:27.290-05:00
1775952807300084500,9.65408447265625,0.8003817318946123,-2.097730258011073,-0.915510916852951,2026-04-11T19:13:27.300-05:00
1775952807310141400,9.664141357421874,0.7002665761947632,-1.8777376999124884,-0.9159224202632904,2026-04-11T19:13:27.310-05:00
1775952807320198400,9.674198486328125,0.5251771357923746,-1.411162390692532,-0.8163479473114014,2026-04-11T19:13:27.320-05:00
1775952807330255400,9.68425537109375,0.42239831384122367,-0.7336274323962628,-0.7210153497129679,2026-04-11T19:13:27.330-05:00
1775952807340311300,9.694311279296874,0.3970481840074062,-0.03410495256707072,-0.6936006885647773,2026-04-11T19:13:27.340-05:00
