time,seconds_elapsed,z,y,x,local_time
1775952797723523000,0.077523193359375,-0.759857177734375,-0.3657073974609375,0.1391754150390625,2026-04-11T19:13:17.723-05:00
1775952797733580300,0.087580322265625,-0.8234100341796875,-0.3558197021484375,0.165283203125,2026-04-11T19:13:17.733-05:00
1775952797743637200,0.09763720703125,-0.89276123046875,-0.329620361328125,0.1924285888671875,2026-04-11T19:13:17.743-05:00
1775952797753694200,0.107694091796875,-0.9849090576171875,-0.3389739990234375,0.227691650390625,2026-04-11T19:13:17.753-05:00
1775952797763751400,0.11775146484375,-0.9903106689453125,-0.3488006591796875,0.237701416015625,2026-04-11T19:13:17.763-05:00
1775952797773807000,0.12780712890625,-0.9442901611328125,-0.3437042236328125,0.2425384521484375,2026-04-11T19:13:17.773-05:00
1775952797783864300,0.1378642578125,-0.899932861328125,-0.36688232421875,0.244171142578125,2026-04-11T19:13:17.783-05:00
1775952797793921300,0.14792138671875,-0.8491973876953125,-0.3896942138671875,0.24273681640625,2026-04-11T19:13:17.793-05:00
1775952797803978200,0.157978271484375,-0.7905120849609375,-0.39923095703125,0.2288360595703125,2026-04-11T19:13:17.803-05:00
1775952797814034200,0.1680341796875,-0.736175537109375,-0.4026336669921875,0.168487548828125,2026-04-11T19:13:17.814-05:00
1775952797824091100,0.178091064453125,-0.7085113525390625,-0.4130706787109375,0.094329833984375,2026-04-11T19:13:17.824-05:00
1775952797834148000,0.188148193359375,-0.7782440185546875,-0.408233642578125,0.10662841796875,2026-04-11T19:13:17.834-05:00
1775952797844205300,0.198205322265625,-0.887420654296875,-0.4698638916015625,0.103118896484375,2026-04-11T19:13:17.844-05:00
1775952797854261200,0.20826123046875,-0.9561767578125,-0.4537200927734375,0.14971923828125,2026-04-11T19:13:17.854-05:00
1775952797864318200,0.218318115234375,-0.9073028564453125,-0.3383941650390625,0.10321044921875,2026-04-11T19:13:17.864-05:00
1775952797874375200,0.228375244140625,-0.7886199951171875,-0.40802001953125,0.001495361328125,2026-04-11T19:13:17.874-05:00
1775952797884432100,0.23843212890625,-0.675811767578125,-0.484710693359375,0.101776123046875,2026-04-11T19:13:17.884-05:00
1775952797894488000,0.248488037109375,-0.5539398193359375,-0.5006561279296875,0.193450927734375,2026-04-11T19:13:17.894-05:00
1775952797904545000,0.258544921875,-0.504669189453125,-0.5662841796875,0.1311187744140625,2026-04-11T19:13:17.904-05:00
1775952797914602000,0.26860205078125,-0.6277923583984375,-0.635223388671875,0.2595367431640625,2026-04-11T19:13:17.914-05:00
1775952797924659200,0.2786591796875,-0.7261199951171875,-0.55877685546875,0.3210906982421875,2026-04-11T19:13:17.924-05:00
1775952797934715400,0.28871533203125,-0.8098907470703125,-0.498016357421875,0.1698150634765625,2026-04-11T19:13:17.934-05:00
1775952797944772400,0.2987724609375,-0.8496856689453125,-0.4643096923828125,0.0258026123046875,2026-04-11T19:13:17.944-05:00
1775952797954829300,0.308829345703125,-0.85443115234375,-0.3992767333984375,0.00848388671875,2026-04-11T19:13:17.954-05:00
1775952797964886300,0.31888623046875,-0.9668426513671875,-0.386871337890625,-0.0160369873046875,2026-04-11T19:13:17.964-05:00
1775952797974942200,0.328942138671875,-1.02069091796875,-0.4151458740234375,-0.0633392333984375,2026-04-11T19:13:17.974-05:00
1775952797984999200,0.338999267578125,-1.0259857177734375,-0.4045867919921875,-0.1127471923828125,2026-04-11T19:13:17.984-05:00
1775952797995056000,0.34905615234375,-1.00567626953125,-0.4752349853515625,-0.1825103759765625,2026-04-11T19:13:17.995-05:00
1775952798005113000,0.359113037109375,-0.902923583984375,-0.5020294189453125,-0.2600555419921875,2026-04-11T19:13:18.005-05:00
1775952798015169300,0.369169189453125,-0.903045654296875,-0.362213134765625,-0.096832275390625,2026-04-11T19:13:18.015-05:00
1775952798025226200,0.379226318359375,-0.9700469970703125,-0.2340850830078125,0.1486968994140625,2026-04-11T19:13:18.025-05:00
1775952798035283200,0.389283203125,-0.8898162841796875,-0.198944091796875,0.252838134765625,2026-04-11T19:13:18.035-05:00
1775952798045340200,0.399340087890625,-0.844757080078125,-0.2679290771484375,0.230072021484375,2026-04-11T19:13:18.045-05:00
1775952798055396000,0.40939599609375,-0.8001708984375,-0.403289794921875,0.010040283203125,2026-04-11T19:13:18.055-05:00
1775952798065453000,0.419453125,-0.7439117431640625,-0.44940185546875,-0.2391357421875,2026-04-11T19:13:18.065-05:00
1775952798075510300,0.42951025390625,-0.7823333740234375,-0.4307708740234375,-0.372650146484375,2026-04-11T19:13:18.075-05:00
1775952798085567200,0.439567138671875,-0.6302490234375,-0.4443359375,-0.344268798828125,2026-04-11T19:13:18.085-05:00
1775952798095624200,0.449624267578125,-0.4112396240234375,-0.278839111328125,-0.42767333984375,2026-04-11T19:13:18.095-05:00
1775952798105680400,0.459680419921875,-0.4763336181640625,-0.01702880859375,-0.5812835693359375,2026-04-11T19:13:18.105-05:00
1775952798115737300,0.4697373046875,-0.523223876953125,0.123077392578125,-0.511383056640625,2026-04-11T19:13:18.115-05:00
1775952798125794300,0.479794189453125,-0.4095001220703125,-0.004638671875,-0.403839111328125,2026-04-11T19:13:18.125-05:00
1775952798135851300,0.489851318359375,-0.3076019287109375,-0.3140716552734375,-0.4222564697265625,2026-04-11T19:13:18.135-05:00
1775952798145907200,0.4999072265625,-0.218658447265625,-0.5227508544921875,-0.605072021484375,2026-04-11T19:13:18.145-05:00
1775952798155964200,0.509964111328125,-0.2461090087890625,-0.59320068359375,-0.81988525390625,2026-04-11T19:13:18.155-05:00
1775952798166021000,0.520021240234375,-0.539215087890625,-0.6527862548828125,-0.7870635986328125,2026-04-11T19:13:18.166-05:00
1775952798176078000,0.530078125,-0.763671875,-0.8480987548828125,-0.31195068359375,2026-04-11T19:13:18.176-05:00
1775952798186134300,0.54013427734375,-0.4432373046875,-1.06549072265625,0.40045166015625,2026-04-11T19:13:18.186-05:00
1775952798196191200,0.550191162109375,-0.36236572265625,-0.9530029296875,0.5661163330078125,2026-04-11T19:13:18.196-05:00
1775952798206248200,0.560248291015625,-0.211395263671875,-0.4522705078125,0.458770751953125,2026-04-11T19:13:18.206-05:00
1775952798216305400,0.570305419921875,-0.1719207763671875,0.0452423095703125,0.2122344970703125,2026-04-11T19:13:18.216-05:00
1775952798226361000,0.580361083984375,-0.0167388916015625,0.1714324951171875,-0.1113128662109375,2026-04-11T19:13:18.226-05:00
1775952798236418300,0.590418212890625,-0.003875732421875,-0.090667724609375,-0.4995269775390625,2026-04-11T19:13:18.236-05:00
1775952798246475300,0.600475341796875,-0.0095672607421875,-0.2147674560546875,-0.5696563720703125,2026-04-11T19:13:18.246-05:00
1775952798256532200,0.6105322265625,0.007720947265625,-0.16265869140625,-0.6778564453125,2026-04-11T19:13:18.256-05:00
1775952798266589200,0.620589111328125,0.0064544677734375,0.063232421875,-0.759124755859375,2026-04-11T19:13:18.266-05:00
1775952798276645000,0.63064501953125,-0.0338287353515625,0.3646240234375,-0.7052154541015625,2026-04-11T19:13:18.276-05:00
1775952798286702000,0.6407021484375,-0.2534027099609375,0.330963134765625,-0.516082763671875,2026-04-11T19:13:18.286-05:00
1775952798296759300,0.65075927734375,-0.4509735107421875,0.2761993408203125,-0.237701416015625,2026-04-11T19:13:18.296-05:00
1775952798306816300,0.660816162109375,-0.7674713134765625,0.4320526123046875,-0.5072174072265625,2026-04-11T19:13:18.306-05:00
1775952798316872200,0.6708720703125,-1.1069793701171875,0.5903167724609375,-0.958770751953125,2026-04-11T19:13:18.316-05:00
1775952798326929200,0.68092919921875,-1.0964813232421875,0.6735687255859375,-1.1219940185546875,2026-04-11T19:13:18.326-05:00
1775952798336986000,0.690986083984375,-0.787261962890625,0.593414306640625,-0.93206787109375,2026-04-11T19:13:18.336-05:00
1775952798347043000,0.70104296875,-0.4234771728515625,0.5552825927734375,-0.6461944580078125,2026-04-11T19:13:18.347-05:00
1775952798357099000,0.71109912109375,-0.177825927734375,0.5838623046875,-0.509246826171875,2026-04-11T19:13:18.357-05:00
1775952798367156200,0.72115625,-0.03277587890625,0.5159759521484375,-0.5685272216796875,2026-04-11T19:13:18.367-05:00
1775952798377213200,0.731213134765625,-0.0164031982421875,0.4355926513671875,-0.7533111572265625,2026-04-11T19:13:18.377-05:00
1775952798387270100,0.741270263671875,-0.1313018798828125,0.439544677734375,-0.92718505859375,2026-04-11T19:13:18.387-05:00
1775952798397326300,0.751326416015625,-0.2607574462890625,0.5142974853515625,-1.0036773681640625,2026-04-11T19:13:18.397-05:00
1775952798407383300,0.76138330078125,-0.4399871826171875,0.6374664306640625,-1.163970947265625,2026-04-11T19:13:18.407-05:00
1775952798417440300,0.771440185546875,-0.7107696533203125,0.711761474609375,-1.5601806640625,2026-04-11T19:13:18.417-05:00
1775952798427497200,0.781497314453125,-0.8363189697265625,0.60931396484375,-1.77496337890625,2026-04-11T19:13:18.427-05:00
1775952798437554200,0.79155419921875,-0.787933349609375,0.5290374755859375,-1.7137908935546875,2026-04-11T19:13:18.437-05:00
1775952798447610000,0.801610107421875,-0.6320953369140625,0.5264129638671875,-1.49920654296875,2026-04-11T19:13:18.447-05:00
1775952798457667000,0.8116669921875,-0.54730224609375,0.5118408203125,-1.179168701171875,2026-04-11T19:13:18.457-05:00
1775952798467724000,0.82172412109375,-0.494354248046875,0.5724029541015625,-0.9882965087890625,2026-04-11T19:13:18.467-05:00
1775952798477781000,0.831781005859375,-0.5582122802734375,0.677642822265625,-1.0906982421875,2026-04-11T19:13:18.477-05:00
1775952798487837200,0.841837158203125,-0.657745361328125,0.702239990234375,-1.4110870361328125,2026-04-11T19:13:18.487-05:00
1775952798497894100,0.85189404296875,-0.6209869384765625,0.7650604248046875,-1.2950439453125,2026-04-11T19:13:18.497-05:00
1775952798507951400,0.861951416015625,-0.702606201171875,0.76861572265625,-1.0565338134765625,2026-04-11T19:13:18.507-05:00
1775952798518008300,0.87200830078125,-0.86199951171875,0.8373260498046875,-0.998077392578125,2026-04-11T19:13:18.518-05:00
1775952798528064300,0.882064208984375,-1.12078857421875,0.922088623046875,-1.2848052978515625,2026-04-11T19:13:18.528-05:00
1775952798538121200,0.892121337890625,-1.2111053466796875,0.8825836181640625,-1.579315185546875,2026-04-11T19:13:18.538-05:00
1775952798548178200,0.90217822265625,-1.1298370361328125,0.7726898193359375,-1.65985107421875,2026-04-11T19:13:18.548-05:00
1775952798558235100,0.912235107421875,-0.6085052490234375,0.6835174560546875,-1.4066925048828125,2026-04-11T19:13:18.558-05:00
1775952798568291300,0.922291259765625,-0.349639892578125,0.6183013916015625,-1.381744384765625,2026-04-11T19:13:18.568-05:00
1775952798578348300,0.932348388671875,-0.2060089111328125,0.5677490234375,-1.4293060302734375,2026-04-11T19:13:18.578-05:00
1775952798588405200,0.9424052734375,-0.052642822265625,0.470428466796875,-1.50213623046875,2026-04-11T19:13:18.588-05:00
1775952798598462200,0.952462158203125,0.0381011962890625,0.423065185546875,-1.6811981201171875,2026-04-11T19:13:18.598-05:00
1775952798608518100,0.96251806640625,0.029022216796875,0.439788818359375,-1.8591766357421875,2026-04-11T19:13:18.608-05:00
1775952798618575000,0.9725751953125,-0.073944091796875,0.3356781005859375,-2.021820068359375,2026-04-11T19:13:18.618-05:00
1775952798628632000,0.982632080078125,-0.0961761474609375,0.2104339599609375,-2.0961761474609375,2026-04-11T19:13:18.628-05:00
1775952798638689000,0.99268896484375,0.0009307861328125,0.09722900390625,-2.046173095703125,2026-04-11T19:13:18.638-05:00
1775952798648746200,1.002746337890625,0.2122802734375,-0.030426025390625,-2.0034332275390625,2026-04-11T19:13:18.648-05:00
1775952798658802400,1.012802490234375,0.448455810546875,-0.0812835693359375,-1.8818359375,2026-04-11T19:13:18.658-05:00
1775952798668859400,1.022859375,0.623016357421875,-0.0615386962890625,-1.6861114501953125,2026-04-11T19:13:18.668-05:00
1775952798678916400,1.032916259765625,0.7077789306640625,-0.03271484375,-1.505706787109375,2026-04-11T19:13:18.678-05:00
1775952798688973300,1.042973388671875,0.6599884033203125,0.00848388671875,-1.279693603515625,2026-04-11T19:13:18.688-05:00
1775952798699029200,1.053029296875,0.5135040283203125,0.0181121826171875,-1.2078704833984375,2026-04-11T19:13:18.699-05:00
1775952798709086200,1.063086181640625,0.2645111083984375,0.08349609375,-1.305633544921875,2026-04-11T19:13:18.709-05:00
1775952798719143200,1.07314306640625,0.058013916015625,0.1104583740234375,-1.3756256103515625,2026-04-11T19:13:18.719-05:00
1775952798729200000,1.0832001953125,-0.0706024169921875,0.0095672607421875,-1.3903350830078125,2026-04-11T19:13:18.729-05:00
1775952798739256300,1.09325634765625,-0.0543212890625,-0.006439208984375,-1.1808624267578125,2026-04-11T19:13:18.739-05:00
1775952798749313300,1.103313232421875,0.310028076171875,0.17291259765625,-0.7906494140625,2026-04-11T19:13:18.749-05:00
1775952798759370200,1.113370361328125,0.705596923828125,0.4544525146484375,-0.440399169921875,2026-04-11T19:13:18.759-05:00
1775952798769427200,1.12342724609375,0.7064056396484375,0.513397216796875,-0.416290283203125,2026-04-11T19:13:18.769-05:00
1775952798779483100,1.133483154296875,0.427703857421875,0.3871002197265625,-0.6102142333984375,2026-04-11T19:13:18.779-05:00
1775952798789540000,1.1435400390625,0.2775726318359375,0.4854278564453125,-0.762664794921875,2026-04-11T19:13:18.789-05:00
1775952798799597300,1.153597412109375,0.2183990478515625,0.3627777099609375,-0.9288482666015625,2026-04-11T19:13:18.799-05:00
1775952798809654300,1.163654296875,-0.0209197998046875,0.410430908203125,-0.750274658203125,2026-04-11T19:13:18.809-05:00
1775952798819710200,1.173710205078125,-0.147613525390625,0.589324951171875,-0.7841796875,2026-04-11T19:13:18.819-05:00
1775952798829767200,1.18376708984375,-0.19085693359375,0.6707611083984375,-1.01043701171875,2026-04-11T19:13:18.829-05:00
1775952798839824100,1.19382421875,-0.07537841796875,0.7183990478515625,-0.83428955078125,2026-04-11T19:13:18.839-05:00
1775952798849881300,1.20388134765625,-0.0466461181640625,0.3734130859375,-0.7360687255859375,2026-04-11T19:13:18.849-05:00
1775952798859938300,1.213938232421875,0.0662841796875,0.1206512451171875,-0.7930450439453125,2026-04-11T19:13:18.859-05:00
1775952798869994200,1.223994140625,-0.039459228515625,0.2862548828125,-0.88873291015625,2026-04-11T19:13:18.869-05:00
1775952798880051200,1.23405126953125,-0.2467498779296875,0.3478851318359375,-1.03594970703125,2026-04-11T19:13:18.880-05:00
1775952798890108200,1.244108154296875,-0.152374267578125,0.3305816650390625,-1.186370849609375,2026-04-11T19:13:18.890-05:00
1775952798900165000,1.2541650390625,-0.1625518798828125,0.1666259765625,-1.1506805419921875,2026-04-11T19:13:18.900-05:00
1775952798910221000,1.264220947265625,-0.17156982421875,0.0878143310546875,-1.180419921875,2026-04-11T19:13:18.910-05:00
1775952798920278000,1.274278076171875,-0.08245849609375,0.1713104248046875,-1.0008392333984375,2026-04-11T19:13:18.920-05:00
1775952798930335000,1.2843349609375,-0.155487060546875,0.148193359375,-0.8983001708984375,2026-04-11T19:13:18.930-05:00
1775952798940392200,1.29439208984375,0.024932861328125,0.1733856201171875,-1.0535736083984375,2026-04-11T19:13:18.940-05:00
1775952798950448000,1.3044482421875,0.0425872802734375,-0.001678466796875,-1.04925537109375,2026-04-11T19:13:18.950-05:00
1775952798960505000,1.314505126953125,0.0108795166015625,-0.1188507080078125,-1.2898406982421875,2026-04-11T19:13:18.960-05:00
1775952798970562000,1.32456201171875,0.0461883544921875,0.0071868896484375,-1.47564697265625,2026-04-11T19:13:18.970-05:00
1775952798980619000,1.334618896484375,0.03594970703125,0.12310791015625,-1.2438201904296875,2026-04-11T19:13:18.980-05:00
1775952798990675000,1.344675048828125,-0.05206298828125,0.198760986328125,-1.1651763916015625,2026-04-11T19:13:18.990-05:00
1775952799000732200,1.354732177734375,-0.0769805908203125,0.311920166015625,-0.96539306640625,2026-04-11T19:13:19.000-05:00
1775952799010789000,1.3647890625,-0.120758056640625,0.37054443359375,-0.8153533935546875,2026-04-11T19:13:19.010-05:00
1775952799020846000,1.37484619140625,-0.1860809326171875,0.354705810546875,-0.77545166015625,2026-04-11T19:13:19.020-05:00
1775952799030903000,1.384903076171875,-0.4016265869140625,0.4450531005859375,-0.80120849609375,2026-04-11T19:13:19.030-05:00
1775952799040959200,1.394959228515625,-0.64349365234375,0.57720947265625,-0.859893798828125,2026-04-11T19:13:19.040-05:00
1775952799051016200,1.40501611328125,-0.7977447509765625,0.73760986328125,-0.850677490234375,2026-04-11T19:13:19.051-05:00
1775952799061073200,1.4150732421875,-0.8389129638671875,0.818878173828125,-0.64129638671875,2026-04-11T19:13:19.061-05:00
1775952799071130000,1.425130126953125,-0.4004974365234375,0.7074432373046875,-0.624420166015625,2026-04-11T19:13:19.071-05:00
1775952799081186000,1.43518603515625,0.0620574951171875,0.583831787109375,-0.5393218994140625,2026-04-11T19:13:19.081-05:00
1775952799091243000,1.445242919921875,0.1798553466796875,0.5283203125,-0.4249114990234375,2026-04-11T19:13:19.091-05:00
1775952799101300000,1.455300048828125,0.113494873046875,0.45782470703125,-0.3082122802734375,2026-04-11T19:13:19.101-05:00
1775952799111357000,1.46535693359375,0.008819580078125,0.418121337890625,-0.2850799560546875,2026-04-11T19:13:19.111-05:00
1775952799121413000,1.4754130859375,-0.1673736572265625,0.5081634521484375,-0.451812744140625,2026-04-11T19:13:19.121-05:00
1775952799131470000,1.485469970703125,-0.3171844482421875,0.5416717529296875,-0.56500244140625,2026-04-11T19:13:19.131-05:00
1775952799141527300,1.49552734375,-0.31585693359375,0.535797119140625,-0.562286376953125,2026-04-11T19:13:19.141-05:00
1775952799151584300,1.505584228515625,-0.2184295654296875,0.5821685791015625,-0.4900054931640625,2026-04-11T19:13:19.151-05:00
1775952799161640200,1.51564013671875,-0.0901641845703125,0.5459442138671875,-0.470672607421875,2026-04-11T19:13:19.161-05:00
1775952799171697200,1.525697265625,-0.01617431640625,0.4279937744140625,-0.5237884521484375,2026-04-11T19:13:19.171-05:00
1775952799181754000,1.535754150390625,-0.1403656005859375,0.448272705078125,-0.5496978759765625,2026-04-11T19:13:19.181-05:00
1775952799191811000,1.54581103515625,-0.140167236328125,0.4924774169921875,-0.660003662109375,2026-04-11T19:13:19.191-05:00
1775952799201867300,1.5558671875,-0.124969482421875,0.5657196044921875,-0.786712646484375,2026-04-11T19:13:19.201-05:00
1775952799211924200,1.56592431640625,-0.1528778076171875,0.643524169921875,-0.8519287109375,2026-04-11T19:13:19.211-05:00
1775952799221981200,1.575981201171875,-0.1755828857421875,0.6566009521484375,-0.8472900390625,2026-04-11T19:13:19.221-05:00
1775952799232038100,1.5860380859375,-0.179443359375,0.6710052490234375,-0.7927398681640625,2026-04-11T19:13:19.232-05:00
1775952799242095000,1.59609521484375,-0.1932373046875,0.7205810546875,-0.7363433837890625,2026-04-11T19:13:19.242-05:00
1775952799252151000,1.606151123046875,-0.193389892578125,0.8087310791015625,-0.7235260009765625,2026-04-11T19:13:19.252-05:00
1775952799262208000,1.6162080078125,-0.15716552734375,0.7872467041015625,-0.7794342041015625,2026-04-11T19:13:19.262-05:00
1775952799272265000,1.626264892578125,-0.065460205078125,0.72113037109375,-0.810943603515625,2026-04-11T19:13:19.272-05:00
1775952799282322200,1.636322265625,-0.0252838134765625,0.6090545654296875,-0.6972808837890625,2026-04-11T19:13:19.282-05:00
1775952799292378000,1.646378173828125,-0.0215301513671875,0.5439605712890625,-0.566925048828125,2026-04-11T19:13:19.292-05:00
1775952799302435300,1.656435302734375,-0.02325439453125,0.5670166015625,-0.5032958984375,2026-04-11T19:13:19.302-05:00
1775952799312492300,1.6664921875,-0.0289764404296875,0.5809783935546875,-0.4473419189453125,2026-04-11T19:13:19.312-05:00
1775952799322549200,1.67654931640625,-0.03948974609375,0.595977783203125,-0.3875732421875,2026-04-11T19:13:19.322-05:00
1775952799332605200,1.686605224609375,-0.0552215576171875,0.6007843017578125,-0.3415069580078125,2026-04-11T19:13:19.332-05:00
1775952799342662100,1.696662109375,-0.0649261474609375,0.584686279296875,-0.302947998046875,2026-04-11T19:13:19.342-05:00
1775952799352719000,1.706718994140625,-0.0667266845703125,0.563323974609375,-0.26995849609375,2026-04-11T19:13:19.352-05:00
1775952799362776000,1.716776123046875,-0.0792999267578125,0.5313262939453125,-0.22821044921875,2026-04-11T19:13:19.362-05:00
1775952799372833000,1.7268330078125,-0.1031951904296875,0.50860595703125,-0.1944580078125,2026-04-11T19:13:19.372-05:00
1775952799382889000,1.736888916015625,-0.106048583984375,0.4830780029296875,-0.1484832763671875,2026-04-11T19:13:19.382-05:00
1775952799392946200,1.7469462890625,-0.100311279296875,0.4298248291015625,-0.09161376953125,2026-04-11T19:13:19.392-05:00
1775952799403003100,1.757003173828125,-0.0704193115234375,0.3721771240234375,-0.0588226318359375,2026-04-11T19:13:19.403-05:00
1775952799413060400,1.767060302734375,-0.05316162109375,0.3172454833984375,-0.030548095703125,2026-04-11T19:13:19.413-05:00
1775952799423116000,1.777115966796875,-0.047821044921875,0.30096435546875,-0.034515380859375,2026-04-11T19:13:19.423-05:00
1775952799433173200,1.78717333984375,-0.013885498046875,0.3417510986328125,-0.0530853271484375,2026-04-11T19:13:19.433-05:00
1775952799443230200,1.797230224609375,0.0322723388671875,0.494476318359375,-0.020721435546875,2026-04-11T19:13:19.443-05:00
1775952799453287200,1.807287109375,0.1267852783203125,0.68359375,0.1374969482421875,2026-04-11T19:13:19.453-05:00
1775952799463343000,1.817343017578125,0.245086669921875,1.023895263671875,0.328521728515625,2026-04-11T19:13:19.463-05:00
1775952799473400000,1.827400146484375,0.38372802734375,1.7471923828125,0.6676483154296875,2026-04-11T19:13:19.473-05:00
1775952799483457000,1.83745703125,0.5726165771484375,2.69293212890625,0.9832916259765625,2026-04-11T19:13:19.483-05:00
1775952799493514200,1.84751416015625,0.5792388916015625,3.433837890625,0.6698455810546875,2026-04-11T19:13:19.493-05:00
1775952799503571200,1.8575712890625,0.343902587890625,3.3779754638671875,0.1108856201171875,2026-04-11T19:13:19.503-05:00
1775952799513627100,1.867627197265625,0.11077880859375,3.0079498291015625,0.4437408447265625,2026-04-11T19:13:19.513-05:00
1775952799523684000,1.87768408203125,-0.0334625244140625,2.4940948486328125,1.1070404052734375,2026-04-11T19:13:19.523-05:00
1775952799533741000,1.887740966796875,-0.1327056884765625,1.95928955078125,1.1220550537109375,2026-04-11T19:13:19.533-05:00
1775952799543798000,1.897798095703125,-0.3098297119140625,1.33489990234375,0.8816070556640625,2026-04-11T19:13:19.543-05:00
1775952799553854000,1.90785400390625,-0.4711761474609375,0.75177001953125,0.655792236328125,2026-04-11T19:13:19.553-05:00
1775952799563911000,1.917910888671875,-0.3770294189453125,0.5611724853515625,0.5291900634765625,2026-04-11T19:13:19.563-05:00
1775952799573968100,1.927968017578125,-0.25067138671875,0.571746826171875,0.44281005859375,2026-04-11T19:13:19.573-05:00
1775952799584025000,1.938025146484375,-0.1865692138671875,0.5982513427734375,0.3788604736328125,2026-04-11T19:13:19.584-05:00
1775952799594081300,1.948081298828125,-0.1234588623046875,0.614593505859375,0.332305908203125,2026-04-11T19:13:19.594-05:00
1775952799604138200,1.95813818359375,-0.08935546875,0.625091552734375,0.30255126953125,2026-04-11T19:13:19.604-05:00
1775952799614195200,1.9681953125,-0.07275390625,0.655670166015625,0.269134521484375,2026-04-11T19:13:19.614-05:00
1775952799624252200,1.978252197265625,-0.08154296875,0.7229156494140625,0.20269775390625,2026-04-11T19:13:19.624-05:00
1775952799634308000,1.98830810546875,-0.07037353515625,0.7797088623046875,0.1126251220703125,2026-04-11T19:13:19.634-05:00
1775952799644365000,1.998364990234375,-0.0386810302734375,0.7878570556640625,0.0462646484375,2026-04-11T19:13:19.644-05:00
1775952799654422000,2.008422119140625,-0.0198211669921875,0.793060302734375,0.0459747314453125,2026-04-11T19:13:19.654-05:00
1775952799664479000,2.01847900390625,-0.049591064453125,0.8513031005859375,0.07086181640625,2026-04-11T19:13:19.664-05:00
1775952799674536000,2.028535888671875,-0.103179931640625,0.991668701171875,0.0888824462890625,2026-04-11T19:13:19.674-05:00
1775952799684592000,2.038592041015625,-0.1182098388671875,1.18975830078125,0.064239501953125,2026-04-11T19:13:19.684-05:00
1775952799694649000,2.048649169921875,0.08135986328125,1.3369140625,-0.0372467041015625,2026-04-11T19:13:19.694-05:00
1775952799704706000,2.0587060546875,0.5301055908203125,1.392578125,-0.232177734375,2026-04-11T19:13:19.704-05:00
1775952799714763300,2.06876318359375,1.5623931884765625,1.3996429443359375,-0.5883941650390625,2026-04-11T19:13:19.714-05:00
1775952799724819200,2.078819091796875,1.7613983154296875,1.317657470703125,-0.628265380859375,2026-04-11T19:13:19.724-05:00
1775952799734876200,2.088876220703125,1.265777587890625,1.20257568359375,-0.3154144287109375,2026-04-11T19:13:19.734-05:00
1775952799744933000,2.09893310546875,0.78570556640625,1.1479644775390625,0.0538330078125,2026-04-11T19:13:19.744-05:00
1775952799754990000,2.108989990234375,0.34686279296875,1.192413330078125,0.3229522705078125,2026-04-11T19:13:19.754-05:00
1775952799765046300,2.11904638671875,0.0432586669921875,1.2793731689453125,0.5049896240234375,2026-04-11T19:13:19.765-05:00
1775952799775103200,2.129103271484375,-0.1108856201171875,1.3577728271484375,0.647979736328125,2026-04-11T19:13:19.775-05:00
1775952799785160200,2.13916015625,-0.237701416015625,1.3782958984375,0.6681671142578125,2026-04-11T19:13:19.785-05:00
1775952799795217200,2.149217041015625,-0.3006134033203125,1.3749237060546875,0.574951171875,2026-04-11T19:13:19.795-05:00
1775952799805274000,2.159274169921875,-0.28302001953125,1.350494384765625,0.44293212890625,2026-04-11T19:13:19.805-05:00
1775952799815330000,2.169330078125,-0.301239013671875,1.348236083984375,0.360931396484375,2026-04-11T19:13:19.815-05:00
1775952799825387000,2.179386962890625,-0.33087158203125,1.364501953125,0.3411407470703125,2026-04-11T19:13:19.825-05:00
1775952799835444000,2.18944384765625,-0.368499755859375,1.369415283203125,0.3649139404296875,2026-04-11T19:13:19.835-05:00
1775952799845501200,2.199501220703125,-0.40277099609375,1.369903564453125,0.407257080078125,2026-04-11T19:13:19.845-05:00
1775952799855557000,2.20955712890625,-0.432373046875,1.361236572265625,0.4516754150390625,2026-04-11T19:13:19.855-05:00
1775952799865614300,2.2196142578125,-0.43023681640625,1.318603515625,0.487518310546875,2026-04-11T19:13:19.865-05:00
1775952799875671300,2.22967138671875,-0.327301025390625,1.2813873291015625,0.495849609375,2026-04-11T19:13:19.875-05:00
1775952799885728300,2.239728271484375,-0.19036865234375,1.2183380126953125,0.48052978515625,2026-04-11T19:13:19.885-05:00
1775952799895784200,2.2497841796875,-0.1337890625,1.1186981201171875,0.45172119140625,2026-04-11T19:13:19.895-05:00
1775952799905841200,2.259841064453125,-0.1014862060546875,1.01702880859375,0.4271392822265625,2026-04-11T19:13:19.905-05:00
1775952799915898000,2.269898193359375,-0.07122802734375,0.9264068603515625,0.4038543701171875,2026-04-11T19:13:19.915-05:00
1775952799925955000,2.279955078125,-0.06427001953125,0.8507080078125,0.3780670166015625,2026-04-11T19:13:19.925-05:00
1775952799936012000,2.290011962890625,-0.06976318359375,0.7974090576171875,0.3388824462890625,2026-04-11T19:13:19.936-05:00
1775952799946068200,2.300068115234375,-0.06365966796875,0.7426910400390625,0.2885894775390625,2026-04-11T19:13:19.946-05:00
1775952799956125400,2.31012548828125,-0.0629730224609375,0.6772918701171875,0.241607666015625,2026-04-11T19:13:19.956-05:00
1775952799966182400,2.320182373046875,-0.070587158203125,0.614105224609375,0.1929779052734375,2026-04-11T19:13:19.966-05:00
1775952799976239600,2.330239501953125,-0.0604705810546875,0.5755462646484375,0.1363067626953125,2026-04-11T19:13:19.976-05:00
1775952799986295600,2.340295654296875,-0.0461273193359375,0.54632568359375,0.0943756103515625,2026-04-11T19:13:19.986-05:00
1775952799996352800,2.350352783203125,-0.04046630859375,0.53680419921875,0.0699005126953125,2026-04-11T19:13:19.996-05:00
1775952800006409700,2.36040966796875,-0.0163421630859375,0.5464324951171875,0.0725250244140625,2026-04-11T19:13:20.006-05:00
1775952800016466700,2.370466796875,0.0163726806640625,0.571807861328125,0.1179962158203125,2026-04-11T19:13:20.016-05:00
1775952800026522600,2.380522705078125,0.041290283203125,0.5919647216796875,0.1796875,2026-04-11T19:13:20.026-05:00
1775952800036579600,2.39057958984375,0.0690155029296875,0.59405517578125,0.232452392578125,2026-04-11T19:13:20.036-05:00
1775952800046636500,2.400636474609375,0.088592529296875,0.591949462890625,0.274322509765625,2026-04-11T19:13:20.046-05:00
1775952800056693500,2.410693603515625,0.087860107421875,0.591339111328125,0.3078460693359375,2026-04-11T19:13:20.056-05:00
1775952800066750500,2.42075048828125,0.073455810546875,0.600372314453125,0.337005615234375,2026-04-11T19:13:20.066-05:00
1775952800076806700,2.430806640625,0.066436767578125,0.621673583984375,0.3433380126953125,2026-04-11T19:13:20.076-05:00
1775952800086863600,2.440863525390625,0.0888671875,0.66064453125,0.3350982666015625,2026-04-11T19:13:20.086-05:00
1775952800096920600,2.450920654296875,0.15911865234375,0.7197418212890625,0.3301239013671875,2026-04-11T19:13:20.096-05:00
1775952800106977500,2.4609775390625,0.2464752197265625,0.7908477783203125,0.2957000732421875,2026-04-11T19:13:20.106-05:00
1775952800117033500,2.471033447265625,0.3057403564453125,0.852081298828125,0.224456787109375,2026-04-11T19:13:20.117-05:00
1775952800127090400,2.48109033203125,0.335113525390625,0.8835906982421875,0.1197662353515625,2026-04-11T19:13:20.127-05:00
1775952800137147600,2.491147705078125,0.3616790771484375,0.905181884765625,-0.016357421875,2026-04-11T19:13:20.137-05:00
1775952800147204600,2.50120458984375,0.3431854248046875,0.9259033203125,-0.1363067626953125,2026-04-11T19:13:20.147-05:00
1775952800157260800,2.5112607421875,0.2804718017578125,0.9649200439453125,-0.1858367919921875,2026-04-11T19:13:20.157-05:00
1775952800167317800,2.52131787109375,0.214569091796875,1.0174407958984375,-0.16119384765625,2026-04-11T19:13:20.167-05:00
1775952800177374700,2.531374755859375,0.2186737060546875,1.070281982421875,-0.12017822265625,2026-04-11T19:13:20.177-05:00
1775952800187431700,2.541431640625,0.2986297607421875,1.101165771484375,-0.0849456787109375,2026-04-11T19:13:20.187-05:00
1775952800197488600,2.551488525390625,0.412078857421875,1.10748291015625,-0.0775146484375,2026-04-11T19:13:20.197-05:00
1775952800207544600,2.561544677734375,0.492523193359375,1.099700927734375,-0.07855224609375,2026-04-11T19:13:20.207-05:00
1775952800217601500,2.5716015625,0.4954833984375,1.1057891845703125,-0.0493927001953125,2026-04-11T19:13:20.217-05:00
1775952800227658500,2.581658447265625,0.4273834228515625,1.1411285400390625,0.016204833984375,2026-04-11T19:13:20.227-05:00
1775952800237715500,2.591715576171875,0.3223114013671875,1.17724609375,0.0848388671875,2026-04-11T19:13:20.237-05:00
1775952800247771600,2.601771728515625,0.2137603759765625,1.199920654296875,0.1363677978515625,2026-04-11T19:13:20.247-05:00
1775952800257828600,2.61182861328125,0.17266845703125,1.2194976806640625,0.14715576171875,2026-04-11T19:13:20.257-05:00
1775952800267885800,2.6218857421875,0.2870941162109375,1.2638397216796875,0.1065826416015625,2026-04-11T19:13:20.267-05:00
1775952800277942800,2.63194287109375,0.550201416015625,1.37689208984375,0.0178070068359375,2026-04-11T19:13:20.277-05:00
1775952800287998700,2.641998779296875,0.8163909912109375,1.559112548828125,-0.1287841796875,2026-04-11T19:13:20.287-05:00
1775952800298055700,2.6520556640625,0.7990570068359375,1.7379913330078125,-0.254425048828125,2026-04-11T19:13:20.298-05:00
1775952800308112600,2.662112548828125,0.4967193603515625,1.8390350341796875,-0.2636871337890625,2026-04-11T19:13:20.308-05:00
1775952800318169600,2.672169677734375,0.2162322998046875,1.80609130859375,-0.1504058837890625,2026-04-11T19:13:20.318-05:00
1775952800328226600,2.6822265625,0.121551513671875,1.5675811767578125,-0.01837158203125,2026-04-11T19:13:20.328-05:00
1775952800338282800,2.69228271484375,0.023101806640625,1.1497344970703125,0.0071868896484375,2026-04-11T19:13:20.338-05:00
1775952800348339700,2.702339599609375,-0.1808319091796875,0.76715087890625,-0.021575927734375,2026-04-11T19:13:20.348-05:00
1775952800358396700,2.712396728515625,-0.394989013671875,0.50738525390625,-0.0135040283203125,2026-04-11T19:13:20.358-05:00
1775952800368453600,2.72245361328125,-0.517333984375,0.3719329833984375,0.0265045166015625,2026-04-11T19:13:20.368-05:00
1775952800378509600,2.732509521484375,-0.4141998291015625,0.27490234375,0.061279296875,2026-04-11T19:13:20.378-05:00
1775952800388566500,2.74256640625,-0.0512542724609375,0.1331787109375,0.158782958984375,2026-04-11T19:13:20.388-05:00
1775952800398623500,2.75262353515625,0.246246337890625,0.04412841796875,0.230560302734375,2026-04-11T19:13:20.398-05:00
1775952800408680700,2.7626806640625,0.0904083251953125,0.1051025390625,0.3160858154296875,2026-04-11T19:13:20.408-05:00
1775952800418736400,2.772736328125,-0.298492431640625,0.38616943359375,0.474578857421875,2026-04-11T19:13:20.418-05:00
1775952800428793600,2.782793701171875,-0.34613037109375,0.8033599853515625,0.48150634765625,2026-04-11T19:13:20.428-05:00
1775952800438850800,2.792850830078125,-0.010650634765625,1.163330078125,0.3238372802734375,2026-04-11T19:13:20.438-05:00
1775952800448907800,2.80290771484375,0.225128173828125,1.4499664306640625,0.232391357421875,2026-04-11T19:13:20.448-05:00
1775952800458964700,2.81296484375,0.2662200927734375,1.6667938232421875,0.2302703857421875,2026-04-11T19:13:20.458-05:00
1775952800469020700,2.823020751953125,0.26080322265625,1.7902374267578125,0.250396728515625,2026-04-11T19:13:20.469-05:00
1775952800479077600,2.83307763671875,0.2177886962890625,1.74322509765625,0.16619873046875,2026-04-11T19:13:20.479-05:00
1775952800489134600,2.843134521484375,0.16400146484375,1.48931884765625,0.061370849609375,2026-04-11T19:13:20.489-05:00
1775952800499191600,2.853191650390625,0.1673431396484375,1.178497314453125,0.057830810546875,2026-04-11T19:13:20.499-05:00
1775952800509247500,2.86324755859375,0.1713409423828125,0.9835052490234375,0.0992431640625,2026-04-11T19:13:20.509-05:00
1775952800519304400,2.873304443359375,0.090179443359375,0.915924072265625,0.103179931640625,2026-04-11T19:13:20.519-05:00
1775952800529361700,2.883361572265625,0.0101776123046875,0.8667755126953125,0.06964111328125,2026-04-11T19:13:20.529-05:00
1775952800539418600,2.893418701171875,-0.0241241455078125,0.806610107421875,0.0135498046875,2026-04-11T19:13:20.539-05:00
1775952800549474600,2.903474609375,-0.04840087890625,0.780181884765625,-0.0331878662109375,2026-04-11T19:13:20.549-05:00
1775952800559531500,2.913531494140625,-0.110198974609375,0.79498291015625,-0.0771636962890625,2026-04-11T19:13:20.559-05:00
1775952800569588700,2.923588623046875,-0.23272705078125,0.8610992431640625,-0.111328125,2026-04-11T19:13:20.569-05:00
1775952800579645700,2.933645751953125,-0.301116943359375,0.9116668701171875,-0.1618194580078125,2026-04-11T19:13:20.579-05:00
1775952800589702700,2.94370263671875,-0.2318115234375,0.9181365966796875,-0.2487030029296875,2026-04-11T19:13:20.589-05:00
1775952800599758600,2.953758544921875,-0.109405517578125,0.9388580322265625,-0.2682952880859375,2026-04-11T19:13:20.599-05:00
1775952800609815600,2.963815673828125,-0.0493011474609375,0.9928131103515625,-0.2250823974609375,2026-04-11T19:13:20.609-05:00
1775952800619872500,2.97387255859375,-0.0087432861328125,1.0523223876953125,-0.183990478515625,2026-04-11T19:13:20.619-05:00
1775952800629929500,2.983929443359375,0.040924072265625,1.114227294921875,-0.18017578125,2026-04-11T19:13:20.629-05:00
1775952800639985700,2.993985595703125,0.124664306640625,1.1387939453125,-0.12939453125,2026-04-11T19:13:20.639-05:00
1775952800650042600,3.004042724609375,0.25018310546875,1.1305084228515625,-0.049835205078125,2026-04-11T19:13:20.650-05:00
1775952800660099600,3.014099609375,0.3415679931640625,1.105499267578125,0.03631591796875,2026-04-11T19:13:20.660-05:00
1775952800670156500,3.024156494140625,0.318511962890625,1.070343017578125,0.0808868408203125,2026-04-11T19:13:20.670-05:00
1775952800680212500,3.03421240234375,0.22802734375,1.0426788330078125,0.0656890869140625,2026-04-11T19:13:20.680-05:00
1775952800690269400,3.04426953125,0.22906494140625,0.99578857421875,0.038970947265625,2026-04-11T19:13:20.690-05:00
1775952800700326700,3.05432666015625,0.1591644287109375,0.9571075439453125,0.0016937255859375,2026-04-11T19:13:20.700-05:00
1775952800710383600,3.064383544921875,0.111907958984375,0.9043426513671875,-0.036651611328125,2026-04-11T19:13:20.710-05:00
1775952800720440600,3.074440673828125,0.099395751953125,0.84234619140625,-0.0234832763671875,2026-04-11T19:13:20.720-05:00
1775952800730496800,3.084496826171875,0.0980377197265625,0.8022613525390625,0.007568359375,2026-04-11T19:13:20.730-05:00
1775952800740553700,3.0945537109375,0.1397705078125,0.7772369384765625,0.05657958984375,2026-04-11T19:13:20.740-05:00
1775952800750610700,3.104610595703125,0.162017822265625,0.776702880859375,0.098663330078125,2026-04-11T19:13:20.750-05:00
1775952800760667600,3.114667724609375,0.2088623046875,0.804473876953125,0.1197509765625,2026-04-11T19:13:20.760-05:00
1775952800770723600,3.1247236328125,0.279632568359375,0.8452911376953125,0.111328125,2026-04-11T19:13:20.770-05:00
1775952800780780500,3.134780517578125,0.2669830322265625,0.9076690673828125,0.0813446044921875,2026-04-11T19:13:20.780-05:00
1775952800790837500,3.14483740234375,0.2502899169921875,0.947509765625,0.1121368408203125,2026-04-11T19:13:20.790-05:00
1775952800800894500,3.15489453125,0.1940765380859375,0.9649810791015625,0.13214111328125,2026-04-11T19:13:20.800-05:00
1775952800810950700,3.16495068359375,0.2384033203125,0.9252166748046875,0.20452880859375,2026-04-11T19:13:20.810-05:00
1775952800821007600,3.175007568359375,0.3225860595703125,0.7843780517578125,0.28533935546875,2026-04-11T19:13:20.821-05:00
1775952800831064600,3.185064697265625,0.2019195556640625,0.7815399169921875,0.26190185546875,2026-04-11T19:13:20.831-05:00
1775952800841121800,3.195121826171875,0.0320281982421875,0.8727569580078125,0.1939239501953125,2026-04-11T19:13:20.841-05:00
1775952800851178800,3.2051787109375,0.267669677734375,0.95086669921875,0.1665191650390625,2026-04-11T19:13:20.851-05:00
1775952800861234700,3.215234619140625,0.3531494140625,0.996856689453125,0.171295166015625,2026-04-11T19:13:20.861-05:00
1775952800871291600,3.225291748046875,0.3073272705078125,0.982574462890625,0.1930084228515625,2026-04-11T19:13:20.871-05:00
1775952800881348600,3.2353486328125,0.238006591796875,0.960113525390625,0.2647857666015625,2026-04-11T19:13:20.881-05:00
1775952800891405600,3.245405517578125,0.2399139404296875,0.9845733642578125,0.2904052734375,2026-04-11T19:13:20.891-05:00
1775952800901461800,3.255461669921875,0.282623291015625,1.010009765625,0.2927703857421875,2026-04-11T19:13:20.901-05:00
1775952800911518700,3.265518798828125,0.3398590087890625,1.0246124267578125,0.242095947265625,2026-04-11T19:13:20.911-05:00
1775952800921575700,3.27557568359375,0.29290771484375,1.0431060791015625,0.1947021484375,2026-04-11T19:13:20.921-05:00
1775952800931632600,3.285632568359375,0.2765655517578125,1.0454864501953125,0.198150634765625,2026-04-11T19:13:20.931-05:00
1775952800941688600,3.2956884765625,0.2829132080078125,1.00927734375,0.1904754638671875,2026-04-11T19:13:20.941-05:00
1775952800951745500,3.30574560546875,0.29345703125,0.95330810546875,0.172821044921875,2026-04-11T19:13:20.951-05:00
1775952800961802800,3.315802734375,0.314788818359375,0.9190673828125,0.1359100341796875,2026-04-11T19:13:20.961-05:00
1775952800971859700,3.325859619140625,0.367523193359375,0.914337158203125,0.0924835205078125,2026-04-11T19:13:20.971-05:00
1775952800981916700,3.335916748046875,0.4228973388671875,0.924591064453125,0.1089019775390625,2026-04-11T19:13:20.981-05:00
1775952800991972900,3.345972900390625,0.4388275146484375,0.9669036865234375,0.0943756103515625,2026-04-11T19:13:20.991-05:00
1775952801002029800,3.35602978515625,0.4495697021484375,1.028228759765625,0.0423431396484375,2026-04-11T19:13:21.002-05:00
1775952801012086800,3.366086669921875,0.40509033203125,1.0804443359375,-0.0215301513671875,2026-04-11T19:13:21.012-05:00
1775952801022143700,3.376143798828125,0.441253662109375,1.1146240234375,-0.083221435546875,2026-04-11T19:13:21.022-05:00
1775952801032199700,3.38619970703125,0.5770721435546875,1.092742919921875,-0.0739593505859375,2026-04-11T19:13:21.032-05:00
1775952801042256600,3.396256591796875,0.603485107421875,1.051422119140625,-0.06915283203125,2026-04-11T19:13:21.042-05:00
1775952801052313600,3.406313720703125,0.60919189453125,1.0041656494140625,-0.1003875732421875,2026-04-11T19:13:21.052-05:00
1775952801062370600,3.41637060546875,0.6309051513671875,0.984954833984375,-0.0849151611328125,2026-04-11T19:13:21.062-05:00
1775952801072426500,3.426426513671875,0.5898284912109375,0.9772186279296875,0.054351806640625,2026-04-11T19:13:21.072-05:00
1775952801082483700,3.436483642578125,0.6378021240234375,0.98663330078125,0.11083984375,2026-04-11T19:13:21.082-05:00
1775952801092540700,3.446540771484375,0.6681671142578125,1.019012451171875,0.1998748779296875,2026-04-11T19:13:21.092-05:00
1775952801102598000,3.456597900390625,0.63818359375,1.0364837646484375,0.2490386962890625,2026-04-11T19:13:21.102-05:00
1775952801112654800,3.46665478515625,0.6277618408203125,1.03692626953125,0.2098388671875,2026-04-11T19:13:21.112-05:00
1775952801122710800,3.476710693359375,0.6404876708984375,1.047821044921875,0.1077423095703125,2026-04-11T19:13:21.122-05:00
1775952801132767700,3.486767822265625,0.6476898193359375,1.0251617431640625,0.0502777099609375,2026-04-11T19:13:21.132-05:00
1775952801142824700,3.49682470703125,0.6309967041015625,1.0043182373046875,0.039764404296875,2026-04-11T19:13:21.142-05:00
1775952801152881700,3.506881591796875,0.5464630126953125,0.926483154296875,0.068328857421875,2026-04-11T19:13:21.152-05:00
1775952801162937600,3.5169375,0.4256591796875,0.788909912109375,0.2005615234375,2026-04-11T19:13:21.162-05:00
1775952801172994600,3.52699462890625,0.3342742919921875,0.6027069091796875,0.41607666015625,2026-04-11T19:13:21.172-05:00
1775952801183051500,3.537051513671875,0.270111083984375,0.374725341796875,0.60650634765625,2026-04-11T19:13:21.183-05:00
1775952801193108700,3.547108642578125,0.332000732421875,0.11151123046875,0.771331787109375,2026-04-11T19:13:21.193-05:00
1775952801203164700,3.55716455078125,0.3723907470703125,-0.0036773681640625,0.94305419921875,2026-04-11T19:13:21.203-05:00
1775952801213221600,3.5672216796875,0.512481689453125,0.2039947509765625,1.0059967041015625,2026-04-11T19:13:21.213-05:00
1775952801223278800,3.57727880859375,0.737457275390625,0.5585174560546875,0.9423065185546875,2026-04-11T19:13:21.223-05:00
1775952801233335800,3.587335693359375,0.8776397705078125,0.7313079833984375,0.740478515625,2026-04-11T19:13:21.233-05:00
1775952801243392800,3.597392822265625,1.007965087890625,0.6918182373046875,0.519073486328125,2026-04-11T19:13:21.243-05:00
1775952801253448700,3.60744873046875,1.069427490234375,0.61676025390625,0.35992431640625,2026-04-11T19:13:21.253-05:00
1775952801263505700,3.617505615234375,0.99627685546875,0.55804443359375,0.28924560546875,2026-04-11T19:13:21.263-05:00
1775952801273562600,3.627562744140625,0.97210693359375,0.5184326171875,0.3229827880859375,2026-04-11T19:13:21.273-05:00
1775952801283619600,3.63761962890625,0.9958648681640625,0.5214080810546875,0.4173126220703125,2026-04-11T19:13:21.283-05:00
1775952801293675800,3.64767578125,1.033050537109375,0.513916015625,0.437103271484375,2026-04-11T19:13:21.293-05:00
1775952801303732700,3.657732666015625,1.031646728515625,0.4468231201171875,0.4486541748046875,2026-04-11T19:13:21.303-05:00
1775952801313789700,3.667789794921875,1.0916290283203125,0.404449462890625,0.4925537109375,2026-04-11T19:13:21.313-05:00
1775952801323846700,3.6778466796875,1.2193603515625,0.4258575439453125,0.55517578125,2026-04-11T19:13:21.323-05:00
1775952801333903600,3.687903564453125,1.3092498779296875,0.485198974609375,0.608734130859375,2026-04-11T19:13:21.333-05:00
1775952801343959600,3.69795947265625,1.3700408935546875,0.5102386474609375,0.6220703125,2026-04-11T19:13:21.343-05:00
1775952801354016500,3.7080166015625,1.342376708984375,0.4786834716796875,0.61090087890625,2026-04-11T19:13:21.354-05:00
1775952801364073700,3.71807373046875,1.1811370849609375,0.4410858154296875,0.5759124755859375,2026-04-11T19:13:21.364-05:00
1775952801374130700,3.728130615234375,1.0232086181640625,0.38726806640625,0.5736846923828125,2026-04-11T19:13:21.374-05:00
1775952801384187000,3.738186767578125,0.9027862548828125,0.30126953125,0.6222991943359375,2026-04-11T19:13:21.384-05:00
1775952801394243800,3.748243896484375,0.8252716064453125,0.2216644287109375,0.625701904296875,2026-04-11T19:13:21.394-05:00
1775952801404300800,3.75830078125,0.755950927734375,0.172515869140625,0.5544586181640625,2026-04-11T19:13:21.404-05:00
1775952801414357800,3.768357666015625,0.5786895751953125,0.06597900390625,0.5623626708984375,2026-04-11T19:13:21.414-05:00
1775952801424413700,3.77841357421875,0.4488372802734375,-0.05792236328125,0.4142913818359375,2026-04-11T19:13:21.424-05:00
1775952801434470700,3.788470703125,0.3550872802734375,-0.153717041015625,0.217987060546875,2026-04-11T19:13:21.434-05:00
1775952801444527600,3.798527587890625,0.023345947265625,-0.213226318359375,0.0095062255859375,2026-04-11T19:13:21.444-05:00
1775952801454584600,3.80858447265625,-0.2047576904296875,-0.289337158203125,-0.216552734375,2026-04-11T19:13:21.454-05:00
1775952801464641500,3.8186416015625,-0.037841796875,-0.324676513671875,-0.3563995361328125,2026-04-11T19:13:21.464-05:00
1775952801474697700,3.82869775390625,-0.00860595703125,-0.2098846435546875,-0.3939056396484375,2026-04-11T19:13:21.474-05:00
1775952801484754700,3.838754638671875,-0.3340606689453125,-0.16876220703125,-0.408447265625,2026-04-11T19:13:21.484-05:00
1775952801494811600,3.848811767578125,-0.7339630126953125,-0.142974853515625,-0.3814544677734375,2026-04-11T19:13:21.494-05:00
1775952801504868900,3.858868896484375,-0.9535064697265625,-0.0970611572265625,-0.30218505859375,2026-04-11T19:13:21.504-05:00
1775952801514924800,3.8689248046875,-1.0938873291015625,-0.038848876953125,-0.2339630126953125,2026-04-11T19:13:21.514-05:00
1775952801524981800,3.878981689453125,-1.148681640625,0.0218658447265625,-0.1491241455078125,2026-04-11T19:13:21.524-05:00
1775952801535038700,3.889038818359375,-1.0726470947265625,0.1220550537109375,-0.0174713134765625,2026-04-11T19:13:21.535-05:00
1775952801545095700,3.899095703125,-0.989898681640625,0.2344512939453125,0.14044189453125,2026-04-11T19:13:21.545-05:00
1775952801555152000,3.90915185546875,-0.88372802734375,0.33782958984375,0.3334808349609375,2026-04-11T19:13:21.555-05:00
1775952801565208800,3.919208740234375,-0.80609130859375,0.4496612548828125,0.5069427490234375,2026-04-11T19:13:21.565-05:00
1775952801575265800,3.929265869140625,-0.8639068603515625,0.5066070556640625,0.6632232666015625,2026-04-11T19:13:21.575-05:00
1775952801585322800,3.93932275390625,-0.9342803955078125,0.530303955078125,0.8134002685546875,2026-04-11T19:13:21.585-05:00
1775952801595379700,3.949379638671875,-0.94378662109375,0.557708740234375,0.9211273193359375,2026-04-11T19:13:21.595-05:00
1775952801605435600,3.959435546875,-0.8989105224609375,0.575286865234375,1.03558349609375,2026-04-11T19:13:21.605-05:00
1775952801615492600,3.96949267578125,-0.8239898681640625,0.6116790771484375,1.187774658203125,2026-04-11T19:13:21.615-05:00
1775952801625549600,3.979549560546875,-0.784393310546875,0.641326904296875,1.38153076171875,2026-04-11T19:13:21.625-05:00
1775952801635606800,3.989606689453125,-0.7649383544921875,0.6994781494140625,1.6119537353515625,2026-04-11T19:13:21.635-05:00
1775952801645662700,3.999662841796875,-0.74737548828125,0.7794342041015625,1.8300018310546875,2026-04-11T19:13:21.645-05:00
1775952801655720000,4.009719970703125,-0.7016143798828125,0.8627166748046875,1.9843902587890625,2026-04-11T19:13:21.655-05:00
1775952801665777000,4.01977685546875,-0.6326141357421875,0.9381866455078125,2.1115570068359375,2026-04-11T19:13:21.665-05:00
1775952801675833900,4.029833740234375,-0.53082275390625,1.02325439453125,2.0974578857421875,2026-04-11T19:13:21.675-05:00
1775952801685890800,4.039890869140625,-0.420440673828125,1.160980224609375,2.0002288818359375,2026-04-11T19:13:21.685-05:00
1775952801695946800,4.04994677734375,-0.3536376953125,1.278656005859375,1.86907958984375,2026-04-11T19:13:21.695-05:00
1775952801706003700,4.060003662109375,-0.464202880859375,1.4468536376953125,1.8780364990234375,2026-04-11T19:13:21.706-05:00
1775952801716060700,4.070060791015625,-0.6660614013671875,1.602325439453125,2.03826904296875,2026-04-11T19:13:21.716-05:00
1775952801726117600,4.08011767578125,-0.8115081787109375,1.6949462890625,2.111053466796875,2026-04-11T19:13:21.726-05:00
1775952801736173600,4.090173583984375,-0.8618011474609375,1.747802734375,2.0828704833984375,2026-04-11T19:13:21.736-05:00
1775952801746230500,4.10023046875,-0.835418701171875,1.7938690185546875,2.0027923583984375,2026-04-11T19:13:21.746-05:00
1775952801756287700,4.110287841796875,-0.760986328125,1.8790283203125,1.9332275390625,2026-04-11T19:13:21.756-05:00
1775952801766344700,4.1203447265625,-0.62713623046875,1.882049560546875,1.7838592529296875,2026-04-11T19:13:21.766-05:00
1775952801776402000,4.13040185546875,-0.4707489013671875,1.7628021240234375,1.5333251953125,2026-04-11T19:13:21.776-05:00
1775952801786457600,4.14045751953125,-0.34234619140625,1.61041259765625,1.3204345703125,2026-04-11T19:13:21.786-05:00
1775952801796514800,4.150514892578125,-0.243072509765625,1.45245361328125,1.1482086181640625,2026-04-11T19:13:21.796-05:00
1775952801806571800,4.16057177734375,-0.1559906005859375,1.2781829833984375,0.929656982421875,2026-04-11T19:13:21.806-05:00
1775952801816628700,4.170628662109375,-0.181549072265625,1.2776031494140625,0.8359527587890625,2026-04-11T19:13:21.816-05:00
1775952801826684700,4.1806845703125,-0.2117919921875,1.355987548828125,0.798492431640625,2026-04-11T19:13:21.826-05:00
1775952801836741600,4.19074169921875,-0.199462890625,1.358642578125,0.7415008544921875,2026-04-11T19:13:21.836-05:00
1775952801846798600,4.200798583984375,-0.1615753173828125,1.2512054443359375,0.6763458251953125,2026-04-11T19:13:21.846-05:00
1775952801856855800,4.210855712890625,-0.101806640625,1.063873291015625,0.5874481201171875,2026-04-11T19:13:21.856-05:00
1775952801866912800,4.220912841796875,-0.0243988037109375,0.85443115234375,0.4965667724609375,2026-04-11T19:13:21.866-05:00
1775952801876968700,4.23096875,0.0256500244140625,0.662353515625,0.4109039306640625,2026-04-11T19:13:21.876-05:00
1775952801887025700,4.241025634765625,0.0281829833984375,0.5358734130859375,0.34515380859375,2026-04-11T19:13:21.887-05:00
1775952801897082600,4.25108251953125,0.0308074951171875,0.43487548828125,0.2979888916015625,2026-04-11T19:13:21.897-05:00
1775952801907139600,4.2611396484375,0.0692138671875,0.341064453125,0.2726287841796875,2026-04-11T19:13:21.907-05:00
1775952801917195500,4.271195556640625,0.1785125732421875,0.248870849609375,0.2439117431640625,2026-04-11T19:13:21.917-05:00
1775952801927252700,4.281252685546875,0.20062255859375,0.2075958251953125,0.214630126953125,2026-04-11T19:13:21.927-05:00
1775952801937309700,4.291309814453125,0.0654144287109375,0.2513275146484375,0.24627685546875,2026-04-11T19:13:21.937-05:00
1775952801947366700,4.30136669921875,0.0123291015625,0.2954559326171875,0.2703094482421875,2026-04-11T19:13:21.947-05:00
1775952801957422600,4.311422607421875,0.001007080078125,0.350341796875,0.286529541015625,2026-04-11T19:13:21.957-05:00
1775952801967479600,4.3214794921875,-0.0168304443359375,0.4540252685546875,0.3578643798828125,2026-04-11T19:13:21.967-05:00
1775952801977536500,4.33153662109375,-0.046844482421875,0.5730743408203125,0.4344635009765625,2026-04-11T19:13:21.977-05:00
1775952801987593500,4.341593505859375,-0.0939788818359375,0.66876220703125,0.4961700439453125,2026-04-11T19:13:21.987-05:00
1775952801997650700,4.351650634765625,-0.1722259521484375,0.7614593505859375,0.5858306884765625,2026-04-11T19:13:21.997-05:00
1775952802007706600,4.36170654296875,-0.2737274169921875,0.8363189697265625,0.687347412109375,2026-04-11T19:13:22.007-05:00
1775952802017763600,4.371763671875,-0.3912811279296875,0.9066314697265625,0.7651519775390625,2026-04-11T19:13:22.017-05:00
1775952802027820500,4.381820556640625,-0.5473480224609375,0.962188720703125,0.862945556640625,2026-04-11T19:13:22.027-05:00
1775952802037877500,4.39187744140625,-0.6817626953125,1.006317138671875,0.959747314453125,2026-04-11T19:13:22.037-05:00
1775952802047933700,4.40193359375,-0.8716583251953125,0.9767608642578125,0.9932098388671875,2026-04-11T19:13:22.047-05:00
1775952802057990700,4.41199072265625,-1.0679931640625,0.8870086669921875,0.9953155517578125,2026-04-11T19:13:22.057-05:00
1775952802068047600,4.422047607421875,-1.23455810546875,0.7567138671875,0.9804840087890625,2026-04-11T19:13:22.068-05:00
1775952802078104600,4.4321044921875,-1.3488006591796875,0.5809326171875,0.9425201416015625,2026-04-11T19:13:22.078-05:00
1775952802088161500,4.44216162109375,-1.4478759765625,0.413421630859375,0.9161376953125,2026-04-11T19:13:22.088-05:00
1775952802098217500,4.452217529296875,-1.53387451171875,0.2248077392578125,0.8827972412109375,2026-04-11T19:13:22.098-05:00
1775952802108274400,4.4622744140625,-1.527587890625,0.0287017822265625,0.798858642578125,2026-04-11T19:13:22.108-05:00
1775952802118331400,4.472331298828125,-1.4623260498046875,-0.1322479248046875,0.6806793212890625,2026-04-11T19:13:22.118-05:00
1775952802128388600,4.482388671875,-1.320709228515625,-0.24786376953125,0.5675201416015625,2026-04-11T19:13:22.128-05:00
1775952802138444500,4.492444580078125,-1.161651611328125,-0.3218994140625,0.5012054443359375,2026-04-11T19:13:22.138-05:00
1775952802148501800,4.502501708984375,-1.0081634521484375,-0.3216400146484375,0.4665985107421875,2026-04-11T19:13:22.148-05:00
1775952802158558700,4.512558837890625,-0.8917999267578125,-0.284515380859375,0.4587860107421875,2026-04-11T19:13:22.158-05:00
1775952802168615700,4.52261572265625,-0.8307037353515625,-0.2161865234375,0.474700927734375,2026-04-11T19:13:22.168-05:00
1775952802178672600,4.532672607421875,-0.7887725830078125,-0.12933349609375,0.500823974609375,2026-04-11T19:13:22.178-05:00
1775952802188728600,4.542728515625,-0.7370147705078125,-0.033966064453125,0.5342559814453125,2026-04-11T19:13:22.188-05:00
1775952802198785500,4.55278564453125,-0.68646240234375,0.0775299072265625,0.578948974609375,2026-04-11T19:13:22.198-05:00
1775952802208842500,4.562842529296875,-0.64764404296875,0.1978607177734375,0.6389007568359375,2026-04-11T19:13:22.208-05:00
1775952802218899500,4.5728994140625,-0.630584716796875,0.322662353515625,0.7109375,2026-04-11T19:13:22.218-05:00
1775952802228955600,4.58295556640625,-0.62603759765625,0.4459381103515625,0.7981719970703125,2026-04-11T19:13:22.228-05:00
1775952802239012600,4.5930126953125,-0.6256561279296875,0.562469482421875,0.876129150390625,2026-04-11T19:13:22.239-05:00
1775952802249069600,4.603069580078125,-0.6207275390625,0.66424560546875,0.9328155517578125,2026-04-11T19:13:22.249-05:00
1775952802259126500,4.61312646484375,-0.6040496826171875,0.73291015625,0.969940185546875,2026-04-11T19:13:22.259-05:00
1775952802269182500,4.623182373046875,-0.575286865234375,0.7475738525390625,0.992950439453125,2026-04-11T19:13:22.269-05:00
1775952802279239400,4.633239501953125,-0.530242919921875,0.70281982421875,0.9801177978515625,2026-04-11T19:13:22.279-05:00
1775952802289296600,4.643296630859375,-0.45672607421875,0.6272735595703125,0.8906707763671875,2026-04-11T19:13:22.289-05:00
1775952802299353600,4.653353515625,-0.376556396484375,0.5298614501953125,0.74395751953125,2026-04-11T19:13:22.299-05:00
1775952802309410600,4.66341064453125,-0.3144683837890625,0.4415435791015625,0.6141510009765625,2026-04-11T19:13:22.309-05:00
1775952802319466800,4.673466796875,-0.2700653076171875,0.376678466796875,0.51519775390625,2026-04-11T19:13:22.319-05:00
1775952802329523700,4.683523681640625,-0.237518310546875,0.332183837890625,0.4482269287109375,2026-04-11T19:13:22.329-05:00
1775952802339580700,4.69358056640625,-0.2203521728515625,0.29962158203125,0.404388427734375,2026-04-11T19:13:22.339-05:00
1775952802349637600,4.7036376953125,-0.2197723388671875,0.289520263671875,0.40283203125,2026-04-11T19:13:22.349-05:00
1775952802359693600,4.713693603515625,-0.2478179931640625,0.3107757568359375,0.45849609375,2026-04-11T19:13:22.359-05:00
1775952802369750500,4.72375048828125,-0.28802490234375,0.3570556640625,0.5397491455078125,2026-04-11T19:13:22.369-05:00
1775952802379807500,4.733807373046875,-0.3273773193359375,0.4104766845703125,0.622833251953125,2026-04-11T19:13:22.379-05:00
1775952802389864400,4.743864501953125,-0.36376953125,0.469757080078125,0.700653076171875,2026-04-11T19:13:22.389-05:00
1775952802399921400,4.75392138671875,-0.3914794921875,0.5223388671875,0.7614288330078125,2026-04-11T19:13:22.399-05:00
1775952802409977600,4.7639775390625,-0.4162139892578125,0.5498504638671875,0.8029632568359375,2026-04-11T19:13:22.409-05:00
1775952802420034600,4.77403466796875,-0.43316650390625,0.537750244140625,0.8064117431640625,2026-04-11T19:13:22.420-05:00
1775952802430091800,4.784091796875,-0.4391632080078125,0.4832763671875,0.7484893798828125,2026-04-11T19:13:22.430-05:00
1775952802440148700,4.794148681640625,-0.4457244873046875,0.4205169677734375,0.6875762939453125,2026-04-11T19:13:22.440-05:00
1775952802450204700,4.80420458984375,-0.47076416015625,0.3702850341796875,0.662078857421875,2026-04-11T19:13:22.450-05:00
1775952802460261600,4.81426171875,-0.51507568359375,0.3278656005859375,0.6680450439453125,2026-04-11T19:13:22.460-05:00
1775952802470318600,4.824318603515625,-0.576171875,0.2942962646484375,0.7021026611328125,2026-04-11T19:13:22.470-05:00
1775952802480375600,4.83437548828125,-0.645843505859375,0.275726318359375,0.7588043212890625,2026-04-11T19:13:22.480-05:00
1775952802490432500,4.8444326171875,-0.714141845703125,0.2743988037109375,0.832061767578125,2026-04-11T19:13:22.490-05:00
1775952802500488400,4.854488525390625,-0.7857818603515625,0.282379150390625,0.9185791015625,2026-04-11T19:13:22.500-05:00
1775952802510545700,4.864545654296875,-0.833099365234375,0.2895355224609375,0.9851837158203125,2026-04-11T19:13:22.510-05:00
1775952802520602600,4.8746025390625,-0.858428955078125,0.287628173828125,1.0376739501953125,2026-04-11T19:13:22.520-05:00
1775952802530659600,4.88465966796875,-0.846221923828125,0.2764434814453125,1.058746337890625,2026-04-11T19:13:22.530-05:00
1775952802540715500,4.894715576171875,-0.8025665283203125,0.25408935546875,1.05120849609375,2026-04-11T19:13:22.540-05:00
1775952802550772500,4.9047724609375,-0.724212646484375,0.22869873046875,1.010894775390625,2026-04-11T19:13:22.550-05:00
1775952802560829700,4.91482958984375,-0.651153564453125,0.2089080810546875,0.967437744140625,2026-04-11T19:13:22.560-05:00
1775952802570886700,4.92488671875,-0.6003570556640625,0.1949310302734375,0.9385223388671875,2026-04-11T19:13:22.570-05:00
1775952802580942600,4.934942626953125,-0.56146240234375,0.196929931640625,0.9205780029296875,2026-04-11T19:13:22.580-05:00
1775952802590999600,4.94499951171875,-0.53009033203125,0.2104644775390625,0.90740966796875,2026-04-11T19:13:22.590-05:00
1775952802601056500,4.955056396484375,-0.50640869140625,0.227294921875,0.8924102783203125,2026-04-11T19:13:22.601-05:00
1775952802611113500,4.965113525390625,-0.4936370849609375,0.2462158203125,0.8841400146484375,2026-04-11T19:13:22.611-05:00
1775952802621170700,4.975170654296875,-0.4883880615234375,0.2660369873046875,0.881378173828125,2026-04-11T19:13:22.621-05:00
1775952802631226600,4.9852265625,-0.4904632568359375,0.2772674560546875,0.878326416015625,2026-04-11T19:13:22.631-05:00
1775952802641283600,4.99528369140625,-0.4972686767578125,0.2845916748046875,0.8698272705078125,2026-04-11T19:13:22.641-05:00
1775952802651340500,5.005340576171875,-0.516845703125,0.2835235595703125,0.873321533203125,2026-04-11T19:13:22.651-05:00
1775952802661397500,5.0153974609375,-0.559661865234375,0.27569580078125,0.8972930908203125,2026-04-11T19:13:22.661-05:00
1775952802671453400,5.025453369140625,-0.5989227294921875,0.268096923828125,0.9143829345703125,2026-04-11T19:13:22.671-05:00
1775952802681510400,5.035510498046875,-0.6134033203125,0.25457763671875,0.899261474609375,2026-04-11T19:13:22.681-05:00
1775952802691567400,5.0455673828125,-0.599609375,0.244293212890625,0.859466552734375,2026-04-11T19:13:22.691-05:00
1775952802701624600,5.05562451171875,-0.5798187255859375,0.233489990234375,0.81866455078125,2026-04-11T19:13:22.701-05:00
1775952802711680500,5.065680419921875,-0.56756591796875,0.2280120849609375,0.7911529541015625,2026-04-11T19:13:22.711-05:00
1775952802721737700,5.07573779296875,-0.5645599365234375,0.2323150634765625,0.773406982421875,2026-04-11T19:13:22.721-05:00
1775952802731794700,5.085794677734375,-0.566558837890625,0.2428131103515625,0.7624969482421875,2026-04-11T19:13:22.731-05:00
1775952802741851600,5.0958515625,-0.574188232421875,0.2620391845703125,0.7570953369140625,2026-04-11T19:13:22.741-05:00
1775952802751908600,5.10590869140625,-0.58416748046875,0.2888031005859375,0.7475433349609375,2026-04-11T19:13:22.751-05:00
1775952802761964500,5.115964599609375,-0.595428466796875,0.3211212158203125,0.73504638671875,2026-04-11T19:13:22.761-05:00
1775952802772021500,5.126021484375,-0.6032257080078125,0.3529052734375,0.712982177734375,2026-04-11T19:13:22.772-05:00
1775952802782078500,5.136078369140625,-0.6068878173828125,0.3739013671875,0.6819610595703125,2026-04-11T19:13:22.782-05:00
1775952802792135400,5.146135498046875,-0.6131591796875,0.3783111572265625,0.6476287841796875,2026-04-11T19:13:22.792-05:00
1775952802802191600,5.156191650390625,-0.6240234375,0.36767578125,0.6112518310546875,2026-04-11T19:13:22.802-05:00
1775952802812248600,5.16624853515625,-0.6396942138671875,0.3481292724609375,0.57757568359375,2026-04-11T19:13:22.812-05:00
1775952802822305500,5.176305419921875,-0.6581573486328125,0.330047607421875,0.547882080078125,2026-04-11T19:13:22.822-05:00
1775952802832362500,5.186362548828125,-0.68414306640625,0.319793701171875,0.5277099609375,2026-04-11T19:13:22.832-05:00
1775952802842419700,5.196419677734375,-0.7255401611328125,0.3180999755859375,0.52557373046875,2026-04-11T19:13:22.842-05:00
1775952802852475600,5.2064755859375,-0.7720489501953125,0.3236541748046875,0.5408172607421875,2026-04-11T19:13:22.852-05:00
1775952802862532600,5.21653271484375,-0.8062896728515625,0.333404541015625,0.550384521484375,2026-04-11T19:13:22.862-05:00
1775952802872589600,5.226589599609375,-0.8107147216796875,0.34814453125,0.5439453125,2026-04-11T19:13:22.872-05:00
1775952802882646500,5.236646484375,-0.7924957275390625,0.368621826171875,0.53167724609375,2026-04-11T19:13:22.882-05:00
1775952802892702700,5.24670263671875,-0.7725677490234375,0.3904876708984375,0.5282745361328125,2026-04-11T19:13:22.892-05:00
1775952802902759700,5.256759765625,-0.7634735107421875,0.4051666259765625,0.53546142578125,2026-04-11T19:13:22.902-05:00
1775952802912816600,5.266816650390625,-0.75701904296875,0.4064178466796875,0.5490264892578125,2026-04-11T19:13:22.912-05:00
1775952802922873600,5.27687353515625,-0.7520751953125,0.39910888671875,0.561431884765625,2026-04-11T19:13:22.922-05:00
1775952802932930600,5.2869306640625,-0.7447662353515625,0.3847198486328125,0.5716094970703125,2026-04-11T19:13:22.932-05:00
1775952802942986500,5.296986572265625,-0.7433013916015625,0.3649749755859375,0.5870819091796875,2026-04-11T19:13:22.942-05:00
1775952802953043500,5.30704345703125,-0.748870849609375,0.3475189208984375,0.615875244140625,2026-04-11T19:13:22.953-05:00
1775952802963101000,5.317100830078125,-0.7568511962890625,0.337799072265625,0.65283203125,2026-04-11T19:13:22.963-05:00
1775952802973158000,5.327157958984375,-0.7599945068359375,0.3354644775390625,0.6919708251953125,2026-04-11T19:13:22.973-05:00
1775952802983214000,5.337214111328125,-0.754638671875,0.334320068359375,0.733367919921875,2026-04-11T19:13:22.983-05:00
1775952802993271000,5.34727099609375,-0.74041748046875,0.3333892822265625,0.77276611328125,2026-04-11T19:13:22.993-05:00
1775952803003328000,5.357327880859375,-0.7169952392578125,0.32861328125,0.80645751953125,2026-04-11T19:13:23.003-05:00
1775952803013385000,5.367385009765625,-0.6835174560546875,0.3184356689453125,0.83001708984375,2026-04-11T19:13:23.013-05:00
1775952803023441000,5.37744091796875,-0.6430816650390625,0.3017730712890625,0.85028076171875,2026-04-11T19:13:23.023-05:00
1775952803033497900,5.387497802734375,-0.59613037109375,0.2840576171875,0.849609375,2026-04-11T19:13:23.033-05:00
1775952803043555000,5.39755517578125,-0.5539093017578125,0.2676849365234375,0.8357086181640625,2026-04-11T19:13:23.043-05:00
1775952803053612000,5.407612060546875,-0.5121917724609375,0.2487030029296875,0.81884765625,2026-04-11T19:13:23.053-05:00
1775952803063669000,5.4176689453125,-0.47930908203125,0.2301177978515625,0.7984619140625,2026-04-11T19:13:23.063-05:00
1775952803073725000,5.427724853515625,-0.4564208984375,0.214019775390625,0.787506103515625,2026-04-11T19:13:23.073-05:00
1775952803083782000,5.437781982421875,-0.4393310546875,0.2099151611328125,0.779998779296875,2026-04-11T19:13:23.083-05:00
1775952803093839000,5.447839111328125,-0.4176177978515625,0.2007293701171875,0.7614593505859375,2026-04-11T19:13:23.093-05:00
1775952803103896000,5.45789599609375,-0.4063720703125,0.189239501953125,0.746337890625,2026-04-11T19:13:23.103-05:00
1775952803113952000,5.467951904296875,-0.398590087890625,0.1849212646484375,0.7341766357421875,2026-04-11T19:13:23.113-05:00
1775952803124009000,5.478009033203125,-0.3872528076171875,0.1873931884765625,0.7206573486328125,2026-04-11T19:13:23.124-05:00
1775952803134066000,5.48806591796875,-0.378448486328125,0.2000579833984375,0.7008209228515625,2026-04-11T19:13:23.134-05:00
1775952803144123000,5.498122802734375,-0.38037109375,0.223663330078125,0.6855316162109375,2026-04-11T19:13:23.144-05:00
1775952803154179800,5.508179931640625,-0.39215087890625,0.254638671875,0.671905517578125,2026-04-11T19:13:23.154-05:00
1775952803164235800,5.51823583984375,-0.4062347412109375,0.286041259765625,0.660797119140625,2026-04-11T19:13:23.164-05:00
1775952803174292700,5.528292724609375,-0.4266815185546875,0.30859375,0.646148681640625,2026-04-11T19:13:23.174-05:00
1775952803184350000,5.538349853515625,-0.453155517578125,0.3200836181640625,0.634368896484375,2026-04-11T19:13:23.184-05:00
1775952803194407000,5.548406982421875,-0.4915313720703125,0.3214874267578125,0.6302490234375,2026-04-11T19:13:23.194-05:00
1775952803204463000,5.558463134765625,-0.542266845703125,0.3159637451171875,0.6340179443359375,2026-04-11T19:13:23.204-05:00
1775952803214520000,5.56852001953125,-0.595306396484375,0.3050384521484375,0.638458251953125,2026-04-11T19:13:23.214-05:00
1775952803224577000,5.578576904296875,-0.6424713134765625,0.293975830078125,0.6396331787109375,2026-04-11T19:13:23.224-05:00
1775952803234634000,5.588634033203125,-0.6816864013671875,0.2838287353515625,0.639862060546875,2026-04-11T19:13:23.234-05:00
1775952803244690000,5.59868994140625,-0.7059478759765625,0.2747802734375,0.6354522705078125,2026-04-11T19:13:23.244-05:00
1775952803254747000,5.608746826171875,-0.72113037109375,0.265533447265625,0.6281280517578125,2026-04-11T19:13:23.254-05:00
1775952803264803800,5.618803955078125,-0.723785400390625,0.2567138671875,0.6180877685546875,2026-04-11T19:13:23.264-05:00
1775952803274860800,5.62886083984375,-0.7148590087890625,0.2483978271484375,0.602447509765625,2026-04-11T19:13:23.274-05:00
1775952803284917800,5.638917724609375,-0.6987152099609375,0.2452850341796875,0.5916290283203125,2026-04-11T19:13:23.284-05:00
1775952803294974000,5.648973876953125,-0.67950439453125,0.2479705810546875,0.587921142578125,2026-04-11T19:13:23.294-05:00
1775952803305031000,5.659031005859375,-0.663909912109375,0.262481689453125,0.59912109375,2026-04-11T19:13:23.305-05:00
1775952803315088000,5.669087890625,-0.645965576171875,0.295501708984375,0.616302490234375,2026-04-11T19:13:23.315-05:00
1775952803325145000,5.67914501953125,-0.6284942626953125,0.3351593017578125,0.631866455078125,2026-04-11T19:13:23.325-05:00
1775952803335200800,5.68920068359375,-0.6173248291015625,0.365325927734375,0.645050048828125,2026-04-11T19:13:23.335-05:00
1775952803345258000,5.699258056640625,-0.6162261962890625,0.383697509765625,0.659515380859375,2026-04-11T19:13:23.345-05:00
1775952803355315000,5.70931494140625,-0.6313629150390625,0.391448974609375,0.6763153076171875,2026-04-11T19:13:23.355-05:00
1775952803365372000,5.719371826171875,-0.6658935546875,0.3852386474609375,0.7051544189453125,2026-04-11T19:13:23.365-05:00
1775952803375428900,5.729428955078125,-0.7002716064453125,0.3681793212890625,0.732666015625,2026-04-11T19:13:23.375-05:00
1775952803385485000,5.739485107421875,-0.6975555419921875,0.3320159912109375,0.7248992919921875,2026-04-11T19:13:23.385-05:00
1775952803395542000,5.7495419921875,-0.6963348388671875,0.2791900634765625,0.7225189208984375,2026-04-11T19:13:23.395-05:00
1775952803405599000,5.759598876953125,-0.7021484375,0.22406005859375,0.7239990234375,2026-04-11T19:13:23.405-05:00
1775952803415656000,5.769656005859375,-0.7037200927734375,0.1742401123046875,0.72674560546875,2026-04-11T19:13:23.415-05:00
1775952803425711900,5.7797119140625,-0.6996612548828125,0.130523681640625,0.7396392822265625,2026-04-11T19:13:23.425-05:00
1775952803435768800,5.789768798828125,-0.698699951171875,0.0944061279296875,0.76043701171875,2026-04-11T19:13:23.435-05:00
1775952803445825800,5.79982568359375,-0.69403076171875,0.0693206787109375,0.7862091064453125,2026-04-11T19:13:23.445-05:00
1775952803455882800,5.8098828125,-0.6842193603515625,0.0540618896484375,0.8043365478515625,2026-04-11T19:13:23.455-05:00
1775952803465939000,5.81993896484375,-0.6683349609375,0.045501708984375,0.815277099609375,2026-04-11T19:13:23.465-05:00
1775952803475996200,5.82999609375,-0.6509857177734375,0.04998779296875,0.8274078369140625,2026-04-11T19:13:23.475-05:00
1775952803486053000,5.84005322265625,-0.6354827880859375,0.067596435546875,0.8479766845703125,2026-04-11T19:13:23.486-05:00
1775952803496110000,5.850110107421875,-0.6360931396484375,0.0989532470703125,0.8832244873046875,2026-04-11T19:13:23.496-05:00
1775952803506167000,5.8601669921875,-0.6414642333984375,0.1390533447265625,0.925537109375,2026-04-11T19:13:23.506-05:00
1775952803516223000,5.870222900390625,-0.6060028076171875,0.1724395751953125,0.9209442138671875,2026-04-11T19:13:23.516-05:00
1775952803526280000,5.880280029296875,-0.553741455078125,0.200347900390625,0.8762054443359375,2026-04-11T19:13:23.526-05:00
1775952803536337000,5.8903369140625,-0.508270263671875,0.22698974609375,0.8187103271484375,2026-04-11T19:13:23.536-05:00
1775952803546393900,5.900393798828125,-0.4896392822265625,0.25238037109375,0.777313232421875,2026-04-11T19:13:23.546-05:00
1775952803556450000,5.910449951171875,-0.4908599853515625,0.2691650390625,0.746917724609375,2026-04-11T19:13:23.556-05:00
1775952803566507000,5.920507080078125,-0.4966888427734375,0.2841949462890625,0.7245330810546875,2026-04-11T19:13:23.566-05:00
1775952803576564000,5.93056396484375,-0.5026397705078125,0.293304443359375,0.711090087890625,2026-04-11T19:13:23.576-05:00
1775952803586621000,5.940620849609375,-0.5194854736328125,0.281768798828125,0.6972198486328125,2026-04-11T19:13:23.586-05:00
1775952803596678100,5.95067822265625,-0.5322418212890625,0.2539825439453125,0.6578216552734375,2026-04-11T19:13:23.596-05:00
1775952803606733800,5.96073388671875,-0.52484130859375,0.2231903076171875,0.6062774658203125,2026-04-11T19:13:23.606-05:00
1775952803616791000,5.970791015625,-0.5474853515625,0.2057037353515625,0.5709686279296875,2026-04-11T19:13:23.616-05:00
1775952803626848000,5.980847900390625,-0.5620574951171875,0.2082061767578125,0.56048583984375,2026-04-11T19:13:23.626-05:00
1775952803636905000,5.990905029296875,-0.6270904541015625,0.230224609375,0.5852203369140625,2026-04-11T19:13:23.636-05:00
1775952803646961200,6.000961181640625,-0.6775970458984375,0.2543487548828125,0.6006011962890625,2026-04-11T19:13:23.646-05:00
1775952803657018000,6.01101806640625,-0.7440948486328125,0.278656005859375,0.6344451904296875,2026-04-11T19:13:23.657-05:00
1775952803667075000,6.021074951171875,-0.8372802734375,0.291290283203125,0.665802001953125,2026-04-11T19:13:23.667-05:00
1775952803677132000,6.031132080078125,-0.919769287109375,0.287689208984375,0.6893463134765625,2026-04-11T19:13:23.677-05:00
1775952803687189000,6.04118896484375,-0.9897918701171875,0.254608154296875,0.7192535400390625,2026-04-11T19:13:23.687-05:00
1775952803697245000,6.051244873046875,-1.03680419921875,0.1990966796875,0.7447967529296875,2026-04-11T19:13:23.697-05:00
1775952803707302000,6.061302001953125,-1.011077880859375,0.140625,0.741424560546875,2026-04-11T19:13:23.707-05:00
1775952803717358800,6.07135888671875,-0.962799072265625,0.092742919921875,0.7419281005859375,2026-04-11T19:13:23.717-05:00
1775952803727415800,6.081415771484375,-0.94561767578125,0.0640106201171875,0.7562255859375,2026-04-11T19:13:23.727-05:00
1775952803737471700,6.0914716796875,-0.9095001220703125,0.0480194091796875,0.77728271484375,2026-04-11T19:13:23.737-05:00
1775952803747529000,6.101529052734375,-0.82080078125,0.030731201171875,0.8336334228515625,2026-04-11T19:13:23.747-05:00
1775952803757586200,6.111586181640625,-0.7141571044921875,0.040130615234375,0.8482666015625,2026-04-11T19:13:23.757-05:00
1775952803767643100,6.12164306640625,-0.6361083984375,0.0570831298828125,0.891937255859375,2026-04-11T19:13:23.767-05:00
1775952803777700000,6.1317001953125,-0.5872955322265625,0.074127197265625,0.9510650634765625,2026-04-11T19:13:23.777-05:00
1775952803787756000,6.141756103515625,-0.5324859619140625,0.079132080078125,1.007171630859375,2026-04-11T19:13:23.787-05:00
1775952803797813000,6.15181298828125,-0.5062713623046875,0.09759521484375,1.06060791015625,2026-04-11T19:13:23.797-05:00
1775952803807870000,6.161869873046875,-0.5231475830078125,0.073974609375,1.0587310791015625,2026-04-11T19:13:23.807-05:00
1775952803817927000,6.171927001953125,-0.5886993408203125,0.0589447021484375,0.900299072265625,2026-04-11T19:13:23.817-05:00
1775952803827982800,6.18198291015625,-0.62481689453125,0.0137786865234375,0.7152557373046875,2026-04-11T19:13:23.827-05:00
1775952803838039800,6.192039794921875,-0.6782989501953125,-0.047607421875,0.6155548095703125,2026-04-11T19:13:23.838-05:00
1775952803848097000,6.202096923828125,-0.792877197265625,-0.0909271240234375,0.56854248046875,2026-04-11T19:13:23.848-05:00
1775952803858154000,6.212154052734375,-0.899932861328125,-0.0944976806640625,0.5274505615234375,2026-04-11T19:13:23.858-05:00
1775952803868210000,6.2222099609375,-0.95269775390625,-0.0688934326171875,0.5122833251953125,2026-04-11T19:13:23.868-05:00
1775952803878267000,6.232266845703125,-0.928131103515625,-0.01483154296875,0.53985595703125,2026-04-11T19:13:23.878-05:00
1775952803888323800,6.24232373046875,-0.880828857421875,0.0532073974609375,0.5594940185546875,2026-04-11T19:13:23.888-05:00
1775952803898381000,6.252381103515625,-0.8372344970703125,0.096221923828125,0.5684051513671875,2026-04-11T19:13:23.898-05:00
1775952803908438000,6.26243798828125,-0.8212738037109375,0.11993408203125,0.5676727294921875,2026-04-11T19:13:23.908-05:00
1775952803918494000,6.272493896484375,-0.81988525390625,0.1082611083984375,0.551849365234375,2026-04-11T19:13:23.918-05:00
1775952803928551000,6.282551025390625,-0.881195068359375,0.0702667236328125,0.5135345458984375,2026-04-11T19:13:23.928-05:00
1775952803938607900,6.29260791015625,-0.928436279296875,0.0345916748046875,0.48651123046875,2026-04-11T19:13:23.938-05:00
1775952803948664800,6.302664794921875,-0.9182586669921875,0.0140838623046875,0.46832275390625,2026-04-11T19:13:23.948-05:00
1775952803958720800,6.312720703125,-0.884002685546875,-0.0004119873046875,0.4655914306640625,2026-04-11T19:13:23.958-05:00
1775952803968777700,6.32277783203125,-0.8604583740234375,-0.0035552978515625,0.47039794921875,2026-04-11T19:13:23.968-05:00
1775952803978834700,6.332834716796875,-0.8549652099609375,-0.0030364990234375,0.4779815673828125,2026-04-11T19:13:23.978-05:00
1775952803988891600,6.3428916015625,-0.851654052734375,-0.00286865234375,0.4739837646484375,2026-04-11T19:13:23.988-05:00
1775952803998948600,6.352948486328125,-0.8317413330078125,0.005584716796875,0.4628448486328125,2026-04-11T19:13:23.998-05:00
1775952804009004500,6.363004638671875,-0.8312530517578125,0.009613037109375,0.44744873046875,2026-04-11T19:13:24.009-05:00
1775952804019061500,6.3730615234375,-0.86279296875,0.008697509765625,0.42926025390625,2026-04-11T19:13:24.019-05:00
1775952804029118500,6.383118408203125,-0.9031524658203125,0.008697509765625,0.406463623046875,2026-04-11T19:13:24.029-05:00
1775952804039175700,6.39317578125,-0.9213714599609375,0.0101318359375,0.366546630859375,2026-04-11T19:13:24.039-05:00
1775952804049232000,6.40323193359375,-0.921630859375,0.00506591796875,0.3292999267578125,2026-04-11T19:13:24.049-05:00
1775952804059288800,6.413288818359375,-0.9452972412109375,-0.0029296875,0.30877685546875,2026-04-11T19:13:24.059-05:00
1775952804069345800,6.423345703125,-0.9807281494140625,-0.0094451904296875,0.2942047119140625,2026-04-11T19:13:24.069-05:00
1775952804079402800,6.43340283203125,-1.0191497802734375,-0.0202178955078125,0.2785491943359375,2026-04-11T19:13:24.079-05:00
1775952804089459700,6.443459716796875,-1.0514678955078125,-0.0248870849609375,0.274993896484375,2026-04-11T19:13:24.089-05:00
1775952804099515600,6.453515625,-1.0590667724609375,-0.0168914794921875,0.274078369140625,2026-04-11T19:13:24.099-05:00
1775952804109572600,6.463572509765625,-1.070343017578125,-0.02459716796875,0.2756805419921875,2026-04-11T19:13:24.109-05:00
1775952804119629600,6.473629638671875,-1.0564117431640625,-0.0360107421875,0.2660675048828125,2026-04-11T19:13:24.119-05:00
1775952804129686500,6.4836865234375,-1.0420989990234375,-0.04998779296875,0.2504425048828125,2026-04-11T19:13:24.129-05:00
1775952804139742700,6.49374267578125,-1.0143585205078125,-0.05523681640625,0.241546630859375,2026-04-11T19:13:24.139-05:00
1775952804149799700,6.503799560546875,-0.9831695556640625,-0.0535125732421875,0.2325592041015625,2026-04-11T19:13:24.149-05:00
1775952804159856600,6.513856689453125,-0.9661865234375,-0.045166015625,0.2260894775390625,2026-04-11T19:13:24.159-05:00
1775952804169913900,6.523913818359375,-0.9539947509765625,-0.039703369140625,0.2195587158203125,2026-04-11T19:13:24.169-05:00
1775952804179970800,6.533970703125,-0.9543304443359375,-0.0263824462890625,0.2333831787109375,2026-04-11T19:13:24.179-05:00
1775952804190026800,6.54402685546875,-0.960662841796875,-0.0157623291015625,0.236724853515625,2026-04-11T19:13:24.190-05:00
1775952804200083700,6.554083740234375,-0.9713592529296875,-0.021759033203125,0.231964111328125,2026-04-11T19:13:24.200-05:00
1775952804210140700,6.564140625,-0.9779205322265625,-0.02642822265625,0.2268218994140625,2026-04-11T19:13:24.210-05:00
1775952804220197600,6.57419775390625,-0.975433349609375,-0.0146331787109375,0.2172088623046875,2026-04-11T19:13:24.220-05:00
1775952804230253800,6.58425390625,-0.97662353515625,-0.022247314453125,0.209014892578125,2026-04-11T19:13:24.230-05:00
1775952804240310800,6.594310791015625,-0.979095458984375,-0.0296478271484375,0.205322265625,2026-04-11T19:13:24.240-05:00
1775952804250367700,6.60436767578125,-0.973052978515625,-0.0337982177734375,0.2035064697265625,2026-04-11T19:13:24.250-05:00
1775952804260424700,6.6144248046875,-0.9792633056640625,-0.035400390625,0.208099365234375,2026-04-11T19:13:24.260-05:00
1775952804270480600,6.624480712890625,-0.99603271484375,-0.0348052978515625,0.21246337890625,2026-04-11T19:13:24.270-05:00
1775952804280537600,6.63453759765625,-1.002227783203125,-0.0407867431640625,0.2028656005859375,2026-04-11T19:13:24.280-05:00
1775952804290594600,6.644594482421875,-0.9908599853515625,-0.045867919921875,0.19317626953125,2026-04-11T19:13:24.290-05:00
1775952804300651500,6.654651611328125,-0.9872589111328125,-0.0517425537109375,0.1845550537109375,2026-04-11T19:13:24.300-05:00
1775952804310708700,6.664708740234375,-0.97802734375,-0.0459442138671875,0.1891937255859375,2026-04-11T19:13:24.310-05:00
1775952804320764700,6.6747646484375,-0.97576904296875,-0.037261962890625,0.1945037841796875,2026-04-11T19:13:24.320-05:00
1775952804330822000,6.68482177734375,-0.9806976318359375,-0.0368194580078125,0.1961517333984375,2026-04-11T19:13:24.330-05:00
1775952804340878800,6.69487890625,-0.9830169677734375,-0.03631591796875,0.1939239501953125,2026-04-11T19:13:24.340-05:00
1775952804350935800,6.704935791015625,-0.978851318359375,-0.033843994140625,0.192626953125,2026-04-11T19:13:24.350-05:00
1775952804360991700,6.71499169921875,-0.9773712158203125,-0.03369140625,0.1928253173828125,2026-04-11T19:13:24.360-05:00
1775952804371048700,6.725048583984375,-0.9788360595703125,-0.0333709716796875,0.1942596435546875,2026-04-11T19:13:24.371-05:00
1775952804381105700,6.735105712890625,-0.97998046875,-0.0379791259765625,0.1935577392578125,2026-04-11T19:13:24.381-05:00
1775952804391162600,6.74516259765625,-0.9806671142578125,-0.0417633056640625,0.19329833984375,2026-04-11T19:13:24.391-05:00
1775952804401219600,6.755219482421875,-0.977996826171875,-0.04345703125,0.1906890869140625,2026-04-11T19:13:24.401-05:00
1775952804411275800,6.76527587890625,-0.9800872802734375,-0.0457000732421875,0.19146728515625,2026-04-11T19:13:24.411-05:00
1775952804421332700,6.775332763671875,-0.977935791015625,-0.0369873046875,0.1946868896484375,2026-04-11T19:13:24.421-05:00
1775952804431389700,6.7853896484375,-0.9814300537109375,-0.03778076171875,0.1919708251953125,2026-04-11T19:13:24.431-05:00
1775952804441446700,6.79544677734375,-0.9808807373046875,-0.042510986328125,0.184051513671875,2026-04-11T19:13:24.441-05:00
1775952804451502600,6.805502685546875,-0.97552490234375,-0.0426177978515625,0.1837921142578125,2026-04-11T19:13:24.451-05:00
1775952804461559600,6.8155595703125,-0.9726409912109375,-0.048187255859375,0.1875152587890625,2026-04-11T19:13:24.461-05:00
1775952804471616800,6.82561669921875,-0.976165771484375,-0.05291748046875,0.1858673095703125,2026-04-11T19:13:24.471-05:00
1775952804481673700,6.835673828125,-0.980499267578125,-0.049468994140625,0.1834564208984375,2026-04-11T19:13:24.481-05:00
1775952804491730700,6.845730712890625,-0.98358154296875,-0.0444793701171875,0.184661865234375,2026-04-11T19:13:24.491-05:00
1775952804501787000,6.855786865234375,-0.9839019775390625,-0.0429840087890625,0.186065673828125,2026-04-11T19:13:24.501-05:00
1775952804511843800,6.86584375,-0.98138427734375,-0.044708251953125,0.188140869140625,2026-04-11T19:13:24.511-05:00
1775952804521900800,6.87590087890625,-0.979949951171875,-0.045257568359375,0.1870574951171875,2026-04-11T19:13:24.521-05:00
1775952804531957800,6.885957763671875,-0.9817657470703125,-0.043426513671875,0.18511962890625,2026-04-11T19:13:24.531-05:00
1775952804542013700,6.896013671875,-0.9809112548828125,-0.0448455810546875,0.1883087158203125,2026-04-11T19:13:24.542-05:00
1775952804552070700,6.906070556640625,-0.9788818359375,-0.046722412109375,0.1863250732421875,2026-04-11T19:13:24.552-05:00
1775952804562127600,6.916127685546875,-0.977203369140625,-0.045745849609375,0.1872711181640625,2026-04-11T19:13:24.562-05:00
1775952804572184600,6.9261845703125,-0.9788818359375,-0.0441741943359375,0.182861328125,2026-04-11T19:13:24.572-05:00
1775952804582241500,6.936241455078125,-0.986724853515625,-0.0459747314453125,0.1830596923828125,2026-04-11T19:13:24.582-05:00
1775952804592297700,6.946297607421875,-0.983001708984375,-0.0444488525390625,0.184173583984375,2026-04-11T19:13:24.592-05:00
1775952804602355000,6.95635498046875,-0.9837646484375,-0.04278564453125,0.1860809326171875,2026-04-11T19:13:24.602-05:00
1775952804612412000,6.966411865234375,-0.9866180419921875,-0.041168212890625,0.184112548828125,2026-04-11T19:13:24.612-05:00
1775952804622468900,6.97646875,-0.988800048828125,-0.03515625,0.1871337890625,2026-04-11T19:13:24.622-05:00
1775952804632524800,6.98652490234375,-0.9882354736328125,-0.0253753662109375,0.1943817138671875,2026-04-11T19:13:24.632-05:00
1775952804642581800,6.996581787109375,-0.9963836669921875,-0.016845703125,0.196807861328125,2026-04-11T19:13:24.642-05:00
1775952804652638700,7.006638671875,-1.0100555419921875,-0.0029449462890625,0.196197509765625,2026-04-11T19:13:24.652-05:00
1775952804662695700,7.01669580078125,-1.015228271484375,0.019989013671875,0.2086029052734375,2026-04-11T19:13:24.662-05:00
1775952804672752600,7.026752685546875,-1.0229949951171875,0.0422210693359375,0.233734130859375,2026-04-11T19:13:24.672-05:00
1775952804682808600,7.03680859375,-1.0368194580078125,0.056610107421875,0.2609710693359375,2026-04-11T19:13:24.682-05:00
1775952804692865500,7.046865478515625,-1.0776214599609375,0.059356689453125,0.284637451171875,2026-04-11T19:13:24.692-05:00
1775952804702922800,7.0569228515625,-1.1278839111328125,0.05487060546875,0.2966766357421875,2026-04-11T19:13:24.702-05:00
1775952804712979700,7.066979736328125,-1.151519775390625,0.050140380859375,0.3065643310546875,2026-04-11T19:13:24.712-05:00
1775952804723035600,7.07703564453125,-1.168670654296875,0.024993896484375,0.3191375732421875,2026-04-11T19:13:24.723-05:00
1775952804733092600,7.087092529296875,-1.1636505126953125,0.0123138427734375,0.3322296142578125,2026-04-11T19:13:24.733-05:00
1775952804743149800,7.09714990234375,-1.136566162109375,0.0024871826171875,0.3332366943359375,2026-04-11T19:13:24.743-05:00
1775952804753206800,7.107206787109375,-1.091552734375,-0.00390625,0.33465576171875,2026-04-11T19:13:24.753-05:00
1775952804763262700,7.1172626953125,-1.03790283203125,0.0015106201171875,0.3419952392578125,2026-04-11T19:13:24.763-05:00
1775952804773319700,7.127319580078125,-0.9688568115234375,0.0216064453125,0.3504638671875,2026-04-11T19:13:24.773-05:00
1775952804783376600,7.137376708984375,-0.91937255859375,0.0413360595703125,0.369537353515625,2026-04-11T19:13:24.783-05:00
1775952804793433600,7.14743359375,-0.8907928466796875,0.071502685546875,0.417205810546875,2026-04-11T19:13:24.793-05:00
1775952804803490800,7.15749072265625,-0.878753662109375,0.1063385009765625,0.496307373046875,2026-04-11T19:13:24.803-05:00
1775952804813546800,7.167546630859375,-0.8668212890625,0.1217498779296875,0.5748443603515625,2026-04-11T19:13:24.813-05:00
1775952804823603700,7.177603759765625,-0.862091064453125,0.1413116455078125,0.66497802734375,2026-04-11T19:13:24.823-05:00
1775952804833660700,7.18766064453125,-0.844512939453125,0.1428985595703125,0.748748779296875,2026-04-11T19:13:24.833-05:00
1775952804843717600,7.197717529296875,-0.8220672607421875,0.1363677978515625,0.791290283203125,2026-04-11T19:13:24.843-05:00
1775952804853773600,7.207773681640625,-0.8144073486328125,0.107330322265625,0.8351898193359375,2026-04-11T19:13:24.853-05:00
1775952804863830500,7.21783056640625,-0.8046722412109375,0.06414794921875,0.865325927734375,2026-04-11T19:13:24.863-05:00
1775952804873887500,7.227887451171875,-0.7841949462890625,0.023590087890625,0.85369873046875,2026-04-11T19:13:24.873-05:00
1775952804883944700,7.23794482421875,-0.7586212158203125,-0.0294952392578125,0.83026123046875,2026-04-11T19:13:24.883-05:00
1775952804894001700,7.248001708984375,-0.723846435546875,-0.08026123046875,0.8013916015625,2026-04-11T19:13:24.894-05:00
1775952804904057900,7.258057861328125,-0.6840057373046875,-0.1217803955078125,0.7613677978515625,2026-04-11T19:13:24.904-05:00
1775952804914114800,7.26811474609375,-0.6484832763671875,-0.14569091796875,0.7329254150390625,2026-04-11T19:13:24.914-05:00
1775952804924171800,7.278171875,-0.63995361328125,-0.1538848876953125,0.7210845947265625,2026-04-11T19:13:24.924-05:00
1775952804934228700,7.288228759765625,-0.642333984375,-0.1447906494140625,0.720245361328125,2026-04-11T19:13:24.934-05:00
1775952804944284700,7.29828466796875,-0.6480865478515625,-0.1259918212890625,0.73577880859375,2026-04-11T19:13:24.944-05:00
1775952804954341600,7.308341552734375,-0.6492767333984375,-0.0960845947265625,0.738922119140625,2026-04-11T19:13:24.954-05:00
1775952804964398600,7.318398681640625,-0.6372528076171875,-0.0608062744140625,0.71429443359375,2026-04-11T19:13:24.964-05:00
1775952804974455600,7.32845556640625,-0.61346435546875,-0.0287017822265625,0.691253662109375,2026-04-11T19:13:24.974-05:00
1775952804984512500,7.338512451171875,-0.6028594970703125,0.0081939697265625,0.6891632080078125,2026-04-11T19:13:24.984-05:00
1775952804994568700,7.348568603515625,-0.5962982177734375,0.0526885986328125,0.7009124755859375,2026-04-11T19:13:24.994-05:00
1775952805004625700,7.358625732421875,-0.590362548828125,0.09991455078125,0.7100830078125,2026-04-11T19:13:25.004-05:00
1775952805014682600,7.3686826171875,-0.5899810791015625,0.1500701904296875,0.7155914306640625,2026-04-11T19:13:25.014-05:00
1775952805024739600,7.378739501953125,-0.590301513671875,0.198028564453125,0.7239532470703125,2026-04-11T19:13:25.024-05:00
1775952805034795500,7.38879541015625,-0.5904083251953125,0.2384796142578125,0.7287750244140625,2026-04-11T19:13:25.034-05:00
1775952805044852500,7.3988525390625,-0.59765625,0.2724151611328125,0.73126220703125,2026-04-11T19:13:25.044-05:00
1775952805054909400,7.408909423828125,-0.6121826171875,0.2964324951171875,0.7328338623046875,2026-04-11T19:13:25.054-05:00
1775952805064966700,7.418966552734375,-0.6220703125,0.31170654296875,0.72869873046875,2026-04-11T19:13:25.064-05:00
1775952805075023600,7.429023681640625,-0.63671875,0.3164520263671875,0.7184295654296875,2026-04-11T19:13:25.075-05:00
1775952805085079800,7.439079833984375,-0.659210205078125,0.3106231689453125,0.7140045166015625,2026-04-11T19:13:25.085-05:00
1775952805095136800,7.44913671875,-0.6851348876953125,0.2899017333984375,0.711944580078125,2026-04-11T19:13:25.095-05:00
1775952805105193700,7.45919384765625,-0.708587646484375,0.2605133056640625,0.7061004638671875,2026-04-11T19:13:25.105-05:00
1775952805115250700,7.469250732421875,-0.720672607421875,0.2212677001953125,0.6975250244140625,2026-04-11T19:13:25.115-05:00
1775952805125306600,7.479306640625,-0.7217254638671875,0.185577392578125,0.690887451171875,2026-04-11T19:13:25.125-05:00
1775952805135363600,7.489363525390625,-0.7159271240234375,0.1578369140625,0.6901092529296875,2026-04-11T19:13:25.135-05:00
1775952805145420500,7.499420654296875,-0.703369140625,0.1395721435546875,0.6969757080078125,2026-04-11T19:13:25.145-05:00
1775952805155477500,7.5094775390625,-0.698699951171875,0.1297454833984375,0.708160400390625,2026-04-11T19:13:25.155-05:00
1775952805165534500,7.519534423828125,-0.6950531005859375,0.1236419677734375,0.726104736328125,2026-04-11T19:13:25.165-05:00
1775952805175590700,7.529590576171875,-0.69427490234375,0.1201324462890625,0.747344970703125,2026-04-11T19:13:25.175-05:00
1775952805185647600,7.539647705078125,-0.69488525390625,0.1103515625,0.7586669921875,2026-04-11T19:13:25.185-05:00
1775952805195704600,7.54970458984375,-0.6781768798828125,0.0980377197265625,0.7522735595703125,2026-04-11T19:13:25.195-05:00
1775952805205761800,7.55976171875,-0.6492156982421875,0.086029052734375,0.7245330810546875,2026-04-11T19:13:25.205-05:00
1775952805215817500,7.5698173828125,-0.6142425537109375,0.082061767578125,0.6906890869140625,2026-04-11T19:13:25.215-05:00
1775952805225874700,7.579874755859375,-0.586517333984375,0.0898895263671875,0.66229248046875,2026-04-11T19:13:25.225-05:00
1775952805235931600,7.589931640625,-0.5663909912109375,0.113128662109375,0.6443939208984375,2026-04-11T19:13:25.235-05:00
1775952805245988600,7.599988525390625,-0.557342529296875,0.14776611328125,0.6341400146484375,2026-04-11T19:13:25.245-05:00
1775952805256045600,7.610045654296875,-0.557586669921875,0.1893310546875,0.6295013427734375,2026-04-11T19:13:25.256-05:00
1775952805266101800,7.620101806640625,-0.5632781982421875,0.224456787109375,0.6256866455078125,2026-04-11T19:13:25.266-05:00
1775952805276158700,7.63015869140625,-0.571258544921875,0.2452850341796875,0.61236572265625,2026-04-11T19:13:25.276-05:00
1775952805286215700,7.640215576171875,-0.5777435302734375,0.2539215087890625,0.5879058837890625,2026-04-11T19:13:25.286-05:00
1775952805296272600,7.650272705078125,-0.582489013671875,0.2518157958984375,0.558135986328125,2026-04-11T19:13:25.296-05:00
1775952805306328600,7.66032861328125,-0.59173583984375,0.243804931640625,0.5316162109375,2026-04-11T19:13:25.306-05:00
1775952805316385500,7.670385498046875,-0.615631103515625,0.234039306640625,0.516448974609375,2026-04-11T19:13:25.316-05:00
1775952805326442500,7.6804423828125,-0.65667724609375,0.2283172607421875,0.519012451171875,2026-04-11T19:13:25.326-05:00
1775952805336499500,7.69049951171875,-0.7095947265625,0.22772216796875,0.532928466796875,2026-04-11T19:13:25.336-05:00
1775952805346556700,7.700556640625,-0.75830078125,0.2242584228515625,0.5438385009765625,2026-04-11T19:13:25.346-05:00
1775952805356612600,7.710612548828125,-0.78594970703125,0.211883544921875,0.539642333984375,2026-04-11T19:13:25.356-05:00
1775952805366669800,7.720669921875,-0.7934112548828125,0.194183349609375,0.5263824462890625,2026-04-11T19:13:25.366-05:00
1775952805376726800,7.730726806640625,-0.784149169921875,0.1775054931640625,0.51171875,2026-04-11T19:13:25.376-05:00
1775952805386783700,7.74078369140625,-0.7525482177734375,0.1697235107421875,0.500823974609375,2026-04-11T19:13:25.386-05:00
1775952805396839700,7.750839599609375,-0.697021484375,0.1695404052734375,0.490631103515625,2026-04-11T19:13:25.396-05:00
1775952805406896600,7.760896728515625,-0.6454010009765625,0.1802978515625,0.4919281005859375,2026-04-11T19:13:25.406-05:00
1775952805416953600,7.77095361328125,-0.611572265625,0.197509765625,0.5038299560546875,2026-04-11T19:13:25.416-05:00
1775952805427010600,7.781010498046875,-0.5952606201171875,0.2195587158203125,0.52508544921875,2026-04-11T19:13:25.427-05:00
1775952805437067500,7.791067626953125,-0.584869384765625,0.2377777099609375,0.5462799072265625,2026-04-11T19:13:25.437-05:00
1775952805447123500,7.80112353515625,-0.572021484375,0.2510833740234375,0.5597686767578125,2026-04-11T19:13:25.447-05:00
1775952805457180700,7.8111806640625,-0.554229736328125,0.2642822265625,0.57073974609375,2026-04-11T19:13:25.457-05:00
1775952805467237600,7.821237548828125,-0.5358123779296875,0.2792205810546875,0.5779266357421875,2026-04-11T19:13:25.467-05:00
1775952805477294800,7.831294921875,-0.5222930908203125,0.2979736328125,0.588470458984375,2026-04-11T19:13:25.477-05:00
1775952805487350500,7.8413505859375,-0.51739501953125,0.31707763671875,0.6007232666015625,2026-04-11T19:13:25.487-05:00
1775952805497407700,7.85140771484375,-0.5209503173828125,0.331817626953125,0.6226043701171875,2026-04-11T19:13:25.497-05:00
1775952805507464700,7.861464599609375,-0.54119873046875,0.3434600830078125,0.65484619140625,2026-04-11T19:13:25.507-05:00
1775952805517521700,7.871521728515625,-0.5645599365234375,0.345672607421875,0.6866912841796875,2026-04-11T19:13:25.517-05:00
1775952805527578600,7.88157861328125,-0.580535888671875,0.3369598388671875,0.7073516845703125,2026-04-11T19:13:25.527-05:00
1775952805537634600,7.891634521484375,-0.5899200439453125,0.318634033203125,0.7165374755859375,2026-04-11T19:13:25.537-05:00
1775952805547691500,7.90169140625,-0.5955352783203125,0.2926483154296875,0.7216644287109375,2026-04-11T19:13:25.547-05:00
1775952805557748500,7.91174853515625,-0.60546875,0.2695159912109375,0.728546142578125,2026-04-11T19:13:25.557-05:00
1775952805567805700,7.9218056640625,-0.6212921142578125,0.244537353515625,0.742095947265625,2026-04-11T19:13:25.567-05:00
1775952805577861600,7.931861572265625,-0.6391754150390625,0.2191162109375,0.7632293701171875,2026-04-11T19:13:25.577-05:00
1775952805587918600,7.941918701171875,-0.6560516357421875,0.1919708251953125,0.7873687744140625,2026-04-11T19:13:25.587-05:00
1775952805597975600,7.9519755859375,-0.6644134521484375,0.1720428466796875,0.80340576171875,2026-04-11T19:13:25.597-05:00
1775952805608032500,7.962032470703125,-0.663848876953125,0.1564788818359375,0.80841064453125,2026-04-11T19:13:25.608-05:00
1775952805618088400,7.97208837890625,-0.66357421875,0.13995361328125,0.8020782470703125,2026-04-11T19:13:25.618-05:00
1775952805628145400,7.9821455078125,-0.6641693115234375,0.1276702880859375,0.790313720703125,2026-04-11T19:13:25.628-05:00
1775952805638202600,7.99220263671875,-0.6728515625,0.1143341064453125,0.779754638671875,2026-04-11T19:13:25.638-05:00
1775952805648259600,8.002259521484374,-0.684326171875,0.0997772216796875,0.7681884765625,2026-04-11T19:13:25.648-05:00
1775952805658316500,8.012316650390625,-0.7000579833984375,0.0880889892578125,0.7584381103515625,2026-04-11T19:13:25.658-05:00
1775952805668372700,8.022372802734376,-0.7308197021484375,0.07598876953125,0.756805419921875,2026-04-11T19:13:25.668-05:00
1775952805678429700,8.0324296875,-0.7624969482421875,0.073333740234375,0.7565765380859375,2026-04-11T19:13:25.678-05:00
1775952805688486700,8.042486572265625,-0.793548583984375,0.08160400390625,0.76239013671875,2026-04-11T19:13:25.688-05:00
1775952805698543600,8.052543701171874,-0.8220977783203125,0.1054534912109375,0.7810516357421875,2026-04-11T19:13:25.698-05:00
1775952805708599600,8.062599609375,-0.8272247314453125,0.140899658203125,0.7925567626953125,2026-04-11T19:13:25.708-05:00
1775952805718656500,8.072656494140626,-0.804229736328125,0.1715850830078125,0.7922821044921875,2026-04-11T19:13:25.718-05:00
1775952805728713500,8.08271337890625,-0.774444580078125,0.184661865234375,0.760101318359375,2026-04-11T19:13:25.728-05:00
1775952805738770400,8.0927705078125,-0.70574951171875,0.184661865234375,0.7075958251953125,2026-04-11T19:13:25.738-05:00
1775952805748827400,8.102827392578124,-0.609649658203125,0.1739959716796875,0.661407470703125,2026-04-11T19:13:25.748-05:00
1775952805758883600,8.112883544921875,-0.5717010498046875,0.1692657470703125,0.632720947265625,2026-04-11T19:13:25.758-05:00
1775952805768940800,8.12294091796875,-0.57073974609375,0.1746826171875,0.6331634521484375,2026-04-11T19:13:25.768-05:00
1775952805778997800,8.132997802734375,-0.6298370361328125,0.184051513671875,0.6757659912109375,2026-04-11T19:13:25.778-05:00
1775952805789054700,8.1430546875,-0.7107086181640625,0.18719482421875,0.7348175048828125,2026-04-11T19:13:25.789-05:00
1775952805799110700,8.153110595703126,-0.77105712890625,0.18157958984375,0.77862548828125,2026-04-11T19:13:25.799-05:00
1775952805809167600,8.163167724609375,-0.8173675537109375,0.1647186279296875,0.8214111328125,2026-04-11T19:13:25.809-05:00
1775952805819224600,8.173224609375,-0.7866973876953125,0.1313629150390625,0.8123016357421875,2026-04-11T19:13:25.819-05:00
1775952805829281500,8.183281494140624,-0.7048492431640625,0.1009979248046875,0.7621612548828125,2026-04-11T19:13:25.829-05:00
1775952805839338500,8.19333837890625,-0.63690185546875,0.0781402587890625,0.7261810302734375,2026-04-11T19:13:25.839-05:00
1775952805849394700,8.203394775390626,-0.5968170166015625,0.0684814453125,0.6971435546875,2026-04-11T19:13:25.849-05:00
1775952805859451600,8.21345166015625,-0.5906829833984375,0.077911376953125,0.68719482421875,2026-04-11T19:13:25.859-05:00
1775952805869508600,8.223508544921875,-0.638214111328125,0.0883636474609375,0.7222747802734375,2026-04-11T19:13:25.869-05:00
1775952805879565600,8.233565673828124,-0.69476318359375,0.0847625732421875,0.7412261962890625,2026-04-11T19:13:25.879-05:00
1775952805889622800,8.243622802734375,-0.7152252197265625,0.0730743408203125,0.7341766357421875,2026-04-11T19:13:25.889-05:00
1775952805899678500,8.253678466796876,-0.68389892578125,0.05108642578125,0.6917877197265625,2026-04-11T19:13:25.899-05:00
1775952805909735700,8.263735595703125,-0.618896484375,0.043670654296875,0.6531982421875,2026-04-11T19:13:25.909-05:00
1775952805919792600,8.273792724609375,-0.5712738037109375,0.0549774169921875,0.6446533203125,2026-04-11T19:13:25.919-05:00
1775952805929849600,8.283849609375,-0.5595703125,0.079925537109375,0.63067626953125,2026-04-11T19:13:25.929-05:00
1775952805939905800,8.29390576171875,-0.5771331787109375,0.0777740478515625,0.6559295654296875,2026-04-11T19:13:25.939-05:00
1775952805949962800,8.303962646484376,-0.636260986328125,0.071197509765625,0.7278289794921875,2026-04-11T19:13:25.949-05:00
1775952805960019700,8.314019775390625,-0.6869964599609375,0.0926666259765625,0.798065185546875,2026-04-11T19:13:25.960-05:00
1775952805970076700,8.32407666015625,-0.7418060302734375,0.135986328125,0.883270263671875,2026-04-11T19:13:25.970-05:00
1775952805980132600,8.334132568359376,-0.7376556396484375,0.1686859130859375,0.927459716796875,2026-04-11T19:13:25.980-05:00
1775952805990189600,8.344189453125,-0.72454833984375,0.172271728515625,0.9390869140625,2026-04-11T19:13:25.990-05:00
1775952806000246800,8.354246826171876,-0.7395477294921875,0.165191650390625,0.89080810546875,2026-04-11T19:13:26.000-05:00
1775952806010303700,8.3643037109375,-0.7589111328125,0.1171875,0.738067626953125,2026-04-11T19:13:26.010-05:00
1775952806020360700,8.374360595703125,-0.8069610595703125,0.05133056640625,0.5751953125,2026-04-11T19:13:26.020-05:00
1775952806030417000,8.3844169921875,-0.8784637451171875,-0.0104217529296875,0.4648895263671875,2026-04-11T19:13:26.030-05:00
1775952806040473900,8.394473876953125,-0.9682769775390625,-0.05780029296875,0.4083099365234375,2026-04-11T19:13:26.040-05:00
1775952806050530800,8.40453076171875,-1.0706634521484375,-0.0935821533203125,0.3605194091796875,2026-04-11T19:13:26.050-05:00
1775952806060587800,8.414587890625,-1.11444091796875,-0.098785400390625,0.2994537353515625,2026-04-11T19:13:26.060-05:00
1775952806070643700,8.424643798828125,-1.110992431640625,-0.065155029296875,0.2813720703125,2026-04-11T19:13:26.070-05:00
1775952806080700700,8.43470068359375,-1.0838165283203125,-0.0182342529296875,0.2934722900390625,2026-04-11T19:13:26.080-05:00
1775952806090757600,8.444757568359375,-1.0559539794921875,0.0240020751953125,0.3116912841796875,2026-04-11T19:13:26.090-05:00
1775952806100814600,8.454814697265626,-1.0462493896484375,0.04156494140625,0.3078765869140625,2026-04-11T19:13:26.100-05:00
1775952806110871600,8.46487158203125,-1.0055999755859375,0.0533905029296875,0.3122711181640625,2026-04-11T19:13:26.110-05:00
1775952806120927700,8.474927734375,-0.981292724609375,0.0403900146484375,0.308135986328125,2026-04-11T19:13:26.120-05:00
1775952806130984700,8.484984619140626,-1.0058441162109375,0.022216796875,0.2879486083984375,2026-04-11T19:13:26.130-05:00
1775952806141042000,8.4950419921875,-1.0254669189453125,0.002960205078125,0.262939453125,2026-04-11T19:13:26.141-05:00
1775952806151099000,8.505098876953125,-1.01983642578125,-0.030059814453125,0.243011474609375,2026-04-11T19:13:26.151-05:00
1775952806161154800,8.51515478515625,-1.0059051513671875,-0.0635528564453125,0.227386474609375,2026-04-11T19:13:26.161-05:00
1775952806171211800,8.525211669921875,-1.0047454833984375,-0.0804290771484375,0.2041015625,2026-04-11T19:13:26.171-05:00
1775952806181268700,8.535268798828126,-0.9805145263671875,-0.0913848876953125,0.1906585693359375,2026-04-11T19:13:26.181-05:00
1775952806191325700,8.54532568359375,-0.94891357421875,-0.099151611328125,0.1880035400390625,2026-04-11T19:13:26.191-05:00
1775952806201382700,8.555382568359375,-0.981719970703125,-0.1121826171875,0.2158355712890625,2026-04-11T19:13:26.201-05:00
1775952806211438600,8.5654384765625,-1.015716552734375,-0.1097564697265625,0.2357025146484375,2026-04-11T19:13:26.211-05:00
1775952806221495600,8.57549560546875,-1.026031494140625,-0.0994415283203125,0.2367095947265625,2026-04-11T19:13:26.221-05:00
1775952806231552800,8.585552734375,-1.0130157470703125,-0.0810546875,0.224456787109375,2026-04-11T19:13:26.231-05:00
1775952806241609700,8.595609619140625,-0.9788970947265625,-0.0743560791015625,0.2060089111328125,2026-04-11T19:13:26.241-05:00
1775952806251665700,8.605665771484375,-0.959228515625,-0.0769195556640625,0.1899566650390625,2026-04-11T19:13:26.251-05:00
1775952806261722600,8.61572265625,-0.9513702392578125,-0.07275390625,0.1859893798828125,2026-04-11T19:13:26.261-05:00
1775952806271779600,8.625779541015625,-0.940032958984375,-0.0743408203125,0.1993560791015625,2026-04-11T19:13:26.271-05:00
1775952806281836800,8.6358369140625,-0.96783447265625,-0.072845458984375,0.2063446044921875,2026-04-11T19:13:26.281-05:00
1775952806291893800,8.645893798828125,-1.00604248046875,-0.0740509033203125,0.199127197265625,2026-04-11T19:13:26.291-05:00
1775952806301949700,8.65594970703125,-1.00830078125,-0.073394775390625,0.188446044921875,2026-04-11T19:13:26.301-05:00
1775952806312006700,8.666006591796876,-0.998626708984375,-0.077392578125,0.1782073974609375,2026-04-11T19:13:26.312-05:00
1775952806322063600,8.676063720703125,-0.980133056640625,-0.08197021484375,0.1768341064453125,2026-04-11T19:13:26.322-05:00
1775952806332120800,8.686120849609376,-0.9701385498046875,-0.0871429443359375,0.1824493408203125,2026-04-11T19:13:26.332-05:00
1775952806342176800,8.6961767578125,-0.9709625244140625,-0.0890960693359375,0.188232421875,2026-04-11T19:13:26.342-05:00
1775952806352233700,8.706233642578125,-0.9748687744140625,-0.086517333984375,0.1904754638671875,2026-04-11T19:13:26.352-05:00
1775952806362290700,8.716290771484376,-0.9844207763671875,-0.0848388671875,0.18719482421875,2026-04-11T19:13:26.362-05:00
1775952806372347600,8.72634765625,-0.984588623046875,-0.080535888671875,0.179351806640625,2026-04-11T19:13:26.372-05:00
1775952806382404600,8.736404541015625,-0.9778900146484375,-0.074371337890625,0.185638427734375,2026-04-11T19:13:26.382-05:00
1775952806392460500,8.74646044921875,-0.974639892578125,-0.076416015625,0.18951416015625,2026-04-11T19:13:26.392-05:00
1775952806402517500,8.756517578125,-0.976654052734375,-0.0789337158203125,0.1885223388671875,2026-04-11T19:13:26.402-05:00
1775952806412574700,8.76657470703125,-0.9769439697265625,-0.0834808349609375,0.1858367919921875,2026-04-11T19:13:26.412-05:00
1775952806422631700,8.776631591796875,-0.97882080078125,-0.0823516845703125,0.1831207275390625,2026-04-11T19:13:26.422-05:00
1775952806432687900,8.78668798828125,-0.9778289794921875,-0.0844879150390625,0.182891845703125,2026-04-11T19:13:26.432-05:00
1775952806442744800,8.796744873046874,-0.974822998046875,-0.0852813720703125,0.185150146484375,2026-04-11T19:13:26.442-05:00
1775952806452801800,8.8068017578125,-0.97998046875,-0.0824737548828125,0.1859130859375,2026-04-11T19:13:26.452-05:00
1775952806462858800,8.816858642578126,-0.9830474853515625,-0.0823974609375,0.183868408203125,2026-04-11T19:13:26.462-05:00
1775952806472915700,8.826915771484375,-0.986114501953125,-0.0848236083984375,0.180755615234375,2026-04-11T19:13:26.472-05:00
1775952806482971600,8.8369716796875,-0.98846435546875,-0.0852508544921875,0.17706298828125,2026-04-11T19:13:26.482-05:00
1775952806493028600,8.847028564453124,-0.993927001953125,-0.0908050537109375,0.1758575439453125,2026-04-11T19:13:26.493-05:00
1775952806503085600,8.85708544921875,-1.0148773193359375,-0.0959320068359375,0.17279052734375,2026-04-11T19:13:26.503-05:00
1775952806513142500,8.867142578125,-1.059783935546875,-0.0941619873046875,0.1815338134765625,2026-04-11T19:13:26.513-05:00
1775952806523198700,8.87719873046875,-1.133758544921875,-0.0894622802734375,0.202911376953125,2026-04-11T19:13:26.523-05:00
1775952806533255700,8.887255615234375,-1.2090301513671875,-0.08001708984375,0.232269287109375,2026-04-11T19:13:26.533-05:00
1775952806543312600,8.897312744140624,-1.2784881591796875,-0.0737762451171875,0.26708984375,2026-04-11T19:13:26.543-05:00
1775952806553369900,8.907369873046875,-1.3201904296875,-0.0693359375,0.296234130859375,2026-04-11T19:13:26.553-05:00
1775952806563426800,8.9174267578125,-1.2642974853515625,-0.048126220703125,0.3280487060546875,2026-04-11T19:13:26.563-05:00
1775952806573482800,8.927482666015624,-1.0970916748046875,-0.016693115234375,0.33319091796875,2026-04-11T19:13:26.573-05:00
1775952806583539700,8.937539794921875,-0.8931884765625,0.0059356689453125,0.3505096435546875,2026-04-11T19:13:26.583-05:00
1775952806593596700,8.9475966796875,-0.7614593505859375,0.0162353515625,0.374725341796875,2026-04-11T19:13:26.593-05:00
1775952806603653600,8.957653564453125,-0.7071380615234375,0.0295257568359375,0.407958984375,2026-04-11T19:13:26.603-05:00
1775952806613709800,8.967709716796875,-0.720855712890625,0.0425262451171875,0.462860107421875,2026-04-11T19:13:26.613-05:00
1775952806623766800,8.977766845703124,-0.7781982421875,0.05230712890625,0.523468017578125,2026-04-11T19:13:26.623-05:00
1775952806633823700,8.98782373046875,-0.840789794921875,0.055084228515625,0.5796356201171875,2026-04-11T19:13:26.633-05:00
1775952806643880700,8.997880615234376,-0.876983642578125,0.050201416015625,0.6205291748046875,2026-04-11T19:13:26.643-05:00
1775952806653937700,9.007937744140625,-0.86737060546875,0.039276123046875,0.649169921875,2026-04-11T19:13:26.653-05:00
1775952806663993600,9.01799365234375,-0.8540802001953125,0.0253143310546875,0.69683837890625,2026-04-11T19:13:26.663-05:00
1775952806674050600,9.028050537109374,-0.8172149658203125,0.0191802978515625,0.7350921630859375,2026-04-11T19:13:26.674-05:00
1775952806684107500,9.038107421875,-0.7936248779296875,0.026092529296875,0.76971435546875,2026-04-11T19:13:26.684-05:00
1775952806694164700,9.048164794921876,-0.8029327392578125,0.0551605224609375,0.7836761474609375,2026-04-11T19:13:26.694-05:00
1775952806704221000,9.058220947265625,-0.8170318603515625,0.0877227783203125,0.7998504638671875,2026-04-11T19:13:26.704-05:00
1775952806714278000,9.06827783203125,-0.8413543701171875,0.1191558837890625,0.8155975341796875,2026-04-11T19:13:26.714-05:00
1775952806724334800,9.0783349609375,-0.848907470703125,0.1414337158203125,0.81451416015625,2026-04-11T19:13:26.724-05:00
1775952806734391800,9.088391845703125,-0.8092498779296875,0.159332275390625,0.7926788330078125,2026-04-11T19:13:26.734-05:00
1775952806744448800,9.09844873046875,-0.72259521484375,0.1657257080078125,0.7503814697265625,2026-04-11T19:13:26.744-05:00
1775952806754504700,9.108504638671874,-0.6411285400390625,0.161712646484375,0.7101287841796875,2026-04-11T19:13:26.754-05:00
1775952806764561700,9.118561767578125,-0.576202392578125,0.15673828125,0.6781158447265625,2026-04-11T19:13:26.764-05:00
1775952806774618600,9.12861865234375,-0.5379486083984375,0.157562255859375,0.671173095703125,2026-04-11T19:13:26.774-05:00
1775952806784675600,9.138675537109375,-0.525177001953125,0.1620635986328125,0.6950531005859375,2026-04-11T19:13:26.784-05:00
1775952806794731800,9.148731689453125,-0.5557098388671875,0.1644134521484375,0.7334136962890625,2026-04-11T19:13:26.794-05:00
1775952806804788700,9.158788818359374,-0.5901641845703125,0.1615142822265625,0.76763916015625,2026-04-11T19:13:26.804-05:00
1775952806814845700,9.168845703125,-0.616973876953125,0.144256591796875,0.7846832275390625,2026-04-11T19:13:26.814-05:00
1775952806824902700,9.178902587890626,-0.647735595703125,0.112213134765625,0.7885894775390625,2026-04-11T19:13:26.824-05:00
1775952806834960000,9.1889599609375,-0.668182373046875,0.0677032470703125,0.780364990234375,2026-04-11T19:13:26.834-05:00
1775952806845015800,9.199015869140625,-0.6800689697265625,0.0241851806640625,0.7577362060546875,2026-04-11T19:13:26.845-05:00
1775952806855072800,9.20907275390625,-0.685302734375,-0.010498046875,0.736053466796875,2026-04-11T19:13:26.855-05:00
1775952806865129700,9.219129638671875,-0.6854400634765625,-0.0310821533203125,0.7176361083984375,2026-04-11T19:13:26.865-05:00
1775952806875186700,9.229186767578126,-0.6813201904296875,-0.0362396240234375,0.703277587890625,2026-04-11T19:13:26.875-05:00
1775952806885243600,9.23924365234375,-0.667388916015625,-0.0262908935546875,0.68988037109375,2026-04-11T19:13:26.885-05:00
1775952806895299800,9.2492998046875,-0.640380859375,0.0080413818359375,0.6757659912109375,2026-04-11T19:13:26.895-05:00
1775952806905356800,9.259356689453124,-0.6105804443359375,0.0587310791015625,0.6748504638671875,2026-04-11T19:13:26.905-05:00
1775952806915413800,9.269413818359375,-0.596435546875,0.1126708984375,0.6881103515625,2026-04-11T19:13:26.915-05:00
1775952806925470700,9.279470703125,-0.59344482421875,0.1610565185546875,0.70977783203125,2026-04-11T19:13:26.925-05:00
1775952806935526700,9.289526611328125,-0.590057373046875,0.1994476318359375,0.721466064453125,2026-04-11T19:13:26.935-05:00
1775952806945583600,9.29958349609375,-0.592864990234375,0.2291717529296875,0.73248291015625,2026-04-11T19:13:26.945-05:00
1775952806955640600,9.309640625,-0.5961151123046875,0.2438201904296875,0.7372894287109375,2026-04-11T19:13:26.955-05:00
1775952806965697300,9.319697265625,-0.6071014404296875,0.2524261474609375,0.744049072265625,2026-04-11T19:13:26.965-05:00
1775952806975754200,9.329754150390626,-0.612518310546875,0.2508087158203125,0.7427520751953125,2026-04-11T19:13:26.975-05:00
1775952806985810400,9.339810546875,-0.6102294921875,0.2321014404296875,0.7182464599609375,2026-04-11T19:13:26.985-05:00
1775952806995867400,9.349867431640625,-0.6075592041015625,0.19354248046875,0.6832427978515625,2026-04-11T19:13:26.995-05:00
1775952807005924400,9.35992431640625,-0.6129608154296875,0.1548919677734375,0.6580810546875,2026-04-11T19:13:27.005-05:00
1775952807015981300,9.369981201171875,-0.6306304931640625,0.122772216796875,0.6453857421875,2026-04-11T19:13:27.015-05:00
1775952807026037200,9.380037353515625,-0.6501922607421875,0.1002197265625,0.6426239013671875,2026-04-11T19:13:27.026-05:00
1775952807036094200,9.39009423828125,-0.661346435546875,0.0894012451171875,0.6358795166015625,2026-04-11T19:13:27.036-05:00
1775952807046151200,9.400151123046875,-0.65093994140625,0.0881500244140625,0.625640869140625,2026-04-11T19:13:27.046-05:00
1775952807056208400,9.41020849609375,-0.6246185302734375,0.1027374267578125,0.61529541015625,2026-04-11T19:13:27.056-05:00
1775952807066264300,9.420264404296875,-0.595550537109375,0.1334075927734375,0.61138916015625,2026-04-11T19:13:27.066-05:00
1775952807076321500,9.430321533203125,-0.57232666015625,0.168548583984375,0.608917236328125,2026-04-11T19:13:27.076-05:00
1775952807086378500,9.44037841796875,-0.5584716796875,0.2005157470703125,0.6046600341796875,2026-04-11T19:13:27.086-05:00
1775952807096435500,9.450435546875,-0.5522918701171875,0.2246551513671875,0.5990142822265625,2026-04-11T19:13:27.096-05:00
1775952807106492400,9.460492431640626,-0.5528106689453125,0.2434539794921875,0.59429931640625,2026-04-11T19:13:27.106-05:00
1775952807116548400,9.47054833984375,-0.5561981201171875,0.2593231201171875,0.590545654296875,2026-04-11T19:13:27.116-05:00
1775952807126605300,9.480605224609375,-0.5681915283203125,0.27423095703125,0.5881805419921875,2026-04-11T19:13:27.126-05:00
1775952807136662300,9.490662353515624,-0.591796875,0.28863525390625,0.5991058349609375,2026-04-11T19:13:27.136-05:00
1775952807146719200,9.50071923828125,-0.62506103515625,0.306793212890625,0.6082611083984375,2026-04-11T19:13:27.146-05:00
1775952807156775200,9.510775146484375,-0.6641845703125,0.32586669921875,0.6245269775390625,2026-04-11T19:13:27.156-05:00
1775952807166832400,9.520832275390624,-0.7053985595703125,0.344818115234375,0.645751953125,2026-04-11T19:13:27.166-05:00
1775952807176889300,9.530889404296875,-0.74365234375,0.36279296875,0.6699981689453125,2026-04-11T19:13:27.176-05:00
1775952807186946600,9.540946533203124,-0.7786102294921875,0.3732147216796875,0.699432373046875,2026-04-11T19:13:27.186-05:00
1775952807197003500,9.55100341796875,-0.803619384765625,0.3645477294921875,0.720916748046875,2026-04-11T19:13:27.197-05:00
1775952807207059500,9.5610595703125,-0.7854461669921875,0.3246917724609375,0.7054290771484375,2026-04-11T19:13:27.207-05:00
1775952807217116400,9.571116455078124,-0.7060089111328125,0.261016845703125,0.649505615234375,2026-04-11T19:13:27.217-05:00
1775952807227173400,9.58117333984375,-0.6304473876953125,0.1966094970703125,0.5977783203125,2026-04-11T19:13:27.227-05:00
1775952807237230300,9.591230224609374,-0.5839385986328125,0.1357269287109375,0.567047119140625,2026-04-11T19:13:27.237-05:00
1775952807247286300,9.601286376953125,-0.56573486328125,0.0853729248046875,0.5560760498046875,2026-04-11T19:13:27.247-05:00
1775952807257343200,9.61134326171875,-0.564605712890625,0.043914794921875,0.559051513671875,2026-04-11T19:13:27.257-05:00
1775952807267400200,9.621400146484374,-0.574127197265625,0.01251220703125,0.5720367431640625,2026-04-11T19:13:27.267-05:00
1775952807277457400,9.63145751953125,-0.5877838134765625,-0.01104736328125,0.58758544921875,2026-04-11T19:13:27.277-05:00
1775952807287514400,9.641514404296874,-0.6005706787109375,-0.0245819091796875,0.5972137451171875,2026-04-11T19:13:27.287-05:00
1775952807297570300,9.6515703125,-0.60736083984375,-0.025054931640625,0.6037750244140625,2026-04-11T19:13:27.297-05:00
1775952807307627300,9.661627197265625,-0.6170501708984375,-0.0109710693359375,0.603912353515625,2026-04-11T19:13:27.307-05:00
1775952807317684200,9.671684326171874,-0.634979248046875,0.025634765625,0.6110687255859375,2026-04-11T19:13:27.317-05:00
1775952807327741400,9.681741455078125,-0.6484375,0.0874786376953125,0.622802734375,2026-04-11T19:13:27.327-05:00
1775952807337797000,9.691797119140626,-0.6529998779296875,0.1559906005859375,0.625457763671875,2026-04-11T19:13:27.337-05:00
1775952807347854300,9.701854248046875,-0.6611785888671875,0.21978759765625,0.6353302001953125,2026-04-11T19:13:27.347-05:00
1775952807357911300,9.711911376953125,-0.6702423095703125,0.2756500244140625,0.657440185546875,2026-04-11T19:13:27.357-05:00
1775952807367968300,9.72196826171875,-0.681182861328125,0.3182373046875,0.6765594482421875,2026-04-11T19:13:27.367-05:00
1775952807378025500,9.732025390625,-0.6870574951171875,0.347320556640625,0.6964111328125,2026-04-11T19:13:27.378-05:00
1775952807388081400,9.742081298828126,-0.6876373291015625,0.361175537109375,0.7198333740234375,2026-04-11T19:13:27.388-05:00
1775952807398138400,9.752138427734375,-0.6820220947265625,0.3617095947265625,0.7363433837890625,2026-04-11T19:13:27.398-05:00
1775952807408195300,9.7621953125,-0.68316650390625,0.3551483154296875,0.7509307861328125,2026-04-11T19:13:27.408-05:00
1775952807418252300,9.772252197265624,-0.710662841796875,0.3348541259765625,0.776458740234375,2026-04-11T19:13:27.418-05:00
1775952807428308200,9.78230810546875,-0.7541046142578125,0.2992706298828125,0.8045196533203125,2026-04-11T19:13:27.428-05:00
1775952807438365200,9.792365234375,-0.80908203125,0.2545623779296875,0.8476104736328125,2026-04-11T19:13:27.438-05:00
1775952807448422100,9.802422119140624,-0.851165771484375,0.208099365234375,0.9001312255859375,2026-04-11T19:13:27.448-05:00
1775952807458479000,9.81247900390625,-0.837005615234375,0.16156005859375,0.9084625244140625,2026-04-11T19:13:27.458-05:00
1775952807468536300,9.822536376953124,-0.760986328125,0.1074371337890625,0.86834716796875,2026-04-11T19:13:27.468-05:00
1775952807478592500,9.832592529296875,-0.6744384765625,0.05419921875,0.8195953369140625,2026-04-11T19:13:27.478-05:00
1775952807488649500,9.8426494140625,-0.5983123779296875,0.01861572265625,0.7895355224609375,2026-04-11T19:13:27.488-05:00
1775952807498706400,9.85270654296875,-0.5160980224609375,0.014373779296875,0.7470703125,2026-04-11T19:13:27.498-05:00
1775952807508763400,9.862763427734375,-0.46270751953125,0.0218353271484375,0.7158966064453125,2026-04-11T19:13:27.508-05:00
1775952807518819300,9.8728193359375,-0.467254638671875,0.028717041015625,0.7246551513671875,2026-04-11T19:13:27.518-05:00
1775952807528876300,9.882876220703125,-0.5193328857421875,0.02215576171875,0.737762451171875,2026-04-11T19:13:27.528-05:00
1775952807538933200,9.892933349609375,-0.602203369140625,0.00677490234375,0.736175537109375,2026-04-11T19:13:27.538-05:00
1775952807548990200,9.902990234375,-0.655181884765625,0.0032806396484375,0.7001190185546875,2026-04-11T19:13:27.548-05:00
1775952807559047200,9.913047119140625,-0.6812591552734375,0.02655029296875,0.6472320556640625,2026-04-11T19:13:27.559-05:00
