time,seconds_elapsed,z,y,x,local_time
1775952797736094200,0.09009423828125,-8.422619069600104,-4.965704591545462,0.7560760686349123,2026-04-11T19:13:17.736-05:00
1775952797746151200,0.100151123046875,-8.411354163742065,-4.983190563875437,0.7663709604170172,2026-04-11T19:13:17.746-05:00
1775952797756208000,0.1102080078125,-8.39648158878088,-5.0040188323706385,0.7932721921503544,2026-04-11T19:13:17.756-05:00
1775952797766265000,0.12026513671875,-8.376210954168439,-5.030997440189123,0.835787391796708,2026-04-11T19:13:17.766-05:00
1775952797776321300,0.1303212890625,-8.351544130423665,-5.064624399980902,0.8784518637206404,2026-04-11T19:13:17.776-05:00
1775952797786378200,0.140378173828125,-8.323700430208444,-5.104085472753644,0.9136212306488305,2026-04-11T19:13:17.786-05:00
1775952797796435200,0.150435302734375,-8.294642093506456,-5.147273457095027,0.9353458634618669,2026-04-11T19:13:17.796-05:00
1775952797806492200,0.1604921875,-8.267672838038205,-5.18853953346312,0.9460581769384443,2026-04-11T19:13:17.806-05:00
1775952797816548000,0.170548095703125,-8.246599070349335,-5.220087933415174,0.9563856558158993,2026-04-11T19:13:17.816-05:00
1775952797826605000,0.18060498046875,-8.23198953023851,-5.2397705390065905,0.9744435097496956,2026-04-11T19:13:17.826-05:00
1775952797836662000,0.190662109375,-8.221845152842999,-5.24986172491014,1.0052874146942048,2026-04-11T19:13:17.836-05:00
1775952797846719200,0.20071923828125,-8.213228131145238,-5.2554012388587,1.0459574248652905,2026-04-11T19:13:17.846-05:00
1775952797856775200,0.210775146484375,-8.20445796471238,-5.265836123633385,1.0621811221744863,2026-04-11T19:13:17.856-05:00
1775952797866832400,0.220832275390625,-8.199338137480616,-5.27535623165071,1.0544435867249966,2026-04-11T19:13:17.866-05:00
1775952797876889300,0.230889404296875,-8.202536056739092,-5.269758265513182,1.057559088397026,2026-04-11T19:13:17.876-05:00
1775952797886946300,0.2409462890625,-8.214237600448728,-5.24876165471375,1.0710635898754,2026-04-11T19:13:17.886-05:00
1775952797897002200,0.251002197265625,-8.24024940906167,-5.205507619398832,1.0822960547685623,2026-04-11T19:13:17.897-05:00
1775952797907059200,0.26105908203125,-8.281898347267507,-5.13872657802403,1.0835284461077301,2026-04-11T19:13:17.907-05:00
1775952797917116200,0.2711162109375,-8.333385373398661,-5.059336814966797,1.0621624174740165,2026-04-11T19:13:17.917-05:00
1775952797927173000,0.281173095703125,-8.39129512605369,-4.973257198882103,1.0115637915499507,2026-04-11T19:13:17.927-05:00
1775952797937229300,0.291229248046875,-8.45022954558134,-4.888104634514451,0.9329751157425343,2026-04-11T19:13:17.937-05:00
1775952797947286300,0.301286376953125,-8.508166186243296,-4.8069990074500435,0.8211334280222654,2026-04-11T19:13:17.947-05:00
1775952797957343200,0.31134326171875,-8.56134774133265,-4.735439499627053,0.6703122405011206,2026-04-11T19:13:17.957-05:00
1775952797967400200,0.321400146484375,-8.59400322574377,-4.699617660139501,0.4765377907099202,2026-04-11T19:13:17.967-05:00
1775952797977456000,0.3314560546875,-8.59267753009796,-4.720161266474426,0.23740385775715112,2026-04-11T19:13:17.977-05:00
1775952797987513000,0.34151318359375,-8.552482882353663,-4.7979932786956425,-0.06843851255851331,2026-04-11T19:13:17.987-05:00
1775952797997570000,0.351570068359375,-8.476446521377563,-4.911626964399218,-0.4428937701854855,2026-04-11T19:13:17.997-05:00
1775952798007627300,0.361627197265625,-8.386405600446462,-5.020735573893785,-0.7942271547876298,2026-04-11T19:13:18.007-05:00
1775952798017683200,0.37168310546875,-8.321632976284622,-5.092925780835747,-0.9914233591884374,2026-04-11T19:13:18.017-05:00
1775952798027740400,0.381740478515625,-8.289740877461433,-5.133692675510049,-1.0467926335804163,2026-04-11T19:13:18.027-05:00
1775952798037797400,0.39179736328125,-8.280370407047867,-5.152073550853133,-1.0305278005432337,2026-04-11T19:13:18.037-05:00
1775952798047854300,0.401854248046875,-8.276824112743139,-5.161966583836079,-1.0092878825072198,2026-04-11T19:13:18.047-05:00
1775952798057910300,0.41191015625,-8.270046581432222,-5.175433968174457,-0.9957941216185688,2026-04-11T19:13:18.057-05:00
1775952798067967200,0.42196728515625,-8.254597083365917,-5.2042444675952195,-0.9735752755478024,2026-04-11T19:13:18.067-05:00
1775952798078024200,0.432024169921875,-8.229986958244442,-5.2511728075087065,-0.9289154650881886,2026-04-11T19:13:18.078-05:00
1775952798088081200,0.4420810546875,-8.211644661346078,-5.281494880536198,-0.9192848093684762,2026-04-11T19:13:18.088-05:00
1775952798098138000,0.45213818359375,-8.209342814144492,-5.2710459672361605,-0.9965665672957896,2026-04-11T19:13:18.098-05:00
1775952798108194000,0.462194091796875,-8.210280971777438,-5.224589336487651,-1.2105125387065112,2026-04-11T19:13:18.108-05:00
1775952798118251300,0.472251220703125,-8.198717959755658,-5.143446007761359,-1.579989117438346,2026-04-11T19:13:18.118-05:00
1775952798128308200,0.48230810546875,-8.16095200046301,-5.033752876377106,-2.056838129521906,2026-04-11T19:13:18.128-05:00
1775952798138365400,0.492365478515625,-8.08051068252623,-4.9079707799792285,-2.6052944340929387,2026-04-11T19:13:18.138-05:00
1775952798148421000,0.502421142578125,-7.939439831581711,-4.780540624113381,-3.206572228269279,2026-04-11T19:13:18.148-05:00
1775952798158478300,0.512478271484375,-7.735733368504047,-4.679016186137497,-3.7994241394057866,2026-04-11T19:13:18.158-05:00
1775952798168535300,0.522535400390625,-7.505445772492886,-4.651650332567096,-4.2662414406880735,2026-04-11T19:13:18.168-05:00
1775952798178592300,0.53259228515625,-7.300738607940078,-4.7263694734647865,-4.531118119521439,2026-04-11T19:13:18.178-05:00
1775952798188648200,0.542648193359375,-7.111601352962851,-4.886422088254988,-4.660299795229733,2026-04-11T19:13:18.188-05:00
1775952798198705200,0.552705078125,-6.9334718142122025,-5.0349897246956825,-4.769301437218487,2026-04-11T19:13:18.198-05:00
1775952798208762000,0.56276220703125,-6.808811415320634,-5.0747079870998855,-4.904875152051448,2026-04-11T19:13:18.208-05:00
1775952798218819000,0.572819091796875,-6.750176855522394,-5.0187102055460215,-5.041631062406301,2026-04-11T19:13:18.218-05:00
1775952798228875300,0.582875244140625,-6.767232619741558,-4.896874216425418,-5.13766157914102,2026-04-11T19:13:18.228-05:00
1775952798238932200,0.59293212890625,-6.870640387246012,-4.7112589980944986,-5.173850498375296,2026-04-11T19:13:18.238-05:00
1775952798248989200,0.6029892578125,-7.045409509652853,-4.451985546095669,-5.168406261494756,2026-04-11T19:13:18.248-05:00
1775952798259046100,0.613046142578125,-7.266411390924453,-4.12851580851823,-5.130790524327755,2026-04-11T19:13:18.259-05:00
1775952798269103000,0.62310302734375,-7.4787459816157815,-3.7555055027022957,-5.1122319543302055,2026-04-11T19:13:18.269-05:00
1775952798279159000,0.633158935546875,-7.6441574930906295,-3.349528454568982,-5.149554261508584,2026-04-11T19:13:18.279-05:00
1775952798289216000,0.643216064453125,-7.716818240153789,-2.9401871906995773,-5.289271359756588,2026-04-11T19:13:18.289-05:00
1775952798299273200,0.653273193359375,-7.669554969197511,-2.5615549533486366,-5.548581052112579,2026-04-11T19:13:18.299-05:00
1775952798309330200,0.663330078125,-7.516177594387531,-2.2587511333115398,-5.8800932263702155,2026-04-11T19:13:18.309-05:00
1775952798319386400,0.673386474609375,-7.283907884648442,-2.068387113018334,-6.231921043425798,2026-04-11T19:13:18.319-05:00
1775952798329443300,0.683443359375,-6.993834220716357,-1.9684259788364171,-6.5864990359723565,2026-04-11T19:13:18.329-05:00
1775952798339500300,0.693500244140625,-6.675696491816639,-1.8860456556610763,-6.93168726888299,2026-04-11T19:13:18.339-05:00
1775952798349557200,0.70355712890625,-6.363190631324052,-1.7534456959418951,-7.252973232680559,2026-04-11T19:13:18.349-05:00
1775952798359613200,0.71361328125,-6.0859869703590865,-1.5204358353599905,-7.537865694582462,2026-04-11T19:13:18.359-05:00
1775952798369670100,0.723670166015625,-5.862421376079321,-1.16406884050481,-7.774788783085346,2026-04-11T19:13:18.369-05:00
1775952798379727000,0.73372705078125,-5.6810237754434345,-0.7002144076161086,-7.9627914810746905,2026-04-11T19:13:18.379-05:00
1775952798389784000,0.7437841796875,-5.505806324747205,-0.16503328927960245,-8.11352214076817,2026-04-11T19:13:18.389-05:00
1775952798399840300,0.75384033203125,-5.3069169065624475,0.4091382886432111,-8.23648158096075,2026-04-11T19:13:18.399-05:00
1775952798409897200,0.763897216796875,-5.074928351852297,0.9835038182355463,-8.33355839187801,2026-04-11T19:13:18.409-05:00
1775952798419954200,0.7739541015625,-4.811266309505701,1.50554484795928,-8.4116242128551,2026-04-11T19:13:18.419-05:00
1775952798430011100,0.78401123046875,-4.5287218720346685,1.9436597863703966,-8.478399409011006,2026-04-11T19:13:18.430-05:00
1775952798440068400,0.794068359375,-4.237733431345224,2.3032960852198303,-8.538550803112983,2026-04-11T19:13:18.440-05:00
1775952798450124300,0.804124267578125,-3.9236701122775672,2.6273651038646695,-8.594891114494205,2026-04-11T19:13:18.450-05:00
1775952798460181200,0.81418115234375,-3.573532440266013,2.9595389569014308,-8.639524036946892,2026-04-11T19:13:18.460-05:00
1775952798470238200,0.82423828125,-3.189362150271237,3.3221196386396885,-8.658052211806178,2026-04-11T19:13:18.470-05:00
1775952798480295200,0.834295166015625,-2.7797853240802883,3.7058664425253864,-8.643479496574402,2026-04-11T19:13:18.480-05:00
1775952798490351400,0.844351318359375,-2.335107812283188,4.084953730167448,-8.604115454435348,2026-04-11T19:13:18.490-05:00
1775952798500408300,0.854408203125,-1.8491950576476752,4.454871622925997,-8.538440912997721,2026-04-11T19:13:18.500-05:00
1775952798510465300,0.86446533203125,-1.3348692784763871,4.820289866177737,-8.435242404329776,2026-04-11T19:13:18.510-05:00
1775952798520522200,0.874522216796875,-0.8094103300679475,5.181354005873203,-8.286664538756012,2026-04-11T19:13:18.520-05:00
1775952798530578200,0.884578125,-0.33752376269735396,5.511523533350229,-8.10429195560813,2026-04-11T19:13:18.530-05:00
1775952798540635100,0.89463525390625,-0.03246564037784701,5.790335214033723,-7.914630384495854,2026-04-11T19:13:18.540-05:00
1775952798550692000,0.904692138671875,0.10432628885516897,6.037481005865335,-7.7271175158500665,2026-04-11T19:13:18.550-05:00
1775952798560749000,0.9147490234375,0.158287815341074,6.28072511408329,-7.5297963698953385,2026-04-11T19:13:18.560-05:00
1775952798570805200,0.92480517578125,0.16753920768592506,6.508846471971273,-7.333298230761289,2026-04-11T19:13:18.570-05:00
1775952798580862200,0.9348623046875,0.17253522587493061,6.705837363058328,-7.153485853490233,2026-04-11T19:13:18.580-05:00
1775952798590919400,0.94491943359375,0.21151167520219458,6.859056916958093,-7.005640393844247,2026-04-11T19:13:18.590-05:00
1775952798600976400,0.954976318359375,0.3075695366015658,6.9584525262117385,-6.903312238270044,2026-04-11T19:13:18.600-05:00
1775952798611032300,0.9650322265625,0.44483109492361544,7.0076412122726435,-6.845835031813382,2026-04-11T19:13:18.611-05:00
1775952798621089300,0.97508935546875,0.5459471347616985,7.014701067656278,-6.831272837975621,2026-04-11T19:13:18.621-05:00
1775952798631146200,0.985146240234375,0.561432142532803,6.988253790235519,-6.857073049664497,2026-04-11T19:13:18.631-05:00
1775952798641203200,0.995203125,0.5010544288616627,6.937610813713073,-6.912951004230976,2026-04-11T19:13:18.641-05:00
1775952798651260200,1.00526025390625,0.396472101152502,6.861266994222998,-6.995443409478664,2026-04-11T19:13:18.651-05:00
1775952798661316000,1.015316162109375,0.2955295912504196,6.751331870776414,-7.106516012522578,2026-04-11T19:13:18.661-05:00
1775952798671373000,1.025373046875,0.25237176458528265,6.603405747109651,-7.24580933240056,2026-04-11T19:13:18.671-05:00
1775952798681430300,1.03543017578125,0.30145914569618176,6.417382240238785,-7.409231715884804,2026-04-11T19:13:18.681-05:00
1775952798691487200,1.0454873046875,0.44828503476977344,6.19892478275299,-7.5856959517717355,2026-04-11T19:13:18.691-05:00
1775952798701543200,1.055543212890625,0.6523775014903396,5.954981001833081,-7.764211859491467,2026-04-11T19:13:18.701-05:00
1775952798711600000,1.06560009765625,0.8449223729539662,5.68666441167891,-7.944705204764008,2026-04-11T19:13:18.711-05:00
1775952798721657000,1.075656982421875,0.974991572086513,5.4017807176053525,-8.126532428988813,2026-04-11T19:13:18.721-05:00
1775952798731714300,1.08571435546875,1.0174965425997973,5.105017785167694,-8.311070081216096,2026-04-11T19:13:18.731-05:00
1775952798741770200,1.095770263671875,1.0078540503118187,4.809155016440153,-8.486851595535875,2026-04-11T19:13:18.741-05:00
1775952798751827200,1.1058271484375,0.9901786198243498,4.546714332582056,-8.632341431966424,2026-04-11T19:13:18.751-05:00
1775952798761884200,1.11588427734375,0.9549363337904214,4.330334558153152,-8.746809522667526,2026-04-11T19:13:18.761-05:00
1775952798771941000,1.125941162109375,0.9083154523909092,4.1395758394539355,-8.843600502380728,2026-04-11T19:13:18.771-05:00
1775952798781997300,1.135997314453125,0.8405421851083635,3.946053793521225,-8.938262653371691,2026-04-11T19:13:18.781-05:00
1775952798792054300,1.14605419921875,0.728138479591161,3.7272780638664957,-9.04143836568594,2026-04-11T19:13:18.792-05:00
1775952798802111200,1.156111328125,0.6139413878511637,3.503724744546413,-9.138783472150564,2026-04-11T19:13:18.802-05:00
1775952798812168200,1.166168212890625,0.540548782849498,3.307892375844717,-9.21607655518949,2026-04-11T19:13:18.812-05:00
1775952798822224100,1.17622412109375,0.5463187080204487,3.122524994795024,-9.280182239875197,2026-04-11T19:13:18.822-05:00
1775952798832281000,1.186281005859375,0.6287867825444787,2.9381778967037797,-9.334995195558667,2026-04-11T19:13:18.832-05:00
1775952798842338000,1.196338134765625,0.7492477569848298,2.7669804953038692,-9.378318788978456,2026-04-11T19:13:18.842-05:00
1775952798852395000,1.20639501953125,0.8814397934902459,2.5893632899895307,-9.417465388974547,2026-04-11T19:13:18.852-05:00
1775952798862452200,1.2164521484375,1.0393205441340803,2.3986918111823496,-9.451796697643399,2026-04-11T19:13:18.862-05:00
1775952798872508200,1.226508056640625,1.1715307008180766,2.2049714661985633,-9.48346024840772,2026-04-11T19:13:18.872-05:00
1775952798882565400,1.2365654296875,1.2605464434199034,2.0131275826111437,-9.514658519747853,2026-04-11T19:13:18.882-05:00
1775952798892622300,1.246622314453125,1.3114314120046793,1.8323035440795123,-9.544273905810714,2026-04-11T19:13:18.892-05:00
1775952798902679300,1.25667919921875,1.3155397241063416,1.6675528346009552,-9.573870002651214,2026-04-11T19:13:18.902-05:00
1775952798912735200,1.2667353515625,1.2933844447910785,1.524827056056261,-9.600647534939647,2026-04-11T19:13:18.912-05:00
1775952798922792200,1.276792236328125,1.2501461915671825,1.4179989587143063,-9.62272258862555,2026-04-11T19:13:18.922-05:00
1775952798932849200,1.28684912109375,1.2202368640590457,1.34469275335446,-9.637075523626804,2026-04-11T19:13:18.932-05:00
1775952798942906000,1.296906005859375,1.2306865810766816,1.282387980610877,-9.644235332253574,2026-04-11T19:13:18.942-05:00
1775952798952962300,1.30696240234375,1.2538256107322872,1.2267124167487025,-9.648497665873169,2026-04-11T19:13:18.952-05:00
1775952798963019300,1.317019287109375,1.2658359281301497,1.1471455435588955,-9.656714290076494,2026-04-11T19:13:18.963-05:00
1775952798973076200,1.327076171875,1.2224091665968297,1.0509658276118337,-9.673239892941712,2026-04-11T19:13:18.973-05:00
1775952798983133200,1.33713330078125,1.0815157180458306,0.983096844869852,-9.697124041876195,2026-04-11T19:13:18.983-05:00
1775952798993189000,1.347189208984375,0.8619281605515628,0.9852627176668495,-9.718884038263559,2026-04-11T19:13:18.993-05:00
1775952799003246000,1.35724609375,0.59546717166882,1.0729808947388082,-9.72956909840703,2026-04-11T19:13:19.003-05:00
1775952799013303000,1.367302978515625,0.2856401749966666,1.242572687572986,-9.723415251952408,2026-04-11T19:13:19.013-05:00
1775952799023360000,1.377360107421875,-0.04081169736383017,1.489278188291192,-9.692819622680544,2026-04-11T19:13:19.023-05:00
1775952799033417000,1.3874169921875,-0.39012919839918614,1.7941458089902995,-9.633235214811563,2026-04-11T19:13:19.033-05:00
1775952799043473200,1.39747314453125,-0.7851640698228031,2.1220802708916366,-9.542047461932897,2026-04-11T19:13:19.043-05:00
1775952799053530000,1.407530029296875,-1.1434607175663114,2.4437362370453775,-9.428204809653758,2026-04-11T19:13:19.053-05:00
1775952799063587000,1.417587158203125,-1.4151738182909785,2.739272111906111,-9.309352804780007,2026-04-11T19:13:19.063-05:00
1775952799073644300,1.427644287109375,-1.5856493351571261,2.973024169157445,-9.209626940658689,2026-04-11T19:13:19.073-05:00
1775952799083700200,1.4377001953125,-1.5952845939867197,3.135210873366892,-9.15400968285501,2026-04-11T19:13:19.083-05:00
1775952799093757200,1.447757080078125,-1.4725764982067047,3.2390351127177475,-9.138411131706834,2026-04-11T19:13:19.093-05:00
1775952799103814100,1.457814208984375,-1.2713069068871439,3.321648221735656,-9.138971688199042,2026-04-11T19:13:19.103-05:00
1775952799113871000,1.46787109375,-1.053993212608993,3.4247491152480243,-9.128557846212386,2026-04-11T19:13:19.113-05:00
1775952799123927000,1.477927001953125,-0.8989324147567153,3.5718919795826074,-9.088669487938285,2026-04-11T19:13:19.123-05:00
1775952799133984300,1.487984375,-0.847655012788251,3.775234285522997,-9.01107479160428,2026-04-11T19:13:19.133-05:00
1775952799144041200,1.498041259765625,-0.8854919184252619,4.034437010373175,-8.894356876149773,2026-04-11T19:13:19.144-05:00
1775952799154098200,1.50809814453125,-0.9659773677647113,4.340769442927837,-8.74042420554459,2026-04-11T19:13:19.154-05:00
1775952799164154000,1.518154052734375,-1.032714423867315,4.670205979955196,-8.561137897974252,2026-04-11T19:13:19.164-05:00
1775952799174211000,1.528211181640625,-1.0703546378884463,5.002723531863093,-8.366451192176342,2026-04-11T19:13:19.174-05:00
1775952799184268000,1.53826806640625,-1.093460057535395,5.328078352534771,-8.160042484402656,2026-04-11T19:13:19.184-05:00
1775952799194325000,1.548324951171875,-1.0841576108567417,5.637535346850752,-7.950672004213929,2026-04-11T19:13:19.194-05:00
1775952799204381000,1.558380859375,-1.040927467874065,5.93336596687436,-7.738348519438505,2026-04-11T19:13:19.204-05:00
1775952799214438000,1.56843798828125,-0.9806748053546994,6.218598620516062,-7.519155733415484,2026-04-11T19:13:19.214-05:00
1775952799224495000,1.5784951171875,-0.9200823164217173,6.4939505161345,-7.290573772278428,2026-04-11T19:13:19.224-05:00
1775952799234552300,1.58855224609375,-0.871959725222364,6.764393596923351,-7.0464908751487725,2026-04-11T19:13:19.234-05:00
1775952799244609300,1.598609375,-0.841813885544613,7.036140746048092,-6.778972741895914,2026-04-11T19:13:19.244-05:00
1775952799254665200,1.608665283203125,-0.8190893549740313,7.301864981621503,-6.494787551480531,2026-04-11T19:13:19.254-05:00
1775952799264722200,1.61872216796875,-0.7863393241472542,7.528672918823361,-6.234671803438663,2026-04-11T19:13:19.264-05:00
1775952799274779100,1.628779052734375,-0.7341640234909951,7.713117632070183,-6.011589608761668,2026-04-11T19:13:19.274-05:00
1775952799284836000,1.638836181640625,-0.6727602181751281,7.878323391839861,-5.800844917610287,2026-04-11T19:13:19.284-05:00
1775952799294892000,1.64889208984375,-0.6118342960366979,8.040667332437634,-5.580655521765351,2026-04-11T19:13:19.294-05:00
1775952799304949000,1.658948974609375,-0.551547877378203,8.205190370640159,-5.342378680565953,2026-04-11T19:13:19.304-05:00
1775952799315006000,1.669005859375,-0.48706462808437645,8.372026361960172,-5.083533683112264,2026-04-11T19:13:19.315-05:00
1775952799325063200,1.679063232421875,-0.4163286385387182,8.543446758460998,-4.796515022836625,2026-04-11T19:13:19.325-05:00
1775952799335119000,1.689119140625,-0.3389400957686826,8.721184083023667,-4.471737417531013,2026-04-11T19:13:19.335-05:00
1775952799345176000,1.699176025390625,-0.2520680141320452,8.90094794497788,-4.1085239908471705,2026-04-11T19:13:19.345-05:00
1775952799355233000,1.70923291015625,-0.15754543600855395,9.077135702010988,-3.708260644185543,2026-04-11T19:13:19.355-05:00
1775952799365290200,1.719290283203125,-0.0618560243290849,9.244639801850914,-3.2715716469243166,2026-04-11T19:13:19.365-05:00
1775952799375347200,1.72934716796875,0.02957735332412412,9.398449722859263,-2.7997590215727683,2026-04-11T19:13:19.375-05:00
1775952799385403100,1.739403076171875,0.1120529010518454,9.534084520229698,-2.293264520549029,2026-04-11T19:13:19.385-05:00
1775952799395460000,1.749460205078125,0.182815011419449,9.646657590964436,-1.7547003721781074,2026-04-11T19:13:19.395-05:00
1775952799405517000,1.75951708984375,0.23940619228919965,9.731070150619745,-1.1913603867299853,2026-04-11T19:13:19.405-05:00
1775952799415574000,1.769573974609375,0.2816424105973914,9.783561385357379,-0.6107136579763144,2026-04-11T19:13:19.415-05:00
1775952799425630200,1.779630126953125,0.3167428770078346,9.801505038326978,-0.023232404744194354,2026-04-11T19:13:19.425-05:00
1775952799435687200,1.789687255859375,0.350947892415896,9.78423417005241,0.5621280523750931,2026-04-11T19:13:19.435-05:00
1775952799445744000,1.799744140625,0.3851373449286446,9.730772628977894,1.1550470373984425,2026-04-11T19:13:19.445-05:00
1775952799455801000,1.809801025390625,0.4185310074212029,9.635634677168726,1.7747683238252996,2026-04-11T19:13:19.455-05:00
1775952799465857000,1.81985693359375,0.45644759069830176,9.48683644684255,2.4417137913070617,2026-04-11T19:13:19.465-05:00
1775952799475914000,1.8299140625,0.4932504040472209,9.269525236782432,3.1627561751574276,2026-04-11T19:13:19.475-05:00
1775952799485971000,1.839970947265625,0.5326328220931813,9.016308016082643,3.8200653608962893,2026-04-11T19:13:19.485-05:00
1775952799496028200,1.850028076171875,0.5771063527330755,8.86260038640499,4.158324379065633,2026-04-11T19:13:19.496-05:00
1775952799506085000,1.860085205078125,0.6206987531568855,8.900409015795589,4.070361141191423,2026-04-11T19:13:19.506-05:00
1775952799516141300,1.870141357421875,0.6650098963093012,9.035641077584028,3.753046711373329,2026-04-11T19:13:19.516-05:00
1775952799526198300,1.8801982421875,0.70878839388974,9.159743842592835,3.4303245772928,2026-04-11T19:13:19.526-05:00
1775952799536255200,1.890255126953125,0.6992942240312695,9.244538679563998,3.196856597679853,2026-04-11T19:13:19.536-05:00
1775952799546312200,1.900312255859375,0.5100424392962828,9.296433117452263,3.0800267462834716,2026-04-11T19:13:19.546-05:00
1775952799556368100,1.9103681640625,0.12019983015297911,9.322025239348411,3.042329760573804,2026-04-11T19:13:19.556-05:00
1775952799566425000,1.920425048828125,-0.3745987440511584,9.318871159231662,3.031289311121404,2026-04-11T19:13:19.566-05:00
1775952799576482000,1.93048193359375,-0.898723375115916,9.287549553772807,3.0173040403887628,2026-04-11T19:13:19.576-05:00
1775952799586539000,1.9405390625,-1.4043521261557936,9.232904940393567,2.991928191591799,2026-04-11T19:13:19.586-05:00
1775952799596595200,1.95059521484375,-1.8565002660945056,9.163048144835233,2.960128154966235,2026-04-11T19:13:19.596-05:00
1775952799606652200,1.960652099609375,-2.226957088035345,9.088712742558121,2.933659834757447,2026-04-11T19:13:19.606-05:00
1775952799616709000,1.970709228515625,-2.491768884938955,9.020744537225365,2.9304683452397584,2026-04-11T19:13:19.616-05:00
1775952799626766000,1.98076611328125,-2.633845698055625,8.966834083339572,2.971385169778764,2026-04-11T19:13:19.626-05:00
1775952799636822000,1.990822021484375,-2.651038824918866,8.934914511987566,3.0511764993742108,2026-04-11T19:13:19.636-05:00
1775952799646879000,2.00087890625,-2.5606220564126967,8.930673221156,3.1395325359582897,2026-04-11T19:13:19.646-05:00
1775952799656936200,2.010936279296875,-2.3897813594959674,8.951050823274254,3.2152816044256087,2026-04-11T19:13:19.656-05:00
1775952799666993200,2.0209931640625,-2.1712068515017626,8.98488996451199,3.2753651939883826,2026-04-11T19:13:19.666-05:00
1775952799677050000,2.031050048828125,-1.9627555319845675,9.012095951345563,3.3316853393644092,2026-04-11T19:13:19.677-05:00
1775952799687106300,2.041106201171875,-1.8218173675090072,9.018838995864987,3.3929192680060862,2026-04-11T19:13:19.687-05:00
1775952799697163300,2.051163330078125,-1.7636776054903864,9.01098185262382,3.444130107544362,2026-04-11T19:13:19.697-05:00
1775952799707220200,2.06122021484375,-1.7392919367745518,9.01672536471188,3.441501220345497,2026-04-11T19:13:19.707-05:00
1775952799717277200,2.071277099609375,-1.6386663473345338,9.079344025710224,3.324257819712162,2026-04-11T19:13:19.717-05:00
1775952799727333000,2.0813330078125,-1.451466197899729,9.198793411955236,3.0734114197969435,2026-04-11T19:13:19.727-05:00
1775952799737390000,2.09139013671875,-1.1907886512566357,9.342124609047174,2.7344322706595063,2026-04-11T19:13:19.737-05:00
1775952799747447000,2.101447021484375,-0.8790999523658305,9.474266303604841,2.373997368778288,2026-04-11T19:13:19.747-05:00
1775952799757504000,2.11150390625,-0.5461682666990906,9.57544704270959,2.0452176882244646,2026-04-11T19:13:19.757-05:00
1775952799767560000,2.121559814453125,-0.21386828479832037,9.64017699677348,1.7865158986337482,2026-04-11T19:13:19.767-05:00
1775952799777617200,2.1316171875,0.1046067132317461,9.671889647376537,1.616785208785534,2026-04-11T19:13:19.777-05:00
1775952799787674000,2.141674072265625,0.3946693991120904,9.678888127961754,1.5276549729585647,2026-04-11T19:13:19.787-05:00
1775952799797731300,2.1517314453125,0.6530730825390666,9.670477442491054,1.4918991844445466,2026-04-11T19:13:19.797-05:00
1775952799807788300,2.161788330078125,0.8845006423655897,9.654180387684702,1.478121418982744,2026-04-11T19:13:19.807-05:00
1775952799817844200,2.17184423828125,1.0931490188248454,9.635277534294127,1.4617806711651384,2026-04-11T19:13:19.817-05:00
1775952799827901200,2.181901123046875,1.2808673469148575,9.616963878968358,1.4296101937919854,2026-04-11T19:13:19.827-05:00
1775952799837958100,2.191958251953125,1.445074012644589,9.601090602532029,1.3788405221499502,2026-04-11T19:13:19.837-05:00
1775952799848015000,2.20201513671875,1.5796344587817788,9.58876011326909,1.3156152735605835,2026-04-11T19:13:19.848-05:00
1775952799858071000,2.212071044921875,1.6795437166459857,9.581350713795423,1.2438833317801357,2026-04-11T19:13:19.858-05:00
1775952799868128000,2.2221279296875,1.7463934393428264,9.579224223160743,1.1657543093737215,2026-04-11T19:13:19.868-05:00
1775952799878185000,2.23218505859375,1.7947130874842405,9.580299158915876,1.0804011078674345,2026-04-11T19:13:19.878-05:00
1775952799888242200,2.2422421875,1.8386819930702447,9.581751695811748,0.9897864056363701,2026-04-11T19:13:19.888-05:00
1775952799898298000,2.252298095703125,1.8808764363296329,9.582323942741752,0.9009946079835295,2026-04-11T19:13:19.898-05:00
1775952799908355000,2.26235498046875,1.9179586511418223,9.582012977096438,0.8227084222540259,2026-04-11T19:13:19.908-05:00
1775952799918412000,2.272412109375,1.9454606983125209,9.581568155938387,0.7610057801220566,2026-04-11T19:13:19.918-05:00
1775952799928469200,2.28246923828125,1.9622956593878567,9.581290508040786,0.720190881587565,2026-04-11T19:13:19.928-05:00
1775952799938526200,2.292526123046875,1.9709135578684507,9.58107657302916,0.6991900330044328,2026-04-11T19:13:19.938-05:00
1775952799948582100,2.30258203125,1.9725353138513861,9.581176526272296,0.6932108855295926,2026-04-11T19:13:19.948-05:00
1775952799958639600,2.3126396484375,1.9652352199710905,9.582478841042517,0.6959300082951784,2026-04-11T19:13:19.958-05:00
1775952799968696600,2.322696533203125,1.9453991773836314,9.586066636401414,0.7022421871166676,2026-04-11T19:13:19.968-05:00
1775952799978753500,2.33275341796875,1.9115378243140875,9.592474749878049,0.7077068822633474,2026-04-11T19:13:19.978-05:00
1775952799988809700,2.342809814453125,1.8637204266063867,9.601350130251049,0.7148662524987012,2026-04-11T19:13:19.988-05:00
1775952799998866700,2.35286669921875,1.8045127430953085,9.611945174023509,0.7243284928489476,2026-04-11T19:13:19.998-05:00
1775952800008923600,2.362923583984375,1.7415568129666148,9.622539048752188,0.7376273156873882,2026-04-11T19:13:20.008-05:00
1775952800018980600,2.372980712890625,1.679686924508959,9.631811319488287,0.7597832525897771,2026-04-11T19:13:20.018-05:00
1775952800029036500,2.38303662109375,1.6202799190334976,9.639187401214242,0.7944652743924409,2026-04-11T19:13:20.029-05:00
1775952800039093500,2.393093505859375,1.5638535368040203,9.644436992305517,0.8423620209466666,2026-04-11T19:13:20.039-05:00
1775952800049150500,2.403150390625,1.511004428539425,9.64746890734732,0.9019978667419404,2026-04-11T19:13:20.049-05:00
1775952800059207700,2.413207763671875,1.4629798178218305,9.648191960924864,0.9707998194850981,2026-04-11T19:13:20.059-05:00
1775952800069264600,2.4232646484375,1.420565886592865,9.646877371194957,1.0440957957118748,2026-04-11T19:13:20.069-05:00
1775952800079320800,2.43332080078125,1.3815242082759738,9.644595397737621,1.11513844005391,2026-04-11T19:13:20.079-05:00
1775952800089377800,2.443377685546875,1.3445455999687312,9.642091890484094,1.180104614026472,2026-04-11T19:13:20.089-05:00
1775952800099434800,2.453434814453125,1.309158790897578,9.639697688823938,1.2380324137948453,2026-04-11T19:13:20.099-05:00
1775952800109491700,2.46349169921875,1.2755908678166568,9.637311085948348,1.2905362157531082,2026-04-11T19:13:20.109-05:00
1775952800119547600,2.473547607421875,1.2426197415851057,9.634858432099223,1.3400572025083004,2026-04-11T19:13:20.119-05:00
1775952800129604600,2.4836044921875,1.2104998984206468,9.632480012530088,1.3857738285444676,2026-04-11T19:13:20.129-05:00
1775952800139661600,2.49366162109375,1.1793977078661322,9.63120809289813,1.4210023783139885,2026-04-11T19:13:20.139-05:00
1775952800149718500,2.503718505859375,1.1422582829739898,9.632557753941416,1.4420391749933361,2026-04-11T19:13:20.149-05:00
1775952800159774700,2.513774658203125,1.0920657536327838,9.637182491132616,1.4500089848287403,2026-04-11T19:13:20.159-05:00
1775952800169831700,2.523831787109375,1.0277169078409671,9.644064651861786,1.4512864574186504,2026-04-11T19:13:20.169-05:00
1775952800179888600,2.533888671875,0.9550001197416335,9.651491586992144,1.4515845635823905,2026-04-11T19:13:20.179-05:00
1775952800189945600,2.543945556640625,0.8835258790493011,9.658065704685448,1.4531222945436835,2026-04-11T19:13:20.189-05:00
1775952800200002800,2.5540029296875,0.8196025651931762,9.663490652343631,1.454509072726965,2026-04-11T19:13:20.200-05:00
1775952800210058500,2.56405859375,0.7638895188648254,9.66859995818138,1.450872177529335,2026-04-11T19:13:20.210-05:00
1775952800220115700,2.57411572265625,0.7125813564319163,9.674639822867512,1.4366555822588503,2026-04-11T19:13:20.220-05:00
1775952800230172700,2.584172607421875,0.6607604221712797,9.681911275175214,1.4122209598347544,2026-04-11T19:13:20.230-05:00
1775952800240229600,2.594229736328125,0.6067638974372297,9.689927408370375,1.381139300611615,2026-04-11T19:13:20.240-05:00
1775952800250285600,2.60428564453125,0.5527511522207409,9.698307114180922,1.3445055602192877,2026-04-11T19:13:20.250-05:00
1775952800260342500,2.614342529296875,0.5058961698044091,9.70733739285469,1.2969386301413177,2026-04-11T19:13:20.260-05:00
1775952800270399700,2.624399658203125,0.47923510350249704,9.717627900722622,1.2281728446900844,2026-04-11T19:13:20.270-05:00
1775952800280456700,2.634456787109375,0.4814096345299855,9.72952876639664,1.1291054444774984,2026-04-11T19:13:20.280-05:00
1775952800290512600,2.6445126953125,0.5004334108864888,9.74258464732468,1.0010053534608334,2026-04-11T19:13:20.290-05:00
1775952800300569600,2.654569580078125,0.5171654961092397,9.755313780516385,0.858356804870814,2026-04-11T19:13:20.300-05:00
1775952800310626600,2.66462646484375,0.5277231304807588,9.765743404594064,0.7226144554726779,2026-04-11T19:13:20.310-05:00
1775952800320683500,2.67468359375,0.5420072745621204,9.77196213297844,0.6207835088308901,2026-04-11T19:13:20.320-05:00
1775952800330740500,2.684740478515625,0.5717940351365134,9.773316470196843,0.570732689515315,2026-04-11T19:13:20.330-05:00
1775952800340796400,2.69479638671875,0.6152927293948829,9.770869661566614,0.5673621171036735,2026-04-11T19:13:20.340-05:00
1775952800350853600,2.704853515625,0.6660241879183799,9.766117498603462,0.5913730342229828,2026-04-11T19:13:20.350-05:00
1775952800360910600,2.71491064453125,0.7187055384006351,9.760167650288343,0.6268514305677264,2026-04-11T19:13:20.360-05:00
1775952800370967600,2.724967529296875,0.7721538546673953,9.75366601330936,0.6634511956252157,2026-04-11T19:13:20.370-05:00
1775952800381023700,2.735023681640625,0.8423208852186799,9.745781397539377,0.6932776671554893,2026-04-11T19:13:20.381-05:00
1775952800391080700,2.745080810546875,0.9406777260091155,9.735361125811934,0.7129313389133661,2026-04-11T19:13:20.391-05:00
1775952800401137700,2.7551376953125,1.0213101826038211,9.72660381886065,0.7214641163937747,2026-04-11T19:13:20.401-05:00
1775952800411194600,2.765194580078125,1.0242858374137431,9.726000007748603,0.7253798285327852,2026-04-11T19:13:20.411-05:00
1775952800421250600,2.77525048828125,0.948090705679357,9.733208916214108,0.7322153005760162,2026-04-11T19:13:20.421-05:00
1775952800431307500,2.7853076171875,0.8369662263177334,9.743011348304153,0.737291069470346,2026-04-11T19:13:20.431-05:00
1775952800441364500,2.795364501953125,0.7440103677880019,9.751035080283879,0.7308606710966676,2026-04-11T19:13:20.441-05:00
1775952800451421400,2.80542138671875,0.6815631178338081,9.756492176645994,0.7188355214558542,2026-04-11T19:13:20.451-05:00
1775952800461478400,2.815478515625,0.6336743353903294,9.760068866088986,0.7140658228360116,2026-04-11T19:13:20.461-05:00
1775952800471534600,2.82553466796875,0.6084285427138209,9.761416773566603,0.7175994768548757,2026-04-11T19:13:20.471-05:00
1775952800481591600,2.835591552734375,0.6223206552702933,9.760212073951958,0.7220623745478689,2026-04-11T19:13:20.481-05:00
1775952800491648800,2.845648681640625,0.6626796267308295,9.756938751369715,0.730348922182247,2026-04-11T19:13:20.491-05:00
1775952800501705700,2.855705810546875,0.7027605849675834,9.753016609489917,0.7451193519432098,2026-04-11T19:13:20.501-05:00
1775952800511761700,2.86576171875,0.7374317200500518,9.748903328952192,0.7651555932778865,2026-04-11T19:13:20.511-05:00
1775952800521818600,2.875818603515625,0.7771166647065431,9.743876440700888,0.7895337362743914,2026-04-11T19:13:20.521-05:00
1775952800531875600,2.88587548828125,0.8259966501444578,9.737819624879956,0.8142297861136496,2026-04-11T19:13:20.531-05:00
1775952800541932500,2.8959326171875,0.8774399101991206,9.731551212134956,0.8351007247067987,2026-04-11T19:13:20.541-05:00
1775952800551988700,2.90598876953125,0.9224660697530954,9.726002930358051,0.851072200820595,2026-04-11T19:13:20.551-05:00
1775952800562045700,2.916045654296875,0.9539932077214122,9.721972651928663,0.8622832575995475,2026-04-11T19:13:20.562-05:00
1775952800572102700,2.9261025390625,0.9696604401916264,9.71961001445055,0.8714027489267289,2026-04-11T19:13:20.572-05:00
1775952800582159600,2.93615966796875,0.971835373077914,9.719155840942262,0.8740247679933905,2026-04-11T19:13:20.582-05:00
1775952800592216600,2.946216552734375,0.9639630322676151,9.720967274278403,0.8625340905554593,2026-04-11T19:13:20.592-05:00
1775952800602272500,2.9562724609375,0.9452610352113843,9.724927994602918,0.8382451602123677,2026-04-11T19:13:20.602-05:00
1775952800612329500,2.96632958984375,0.9216640326552092,9.729595986413955,0.8098832082767039,2026-04-11T19:13:20.612-05:00
1775952800622386400,2.976386474609375,0.9062181147854774,9.733191380557418,0.7836704702641815,2026-04-11T19:13:20.622-05:00
1775952800632443600,2.986443603515625,0.9065254271689802,9.734892339256405,0.7618631276037544,2026-04-11T19:13:20.632-05:00
1775952800642499800,2.996499755859375,0.9231771406318992,9.734618783012031,0.7452127293150872,2026-04-11T19:13:20.642-05:00
1775952800652556800,3.006556884765625,0.9535524051513522,9.732203538563846,0.7384882433656602,2026-04-11T19:13:20.652-05:00
1775952800662613800,3.01661376953125,0.9990409945853054,9.726963299822806,0.747321903488785,2026-04-11T19:13:20.662-05:00
1775952800672670700,3.026670654296875,1.0596015540100634,9.718615742716192,0.7721135957222431,2026-04-11T19:13:20.672-05:00
1775952800682726700,3.0367265625,1.1350543429445474,9.706934657272695,0.8108383170444518,2026-04-11T19:13:20.682-05:00
1775952800692783600,3.04678369140625,1.221176482996717,9.69238123126328,0.858406343100965,2026-04-11T19:13:20.692-05:00
1775952800702840600,3.056840576171875,1.3095714633516966,9.676251934239268,0.9085955845065414,2026-04-11T19:13:20.702-05:00
1775952800712897500,3.0668974609375,1.3939244017742574,9.66045172303915,0.9503017327923328,2026-04-11T19:13:20.712-05:00
1775952800722954500,3.07695458984375,1.4729085066400467,9.646044427502154,0.9771085642404854,2026-04-11T19:13:20.722-05:00
1775952800733010700,3.0870107421875,1.5498216504506765,9.632461307829617,0.9920301659751682,2026-04-11T19:13:20.733-05:00
1775952800743067600,3.097067626953125,1.6300919957347213,9.618406478992103,0.9997300728280096,2026-04-11T19:13:20.743-05:00
1775952800753124600,3.10712451171875,1.7177205948270857,9.602649522411824,1.0044680611353367,2026-04-11T19:13:20.753-05:00
1775952800763181800,3.117181884765625,1.8154877260960638,9.58402431691885,1.0103683712203055,2026-04-11T19:13:20.763-05:00
1775952800773237500,3.127237548828125,1.923878688840568,9.561974397674202,1.0186998539749532,2026-04-11T19:13:20.773-05:00
1775952800783294700,3.137294677734375,2.0381725920185447,9.536980826193094,1.0306482120525091,2026-04-11T19:13:20.783-05:00
1775952800793351700,3.1473515625,2.154349678594619,9.51026408418119,1.0411810042437166,2026-04-11T19:13:20.793-05:00
1775952800803408600,3.15740869140625,2.2747502280846237,9.480873154523968,1.053063019086793,2026-04-11T19:13:20.803-05:00
1775952800813464600,3.167464599609375,2.409419541423768,9.444901677432656,1.076530111652985,2026-04-11T19:13:20.813-05:00
1775952800823521800,3.177521728515625,2.553661277489364,9.402492860770225,1.1145963690664618,2026-04-11T19:13:20.823-05:00
1775952800833578800,3.187578857421875,2.686503813792765,9.36055633779466,1.15460185091421,2026-04-11T19:13:20.833-05:00
1775952800843635700,3.1976357421875,2.8188407386615872,9.317777518776058,1.1847069201901554,2026-04-11T19:13:20.843-05:00
1775952800853692700,3.207692626953125,2.9590362680763005,9.27126418940425,1.2075380529403685,2026-04-11T19:13:20.853-05:00
1775952800863748600,3.21774853515625,3.0982199900999663,9.222762901085614,1.2296575302898882,2026-04-11T19:13:20.863-05:00
1775952800873805600,3.2278056640625,3.235749515175819,9.172906691026688,1.2482190228968857,2026-04-11T19:13:20.873-05:00
1775952800883862500,3.237862548828125,3.3655084062501786,9.124268040063976,1.2615410074152051,2026-04-11T19:13:20.883-05:00
1775952800893919500,3.24791943359375,3.489721938157081,9.076789665052294,1.266545099312812,2026-04-11T19:13:20.893-05:00
1775952800903975400,3.257975341796875,3.6135885563224552,9.028176148530841,1.2666582042984664,2026-04-11T19:13:20.903-05:00
1775952800914032400,3.268032470703125,3.746910985097289,8.97409209164381,1.263627312169969,2026-04-11T19:13:20.914-05:00
1775952800924089600,3.278089599609375,3.8859900777027008,8.915012710687517,1.2617375529006123,2026-04-11T19:13:20.924-05:00
1775952800934146800,3.288146728515625,4.027950863224268,8.851461152753233,1.2639809479132293,2026-04-11T19:13:20.934-05:00
1775952800944202800,3.29820263671875,4.17346378826946,8.782894981527328,1.270182725162804,2026-04-11T19:13:20.944-05:00
1775952800954259700,3.308259765625,4.323457658120989,8.707966874054074,1.284305504669994,2026-04-11T19:13:20.954-05:00
1775952800964316700,3.318316650390625,4.477259688083827,8.627242647522687,1.3020095036648214,2026-04-11T19:13:20.964-05:00
1775952800974373600,3.32837353515625,4.631690079078078,8.541796068644523,1.3249755148410796,2026-04-11T19:13:20.974-05:00
1775952800984430600,3.3384306640625,4.790947744098306,8.449564944192767,1.349827924285829,2026-04-11T19:13:20.984-05:00
1775952800994486500,3.348486572265625,4.956659699824452,8.349798163539171,1.372147454252094,2026-04-11T19:13:20.994-05:00
1775952801004543500,3.35854345703125,5.121896439254283,8.246317330798506,1.3909836721472442,2026-04-11T19:13:21.004-05:00
1775952801014600700,3.3686005859375,5.291695372033119,8.135971288463473,1.4050985606089232,2026-04-11T19:13:21.014-05:00
1775952801024657700,3.37865771484375,5.461040131303668,8.021216782036424,1.4168757999032735,2026-04-11T19:13:21.024-05:00
1775952801034713900,3.3887138671875,5.635366186118126,7.895773123812675,1.4386810967370867,2026-04-11T19:13:21.034-05:00
1775952801044770800,3.398770751953125,5.817053709611296,7.756115646797418,1.4747741543814539,2026-04-11T19:13:21.044-05:00
1775952801054827800,3.408827880859375,6.000865970173478,7.603748325812816,1.530690395131707,2026-04-11T19:13:21.054-05:00
1775952801064884700,3.418884765625,6.191114401262999,7.433716753321885,1.6063393642254173,2026-04-11T19:13:21.064-05:00
1775952801074940700,3.428940673828125,6.3823588576525445,7.250461542120576,1.6931237675786017,2026-04-11T19:13:21.074-05:00
1775952801084997600,3.43899755859375,6.570276799967885,7.0553206628143785,1.7956376549832522,2026-04-11T19:13:21.084-05:00
1775952801095054600,3.4490546875,6.755420601394772,6.846426567965746,1.9134119476228952,2026-04-11T19:13:21.095-05:00
1775952801105111600,3.459111572265625,6.930496597793698,6.628726066327094,2.049056827995926,2026-04-11T19:13:21.105-05:00
1775952801115168500,3.46916845703125,7.101042549547553,6.397611956363916,2.1945785208694635,2026-04-11T19:13:21.115-05:00
1775952801125224700,3.479224609375,7.270088033610582,6.14939064425528,2.3454548726439475,2026-04-11T19:13:21.125-05:00
1775952801135281700,3.48928173828125,7.428108850312232,5.890258646553755,2.50966343806982,2026-04-11T19:13:21.135-05:00
1775952801145338600,3.499338623046875,7.577919472551345,5.617891319704055,2.680444659884274,2026-04-11T19:13:21.145-05:00
1775952801155395800,3.509395751953125,7.710642766389251,5.349442627602816,2.8460242214024065,2026-04-11T19:13:21.155-05:00
1775952801165451800,3.51945166015625,7.823589931133389,5.090671864429116,3.0078000067234036,2026-04-11T19:13:21.165-05:00
1775952801175508700,3.5295087890625,7.918912007337808,4.851427054980397,3.1503803854480386,2026-04-11T19:13:21.175-05:00
1775952801185565700,3.539565673828125,7.992343738773465,4.645777056619525,3.2725513056114313,2026-04-11T19:13:21.185-05:00
1775952801195622700,3.54962255859375,8.04865716214776,4.478173295797407,3.3668136436298486,2026-04-11T19:13:21.195-05:00
1775952801205678800,3.559678955078125,8.096219708311557,4.347862323798239,3.4231180069148537,2026-04-11T19:13:21.205-05:00
1775952801215735800,3.56973583984375,8.137378817173838,4.251873308117688,3.4460116835072636,2026-04-11T19:13:21.215-05:00
1775952801225792800,3.579792724609375,8.182453053653239,4.172360210941732,3.4364641029611227,2026-04-11T19:13:21.225-05:00
1775952801235849700,3.589849609375,8.229179148992895,4.095138147312403,3.417722869873047,2026-04-11T19:13:21.235-05:00
1775952801245906700,3.59990673828125,8.271092291092872,4.0139784519732,3.4128219460889695,2026-04-11T19:13:21.245-05:00
1775952801255962600,3.609962646484375,8.310087499919533,3.9278745782300826,3.4182793347120284,2026-04-11T19:13:21.255-05:00
1775952801266019600,3.62001953125,8.346299215507507,3.8451673611879347,3.4240827602937816,2026-04-11T19:13:21.266-05:00
1775952801276076500,3.63007666015625,8.377706161162257,3.7677506517693398,3.433434818267822,2026-04-11T19:13:21.276-05:00
1775952801286133800,3.6401337890625,8.402620822188258,3.6914924647361036,3.4553196100786328,2026-04-11T19:13:21.286-05:00
1775952801296189700,3.650189697265625,8.42218126270473,3.6134018015787004,3.4900703132033346,2026-04-11T19:13:21.296-05:00
1775952801306247000,3.660246826171875,8.437215750229358,3.535682017560303,3.533095800459385,2026-04-11T19:13:21.306-05:00
1775952801316304000,3.670303955078125,8.448274319860339,3.45437385366112,3.5866891512200234,2026-04-11T19:13:21.316-05:00
1775952801326360800,3.68036083984375,8.458402330642938,3.359447206515074,3.652392626491189,2026-04-11T19:13:21.326-05:00
1775952801336417800,3.690417724609375,8.468445001229643,3.241123609429598,3.7350928292706604,2026-04-11T19:13:21.336-05:00
1775952801346473700,3.7004736328125,8.47609931537509,3.0886689024224876,3.8452942024379966,2026-04-11T19:13:21.346-05:00
1775952801356530700,3.71053076171875,8.481016898033022,2.903672400511801,3.9763627148061986,2026-04-11T19:13:21.356-05:00
1775952801366587600,3.720587646484375,8.480045422652363,2.696718626075983,4.121521711847186,2026-04-11T19:13:21.366-05:00
1775952801376644600,3.73064453125,8.471209205245971,2.4761899152740834,4.275223496305943,2026-04-11T19:13:21.376-05:00
1775952801386700800,3.74070068359375,8.452848788169026,2.2458844913452864,4.435738467910886,2026-04-11T19:13:21.386-05:00
1775952801396757800,3.7507578125,8.42266641587317,2.013633194045722,4.601555637577176,2026-04-11T19:13:21.396-05:00
1775952801406814700,3.760814697265625,8.373931318798661,1.789965600696206,4.7795051435858005,2026-04-11T19:13:21.406-05:00
1775952801416871700,3.77087158203125,8.311758648002147,1.5883166546702383,4.9560348459243775,2026-04-11T19:13:21.416-05:00
1775952801426927600,3.780927734375,8.24306680456996,1.4213698964521289,5.118782691147923,2026-04-11T19:13:21.426-05:00
1775952801436984600,3.790984619140625,8.179072763565182,1.2923721990086137,5.253848748719692,2026-04-11T19:13:21.436-05:00
1775952801447041800,3.801041748046875,8.113727892473339,1.2331097165703773,5.368168370860815,2026-04-11T19:13:21.447-05:00
1775952801457098800,3.8110986328125,8.056157162514328,1.247241410036385,5.450971157231926,2026-04-11T19:13:21.457-05:00
1775952801467155700,3.82115576171875,7.985808784046768,1.3205354865670202,5.536551591622829,2026-04-11T19:13:21.467-05:00
1775952801477211600,3.831211669921875,7.892799660959839,1.4521598792523145,5.636074626648425,2026-04-11T19:13:21.477-05:00
1775952801487268900,3.841268798828125,7.783698650249838,1.65710947425887,5.730481926095486,2026-04-11T19:13:21.487-05:00
1775952801497325800,3.851325927734375,7.65010500331819,1.9394993056900798,5.821047163161635,2026-04-11T19:13:21.497-05:00
1775952801507382800,3.8613828125,7.484196648237109,2.292190169315785,5.907879058918357,2026-04-11T19:13:21.507-05:00
1775952801517438700,3.871438720703125,7.286463998872041,2.7141926157072187,5.975865968951583,2026-04-11T19:13:21.517-05:00
1775952801527495700,3.88149560546875,7.049491810530424,3.1900740979328748,6.024819677212834,2026-04-11T19:13:21.527-05:00
1775952801537552600,3.891552734375,6.7483513936609025,3.6869887235760688,6.085739133077859,2026-04-11T19:13:21.537-05:00
1775952801547609600,3.901609619140625,6.3668129134744404,4.17942211215198,6.177903037512302,2026-04-11T19:13:21.547-05:00
1775952801557665500,3.91166552734375,5.90880494159162,4.638175057183206,6.304262641537189,2026-04-11T19:13:21.557-05:00
1775952801567722500,3.921722412109375,5.393863953131437,5.0479953367412085,6.449370200651884,2026-04-11T19:13:21.567-05:00
1775952801577779700,3.93177978515625,4.839120238853991,5.41232198536396,6.59242374984622,2026-04-11T19:13:21.577-05:00
1775952801587836700,3.941836669921875,4.253050242942571,5.729014191630482,6.727581577354669,2026-04-11T19:13:21.587-05:00
1775952801597894000,3.951893798828125,3.6385049709141253,5.989226970306039,6.860089767137169,2026-04-11T19:13:21.597-05:00
1775952801607949800,3.96194970703125,3.0043071961715815,6.182004043090343,6.994809203228354,2026-04-11T19:13:21.607-05:00
1775952801618006800,3.9720068359375,2.363267008188367,6.299793387168646,7.134280217760801,2026-04-11T19:13:21.618-05:00
1775952801628063700,3.982063720703125,1.7223158136628567,6.333867506206035,7.286022684845328,2026-04-11T19:13:21.628-05:00
1775952801638120700,3.99212060546875,1.08630514427945,6.281329509717225,7.452195828342437,2026-04-11T19:13:21.638-05:00
1775952801648176600,4.0021767578125,0.4556475994270295,6.148987908673286,7.625794153404235,2026-04-11T19:13:21.648-05:00
1775952801658233600,4.012233642578125,-0.16345933622745795,5.947848665735125,7.795303747847676,2026-04-11T19:13:21.658-05:00
1775952801668290600,4.02229052734375,-0.7640384258162229,5.697714798003434,7.9449787610083815,2026-04-11T19:13:21.668-05:00
1775952801678347500,4.032347412109375,-1.3599677716366947,5.462037325647473,8.03038033170104,2026-04-11T19:13:21.678-05:00
1775952801688404700,4.04240478515625,-1.9859290484316645,5.326068766278028,7.991211519873142,2026-04-11T19:13:21.688-05:00
1775952801698460700,4.052460693359375,-2.6451947750657796,5.33410243512988,7.792347236129641,2026-04-11T19:13:21.698-05:00
1775952801708517600,4.062517578125,-3.289783010919392,5.449072630134225,7.46024820189476,2026-04-11T19:13:21.708-05:00
1775952801718574800,4.072574951171875,-3.8546310628429055,5.585668966013193,7.079018933787942,2026-04-11T19:13:21.718-05:00
1775952801728631800,4.0826318359375,-4.307144236701727,5.686598945227265,6.729152187672257,2026-04-11T19:13:21.728-05:00
1775952801738687700,4.092687744140625,-4.648296053703129,5.730833223751187,6.459200105270743,2026-04-11T19:13:21.738-05:00
1775952801748744700,4.10274462890625,-4.903415016371011,5.720863033878803,6.276833367341756,2026-04-11T19:13:21.748-05:00
1775952801758801700,4.1128017578125,-5.101721666231751,5.66805148114562,6.165714002546668,2026-04-11T19:13:21.758-05:00
1775952801768858600,4.122858642578125,-5.265495347371697,5.591505417081714,6.097540630030632,2026-04-11T19:13:21.768-05:00
1775952801778915600,4.13291552734375,-5.415793460866809,5.507780255168676,6.041846799859404,2026-04-11T19:13:21.778-05:00
1775952801788971800,4.1429716796875,-5.570177382370829,5.42146040058732,5.979236906689405,2026-04-11T19:13:21.788-05:00
1775952801799028700,4.15302880859375,-5.833138582971691,5.295890485635399,5.839384783884882,2026-04-11T19:13:21.799-05:00
1775952801809085700,4.163085693359375,-6.344865285560489,5.060101954120397,5.50531065018475,2026-04-11T19:13:21.809-05:00
1775952801819142700,4.173142578125,-6.974654303950071,4.733661676299572,5.011689513128996,2026-04-11T19:13:21.819-05:00
1775952801829198600,4.183198486328125,-7.572415029916167,4.369351978811621,4.442710645011067,2026-04-11T19:13:21.829-05:00
1775952801839255600,4.193255615234375,-8.05997584401965,4.003381946896017,3.8961654347583647,2026-04-11T19:13:21.839-05:00
1775952801849312500,4.2033125,-8.420272214213012,3.6422193152621385,3.464626952128112,2026-04-11T19:13:21.849-05:00
1775952801859369700,4.21336962890625,-8.65469237998426,3.2969694152921436,3.2243887477278705,2026-04-11T19:13:21.859-05:00
1775952801869426700,4.2234267578125,-8.774644455054402,2.990841565398872,3.198572461687028,2026-04-11T19:13:21.869-05:00
1775952801879483000,4.23348291015625,-8.800224301990866,2.739854295708239,3.3495722937107084,2026-04-11T19:13:21.879-05:00
1775952801889539800,4.243539794921875,-8.75107185628712,2.5451766499996182,3.6209386268243193,2026-04-11T19:13:21.889-05:00
1775952801899596800,4.2535966796875,-8.642284149309992,2.40099511968866,3.9644083653792737,2026-04-11T19:13:21.899-05:00
1775952801909653800,4.26365380859375,-8.490620008158682,2.300472552231699,4.334464497564733,2026-04-11T19:13:21.909-05:00
1775952801919709700,4.273709716796875,-8.321344806993007,2.2393974674135446,4.6808878252282735,2026-04-11T19:13:21.919-05:00
1775952801929766700,4.2837666015625,-8.143450246042013,2.2126899316214024,4.995858906790613,2026-04-11T19:13:21.929-05:00
1775952801939823600,4.29382373046875,-7.944056969988345,2.2148998627558347,5.3062751015275715,2026-04-11T19:13:21.939-05:00
1775952801949880600,4.303880615234375,-7.719002013933658,2.248137092577666,5.615449187248945,2026-04-11T19:13:21.949-05:00
1775952801959936800,4.313936767578125,-7.471800108000636,2.316092876820266,5.914245086818934,2026-04-11T19:13:21.959-05:00
1775952801969993700,4.32399365234375,-7.208747721984982,2.4237125629313288,6.191119077438116,2026-04-11T19:13:21.969-05:00
1775952801980050700,4.33405078125,-6.940235901519656,2.5732038900882004,6.432894866669177,2026-04-11T19:13:21.980-05:00
1775952801990107600,4.344107666015625,-6.6762436043053865,2.7587174016103146,6.632317953339219,2026-04-11T19:13:21.990-05:00
1775952802000164600,4.35416455078125,-6.425650886890292,2.9630910964250563,6.789808024165034,2026-04-11T19:13:22.000-05:00
1775952802010220500,4.364220458984375,-6.200998666417599,3.1667364769652484,6.905778920644521,2026-04-11T19:13:22.010-05:00
1775952802020277500,4.374277587890625,-6.017095220440626,3.3526012861430643,6.980330596020817,2026-04-11T19:13:22.020-05:00
1775952802030334500,4.38433447265625,-5.896443472668528,3.5061893810942766,7.0077797439605,2026-04-11T19:13:22.030-05:00
1775952802040391400,4.394391357421875,-5.859153314194083,3.6177728562697764,6.982294589570165,2026-04-11T19:13:22.040-05:00
1775952802050447600,4.404447509765625,-5.909622103193402,3.6817955388471484,6.905876535800099,2026-04-11T19:13:22.050-05:00
1775952802060504600,4.414504638671875,-6.041378597825766,3.6964950953289866,6.782923525348306,2026-04-11T19:13:22.060-05:00
1775952802070561500,4.4245615234375,-6.219594061294198,3.6638147687375544,6.638033408376574,2026-04-11T19:13:22.070-05:00
1775952802080618800,4.43461865234375,-6.404381304368377,3.590102466794848,6.5011880661726,2026-04-11T19:13:22.080-05:00
1775952802090675700,4.44467578125,-6.56165159496367,3.4813965928822754,6.40273295263946,2026-04-11T19:13:22.090-05:00
1775952802100731600,4.454731689453125,-6.658326254820823,3.353823229153454,6.370945483234524,2026-04-11T19:13:22.100-05:00
1775952802110788600,4.46478857421875,-6.684997988647222,3.231119517287612,6.406329515826702,2026-04-11T19:13:22.110-05:00
1775952802120845600,4.474845458984375,-6.6593199420332905,3.136630384775996,6.479613363224267,2026-04-11T19:13:22.120-05:00
1775952802130902500,4.484902587890625,-6.615480800306797,3.0858883317932486,6.5485179726243015,2026-04-11T19:13:22.130-05:00
1775952802140958700,4.494958740234375,-6.58472033586204,3.081392481678724,6.581555149829387,2026-04-11T19:13:22.140-05:00
1775952802151015700,4.505015625,-6.577481032258272,3.114317138420045,6.5732911793529984,2026-04-11T19:13:22.151-05:00
1775952802161072600,4.51507275390625,-6.579408785450458,3.16550255125612,6.546858514979482,2026-04-11T19:13:22.161-05:00
1775952802171129600,4.525129638671875,-6.573159661927819,3.2132202879816294,6.529868217211962,2026-04-11T19:13:22.171-05:00
1775952802181186600,4.5351865234375,-6.54975248285532,3.242897925625741,6.538711448881029,2026-04-11T19:13:22.181-05:00
1775952802191242500,4.545242431640625,-6.504447360229491,3.2506393335327504,6.579961743158101,2026-04-11T19:13:22.191-05:00
1775952802201299500,4.555299560546875,-6.434719744008779,3.239215145459771,6.653739511552453,2026-04-11T19:13:22.201-05:00
1775952802211356700,4.565356689453125,-6.338014104491472,3.2154335801169274,6.75728873335421,2026-04-11T19:13:22.211-05:00
1775952802221413600,4.57541357421875,-6.214296539407968,3.187908736592531,6.884049319395422,2026-04-11T19:13:22.221-05:00
1775952802231469600,4.585469482421875,-6.068361881819367,3.165637575812638,7.023112922170758,2026-04-11T19:13:22.231-05:00
1775952802241526500,4.595526611328125,-5.9094660358488555,3.155270787838101,7.161904137745499,2026-04-11T19:13:22.241-05:00
1775952802251583700,4.605583740234375,-5.751638695892691,3.1595272762387987,7.287416185030341,2026-04-11T19:13:22.251-05:00
1775952802261640700,4.615640625,-5.613318020439148,3.171640031097829,7.389300103968382,2026-04-11T19:13:22.261-05:00
1775952802271696600,4.625696533203125,-5.5080263388842345,3.175100400684774,7.4666446249336,2026-04-11T19:13:22.271-05:00
1775952802281753600,4.635753662109375,-5.441119040781259,3.155100984229147,7.52395758073926,2026-04-11T19:13:22.281-05:00
1775952802291810600,4.645810546875,-5.41235881024301,3.1117335516676303,7.562662282186746,2026-04-11T19:13:22.291-05:00
1775952802301867500,4.655867431640625,-5.413810762616992,3.053203036765754,7.5854463609248395,2026-04-11T19:13:22.301-05:00
1775952802311924500,4.665924560546875,-5.435715135911106,2.9880431668519973,7.59572167122364,2026-04-11T19:13:22.311-05:00
1775952802321980400,4.67598046875,-5.46961506742537,2.9228415036231277,7.596754521402716,2026-04-11T19:13:22.321-05:00
1775952802332037400,4.686037353515625,-5.508849930226803,2.8628768642649054,7.591238388329744,2026-04-11T19:13:22.332-05:00
1775952802342094600,4.696094482421875,-5.546984138309956,2.813115346752107,7.5820666553586715,2026-04-11T19:13:22.342-05:00
1775952802352151800,4.70615185546875,-5.576410723802447,2.7759228034332395,7.574184962198138,2026-04-11T19:13:22.352-05:00
1775952802362207500,4.71620751953125,-5.588978528952598,2.750852367323637,7.574068057820201,2026-04-11T19:13:22.362-05:00
1775952802372264700,4.7262646484375,-5.579931299144029,2.737690687933564,7.585498967894911,2026-04-11T19:13:22.372-05:00
1775952802382321700,4.73632177734375,-5.551259331411123,2.7368971994683147,7.606792515814304,2026-04-11T19:13:22.382-05:00
1775952802392378600,4.746378662109375,-5.510519909265637,2.747972427973151,7.632377623447775,2026-04-11T19:13:22.392-05:00
1775952802402435600,4.756435546875,-5.468637162303924,2.7677421273261307,7.655324783793091,2026-04-11T19:13:22.402-05:00
1775952802412491500,4.766491455078125,-5.4380760198235505,2.789905736078322,7.669037667325139,2026-04-11T19:13:22.412-05:00
1775952802422548500,4.776548583984375,-5.429477118304371,2.80998552429378,7.667799649962783,2026-04-11T19:13:22.422-05:00
1775952802432605400,4.78660546875,-5.44768205255866,2.8289634887471795,7.647883235615492,2026-04-11T19:13:22.432-05:00
1775952802442662700,4.79666259765625,-5.4899400625735515,2.848673859128356,7.610256977054476,2026-04-11T19:13:22.442-05:00
1775952802452718600,4.806718505859375,-5.547116240257025,2.8690476618543266,7.560982366275787,2026-04-11T19:13:22.452-05:00
1775952802462775600,4.816775634765625,-5.608036280643939,2.887745640322566,7.508743644994497,2026-04-11T19:13:22.462-05:00
1775952802472832500,4.82683251953125,-5.662448838832974,2.9021102657616136,7.46222563944757,2026-04-11T19:13:22.472-05:00
1775952802482889500,4.836889404296875,-5.7038359112322325,2.912017035008967,7.426761527356505,2026-04-11T19:13:22.482-05:00
1775952802492946700,4.84694677734375,-5.7304556226104495,2.9191303741455075,7.403441442045569,2026-04-11T19:13:22.492-05:00
1775952802503002600,4.857002685546875,-5.745657283395529,2.923982782612741,7.38973206564486,2026-04-11T19:13:22.503-05:00
1775952802513059600,4.8670595703125,-5.75581744288206,2.926463493512571,7.3808373960494995,2026-04-11T19:13:22.513-05:00
1775952802523116500,4.877116455078125,-5.765652023676037,2.927010898262262,7.372939920797943,2026-04-11T19:13:22.523-05:00
1775952802533173500,4.887173583984375,-5.779662428849935,2.924551230150461,7.362940504831076,2026-04-11T19:13:22.533-05:00
1775952802543229700,4.897229736328125,-5.802114499154687,2.917641012370586,7.348007724115252,2026-04-11T19:13:22.543-05:00
1775952802553286700,4.90728662109375,-5.835459134873748,2.9067089917287228,7.325902275291085,2026-04-11T19:13:22.553-05:00
1775952802563343600,4.917343505859375,-5.87771539132297,2.894334371063113,7.296963765576481,2026-04-11T19:13:22.563-05:00
1775952802573400600,4.927400634765625,-5.922097553884983,2.8836083943873643,7.2652563756704325,2026-04-11T19:13:22.573-05:00
1775952802583456500,4.93745654296875,-5.960527530044317,2.877256687273085,7.236290393427014,2026-04-11T19:13:22.583-05:00
1775952802593513500,4.947513427734375,-5.986079904451966,2.877780711147189,7.214957682541012,2026-04-11T19:13:22.593-05:00
1775952802603570400,4.9575703125,-5.9964154205054045,2.8853233816117045,7.2033537539869545,2026-04-11T19:13:22.603-05:00
1775952802613627400,4.96762744140625,-5.991832184368372,2.898944787468016,7.201697803473472,2026-04-11T19:13:22.613-05:00
1775952802623684600,4.9776845703125,-5.975705225431919,2.9158710800886154,7.208260815250873,2026-04-11T19:13:22.623-05:00
1775952802633740500,4.987740478515625,-5.954896246159076,2.93380362714231,7.2181982718974345,2026-04-11T19:13:22.633-05:00
1775952802643797800,4.9977978515625,-5.936788342538476,2.9511025524675842,7.22605892226994,2026-04-11T19:13:22.643-05:00
1775952802653854700,5.007854736328125,-5.925789394140243,2.965055966757238,7.2293737459063525,2026-04-11T19:13:22.653-05:00
1775952802663911700,5.01791162109375,-5.921325400468707,2.9726655649781226,7.229906829869747,2026-04-11T19:13:22.663-05:00
1775952802673967600,5.027967529296875,-5.916478544959426,2.973901536513865,7.233365445891022,2026-04-11T19:13:22.673-05:00
1775952802684024600,5.038024658203125,-5.904584693548083,2.9715915060058236,7.244026540637016,2026-04-11T19:13:22.684-05:00
1775952802694081500,5.04808154296875,-5.884095447748899,2.970318709591031,7.261198624712228,2026-04-11T19:13:22.694-05:00
1775952802704138500,5.058138427734375,-5.858350181117654,2.9721807040706274,7.28122609821856,2026-04-11T19:13:22.704-05:00
1775952802714194700,5.068194580078125,-5.835959485611319,2.9759552541732788,7.297647656187415,2026-04-11T19:13:22.714-05:00
1775952802724251600,5.078251708984375,-5.825139400911331,2.979097059330344,7.3050062022566795,2026-04-11T19:13:22.724-05:00
1775952802734308600,5.08830859375,-5.829305872941017,2.979560292927921,7.301493810221553,2026-04-11T19:13:22.734-05:00
1775952802744365600,5.098365478515625,-5.8474324812620875,2.975931873297691,7.288466570866108,2026-04-11T19:13:22.744-05:00
1775952802754422500,5.108422607421875,-5.8762704532116645,2.968216476614773,7.268392335608601,2026-04-11T19:13:22.754-05:00
1775952802764478500,5.118478515625,-5.911867251771688,2.9581992327302693,7.243567106431723,2026-04-11T19:13:22.764-05:00
1775952802774535400,5.128535400390625,-5.951106790748238,2.948448823088407,7.215355157425999,2026-04-11T19:13:22.774-05:00
1775952802784592600,5.138592529296875,-5.992406184864044,2.941205720092356,7.1840627780616275,2026-04-11T19:13:22.784-05:00
1775952802794649600,5.148649658203125,-6.036773149856924,2.9363106415271756,7.148834228292107,2026-04-11T19:13:22.794-05:00
1775952802804705800,5.158705810546875,-6.087090547686815,2.931507332898676,7.1080223254323,2026-04-11T19:13:22.804-05:00
1775952802814762800,5.1687626953125,-6.14722674421966,2.924137388652563,7.059135837188363,2026-04-11T19:13:22.814-05:00
1775952802824819700,5.17881982421875,-6.218575239640474,2.912876574447751,7.001060664838552,2026-04-11T19:13:22.824-05:00
1775952802834876700,5.188876708984375,-6.295894041642546,2.898670646701753,6.937565221005678,2026-04-11T19:13:22.834-05:00
1775952802844933600,5.19893359375,-6.3672331847131245,2.8825939566478134,6.878908449375629,2026-04-11T19:13:22.844-05:00
1775952802854989600,5.208989501953125,-6.419307070821524,2.8664839488461613,6.837116303306818,2026-04-11T19:13:22.854-05:00
1775952802865046500,5.219046630859375,-6.4457321364104745,2.8535812126532196,6.817623667329549,2026-04-11T19:13:22.865-05:00
1775952802875103500,5.229103515625,-6.451324257329106,2.8473689140096305,6.814931359505653,2026-04-11T19:13:22.875-05:00
1775952802885160400,5.239160400390625,-6.44820232591629,2.8481673709109425,6.817552355659007,2026-04-11T19:13:22.885-05:00
1775952802895216600,5.249216552734375,-6.446097462591529,2.8534499874889847,6.817333744472265,2026-04-11T19:13:22.895-05:00
1775952802905273600,5.259273681640625,-6.44721331487894,2.8597487953722474,6.813637228041887,2026-04-11T19:13:22.905-05:00
1775952802915330600,5.26933056640625,-6.449834311032295,2.865214075040817,6.808859346115589,2026-04-11T19:13:22.915-05:00
1775952802925387800,5.2793876953125,-6.451309059759974,2.8700118307113645,6.805440477582812,2026-04-11T19:13:22.925-05:00
1775952802935444700,5.28944482421875,-6.449605178451538,2.876350386083126,6.80438015487492,2026-04-11T19:13:22.935-05:00
1775952802945500700,5.299500732421875,-6.441947941696643,2.8854858786970374,6.807765121138096,2026-04-11T19:13:22.945-05:00
1775952802955557600,5.3095576171875,-6.424862366861104,2.89665258487761,6.819159206333756,2026-04-11T19:13:22.955-05:00
1775952802965614800,5.31961474609375,-6.395819227728247,2.9088243764474986,6.841244196891784,2026-04-11T19:13:22.965-05:00
1775952802975672000,5.329672119140625,-6.354016560265421,2.9211165795266627,6.8748764173805705,2026-04-11T19:13:22.975-05:00
1775952802985727700,5.339727783203125,-6.300529300227761,2.9333345483258366,6.91876232085824,2026-04-11T19:13:22.985-05:00
1775952802995785000,5.349784912109375,-6.23963848593533,2.945272823400795,6.9686921806752675,2026-04-11T19:13:22.995-05:00
1775952803005842000,5.359842041015625,-6.177575120732188,2.9560198428645728,7.019252155089378,2026-04-11T19:13:23.005-05:00
1775952803015899000,5.36989892578125,-6.121482646632194,2.9640400677129626,7.064863567185402,2026-04-11T19:13:23.015-05:00
1775952803025955000,5.379955078125,-6.077599081242084,2.9680180314332243,7.100989358055591,2026-04-11T19:13:23.025-05:00
1775952803036012000,5.390011962890625,-6.0494473379909985,2.967898204445839,7.125037173119187,2026-04-11T19:13:23.036-05:00
1775952803046069000,5.400069091796875,-6.03775163950026,2.9643069019556045,7.1364429487526415,2026-04-11T19:13:23.046-05:00
1775952803056126000,5.4101259765625,-6.041327159899473,2.958537378643453,7.135811665111779,2026-04-11T19:13:23.056-05:00
1775952803066183000,5.420182861328125,-6.056900576606393,2.9516335906043647,7.125461536011099,2026-04-11T19:13:23.066-05:00
1775952803076238800,5.43023876953125,-6.079439156150817,2.9430238754302263,7.109811546936631,2026-04-11T19:13:23.076-05:00
1775952803086295800,5.4402958984375,-6.106516548168659,2.93247004045099,7.090942011293769,2026-04-11T19:13:23.086-05:00
1775952803096352800,5.450352783203125,-6.1325663507044315,2.921382244725525,7.073014724937081,2026-04-11T19:13:23.096-05:00
1775952803106409700,5.46040966796875,-6.1515340860247605,2.911615176209807,7.060559732511639,2026-04-11T19:13:23.106-05:00
1775952803116466000,5.4704658203125,-6.160647951328754,2.9034815541148182,7.0559612988054745,2026-04-11T19:13:23.116-05:00
1775952803126523100,5.480523193359375,-6.163800277879834,2.896568998247385,7.056049561610817,2026-04-11T19:13:23.126-05:00
1775952803136580000,5.490580078125,-6.168480544650555,2.890409014312923,7.054485965555906,2026-04-11T19:13:23.136-05:00
1775952803146637000,5.500636962890625,-6.180007900837063,2.885022352838516,7.046596673610806,2026-04-11T19:13:23.146-05:00
1775952803156694000,5.510694091796875,-6.198895556658506,2.8816090372636913,7.031387414041161,2026-04-11T19:13:23.156-05:00
1775952803166750000,5.52075,-6.222825882822275,2.880707119987905,7.010588371640443,2026-04-11T19:13:23.166-05:00
1775952803176807000,5.530806884765625,-6.249089035847783,2.882361024674773,6.986505485263466,2026-04-11T19:13:23.176-05:00
1775952803186863900,5.54086376953125,-6.275730374535918,2.885346762487292,6.961348247653246,2026-04-11T19:13:23.186-05:00
1775952803196920800,5.5509208984375,-6.301852657786012,2.887325953605771,6.936886591091752,2026-04-11T19:13:23.196-05:00
1775952803206977000,5.56097705078125,-6.327521936571598,2.8855978146389125,6.914200712031126,2026-04-11T19:13:23.206-05:00
1775952803217034000,5.571033935546875,-6.354599913111329,2.8778026307180524,6.892582754462957,2026-04-11T19:13:23.217-05:00
1775952803227091000,5.581091064453125,-6.385133583062887,2.862519721390307,6.870694163259864,2026-04-11T19:13:23.227-05:00
1775952803237148000,5.59114794921875,-6.4191901664435855,2.839754347352683,6.848370687770843,2026-04-11T19:13:23.237-05:00
1775952803247203800,5.601203857421875,-6.454556663379073,2.8103450052559373,6.82722853102088,2026-04-11T19:13:23.247-05:00
1775952803257260800,5.6112607421875,-6.48727293806672,2.776007559107244,6.810246416559815,2026-04-11T19:13:23.257-05:00
1775952803267318000,5.621318115234375,-6.513748857060074,2.7390044008806345,6.799950063472986,2026-04-11T19:13:23.267-05:00
1775952803277375000,5.631375,-6.532464078924059,2.702276260203123,6.796690769416093,2026-04-11T19:13:23.277-05:00
1775952803287432000,5.641431884765625,-6.542412641486525,2.667991713285446,6.800664349222183,2026-04-11T19:13:23.287-05:00
1775952803297488100,5.651488037109375,-6.542379323738813,2.6367089785322544,6.812886701935529,2026-04-11T19:13:23.297-05:00
1775952803307545000,5.661545166015625,-6.53401072384417,2.6077456266373393,6.83203856165111,2026-04-11T19:13:23.307-05:00
1775952803317602000,5.67160205078125,-6.518976236319541,2.5815681060686706,6.856299142682552,2026-04-11T19:13:23.317-05:00
1775952803327659000,5.681658935546875,-6.49807139545679,2.5591636742979285,6.884485372725129,2026-04-11T19:13:23.327-05:00
1775952803337715000,5.69171484375,-6.4748693835675715,2.540786598347127,6.91309304305017,2026-04-11T19:13:23.337-05:00
1775952803347772000,5.70177197265625,-6.453833025279641,2.5247455641284584,6.938593395009637,2026-04-11T19:13:23.347-05:00
1775952803357828900,5.711828857421875,-6.437891359782219,2.5083386192068455,6.959322879305481,2026-04-11T19:13:23.357-05:00
1775952803367885800,5.7218857421875,-6.428850559714436,2.4881580009654165,6.974907401928305,2026-04-11T19:13:23.367-05:00
1775952803377942800,5.73194287109375,-6.422119205632805,2.4655308663547038,6.98912881950438,2026-04-11T19:13:23.377-05:00
1775952803387999000,5.7419990234375,-6.410901061525941,2.443424540747702,7.007168334063887,2026-04-11T19:13:23.387-05:00
1775952803398056000,5.752055908203125,-6.3951031884133815,2.4206400236181915,7.0294766119837755,2026-04-11T19:13:23.398-05:00
1775952803408113200,5.762113037109375,-6.3766971786290405,2.395712795371562,7.0546917172610755,2026-04-11T19:13:23.408-05:00
1775952803418170000,5.772170166015625,-6.3559098266661165,2.368046789810806,7.082736493006348,2026-04-11T19:13:23.418-05:00
1775952803428226000,5.78222607421875,-6.3297448733180754,2.3378416211612523,7.116122629779577,2026-04-11T19:13:23.428-05:00
1775952803438283000,5.792282958984375,-6.295675430455804,2.3049032281555233,7.156973695605993,2026-04-11T19:13:23.438-05:00
1775952803448340000,5.802340087890625,-6.254287189012765,2.2687122630946335,7.20466717467308,2026-04-11T19:13:23.448-05:00
1775952803458397000,5.81239697265625,-6.207574537676573,2.23020147678405,7.256900635257363,2026-04-11T19:13:23.458-05:00
1775952803468452900,5.822452880859375,-6.159673553338647,2.19176930866763,7.30923814073801,2026-04-11T19:13:23.468-05:00
1775952803478510000,5.832510009765625,-6.114392980632186,2.1551123335301874,7.357993696078657,2026-04-11T19:13:23.478-05:00
1775952803488567000,5.842567138671875,-6.074723233544826,2.118905440247804,7.40124013260901,2026-04-11T19:13:23.488-05:00
1775952803498624000,5.8526240234375,-6.044111822181939,2.076160523498803,7.438323370334506,2026-04-11T19:13:23.498-05:00
1775952803508681000,5.862680908203125,-6.020680093190074,2.021799403236061,7.472223301848769,2026-04-11T19:13:23.508-05:00
1775952803518737000,5.87273681640625,-6.002936931228637,1.9575323905088007,7.503545491829514,2026-04-11T19:13:23.518-05:00
1775952803528793900,5.8827939453125,-5.994734335550666,1.8897367652639745,7.527446007376909,2026-04-11T19:13:23.528-05:00
1775952803538850800,5.892850830078125,-5.99761661298871,1.8239225230947136,7.541371656876802,2026-04-11T19:13:23.538-05:00
1775952803548908000,5.902907958984375,-6.010220073974132,1.7626906402796505,7.545897609868645,2026-04-11T19:13:23.548-05:00
1775952803558964000,5.9129638671875,-6.029896834346651,1.7063571970306335,7.54314743437767,2026-04-11T19:13:23.558-05:00
1775952803569021000,5.92302099609375,-6.053700319260359,1.6544325101345776,7.535645680445432,2026-04-11T19:13:23.569-05:00
1775952803579078000,5.933077880859375,-6.0818076388478275,1.603959044960141,7.523916664206981,2026-04-11T19:13:23.579-05:00
1775952803589135000,5.943135009765625,-6.119897423267364,1.5506455340541898,7.504182036167383,2026-04-11T19:13:23.589-05:00
1775952803599192000,5.953192138671875,-6.171704767394066,1.494304199759662,7.4731187893837685,2026-04-11T19:13:23.599-05:00
1775952803609248000,5.963248046875,-6.239151579201221,1.437700415136665,7.428081377783418,2026-04-11T19:13:23.609-05:00
1775952803619305000,5.973304931640625,-6.3222302599042655,1.383450207902491,7.3678931588023895,2026-04-11T19:13:23.619-05:00
1775952803629362000,5.98336181640625,-6.409685840517282,1.3346680568158626,7.3010256081879135,2026-04-11T19:13:23.629-05:00
1775952803639419000,5.9934189453125,-6.497246050548553,1.2938408102564514,7.230639820319413,2026-04-11T19:13:23.639-05:00
1775952803649474800,6.003474853515625,-6.5791667933881275,1.2626261723034082,7.16175450014174,2026-04-11T19:13:23.649-05:00
1775952803659531800,6.01353173828125,-6.654121204346418,1.2392732076361774,7.096285125887394,2026-04-11T19:13:23.659-05:00
1775952803669588700,6.023588623046875,-6.72274933489263,1.2194740629930048,7.03476419699788,2026-04-11T19:13:23.669-05:00
1775952803679646000,6.03364599609375,-6.790977652466297,1.1982027269054203,6.972611399945617,2026-04-11T19:13:23.679-05:00
1775952803689703000,6.043702880859375,-6.861323108324408,1.1672488587804137,6.908702114614844,2026-04-11T19:13:23.689-05:00
1775952803699759000,6.053759033203125,-6.9235670907914635,1.1212841032020746,6.854000802612305,2026-04-11T19:13:23.699-05:00
1775952803709816000,6.063816162109375,-6.955977660530805,1.0654505722992123,6.830049433660506,2026-04-11T19:13:23.709-05:00
1775952803719873000,6.073873046875,-6.9569818691372864,1.0064248212262987,6.837974381440877,2026-04-11T19:13:23.719-05:00
1775952803729930000,6.083929931640625,-6.9427423313826315,0.948919703849405,6.860631618928909,2026-04-11T19:13:23.729-05:00
1775952803739986000,6.09398583984375,-6.920908685237169,0.8958891746032982,6.889760098257661,2026-04-11T19:13:23.739-05:00
1775952803750043000,6.10404296875,-6.895518807914852,0.846633999177441,6.92137338013947,2026-04-11T19:13:23.750-05:00
1775952803760099800,6.114099853515625,-6.878536108931899,0.8018868757605552,6.94356533820331,2026-04-11T19:13:23.760-05:00
1775952803770156800,6.12415673828125,-6.887849880722165,0.7562466759614646,6.939452642187476,2026-04-11T19:13:23.770-05:00
1775952803780213800,6.1342138671875,-6.925879459387064,0.7026854739047587,6.907157223260402,2026-04-11T19:13:23.780-05:00
1775952803790270000,6.14427001953125,-6.988187739261984,0.6391764399379491,6.8503340967983,2026-04-11T19:13:23.790-05:00
1775952803800327000,6.154326904296875,-7.076278695169091,0.5678348126493394,6.765665516555309,2026-04-11T19:13:23.800-05:00
1775952803810384000,6.1643837890625,-7.195837387007474,0.4916556456690654,6.644440352809429,2026-04-11T19:13:23.810-05:00
1775952803820441000,6.174441162109375,-7.346096922057867,0.4222280353082344,6.482821219354868,2026-04-11T19:13:23.820-05:00
1775952803830496800,6.184496826171875,-7.505891178172826,0.36976898580715056,6.300417656546831,2026-04-11T19:13:23.830-05:00
1775952803840554000,6.194553955078125,-7.658664157348871,0.33338823379520327,6.115889941191673,2026-04-11T19:13:23.840-05:00
1775952803850611000,6.20461083984375,-7.794768910318613,0.3051191660410724,5.942967907956242,2026-04-11T19:13:23.850-05:00
1775952803860668000,6.21466796875,-7.909867115616798,0.2791163627184927,5.790205450174212,2026-04-11T19:13:23.860-05:00
1775952803870724000,6.22472412109375,-8.005340582990646,0.25389802430449054,5.658661721509695,2026-04-11T19:13:23.870-05:00
1775952803880781000,6.234781005859375,-8.085852043554187,0.22899328188430518,5.544090170434117,2026-04-11T19:13:23.880-05:00
1775952803890838000,6.244838134765625,-8.161540029484033,0.20338128624390808,5.433073096969723,2026-04-11T19:13:23.890-05:00
1775952803900895000,6.25489501953125,-8.237869235926865,0.17618609479898587,5.31759904409647,2026-04-11T19:13:23.900-05:00
1775952803910952000,6.264951904296875,-8.315112050083279,0.14913227545297703,5.196830976468324,2026-04-11T19:13:23.910-05:00
1775952803921007900,6.2750078125,-8.390856734636426,0.12356779048242605,5.074311681258678,2026-04-11T19:13:23.921-05:00
1775952803931064800,6.28506494140625,-8.460305533915758,0.09901237295656465,4.958206929266453,2026-04-11T19:13:23.931-05:00
1775952803941121800,6.295121826171875,-8.520942665708064,0.07510448695346712,4.85368769338876,2026-04-11T19:13:23.941-05:00
1775952803951178800,6.3051787109375,-8.576673905280233,0.05182102559218183,4.754825168098509,2026-04-11T19:13:23.951-05:00
1775952803961234700,6.315234619140625,-8.632095348250866,0.028898298718512523,4.653652320039272,2026-04-11T19:13:23.961-05:00
1775952803971291600,6.325291748046875,-8.688632058987022,0.006424788333510514,4.5473082068219774,2026-04-11T19:13:23.971-05:00
1775952803981348900,6.335348876953125,-8.746368793162704,-0.015720421678887212,4.4352194124728435,2026-04-11T19:13:23.981-05:00
1775952803991405800,6.34540576171875,-8.808748969230056,-0.03665227156286128,4.30987015453428,2026-04-11T19:13:23.991-05:00
1775952804001462800,6.355462890625,-8.876438357621431,-0.05478299437004607,4.168479277855158,2026-04-11T19:13:24.001-05:00
1775952804011518700,6.365518798828125,-8.946858047759532,-0.07005692124031483,4.014873062725365,2026-04-11T19:13:24.011-05:00
1775952804021575700,6.37557568359375,-9.016678018438816,-0.0852878537856508,3.855207985948026,2026-04-11T19:13:24.021-05:00
1775952804031632600,6.385632568359375,-9.084073976841568,-0.1019572399025783,3.693182025258243,2026-04-11T19:13:24.031-05:00
1775952804041689600,6.395689697265625,-9.150156514558196,-0.11734505264321342,3.5257983369275925,2026-04-11T19:13:24.041-05:00
1775952804051745800,6.405745849609375,-9.214445154595374,-0.12877353329882024,3.3537738370537755,2026-04-11T19:13:24.051-05:00
1775952804061802800,6.415802734375,-9.2753646104604,-0.13799569954918697,3.1810297907337546,2026-04-11T19:13:24.061-05:00
1775952804071859700,6.425859619140625,-9.331812473869324,-0.14837847967729903,3.01092135361433,2026-04-11T19:13:24.071-05:00
1775952804081916700,6.435916748046875,-9.381687388628722,-0.16251049280371516,2.850950571888685,2026-04-11T19:13:24.081-05:00
1775952804091973600,6.4459736328125,-9.422408690595626,-0.18067564303688705,2.7121856597989797,2026-04-11T19:13:24.091-05:00
1775952804102029600,6.456029541015625,-9.45478126641214,-0.19971675412068143,2.5956898626625535,2026-04-11T19:13:24.102-05:00
1775952804112086500,6.46608642578125,-9.48004664057195,-0.2200182770617306,2.500137777094543,2026-04-11T19:13:24.112-05:00
1775952804122143700,6.476143798828125,-9.499647997620702,-0.2415955007607117,2.4225407426729797,2026-04-11T19:13:24.122-05:00
1775952804132200700,6.48620068359375,-9.514302545917033,-0.2632076131099835,2.362022999476641,2026-04-11T19:13:24.132-05:00
1775952804142257000,6.4962568359375,-9.524853166025876,-0.2827725471384823,2.316808039352298,2026-04-11T19:13:24.142-05:00
1775952804152313900,6.50631396484375,-9.532608017936349,-0.29792631366122513,2.2827628541484475,2026-04-11T19:13:24.152-05:00
1775952804162370800,6.516370849609375,-9.539643907922505,-0.3087378131959587,2.251724449545145,2026-04-11T19:13:24.162-05:00
1775952804172427800,6.526427734375,-9.547139816635847,-0.3171837891757488,2.2185357350401578,2026-04-11T19:13:24.172-05:00
1775952804182484700,6.536484619140625,-9.554745615464448,-0.3241497191982344,2.1845237214535476,2026-04-11T19:13:24.182-05:00
1775952804192540700,6.546540771484375,-9.562351414293051,-0.3296848492326215,2.150145358772576,2026-04-11T19:13:24.192-05:00
1775952804202597600,6.55659765625,-9.569530512142181,-0.3369185998784378,2.1168255652338264,2026-04-11T19:13:24.202-05:00
1775952804212654600,6.566654541015625,-9.576663432762027,-0.34598595915958286,2.082834009913355,2026-04-11T19:13:24.212-05:00
1775952804222711600,6.576711669921875,-9.584294366031884,-0.3560925983605906,2.0456980190873146,2026-04-11T19:13:24.222-05:00
1775952804232767700,6.586767822265625,-9.591665187060832,-0.36766039615534246,2.008772748402506,2026-04-11T19:13:24.232-05:00
1775952804242824700,6.59682470703125,-9.598649054598807,-0.380632069398649,1.9726744300611316,2026-04-11T19:13:24.242-05:00
1775952804252882000,6.6068818359375,-9.605497313058375,-0.3945233782375231,1.936274936816096,2026-04-11T19:13:24.252-05:00
1775952804262939000,6.61693896484375,-9.611389293706416,-0.4083009975688532,1.9039087907403707,2026-04-11T19:13:24.262-05:00
1775952804272994800,6.626994873046875,-9.615611879837513,-0.42048966720830644,1.8797830881349742,2026-04-11T19:13:24.272-05:00
1775952804283051800,6.6370517578125,-9.61824690451622,-0.4298248471127823,1.8641253541454672,2026-04-11T19:13:24.283-05:00
1775952804293108700,6.647108642578125,-9.619694765236973,-0.4360055815743282,1.8551963438890873,2026-04-11T19:13:24.293-05:00
1775952804303165700,6.657165771484375,-9.62048445430994,-0.43993959655500947,1.850165363984555,2026-04-11T19:13:24.303-05:00
1775952804313222700,6.66722265625,-9.621031566798687,-0.4415420633155852,1.8469361728049813,2026-04-11T19:13:24.313-05:00
1775952804323278600,6.677278564453125,-9.621462943953276,-0.44183918309863657,1.844618543512374,2026-04-11T19:13:24.323-05:00
1775952804333335800,6.687335693359375,-9.621775663164257,-0.44263994155488906,1.842792789389938,2026-04-11T19:13:24.333-05:00
1775952804343392800,6.697392822265625,-9.622117608469724,-0.44517143279388544,1.8403955189898609,2026-04-11T19:13:24.343-05:00
1775952804353449700,6.70744970703125,-9.622463645428418,-0.4495246960999444,1.8375261010333894,2026-04-11T19:13:24.353-05:00
1775952804363505700,6.717505615234375,-9.622924248677492,-0.455001081684418,1.8337623645856975,2026-04-11T19:13:24.363-05:00
1775952804373562600,6.727562744140625,-9.62343336724341,-0.46109757192861284,1.8295647667653858,2026-04-11T19:13:24.373-05:00
1775952804383619600,6.73761962890625,-9.623996846345067,-0.4671394824413582,1.8250620485186575,2026-04-11T19:13:24.383-05:00
1775952804393676800,6.7476767578125,-9.62456850875318,-0.4734193298958242,1.82042299054116,2026-04-11T19:13:24.393-05:00
1775952804403733800,6.757733642578125,-9.625395607227086,-0.48008777480907733,1.8142915020488202,2026-04-11T19:13:24.403-05:00
1775952804413789700,6.767789794921875,-9.626355976691842,-0.48786008931100366,1.8071091893292963,2026-04-11T19:13:24.413-05:00
1775952804423846700,6.7778466796875,-9.627115855148434,-0.4949773009050637,1.8011163786552846,2026-04-11T19:13:24.423-05:00
1775952804433903900,6.78790380859375,-9.627662383115291,-0.5017741945035755,1.7963089783735573,2026-04-11T19:13:24.433-05:00
1775952804443960800,6.7979609375,-9.628239890742302,-0.5077558627290651,1.7915271509245037,2026-04-11T19:13:24.443-05:00
1775952804454016800,6.808016845703125,-9.628814475759864,-0.5113966669168323,1.7873973576433955,2026-04-11T19:13:24.454-05:00
1775952804464073700,6.81807373046875,-9.629442836791277,-0.5130017274932935,1.7835478426083922,2026-04-11T19:13:24.464-05:00
1775952804474130700,6.828130615234375,-9.630064768081903,-0.5131480406288057,1.780145486818999,2026-04-11T19:13:24.474-05:00
1775952804484187600,6.838187744140625,-9.63055284385979,-0.5127549131253734,1.7776147992976008,2026-04-11T19:13:24.484-05:00
1775952804494244600,6.84824462890625,-9.631000587627291,-0.5124770094994455,1.7752696974761784,2026-04-11T19:13:24.494-05:00
1775952804504300500,6.858300537109375,-9.631332596060632,-0.5124067938074469,1.7734866134516893,2026-04-11T19:13:24.504-05:00
1775952804514357500,6.868357421875,-9.631701429373026,-0.512497613896057,1.7714555460155008,2026-04-11T19:13:24.514-05:00
1775952804524414500,6.87841455078125,-9.632092474517226,-0.5125639936631545,1.7693083048537372,2026-04-11T19:13:24.524-05:00
1775952804534471700,6.8884716796875,-9.632502808883785,-0.5126585766114294,1.767047228053957,2026-04-11T19:13:24.534-05:00
1775952804544528000,6.89852783203125,-9.632946460998058,-0.5126142625456676,1.7646397285208104,2026-04-11T19:13:24.544-05:00
1775952804554584800,6.908584716796875,-9.63329834317565,-0.5123026027806102,1.7628066678747534,2026-04-11T19:13:24.554-05:00
1775952804564641800,6.918641845703125,-9.633567223244905,-0.511280456658639,1.761636162790656,2026-04-11T19:13:24.564-05:00
1775952804574698800,6.92869873046875,-9.633691726407408,-0.5102679916804657,1.7612470173425971,2026-04-11T19:13:24.574-05:00
1775952804584755700,6.938755615234375,-9.633516954362392,-0.5097575579402968,1.7623510330617427,2026-04-11T19:13:24.584-05:00
1775952804594811600,6.948811767578125,-9.632982116833329,-0.5091319003226236,1.7654532368607818,2026-04-11T19:13:24.594-05:00
1775952804604868600,6.95886865234375,-9.632008887887,-0.5082576382387429,1.771005756421387,2026-04-11T19:13:24.604-05:00
1775952804614925600,6.968925537109375,-9.630614803180098,-0.5067287481710314,1.7790074226997792,2026-04-11T19:13:24.614-05:00
1775952804624982500,6.978982421875,-9.628309448847174,-0.5038217016179114,1.792263356244564,2026-04-11T19:13:24.624-05:00
1775952804635038700,6.989038818359375,-9.62421545753181,-0.49799836575929074,1.815725918766111,2026-04-11T19:13:24.635-05:00
1775952804645095700,6.999095703125,-9.617329205149412,-0.48775805370863523,1.854577919729799,2026-04-11T19:13:24.645-05:00
1775952804655152600,7.009152587890625,-9.60687035497725,-0.473046003071405,1.9117143499247728,2026-04-11T19:13:24.655-05:00
1775952804665209900,7.0192099609375,-9.591295184704661,-0.45284090797584503,1.9930811121433971,2026-04-11T19:13:24.665-05:00
1775952804675266800,7.029266845703125,-9.568238134244083,-0.42516175067257134,2.1067600982934236,2026-04-11T19:13:24.675-05:00
1775952804685322800,7.03932275390625,-9.53603623881936,-0.39059608525857326,2.254291523554176,2026-04-11T19:13:24.685-05:00
1775952804695379700,7.049379638671875,-9.492896769794822,-0.35293888357002284,2.435308454309404,2026-04-11T19:13:24.695-05:00
1775952804705436700,7.059436767578125,-9.435656879225373,-0.315315839879401,2.65317583694756,2026-04-11T19:13:24.705-05:00
1775952804715493600,7.06949365234375,-9.361319723382591,-0.28026816310212016,2.908183740456402,2026-04-11T19:13:24.715-05:00
1775952804725549800,7.0795498046875,-9.266293999776243,-0.24950652961358427,3.2006139043867585,2026-04-11T19:13:24.725-05:00
1775952804735606800,7.089606689453125,-9.145597828340529,-0.22138180223358794,3.532621168684959,2026-04-11T19:13:24.735-05:00
1775952804745663700,7.099663818359375,-8.996168314373493,-0.19117827755184844,3.8990754769861695,2026-04-11T19:13:24.745-05:00
1775952804755720700,7.109720703125,-8.818441511204838,-0.15364428211785852,4.287407562835514,2026-04-11T19:13:24.755-05:00
1775952804765776600,7.119776611328125,-8.61395997210145,-0.10236519051580689,4.68610731344223,2026-04-11T19:13:24.765-05:00
1775952804775833600,7.12983349609375,-8.387130992111564,-0.03252528216019272,5.081865457639098,2026-04-11T19:13:24.775-05:00
1775952804785890600,7.139890625,-8.148980407640337,0.05678630614962894,5.455389558196067,2026-04-11T19:13:24.785-05:00
1775952804795947500,7.149947509765625,-7.911980162248015,0.1607426794135943,5.791815223458409,2026-04-11T19:13:24.795-05:00
1775952804806004700,7.160004638671875,-7.681801287308335,0.272656007597968,6.089825525608658,2026-04-11T19:13:24.806-05:00
1775952804816060700,7.170060791015625,-7.465899944046139,0.38433044899255037,6.346889484864473,2026-04-11T19:13:24.816-05:00
1775952804826118000,7.180117919921875,-7.271885438421368,0.4860726213723421,6.5615399512827395,2026-04-11T19:13:24.826-05:00
1775952804836174800,7.1901748046875,-7.108683419689536,0.5729686684064567,6.731174633410572,2026-04-11T19:13:24.836-05:00
1775952804846231800,7.200231689453125,-6.985247009634971,0.6422098893497139,6.8530486164540045,2026-04-11T19:13:24.846-05:00
1775952804856287700,7.210287841796875,-6.904750162118673,0.6924573637485504,6.9293076802700755,2026-04-11T19:13:24.856-05:00
1775952804866344700,7.2203447265625,-6.866671483615041,0.7275267774336039,6.963470062112807,2026-04-11T19:13:24.866-05:00
1775952804876401700,7.230401611328125,-6.864212984547018,0.7550497943270951,6.962963866156339,2026-04-11T19:13:24.876-05:00
1775952804886458600,7.240458740234375,-6.883969239896535,0.7831316872123628,6.94032124171555,2026-04-11T19:13:24.886-05:00
1775952804896515600,7.250515625,-6.912403891742229,0.8186481870777904,6.907884953013062,2026-04-11T19:13:24.896-05:00
1775952804906571800,7.26057177734375,-6.939199544209242,0.8660418794807047,6.875163417628407,2026-04-11T19:13:24.906-05:00
1775952804916628700,7.270628662109375,-6.956399100813269,0.9244357623908668,6.850133021268248,2026-04-11T19:13:24.916-05:00
1775952804926685700,7.280685791015625,-6.959951240336895,0.9876126417938619,6.837696149021387,2026-04-11T19:13:24.926-05:00
1775952804936742700,7.29074267578125,-6.9495029115587466,1.045985043524578,6.839643191435933,2026-04-11T19:13:24.936-05:00
1775952804946798600,7.300798583984375,-6.928368353593349,1.0911601100299506,6.854010739484429,2026-04-11T19:13:24.946-05:00
1775952804956855600,7.31085546875,-6.903145649531483,1.1213055113162844,6.874564282691479,2026-04-11T19:13:24.956-05:00
1775952804966912500,7.32091259765625,-6.882476955512166,1.141507683802396,6.89194211847186,2026-04-11T19:13:24.966-05:00
1775952804976969500,7.330969482421875,-6.871895940265059,1.1568524063199759,6.899936624357104,2026-04-11T19:13:24.976-05:00
1775952804987026400,7.3410263671875,-6.870722220310569,1.171802576562017,6.8985822871387,2026-04-11T19:13:24.987-05:00
1775952804997082600,7.35108251953125,-6.875767813262343,1.1890391772408038,6.8906018097788095,2026-04-11T19:13:24.997-05:00
1775952805007139800,7.361139892578125,-6.884910320138931,1.211062866065651,6.877624839305877,2026-04-11T19:13:25.007-05:00
1775952805017196800,7.37119677734375,-6.8978171479851005,1.2396288892060519,6.859579479527473,2026-04-11T19:13:25.017-05:00
1775952805027253800,7.381253662109375,-6.912576325699686,1.2753471221886574,6.838139801135659,2026-04-11T19:13:25.027-05:00
1775952805037309700,7.391309814453125,-6.92762075009644,1.3172288462370634,6.81493720472455,2026-04-11T19:13:25.037-05:00
1775952805047366700,7.40136669921875,-6.941681424152851,1.3621275800190866,6.791763249886036,2026-04-11T19:13:25.047-05:00
1775952805057423600,7.411423583984375,-6.953727835777402,1.4067711699962615,6.770306035837531,2026-04-11T19:13:25.057-05:00
1775952805067480600,7.42148046875,-6.964675930771231,1.449258166461438,6.750060535666346,2026-04-11T19:13:25.067-05:00
1775952805077537500,7.43153759765625,-6.975245255580544,1.4890195373550057,6.730465608358383,2026-04-11T19:13:25.077-05:00
1775952805087593700,7.44159375,-6.9826184146970505,1.525863267236203,6.714547908258438,2026-04-11T19:13:25.087-05:00
1775952805097650700,7.451650634765625,-6.981796576920151,1.5616881754636764,6.707161889660358,2026-04-11T19:13:25.097-05:00
1775952805107707600,7.461707763671875,-6.97116879992187,1.5977844479784369,6.709715081274509,2026-04-11T19:13:25.107-05:00
1775952805117764600,7.4717646484375,-6.953750632131099,1.6335934279844164,6.719159785968065,2026-04-11T19:13:25.117-05:00
1775952805127820500,7.481820556640625,-6.933269569638371,1.6691607081890105,6.7315715237736695,2026-04-11T19:13:25.127-05:00
1775952805137877500,7.49187744140625,-6.911351752340793,1.7043455649472772,6.745280315652489,2026-04-11T19:13:25.137-05:00
1775952805147934700,7.501934814453125,-6.8877838297486305,1.7396632543049753,6.7603533816218375,2026-04-11T19:13:25.147-05:00
1775952805157991700,7.51199169921875,-6.862555864989758,1.7745159564994275,6.776931591457128,2026-04-11T19:13:25.157-05:00
1775952805168048600,7.522048583984375,-6.836581465777754,1.8081369249418378,6.794275524967908,2026-04-11T19:13:25.168-05:00
1775952805178104600,7.5321044921875,-6.8118380696654315,1.8391095708325504,6.810794113570451,2026-04-11T19:13:25.178-05:00
1775952805188161500,7.54216162109375,-6.789947140374779,1.866331193626672,6.82523297328949,2026-04-11T19:13:25.188-05:00
1775952805198218800,7.55221875,-6.771522425889969,1.8895045639432966,6.837151374620198,2026-04-11T19:13:25.198-05:00
1775952805208275700,7.562275634765625,-6.755876528468728,1.9098736904941498,6.846961990016698,2026-04-11T19:13:25.208-05:00
1775952805218331600,7.57233154296875,-6.741323102459311,1.9281248019777237,6.8561863299578425,2026-04-11T19:13:25.218-05:00
1775952805228388600,7.582388671875,-6.7265083951652045,1.943888334429264,6.866278100383282,2026-04-11T19:13:25.228-05:00
1775952805238445600,7.592445556640625,-6.712106944847107,1.957392835907638,6.876526522675157,2026-04-11T19:13:25.238-05:00
1775952805248502500,7.60250244140625,-6.701418962094188,1.97076567383036,6.883127528375387,2026-04-11T19:13:25.248-05:00
1775952805258559500,7.6125595703125,-6.697929950934648,1.9857661129549145,6.882212751618027,2026-04-11T19:13:25.258-05:00
1775952805268615400,7.622615478515625,-6.703164344456791,2.0024327317260204,6.872279971146583,2026-04-11T19:13:25.268-05:00
1775952805278672400,7.63267236328125,-6.7184922619700425,2.0201737017303705,6.852089416033029,2026-04-11T19:13:25.278-05:00
1775952805288729600,7.6427294921875,-6.745666100099682,2.0384920332312584,6.819892196783423,2026-04-11T19:13:25.288-05:00
1775952805298786800,7.652786865234375,-6.7851341871351,2.0565579974062738,6.775168673437833,2026-04-11T19:13:25.298-05:00
1775952805308842800,7.6628427734375,-6.834775293138623,2.07409175440073,6.719700468716025,2026-04-11T19:13:25.308-05:00
1775952805318899700,7.672899658203125,-6.887886705601215,2.0917134819395837,6.659740213271975,2026-04-11T19:13:25.318-05:00
1775952805328956700,7.682956787109375,-6.932934054073691,2.109819778124988,6.607077129098773,2026-04-11T19:13:25.328-05:00
1775952805339013600,7.693013671875,-6.959583576068281,2.1287961351431903,6.572884352117777,2026-04-11T19:13:25.339-05:00
1775952805349070600,7.703070556640625,-6.964701649734377,2.147913215806335,6.561233661812543,2026-04-11T19:13:25.349-05:00
1775952805359126500,7.71312646484375,-6.955462696745991,2.1647262573108077,6.565507101348042,2026-04-11T19:13:25.359-05:00
1775952805369183500,7.72318359375,-6.94492668968439,2.175791402813047,6.572998333886265,2026-04-11T19:13:25.369-05:00
1775952805379240400,7.733240478515625,-6.942022200414538,2.178277374409884,6.575243482464551,2026-04-11T19:13:25.379-05:00
1775952805389297700,7.743297607421875,-6.946634078124165,2.1732158532366155,6.572046732249856,2026-04-11T19:13:25.389-05:00
1775952805399353600,7.753353515625,-6.9538032391011715,2.163605874978751,6.567633591982722,2026-04-11T19:13:25.399-05:00
1775952805409410600,7.76341064453125,-6.958532021188735,2.1515135783858597,6.566597234672307,2026-04-11T19:13:25.409-05:00
1775952805419467800,7.7734677734375,-6.956851520755887,2.1373726787000895,6.5729930731892585,2026-04-11T19:13:25.419-05:00
1775952805429524700,7.783524658203125,-6.947054349362849,2.1210772313289343,6.588615005213022,2026-04-11T19:13:25.429-05:00
1775952805439581700,7.793581787109375,-6.929687619498372,2.103076441344619,6.612630671572685,2026-04-11T19:13:25.439-05:00
1775952805449637600,7.8036376953125,-6.9079217778921125,2.0842235645756126,6.641311407133936,2026-04-11T19:13:25.449-05:00
1775952805459694600,7.813694580078125,-6.88634824398756,2.065956671001017,6.669364950707554,2026-04-11T19:13:25.459-05:00
1775952805469751600,7.82375146484375,-6.86922818236053,2.050008868023753,6.6919023612082,2026-04-11T19:13:25.469-05:00
1775952805479808500,7.83380859375,-6.859288972148299,2.037731862513721,6.705832686883211,2026-04-11T19:13:25.479-05:00
1775952805489864700,7.84386474609375,-6.856819367164373,2.028543616799265,6.711142483729124,2026-04-11T19:13:25.489-05:00
1775952805499921700,7.853921630859375,-6.85893241379559,2.0202929441958664,6.711471569553018,2026-04-11T19:13:25.499-05:00
1775952805509978600,7.863978515625,-6.860864843162894,2.00951640637666,6.712731798747181,2026-04-11T19:13:25.509-05:00
1775952805520035600,7.87403564453125,-6.858941766145825,1.9943148917220532,6.7192270059853785,2026-04-11T19:13:25.520-05:00
1775952805530092500,7.884092529296875,-6.850735663336515,1.975965580561012,6.733005355969071,2026-04-11T19:13:25.530-05:00
1775952805540148500,7.8941484375,-6.834694629117846,1.9579832030162214,6.754526867425441,2026-04-11T19:13:25.540-05:00
1775952805550205400,7.904205322265625,-6.810201408374309,1.943482530107349,6.7833923119038335,2026-04-11T19:13:25.550-05:00
1775952805560262700,7.9142626953125,-6.77806497940123,1.9339139067731796,6.818225724875926,2026-04-11T19:13:25.560-05:00
1775952805570319600,7.924319580078125,-6.740155812245607,1.9281416069820523,6.85732848573029,2026-04-11T19:13:25.570-05:00
1775952805580375800,7.934375732421875,-6.69852265613079,1.923098936639726,6.899410554656386,2026-04-11T19:13:25.580-05:00
1775952805590432800,7.944432861328125,-6.656376874318719,1.9161282208442687,6.9420087564110755,2026-04-11T19:13:25.590-05:00
1775952805600489700,7.95448974609375,-6.619283699721097,1.9060655303828418,6.980141795450448,2026-04-11T19:13:25.600-05:00
1775952805610546700,7.964546630859375,-6.593166092646122,1.8920963340021668,7.008603335303068,2026-04-11T19:13:25.610-05:00
1775952805620602600,7.9746025390625,-6.581162351119518,1.8741085496298968,7.024699899101257,2026-04-11T19:13:25.620-05:00
1775952805630659600,7.98465966796875,-6.580942570888996,1.8528098871439693,7.0305527167826884,2026-04-11T19:13:25.630-05:00
1775952805640716500,7.994716552734375,-6.586110328915715,1.829371436150372,7.031852108943462,2026-04-11T19:13:25.640-05:00
1775952805650773500,8.0047734375,-6.5918181851685045,1.806027823833376,7.032537168598175,2026-04-11T19:13:25.650-05:00
1775952805660830500,8.01483056640625,-6.595524053949117,1.7837546172268688,7.034747830384969,2026-04-11T19:13:25.660-05:00
1775952805670886700,8.02488671875,-6.596313158500194,1.7627657513424753,7.0392971642524,2026-04-11T19:13:25.670-05:00
1775952805680943600,8.034943603515625,-6.5938084822028875,1.742677049168199,7.046641681796312,2026-04-11T19:13:25.680-05:00
1775952805691000600,8.04500048828125,-6.587449468564987,1.7221417722702026,7.057628355234861,2026-04-11T19:13:25.691-05:00
1775952805701057800,8.055057861328125,-6.577307429257035,1.6988624573610722,7.072713111642003,2026-04-11T19:13:25.701-05:00
1775952805711113500,8.065113525390625,-6.564305908864736,1.67106391146183,7.091390339583158,2026-04-11T19:13:25.711-05:00
1775952805721170700,8.075170654296874,-6.553805557638406,1.6373519037351012,7.108944116452336,2026-04-11T19:13:25.721-05:00
1775952805731227600,8.0852275390625,-6.553786268416046,1.5973521940410136,7.11805681271255,2026-04-11T19:13:25.731-05:00
1775952805741284600,8.09528466796875,-6.560080400124192,1.5545738134138285,7.121728779223561,2026-04-11T19:13:25.741-05:00
1775952805751341600,8.105341552734375,-6.566535275352001,1.5141799898356199,7.124482461845874,2026-04-11T19:13:25.751-05:00
1775952805761397800,8.115397705078125,-6.572099339219927,1.4800893580548464,7.126516013500094,2026-04-11T19:13:25.761-05:00
1775952805771454700,8.125454833984374,-6.5766071720331905,1.4545119953364134,7.12762368248105,2026-04-11T19:13:25.771-05:00
1775952805781511700,8.13551171875,-6.5759232814222575,1.434262111251056,7.1323565562218425,2026-04-11T19:13:25.781-05:00
1775952805791568600,8.145568603515626,-6.5655117775231595,1.4155695396102963,7.1456702113032335,2026-04-11T19:13:25.791-05:00
1775952805801624600,8.15562451171875,-6.546205019506812,1.3936786103196441,7.167652326008677,2026-04-11T19:13:25.801-05:00
1775952805811681500,8.165681640625,-6.519698705375194,1.3634823556289075,7.197556465885043,2026-04-11T19:13:25.811-05:00
1775952805821738500,8.175738525390624,-6.489220565003157,1.3278838035032152,7.231674424064159,2026-04-11T19:13:25.821-05:00
1775952805831795500,8.18579541015625,-6.468071393990516,1.2904482452087103,7.25735363972187,2026-04-11T19:13:25.831-05:00
1775952805841852700,8.195852783203126,-6.467668073886633,1.2518049185596405,7.26447779251337,2026-04-11T19:13:25.841-05:00
1775952805851908600,8.20590869140625,-6.490270950838923,1.21181587639004,7.2510881495863195,2026-04-11T19:13:25.851-05:00
1775952805861965800,8.2159658203125,-6.531564499735832,1.168660552209243,7.221029695931077,2026-04-11T19:13:25.861-05:00
1775952805872022800,8.226022705078124,-6.587102262562513,1.116999923076853,7.178633738750219,2026-04-11T19:13:25.872-05:00
1775952805882079700,8.236079833984375,-6.651260554218291,1.0550454981409012,7.128674652838707,2026-04-11T19:13:25.882-05:00
1775952805892136700,8.24613671875,-6.7141714761614795,0.9866722191385924,7.07931996256113,2026-04-11T19:13:25.892-05:00
1775952805902192600,8.256192626953125,-6.765227709659934,0.9223243231948465,7.0392755369424815,2026-04-11T19:13:25.902-05:00
1775952805912249600,8.26624951171875,-6.802185859701037,0.8699595643810928,7.010265131035447,2026-04-11T19:13:25.912-05:00
1775952805922306600,8.276306640625,-6.834750158697366,0.8310772413443773,6.983257297122478,2026-04-11T19:13:25.922-05:00
1775952805932363500,8.286363525390625,-6.881207373967766,0.8006916746266186,6.941056570252775,2026-04-11T19:13:25.932-05:00
1775952805942419500,8.29641943359375,-6.9571256615221495,0.7642825367704034,6.869108355373144,2026-04-11T19:13:25.942-05:00
1775952805952476700,8.3064765625,-7.0718345752418035,0.7095922576185315,6.756923991695046,2026-04-11T19:13:25.952-05:00
1775952805962534000,8.316533935546875,-7.223679333657026,0.6365441186729818,6.601791882172226,2026-04-11T19:13:25.962-05:00
1775952805972590800,8.3265908203125,-7.40560300399363,0.5470748966826126,6.4053212155669925,2026-04-11T19:13:25.972-05:00
1775952805982646800,8.336646728515625,-7.60676153615415,0.44717513729911296,6.173135676980018,2026-04-11T19:13:25.982-05:00
1775952805992703700,8.346703857421875,-7.821423108488321,0.34200642453674224,5.905823879954219,2026-04-11T19:13:25.992-05:00
1775952806002760700,8.3567607421875,-8.043120570808648,0.24116503692157565,5.605393072658777,2026-04-11T19:13:26.002-05:00
1775952806012817700,8.366817626953125,-8.261948615172505,0.15571606515692546,5.280752537736296,2026-04-11T19:13:26.012-05:00
1775952806022874600,8.37687451171875,-8.47104203198552,0.09143696013307198,4.939986797443032,2026-04-11T19:13:26.022-05:00
1775952806032930600,8.3869306640625,-8.658741363114117,0.04945966218912508,4.603708723957836,2026-04-11T19:13:26.032-05:00
1775952806042987500,8.396987548828125,-8.816232602983712,0.02121381091380026,4.294645697395503,2026-04-11T19:13:26.042-05:00
1775952806053044700,8.407044677734374,-8.944144112625718,-0.004468843376589939,4.021524337308109,2026-04-11T19:13:26.053-05:00
1775952806063101700,8.417101806640625,-9.048005469116568,-0.03454255853304639,3.7819025112405416,2026-04-11T19:13:26.063-05:00
1775952806073157600,8.42715771484375,-9.131842859232425,-0.07221208084705286,3.5741596322536466,2026-04-11T19:13:26.073-05:00
1775952806083214800,8.43721484375,-9.200086374375223,-0.11723679736261255,3.3933830861255525,2026-04-11T19:13:26.083-05:00
1775952806093271800,8.447271728515625,-9.258879339605569,-0.17000369810331611,3.227171071922779,2026-04-11T19:13:26.093-05:00
1775952806103328800,8.457328857421874,-9.311738823133707,-0.2278329694006592,3.06757175385803,2026-04-11T19:13:26.103-05:00
1775952806113385700,8.4673857421875,-9.36335619764626,-0.2898531713155098,2.900677018088102,2026-04-11T19:13:26.113-05:00
1775952806123441700,8.477441650390626,-9.412148577865958,-0.35587340265195816,2.7304204046696423,2026-04-11T19:13:26.123-05:00
1775952806133498600,8.48749853515625,-9.453749000754952,-0.4251380410034209,2.5722119564414023,2026-04-11T19:13:26.133-05:00
1775952806143555600,8.4975556640625,-9.48573754568994,-0.4936579254021868,2.4387432510636744,2026-04-11T19:13:26.143-05:00
1775952806153612500,8.507612548828124,-9.51004138134122,-0.5577467685509473,2.327749412344396,2026-04-11T19:13:26.153-05:00
1775952806163668700,8.517668701171875,-9.52813116478324,-0.6140341076359153,2.2378690888024866,2026-04-11T19:13:26.163-05:00
1775952806173725700,8.5277255859375,-9.540783725607394,-0.6614888095110655,2.16939337233901,2026-04-11T19:13:26.173-05:00
1775952806183782700,8.53778271484375,-9.55140507286489,-0.6973438936810941,2.1106302177250384,2026-04-11T19:13:26.183-05:00
1775952806193839600,8.547839599609375,-9.56136474134326,-0.7239436582498252,2.055869430620223,2026-04-11T19:13:26.193-05:00
1775952806203896800,8.557896728515624,-9.569368015056847,-0.745105907939747,2.010571468387544,2026-04-11T19:13:26.203-05:00
1775952806213952500,8.567952392578125,-9.575088146269321,-0.7635722696091979,1.9761137568600475,2026-04-11T19:13:26.213-05:00
1775952806224009700,8.578009765625,-9.578746084254979,-0.779975195942819,1.95183111012727,2026-04-11T19:13:26.224-05:00
1775952806234066700,8.588066650390624,-9.58148690739572,-0.7935976977776735,1.932793524441123,2026-04-11T19:13:26.234-05:00
1775952806244123600,8.59812353515625,-9.583989830127358,-0.8035054899383336,1.916220867563784,2026-04-11T19:13:26.244-05:00
1775952806254179800,8.608179931640626,-9.586240823924541,-0.8104896497372538,1.9019675935447216,2026-04-11T19:13:26.254-05:00
1775952806264236800,8.61823681640625,-9.589141806063056,-0.814303070545569,1.885642920079082,2026-04-11T19:13:26.264-05:00
1775952806274293800,8.628293701171875,-9.593764205166696,-0.8155966905526817,1.8614188716657458,2026-04-11T19:13:26.274-05:00
1775952806284350700,8.638350830078124,-9.598149288383127,-0.8182429672777652,1.8374968749389051,2026-04-11T19:13:26.284-05:00
1775952806294407700,8.64840771484375,-9.601227965176104,-0.8239511157914996,1.818766017114371,2026-04-11T19:13:26.294-05:00
1775952806304463600,8.658463623046876,-9.602882162123917,-0.8320395105052739,1.8063073714271187,2026-04-11T19:13:26.304-05:00
1775952806314520600,8.6685205078125,-9.603540333771704,-0.8403986849844455,1.7989252983517943,2026-04-11T19:13:26.314-05:00
1775952806324577500,8.67857763671875,-9.603906244474649,-0.8471586075734346,1.7937936345517633,2026-04-11T19:13:26.324-05:00
1775952806334634500,8.688634521484374,-9.60422247081697,-0.8514774936858565,1.790052256066352,2026-04-11T19:13:26.334-05:00
1775952806344690700,8.698690673828125,-9.604764907130598,-0.8535388831950723,1.7861549563668668,2026-04-11T19:13:26.344-05:00
1775952806354747600,8.70874755859375,-9.605403789556027,-0.8537412008341402,1.782618306673318,2026-04-11T19:13:26.354-05:00
1775952806364804900,8.718804931640625,-9.605634091180562,-0.854100535665825,1.781203617569804,2026-04-11T19:13:26.364-05:00
1775952806374861800,8.72886181640625,-9.605443537044524,-0.8547918789308517,1.7819008060537278,2026-04-11T19:13:26.374-05:00
1775952806384918800,8.738918701171874,-9.605044308593868,-0.8557295251071453,1.7836026415355501,2026-04-11T19:13:26.384-05:00
1775952806394974700,8.748974609375,-9.604808746272324,-0.8567004890311509,1.7844037287853658,2026-04-11T19:13:26.394-05:00
1775952806405031700,8.75903173828125,-9.604711131116748,-0.8573897134043276,1.7845993974879384,2026-04-11T19:13:26.405-05:00
1775952806415088600,8.769088623046875,-9.604545711421967,-0.8570667650602758,1.7856437919743358,2026-04-11T19:13:26.415-05:00
1775952806425145600,8.7791455078125,-9.60414882105887,-0.8549141901362687,1.7888085396155713,2026-04-11T19:13:26.425-05:00
1775952806435201800,8.789201904296876,-9.603696985638141,-0.8511977268964052,1.793000584477931,2026-04-11T19:13:26.435-05:00
1775952806445258800,8.7992587890625,-9.603099604266882,-0.8456718761470169,1.7988054713644086,2026-04-11T19:13:26.445-05:00
1775952806455315700,8.809315673828126,-9.60202116138041,-0.8388404957570135,1.8077376964911818,2026-04-11T19:13:26.455-05:00
1775952806465372700,8.81937255859375,-9.600124972370267,-0.8302811225306242,1.8217086464375256,2026-04-11T19:13:26.465-05:00
1775952806475429600,8.8294296875,-9.596763971504569,-0.8182032928545028,1.844736032412201,2026-04-11T19:13:26.475-05:00
1775952806485485600,8.839485595703126,-9.591061960470675,-0.7994301302582025,1.8822386645935474,2026-04-11T19:13:26.485-05:00
1775952806495542800,8.849542724609375,-9.581286416387558,-0.7699924388498067,1.9433080503232776,2026-04-11T19:13:26.495-05:00
1775952806505599700,8.859599853515626,-9.564331774455308,-0.7273705639585852,2.040802209869772,2026-04-11T19:13:26.505-05:00
1775952806515656700,8.86965673828125,-9.535406708744167,-0.6715704969339072,2.1898381944745777,2026-04-11T19:13:26.515-05:00
1775952806525713000,8.879712890625,-9.488113042649626,-0.6063772727398201,2.403831658288836,2026-04-11T19:13:26.525-05:00
1775952806535769900,8.889769775390626,-9.415379814872145,-0.5380471022268757,2.689146729516983,2026-04-11T19:13:26.535-05:00
1775952806545826800,8.899826904296875,-9.311905411872267,-0.4758193402422592,3.0384850678443907,2026-04-11T19:13:26.545-05:00
1775952806555883800,8.9098837890625,-9.17862682223916,-0.4268043302478268,3.4265184630081054,2026-04-11T19:13:26.555-05:00
1775952806565940700,8.919940673828124,-9.022709699818492,-0.3893658493438735,3.822236275194585,2026-04-11T19:13:26.565-05:00
1775952806575996700,8.92999658203125,-8.85407747273147,-0.3520817552840337,4.201396920333803,2026-04-11T19:13:26.575-05:00
1775952806586053600,8.9400537109375,-8.680000424242019,-0.3037192361152731,4.553650269325077,2026-04-11T19:13:26.586-05:00
1775952806596110600,8.950110595703125,-8.50594032688737,-0.2395565422790125,4.874625559738278,2026-04-11T19:13:26.596-05:00
1775952806606167600,8.96016748046875,-8.33480459254682,-0.16047268509948626,5.164849445796013,2026-04-11T19:13:26.606-05:00
1775952806616223700,8.9702236328125,-8.164972342020272,-0.07264681900250725,5.431236529192328,2026-04-11T19:13:26.616-05:00
1775952806626280700,8.98028076171875,-7.993809719672798,0.01714556938597816,5.680588891157508,2026-04-11T19:13:26.626-05:00
1775952806636338000,8.990337890625,-7.818872839483618,0.10444929418032989,5.91816664417684,2026-04-11T19:13:26.636-05:00
1775952806646395000,9.000394775390625,-7.639653167408705,0.19023224713969974,6.145721600353718,2026-04-11T19:13:26.646-05:00
1775952806656451800,9.010451904296875,-7.460942029377818,0.27780794700104744,6.358266618925333,2026-04-11T19:13:26.656-05:00
1775952806666507800,9.0205078125,-7.289171504265069,0.3683898794736713,6.55001259509623,2026-04-11T19:13:26.666-05:00
1775952806676564700,9.030564697265625,-7.13359282001853,0.4628322867667302,6.713272481495141,2026-04-11T19:13:26.676-05:00
1775952806686621700,9.04062158203125,-6.997973220217228,0.5571593605844304,6.847505010852217,2026-04-11T19:13:26.686-05:00
1775952806696678700,9.0506787109375,-6.889604615435004,0.6467198410548269,6.948776350849866,2026-04-11T19:13:26.696-05:00
1775952806706734600,9.060734619140625,-6.815641553601623,0.7265199384786188,7.013529101267457,2026-04-11T19:13:26.706-05:00
1775952806716791800,9.070791748046876,-6.778622613283991,0.7929669255934655,7.042149046552181,2026-04-11T19:13:26.716-05:00
1775952806726848800,9.080848876953125,-6.769249220260978,0.8454346333250403,7.045061719128489,2026-04-11T19:13:26.726-05:00
1775952806736905700,9.09090576171875,-6.7706567489713425,0.8891955221835524,7.038318090087175,2026-04-11T19:13:26.736-05:00
1775952806746962700,9.100962646484374,-6.7717989047437905,0.931096243193373,7.031797748407721,2026-04-11T19:13:26.746-05:00
1775952806757018600,9.1110185546875,-6.769548495468497,0.9768084853153676,7.027762209281325,2026-04-11T19:13:26.757-05:00
1775952806767075600,9.12107568359375,-6.76443275988996,1.0290989367838947,7.025225384280085,2026-04-11T19:13:26.767-05:00
1775952806777132800,9.1311328125,-6.759665399357676,1.0875830552607775,7.02100162910521,2026-04-11T19:13:26.777-05:00
1775952806787189800,9.141189697265625,-6.7580269845008845,1.148473431161791,7.012877943882346,2026-04-11T19:13:26.787-05:00
1775952806797245700,9.15124560546875,-6.760137108522653,1.2059140319351107,7.001193351307511,2026-04-11T19:13:26.797-05:00
1775952806807302700,9.161302734375,-6.76456252374947,1.257889499170333,6.9877604537606235,2026-04-11T19:13:26.807-05:00
1775952806817359600,9.171359619140626,-6.769378984120488,1.305097678938508,6.974425755891203,2026-04-11T19:13:26.817-05:00
1775952806827416800,9.181416748046875,-6.772528388062119,1.348262136273831,6.96314799055159,2026-04-11T19:13:26.827-05:00
1775952806837473800,9.191473876953125,-6.773065563678741,1.3875656803973018,6.954899802166223,2026-04-11T19:13:26.837-05:00
1775952806847529700,9.20152978515625,-6.773035753062367,1.4224826799996197,6.947871510964632,2026-04-11T19:13:26.847-05:00
1775952806857586700,9.211586669921875,-6.772590347382426,1.4534135325752198,6.941901204383373,2026-04-11T19:13:26.857-05:00
1775952806867643600,9.2216435546875,-6.770408911690115,1.4806135280594228,6.938280675798654,2026-04-11T19:13:26.867-05:00
1775952806877700600,9.23170068359375,-6.76482555859983,1.5040310823954641,6.938689841121435,2026-04-11T19:13:26.877-05:00
1775952806887757600,9.241757568359375,-6.757489224362373,1.5244778042271732,6.941375719204545,2026-04-11T19:13:26.887-05:00
1775952806897813500,9.2518134765625,-6.753124014890194,1.5438785241372883,6.941335387194156,2026-04-11T19:13:26.897-05:00
1775952806907870700,9.26187060546875,-6.753659436941146,1.5647133685037493,6.9361471709012985,2026-04-11T19:13:26.907-05:00
1775952806917927700,9.271927734375,-6.756001616153121,1.5874277430064976,6.9287015310704705,2026-04-11T19:13:26.917-05:00
1775952806927984600,9.281984619140625,-6.757080059039592,1.6118516979061066,6.922007586389779,2026-04-11T19:13:26.927-05:00
1775952806938040800,9.292040771484375,-6.757277627438307,1.6376080704532563,6.915766646173596,2026-04-11T19:13:26.938-05:00
1775952806948097800,9.302097900390624,-6.759244543597101,1.6643600299090147,6.907452406814694,2026-04-11T19:13:26.948-05:00
1775952806958154800,9.31215478515625,-6.764287213939428,1.6909296185351907,6.896053645443916,2026-04-11T19:13:26.958-05:00
1775952806968211200,9.322211181640625,-6.771620625567436,1.7149392935454844,6.882915346929431,2026-04-11T19:13:26.968-05:00
1775952806978268400,9.332268310546874,-6.779757754793763,1.7349137216903268,6.869886354008316,2026-04-11T19:13:26.978-05:00
1775952806988324000,9.342323974609375,-6.787818311652541,1.752503738916665,6.857450650805235,2026-04-11T19:13:26.988-05:00
1775952806998381300,9.35238134765625,-6.796077021431922,1.7701026701018214,6.84473963779211,2026-04-11T19:13:26.998-05:00
1775952807008438500,9.3624384765625,-6.804311765813827,1.7879511921338735,6.83190762874782,2026-04-11T19:13:27.008-05:00
1775952807018495500,9.37249560546875,-6.810757873213291,1.8050807522416115,6.820971224191784,2026-04-11T19:13:27.018-05:00
1775952807028551400,9.382551513671874,-6.812983148047327,1.8202505565837024,6.814713917362689,2026-04-11T19:13:27.028-05:00
1775952807038608400,9.3926083984375,-6.810125420528649,1.833631870073825,6.813983849522471,2026-04-11T19:13:27.038-05:00
1775952807048665300,9.402665283203126,-6.805290255457162,1.845466246382892,6.815619341769814,2026-04-11T19:13:27.048-05:00
1775952807058722300,9.412722412109375,-6.80154697727561,1.8553018500901757,6.816685509696603,2026-04-11T19:13:27.058-05:00
1775952807068778200,9.4227783203125,-6.799636759740114,1.8635037151157854,6.81635408578515,2026-04-11T19:13:27.068-05:00
1775952807078835200,9.432835205078124,-6.800871269971132,1.8715438137084244,6.812918850639462,2026-04-11T19:13:27.078-05:00
1775952807088892200,9.44289208984375,-6.807641202497482,1.8813195039220154,6.803457779332995,2026-04-11T19:13:27.088-05:00
1775952807098949000,9.45294921875,-6.822161310759187,1.8937591526478528,6.7854387230396265,2026-04-11T19:13:27.098-05:00
1775952807109006300,9.46300634765625,-6.84520608626008,1.908991354701668,6.757906572991609,2026-04-11T19:13:27.109-05:00
1775952807119062300,9.473062255859375,-6.874323459672928,1.9266442080311477,6.7232508546739815,2026-04-11T19:13:27.119-05:00
1775952807129119500,9.483119384765626,-6.904088483339548,1.9458096578806638,6.687135585197806,2026-04-11T19:13:27.129-05:00
1775952807139176400,9.493176513671875,-6.928059141513705,1.9655999616302549,6.656485010868311,2026-04-11T19:13:27.139-05:00
1775952807149233400,9.5032333984375,-6.940148223236203,1.9866485948778687,6.637616644269228,2026-04-11T19:13:27.149-05:00
1775952807159289300,9.513289306640624,-6.937875017607212,2.0097309259101745,6.63304334500432,2026-04-11T19:13:27.159-05:00
1775952807169346300,9.52334619140625,-6.921933352109789,2.0354991350255904,6.641835138747096,2026-04-11T19:13:27.169-05:00
1775952807179403300,9.5334033203125,-6.8962330936640495,2.0625943549610675,6.660185034430026,2026-04-11T19:13:27.179-05:00
1775952807189460200,9.543460205078125,-6.864254485601187,2.0863664218232034,6.68576663493216,2026-04-11T19:13:27.189-05:00
1775952807199517200,9.55351708984375,-6.82793638702929,2.0999027797445655,6.718637223398685,2026-04-11T19:13:27.199-05:00
1775952807209573400,9.563573486328124,-6.789444451549649,2.100475611196458,6.757353615283965,2026-04-11T19:13:27.209-05:00
1775952807219630300,9.57363037109375,-6.752119221761823,2.091975932268053,6.797271784174442,2026-04-11T19:13:27.219-05:00
1775952807229687300,9.583687255859376,-6.719286042696237,2.0788313501432536,6.833743027481436,2026-04-11T19:13:27.229-05:00
1775952807239744300,9.593744140625,-6.6945835631161925,2.062611598356813,6.862839942628145,2026-04-11T19:13:27.239-05:00
1775952807249800200,9.60380029296875,-6.681145404872298,2.04278315455392,6.881840411174297,2026-04-11T19:13:27.249-05:00
1775952807259857200,9.613857177734374,-6.680933223426342,2.01822037570551,6.889289558136463,2026-04-11T19:13:27.259-05:00
1775952807269914400,9.623914306640625,-6.69419602510333,1.9883217887870965,6.885107304015755,2026-04-11T19:13:27.269-05:00
1775952807279971300,9.633971435546876,-6.7182794960021965,1.9531211499378085,6.871711815869808,2026-04-11T19:13:27.279-05:00
1775952807290028300,9.6440283203125,-6.746414872640371,1.9139219429716468,6.855155817866325,2026-04-11T19:13:27.290-05:00
1775952807300084500,9.65408447265625,-6.770622846701741,1.8732738523714243,6.842506764173507,2026-04-11T19:13:27.300-05:00
1775952807310141400,9.664141357421874,-6.785878283500671,1.8341931572183965,6.8379802266597745,2026-04-11T19:13:27.310-05:00
1775952807320198400,9.674198486328125,-6.794394182911515,1.797526391339302,6.839260914120078,2026-04-11T19:13:27.320-05:00
1775952807330255400,9.68425537109375,-6.801748052805662,1.764331100963056,6.840594208550453,2026-04-11T19:13:27.330-05:00
1775952807340311300,9.694311279296874,-6.811413706773519,1.7356341449193655,6.838319249355792,2026-04-11T19:13:27.340-05:00
1775952807350368300,9.7043681640625,-6.822403302821517,1.711518817577511,6.833439660620689,2026-04-11T19:13:27.350-05:00
1775952807360425200,9.71442529296875,-6.829833160561323,1.6915971425332128,6.8309788234651085,2026-04-11T19:13:27.360-05:00
1775952807370482200,9.724482177734375,-6.828917799282074,1.6737600186780095,6.836285113179684,2026-04-11T19:13:27.370-05:00
1775952807380539100,9.7345390625,-6.816647515773773,1.6560053124092518,6.852835850486159,2026-04-11T19:13:27.380-05:00
1775952807390595300,9.74459521484375,-6.792748753792047,1.6356971222653984,6.881383315056562,2026-04-11T19:13:27.390-05:00
1775952807400652300,9.75465234375,-6.76322046149075,1.6128085602395235,6.915785350874066,2026-04-11T19:13:27.400-05:00
1775952807410709500,9.76470947265625,-6.735004420831799,1.590354736369103,6.948443757894635,2026-04-11T19:13:27.410-05:00
1775952807420766500,9.774766357421875,-6.706958476042747,1.5703500592164694,6.980050025513767,2026-04-11T19:13:27.420-05:00
1775952807430822400,9.784822509765625,-6.671512484130263,1.5510243042387066,7.018235671523213,2026-04-11T19:13:27.430-05:00
1775952807440879400,9.79487939453125,-6.621582624313235,1.5259467077359556,7.070821598806977,2026-04-11T19:13:27.440-05:00
1775952807450936300,9.804936279296875,-6.555956598192453,1.4890182221807537,7.139512857717275,2026-04-11T19:13:27.450-05:00
1775952807460993300,9.8149931640625,-6.478357810205221,1.4429264792218803,7.21936439306736,2026-04-11T19:13:27.460-05:00
1775952807471050200,9.82505029296875,-6.401850909107923,1.3929118637308477,7.297018710634112,2026-04-11T19:13:27.471-05:00
1775952807481106400,9.8351064453125,-6.341717050662637,1.3430425019294023,7.358617965456843,2026-04-11T19:13:27.481-05:00
1775952807491163400,9.845163330078124,-6.3096642083197825,1.2969856841534375,7.394345696920156,2026-04-11T19:13:27.491-05:00
1775952807501220400,9.855220458984375,-6.31444442833364,1.2580123948976396,7.396998257255554,2026-04-11T19:13:27.501-05:00
1775952807511277300,9.86527734375,-6.355255162149668,1.2246062382496892,7.3675950526386496,2026-04-11T19:13:27.511-05:00
1775952807521333200,9.875333251953125,-6.4182642837703225,1.1902216650236397,7.318444945022463,2026-04-11T19:13:27.521-05:00
1775952807531390200,9.88539013671875,-6.488763468885422,1.148952446850389,7.262660513958335,2026-04-11T19:13:27.531-05:00
