time,seconds_elapsed,z,y,x,local_time
1775952797736094200,0.09009423828125,-42.737266540527344,-11.150073051452637,-16.574684143066406,2026-04-11T19:13:17.736-05:00
1775952797746151200,0.100151123046875,-42.71686553955078,-11.3593168258667,-16.508438110351562,2026-04-11T19:13:17.746-05:00
1775952797756208000,0.1102080078125,-42.71350860595703,-11.49927043914795,-16.503623962402344,2026-04-11T19:13:17.756-05:00
1775952797766265000,0.12026513671875,-42.69940948486328,-11.833831787109375,-16.507652282714844,2026-04-11T19:13:17.766-05:00
1775952797776321300,0.1303212890625,-42.6556396484375,-12.2837495803833,-16.24280548095703,2026-04-11T19:13:17.776-05:00
1775952797786378200,0.140378173828125,-42.616085052490234,-12.42022705078125,-16.245460510253906,2026-04-11T19:13:17.786-05:00
1775952797796435200,0.150435302734375,-42.64948272705078,-12.857176780700684,-16.11803436279297,2026-04-11T19:13:17.796-05:00
1775952797806492200,0.1604921875,-42.46664047241211,-13.171430587768555,-15.987678527832031,2026-04-11T19:13:17.806-05:00
1775952797816548000,0.170548095703125,-42.46664047241211,-13.171430587768555,-15.987678527832031,2026-04-11T19:13:17.816-05:00
1775952797826605000,0.18060498046875,-42.43568420410156,-13.378822326660156,-15.991310119628906,2026-04-11T19:13:17.826-05:00
1775952797836662000,0.190662109375,-42.419189453125,-13.716777801513672,-15.996742248535156,2026-04-11T19:13:17.836-05:00
1775952797846719200,0.20071923828125,-42.47088623046875,-13.596848487854004,-15.866958618164062,2026-04-11T19:13:17.846-05:00
1775952797856775200,0.210775146484375,-42.35186767578125,-13.73630142211914,-15.728553771972656,2026-04-11T19:13:17.856-05:00
1775952797866832400,0.220832275390625,-42.48982238769531,-13.992345809936523,-15.595260620117188,2026-04-11T19:13:17.866-05:00
1775952797876889300,0.230889404296875,-42.40619659423828,-13.877681732177734,-15.673660278320312,2026-04-11T19:13:17.876-05:00
1775952797886946300,0.2409462890625,-42.356040954589844,-13.965909957885742,-15.650100708007812,2026-04-11T19:13:17.886-05:00
1775952797897002200,0.251002197265625,-42.48528289794922,-13.7349853515625,-15.590736389160156,2026-04-11T19:13:17.897-05:00
1775952797907059200,0.26105908203125,-42.58002853393555,-13.478363037109375,-15.692039489746094,2026-04-11T19:13:17.907-05:00
1775952797917116200,0.2711162109375,-42.583316802978516,-13.151901245117188,-15.6649169921875,2026-04-11T19:13:17.917-05:00
1775952797927173000,0.281173095703125,-42.508628845214844,-12.72697639465332,-15.761329650878906,2026-04-11T19:13:17.927-05:00
1775952797937229300,0.291229248046875,-42.77219009399414,-12.334590911865234,-16.078018188476562,2026-04-11T19:13:17.937-05:00
1775952797947286300,0.301286376953125,-42.76225280761719,-12.05882453918457,-16.41716766357422,2026-04-11T19:13:17.947-05:00
1775952797957343200,0.31134326171875,-42.53636169433594,-11.445236206054688,-17.25432586669922,2026-04-11T19:13:17.957-05:00
1775952797967400200,0.321400146484375,-42.45606994628906,-11.37251091003418,-18.061119079589844,2026-04-11T19:13:17.967-05:00
1775952797977456000,0.3314560546875,-41.89409255981445,-11.407327651977539,-19.064247131347656,2026-04-11T19:13:17.977-05:00
1775952797987513000,0.34151318359375,-41.106910705566406,-11.499059677124023,-20.503028869628906,2026-04-11T19:13:17.987-05:00
1775952797997570000,0.351570068359375,-39.96741485595703,-12.384925842285156,-22.28912353515625,2026-04-11T19:13:17.997-05:00
1775952798007627300,0.361627197265625,-38.66804504394531,-12.987971305847168,-23.91504669189453,2026-04-11T19:13:18.007-05:00
1775952798017683200,0.37168310546875,-37.556976318359375,-13.639104843139648,-25.19782257080078,2026-04-11T19:13:18.017-05:00
1775952798027740400,0.381740478515625,-37.14640808105469,-14.120552062988281,-25.831268310546875,2026-04-11T19:13:18.027-05:00
1775952798037797400,0.39179736328125,-36.8836669921875,-14.159114837646484,-25.96727752685547,2026-04-11T19:13:18.037-05:00
1775952798047854300,0.401854248046875,-36.87745666503906,-14.271961212158203,-25.8638916015625,2026-04-11T19:13:18.047-05:00
1775952798057910300,0.41191015625,-36.87343978881836,-14.285662651062012,-25.706321716308594,2026-04-11T19:13:18.057-05:00
1775952798067967200,0.42196728515625,-37.00250244140625,-14.133223533630371,-25.54938507080078,2026-04-11T19:13:18.067-05:00
1775952798078024200,0.432024169921875,-37.03803253173828,-14.463350296020508,-25.21558380126953,2026-04-11T19:13:18.078-05:00
1775952798088081200,0.4420810546875,-37.03803253173828,-14.463350296020508,-25.21558380126953,2026-04-11T19:13:18.088-05:00
1775952798098138000,0.45213818359375,-37.07451629638672,-14.464460372924805,-25.23674774169922,2026-04-11T19:13:18.098-05:00
1775952798108194000,0.462194091796875,-37.07770538330078,-14.166321754455566,-25.465362548828125,2026-04-11T19:13:18.108-05:00
1775952798118251300,0.472251220703125,-37.11134338378906,-13.871536254882812,-26.41077423095703,2026-04-11T19:13:18.118-05:00
1775952798128308200,0.48230810546875,-36.02971649169922,-12.745210647583008,-27.845367431640625,2026-04-11T19:13:18.128-05:00
1775952798138365400,0.492365478515625,-34.681175231933594,-11.88248348236084,-29.806076049804688,2026-04-11T19:13:18.138-05:00
1775952798148421000,0.502421142578125,-32.6826171875,-11.283440589904785,-31.957820892333984,2026-04-11T19:13:18.148-05:00
1775952798158478300,0.512478271484375,-30.439319610595703,-10.554612159729004,-34.41522979736328,2026-04-11T19:13:18.158-05:00
1775952798168535300,0.522535400390625,-27.927143096923828,-10.535581588745117,-36.540245056152344,2026-04-11T19:13:18.168-05:00
1775952798178592300,0.53259228515625,-25.552837371826172,-10.713245391845703,-38.141204833984375,2026-04-11T19:13:18.178-05:00
1775952798188648200,0.542648193359375,-23.9908447265625,-11.395000457763672,-38.94236755371094,2026-04-11T19:13:18.188-05:00
1775952798198705200,0.552705078125,-22.54259490966797,-12.466116905212402,-39.55059051513672,2026-04-11T19:13:18.198-05:00
1775952798208762000,0.56276220703125,-21.406661987304688,-12.86502742767334,-39.936363220214844,2026-04-11T19:13:18.208-05:00
1775952798218819000,0.572819091796875,-20.864486694335938,-12.761496543884277,-40.20759201049805,2026-04-11T19:13:18.218-05:00
1775952798228875300,0.582875244140625,-20.711322784423828,-11.777641296386719,-40.6358528137207,2026-04-11T19:13:18.228-05:00
1775952798238932200,0.59293212890625,-20.952335357666016,-10.474625587463379,-40.82920455932617,2026-04-11T19:13:18.238-05:00
1775952798248989200,0.6029892578125,-21.734230041503906,-9.117768287658691,-40.844425201416016,2026-04-11T19:13:18.248-05:00
1775952798259046100,0.613046142578125,-23.035499572753906,-7.184157371520996,-40.59550476074219,2026-04-11T19:13:18.259-05:00
1775952798269103000,0.62310302734375,-24.03298568725586,-5.251923561096191,-40.31686782836914,2026-04-11T19:13:18.269-05:00
1775952798279159000,0.633158935546875,-24.955093383789062,-3.149756908416748,-40.1439323425293,2026-04-11T19:13:18.279-05:00
1775952798289216000,0.643216064453125,-24.93294906616211,-0.9012117385864258,-40.18456268310547,2026-04-11T19:13:18.289-05:00
1775952798299273200,0.653273193359375,-24.036376953125,1.0229849815368652,-40.59392166137695,2026-04-11T19:13:18.299-05:00
1775952798309330200,0.663330078125,-22.71749496459961,2.8495492935180664,-41.348350524902344,2026-04-11T19:13:18.309-05:00
1775952798319386400,0.673386474609375,-21.20105743408203,4.510407447814941,-42.1079216003418,2026-04-11T19:13:18.319-05:00
1775952798329443300,0.683443359375,-19.429763793945312,5.328283786773682,-42.76966094970703,2026-04-11T19:13:18.329-05:00
1775952798339500300,0.693500244140625,-17.589496612548828,6.199415683746338,-43.47050094604492,2026-04-11T19:13:18.339-05:00
1775952798349557200,0.70355712890625,-15.601119995117188,7.301037311553955,-44.086727142333984,2026-04-11T19:13:18.349-05:00
1775952798359613200,0.71361328125,-14.150932312011719,8.773502349853516,-44.37164306640625,2026-04-11T19:13:18.359-05:00
1775952798369670100,0.723670166015625,-14.159492492675781,8.766990661621094,-44.36805725097656,2026-04-11T19:13:18.369-05:00
1775952798379727000,0.73372705078125,-12.750789642333984,11.034996032714844,-44.15061569213867,2026-04-11T19:13:18.379-05:00
1775952798389784000,0.7437841796875,-11.527015686035156,13.355606079101562,-43.917850494384766,2026-04-11T19:13:18.389-05:00
1775952798399840300,0.75384033203125,-10.037860870361328,15.995376586914062,-43.429203033447266,2026-04-11T19:13:18.399-05:00
1775952798409897200,0.763897216796875,-8.337291717529297,18.556488037109375,-42.6617431640625,2026-04-11T19:13:18.409-05:00
1775952798419954200,0.7739541015625,-6.7530517578125,20.961091995239258,-41.83088302612305,2026-04-11T19:13:18.419-05:00
1775952798430011100,0.78401123046875,-5.112884521484375,23.005184173583984,-40.8631477355957,2026-04-11T19:13:18.430-05:00
1775952798440068400,0.794068359375,-3.2723846435546875,24.783103942871094,-39.91236114501953,2026-04-11T19:13:18.440-05:00
1775952798450124300,0.804124267578125,-1.598907470703125,26.176095962524414,-39.34531784057617,2026-04-11T19:13:18.450-05:00
1775952798460181200,0.81418115234375,0.12862396240234375,27.42305564880371,-38.500762939453125,2026-04-11T19:13:18.460-05:00
1775952798470238200,0.82423828125,2.248382568359375,28.69301986694336,-37.584564208984375,2026-04-11T19:13:18.470-05:00
1775952798480295200,0.834295166015625,4.2508087158203125,29.941299438476562,-36.40268325805664,2026-04-11T19:13:18.480-05:00
1775952798490351400,0.844351318359375,6.188835144042969,31.12255096435547,-34.89604949951172,2026-04-11T19:13:18.490-05:00
1775952798500408300,0.854408203125,8.545654296875,32.20968246459961,-33.49142074584961,2026-04-11T19:13:18.500-05:00
1775952798510465300,0.86446533203125,10.873825073242188,33.281105041503906,-31.71091079711914,2026-04-11T19:13:18.510-05:00
1775952798520522200,0.874522216796875,13.003608703613281,34.335731506347656,-29.707195281982422,2026-04-11T19:13:18.520-05:00
1775952798530578200,0.884578125,14.797256469726562,35.42908477783203,-27.417205810546875,2026-04-11T19:13:18.530-05:00
1775952798540635100,0.89463525390625,15.694877624511719,36.543212890625,-25.000267028808594,2026-04-11T19:13:18.540-05:00
1775952798550692000,0.904692138671875,15.961212158203125,37.639461517333984,-23.1845703125,2026-04-11T19:13:18.550-05:00
1775952798560749000,0.9147490234375,15.643966674804688,38.82731246948242,-21.43841552734375,2026-04-11T19:13:18.560-05:00
1775952798570805200,0.92480517578125,15.183990478515625,39.89136505126953,-19.607086181640625,2026-04-11T19:13:18.570-05:00
1775952798580862200,0.9348623046875,14.51080322265625,40.690032958984375,-18.281944274902344,2026-04-11T19:13:18.580-05:00
1775952798590919400,0.94491943359375,14.047439575195312,41.450172424316406,-16.85584259033203,2026-04-11T19:13:18.590-05:00
1775952798600976400,0.954976318359375,13.587646484375,42.078399658203125,-15.675918579101562,2026-04-11T19:13:18.600-05:00
1775952798611032300,0.9650322265625,12.854751586914062,42.60128402709961,-14.9609375,2026-04-11T19:13:18.611-05:00
1775952798621089300,0.97508935546875,12.208099365234375,43.014183044433594,-14.363014221191406,2026-04-11T19:13:18.621-05:00
1775952798631146200,0.985146240234375,11.319015502929688,43.27922439575195,-14.183067321777344,2026-04-11T19:13:18.631-05:00
1775952798641203200,0.995203125,11.312423706054688,43.282470703125,-14.179908752441406,2026-04-11T19:13:18.641-05:00
1775952798651260200,1.00526025390625,10.181419372558594,43.51500701904297,-14.288108825683594,2026-04-11T19:13:18.651-05:00
1775952798661316000,1.015316162109375,9.070358276367188,43.75666046142578,-14.54437255859375,2026-04-11T19:13:18.661-05:00
1775952798671373000,1.025373046875,8.302940368652344,43.7926139831543,-15.188331604003906,2026-04-11T19:13:18.671-05:00
1775952798681430300,1.03543017578125,7.438728332519531,43.545989990234375,-16.021331787109375,2026-04-11T19:13:18.681-05:00
1775952798691487200,1.0454873046875,6.982330322265625,43.26738739013672,-16.93915557861328,2026-04-11T19:13:18.691-05:00
1775952798701543200,1.055543212890625,6.9419097900390625,42.85989761352539,-18.205764770507812,2026-04-11T19:13:18.701-05:00
1775952798711600000,1.06560009765625,7.076210021972656,42.203407287597656,-19.4158935546875,2026-04-11T19:13:18.711-05:00
1775952798721657000,1.075656982421875,7.049766540527344,41.50400161743164,-20.78290557861328,2026-04-11T19:13:18.721-05:00
1775952798731714300,1.08571435546875,6.897071838378906,40.87554168701172,-22.21466064453125,2026-04-11T19:13:18.731-05:00
1775952798741770200,1.095770263671875,6.6196746826171875,40.168739318847656,-23.683753967285156,2026-04-11T19:13:18.741-05:00
1775952798751827200,1.1058271484375,6.418792724609375,39.35633087158203,-25.112289428710938,2026-04-11T19:13:18.751-05:00
1775952798761884200,1.11588427734375,6.0900421142578125,38.537418365478516,-26.33551025390625,2026-04-11T19:13:18.761-05:00
1775952798771941000,1.125941162109375,5.914634704589844,37.9182014465332,-27.34600067138672,2026-04-11T19:13:18.771-05:00
1775952798781997300,1.135997314453125,5.8601226806640625,37.3125,-28.21575164794922,2026-04-11T19:13:18.781-05:00
1775952798792054300,1.14605419921875,5.6606903076171875,36.89087677001953,-29.128459930419922,2026-04-11T19:13:18.792-05:00
1775952798802111200,1.156111328125,5.55035400390625,36.10822296142578,-30.12783432006836,2026-04-11T19:13:18.802-05:00
1775952798812168200,1.166168212890625,5.530487060546875,35.3381233215332,-31.155467987060547,2026-04-11T19:13:18.812-05:00
1775952798822224100,1.17622412109375,5.1907958984375,34.59344482421875,-31.785083770751953,2026-04-11T19:13:18.822-05:00
1775952798832281000,1.186281005859375,5.1248321533203125,33.98594665527344,-32.644161224365234,2026-04-11T19:13:18.832-05:00
1775952798842338000,1.196338134765625,5.039375305175781,33.270538330078125,-33.17040252685547,2026-04-11T19:13:18.842-05:00
1775952798852395000,1.20639501953125,5.20947265625,32.605247497558594,-33.90959167480469,2026-04-11T19:13:18.852-05:00
1775952798862452200,1.2164521484375,5.226432800292969,31.914291381835938,-34.64816665649414,2026-04-11T19:13:18.862-05:00
1775952798872508200,1.226508056640625,4.691795349121094,31.25382423400879,-35.15572738647461,2026-04-11T19:13:18.872-05:00
1775952798882565400,1.2365654296875,4.4415130615234375,30.4711856842041,-35.91020965576172,2026-04-11T19:13:18.882-05:00
1775952798892622300,1.246622314453125,4.072639465332031,29.682159423828125,-36.61178970336914,2026-04-11T19:13:18.892-05:00
1775952798902679300,1.25667919921875,3.2798004150390625,29.05087661743164,-37.21711730957031,2026-04-11T19:13:18.902-05:00
1775952798912735200,1.2667353515625,2.4254608154296875,28.338855743408203,-37.80329132080078,2026-04-11T19:13:18.912-05:00
1775952798922792200,1.276792236328125,2.4254608154296875,28.338855743408203,-37.80329132080078,2026-04-11T19:13:18.922-05:00
1775952798932849200,1.28684912109375,1.5731964111328125,27.819053649902344,-38.206119537353516,2026-04-11T19:13:18.932-05:00
1775952798942906000,1.296906005859375,0.673187255859375,27.52104949951172,-38.413658142089844,2026-04-11T19:13:18.942-05:00
1775952798952962300,1.30696240234375,-0.037078857421875,27.013330459594727,-38.87149429321289,2026-04-11T19:13:18.952-05:00
1775952798963019300,1.317019287109375,-0.7253036499023438,26.65339469909668,-38.922855377197266,2026-04-11T19:13:18.963-05:00
1775952798973076200,1.327076171875,-1.0996627807617188,26.139297485351562,-39.364871978759766,2026-04-11T19:13:18.973-05:00
1775952798983133200,1.33713330078125,-1.5537261962890625,25.65137481689453,-39.573490142822266,2026-04-11T19:13:18.983-05:00
1775952798993189000,1.347189208984375,-2.3069000244140625,25.62375259399414,-39.71965789794922,2026-04-11T19:13:18.993-05:00
1775952799003246000,1.35724609375,-3.1101455688476562,25.635746002197266,-39.617122650146484,2026-04-11T19:13:19.003-05:00
1775952799013303000,1.367302978515625,-4.0745697021484375,26.108842849731445,-39.1317138671875,2026-04-11T19:13:19.013-05:00
1775952799023360000,1.377360107421875,-5.171089172363281,27.05228614807129,-38.3653564453125,2026-04-11T19:13:19.023-05:00
1775952799033417000,1.3874169921875,-6.4822845458984375,28.095834732055664,-37.517913818359375,2026-04-11T19:13:19.033-05:00
1775952799043473200,1.39747314453125,-8.00802230834961,29.300127029418945,-36.195316314697266,2026-04-11T19:13:19.043-05:00
1775952799053530000,1.407530029296875,-9.654037475585938,30.611989974975586,-34.679359436035156,2026-04-11T19:13:19.053-05:00
1775952799063587000,1.417587158203125,-10.999214172363281,31.767093658447266,-33.553504943847656,2026-04-11T19:13:19.063-05:00
1775952799073644300,1.427644287109375,-12.166511535644531,32.68344497680664,-32.051055908203125,2026-04-11T19:13:19.073-05:00
1775952799083700200,1.4377001953125,-12.889785766601562,33.259952545166016,-31.402759552001953,2026-04-11T19:13:19.083-05:00
1775952799093757200,1.447757080078125,-13.274089813232422,33.586727142333984,-30.902694702148438,2026-04-11T19:13:19.093-05:00
1775952799103814100,1.457814208984375,-13.105232238769531,33.67575454711914,-30.661727905273438,2026-04-11T19:13:19.103-05:00
1775952799113871000,1.46787109375,-12.459617614746094,33.87522888183594,-30.84954833984375,2026-04-11T19:13:19.113-05:00
1775952799123927000,1.477927001953125,-12.177497863769531,34.30018997192383,-30.468807220458984,2026-04-11T19:13:19.123-05:00
1775952799133984300,1.487984375,-12.342830657958984,34.739524841308594,-29.986263275146484,2026-04-11T19:13:19.133-05:00
1775952799144041200,1.498041259765625,-12.09225845336914,35.520362854003906,-28.965198516845703,2026-04-11T19:13:19.144-05:00
1775952799154098200,1.50809814453125,-12.540000915527344,36.30435562133789,-27.63953399658203,2026-04-11T19:13:19.154-05:00
1775952799164154000,1.518154052734375,-12.513168334960938,37.46505355834961,-26.18743133544922,2026-04-11T19:13:19.164-05:00
1775952799174211000,1.528211181640625,-12.742660522460938,38.451168060302734,-24.45386505126953,2026-04-11T19:13:19.174-05:00
1775952799184268000,1.53826806640625,-12.76007080078125,39.503929138183594,-22.819190979003906,2026-04-11T19:13:19.184-05:00
1775952799194325000,1.548324951171875,-12.730052947998047,40.31537628173828,-21.271461486816406,2026-04-11T19:13:19.194-05:00
1775952799204381000,1.558380859375,-12.729618072509766,40.309593200683594,-21.26959991455078,2026-04-11T19:13:19.204-05:00
1775952799214438000,1.56843798828125,-12.738571166992188,41.092002868652344,-19.81169891357422,2026-04-11T19:13:19.214-05:00
1775952799224495000,1.5784951171875,-12.510322570800781,41.773475646972656,-18.141494750976562,2026-04-11T19:13:19.224-05:00
1775952799234552300,1.58855224609375,-12.377208709716797,42.52120590209961,-16.715797424316406,2026-04-11T19:13:19.234-05:00
1775952799244609300,1.598609375,-12.207294464111328,43.22899627685547,-15.061294555664062,2026-04-11T19:13:19.244-05:00
1775952799254665200,1.608665283203125,-12.153274536132812,43.75411605834961,-13.413925170898438,2026-04-11T19:13:19.254-05:00
1775952799264722200,1.61872216796875,-11.996707916259766,44.09321212768555,-11.670181274414062,2026-04-11T19:13:19.264-05:00
1775952799274779100,1.628779052734375,-12.120960235595703,44.35874557495117,-10.055076599121094,2026-04-11T19:13:19.274-05:00
1775952799284836000,1.638836181640625,-11.949928283691406,44.72294616699219,-8.800552368164062,2026-04-11T19:13:19.284-05:00
1775952799294892000,1.64889208984375,-11.812088012695312,45.07475280761719,-7.501640319824219,2026-04-11T19:13:19.294-05:00
1775952799304949000,1.658948974609375,-11.490562438964844,45.327117919921875,-6.187782287597656,2026-04-11T19:13:19.304-05:00
1775952799315006000,1.669005859375,-11.234603881835938,45.639373779296875,-4.911231994628906,2026-04-11T19:13:19.315-05:00
1775952799325063200,1.679063232421875,-10.834068298339844,45.85649871826172,-3.3762054443359375,2026-04-11T19:13:19.325-05:00
1775952799335119000,1.689119140625,-10.459918975830078,46.004207611083984,-1.7254180908203125,2026-04-11T19:13:19.335-05:00
1775952799345176000,1.699176025390625,-10.092155456542969,46.07082748413086,0.17438507080078125,2026-04-11T19:13:19.345-05:00
1775952799355233000,1.70923291015625,-9.75543212890625,46.159690856933594,2.1543502807617188,2026-04-11T19:13:19.355-05:00
1775952799365290200,1.719290283203125,-9.05923843383789,46.03619384765625,4.285469055175781,2026-04-11T19:13:19.365-05:00
1775952799375347200,1.72934716796875,-9.157432556152344,45.83420944213867,6.519134521484375,2026-04-11T19:13:19.375-05:00
1775952799385403100,1.739403076171875,-8.813621520996094,45.3831787109375,8.913139343261719,2026-04-11T19:13:19.385-05:00
1775952799395460000,1.749460205078125,-8.702045440673828,44.913814544677734,11.380088806152344,2026-04-11T19:13:19.395-05:00
1775952799405517000,1.75951708984375,-8.834468841552734,44.10533905029297,13.866203308105469,2026-04-11T19:13:19.405-05:00
1775952799415574000,1.769573974609375,-8.78118896484375,43.20232009887695,16.404144287109375,2026-04-11T19:13:19.415-05:00
1775952799425630200,1.779630126953125,-9.084053039550781,42.21449279785156,18.67626953125,2026-04-11T19:13:19.425-05:00
1775952799435687200,1.789687255859375,-9.27878189086914,40.932891845703125,21.269561767578125,2026-04-11T19:13:19.435-05:00
1775952799445744000,1.799744140625,-9.513957977294922,39.64786911010742,23.60889434814453,2026-04-11T19:13:19.445-05:00
1775952799455801000,1.809801025390625,-10.067493438720703,37.986610412597656,25.776626586914062,2026-04-11T19:13:19.455-05:00
1775952799465857000,1.81985693359375,-10.171005249023438,36.0694580078125,28.253204345703125,2026-04-11T19:13:19.465-05:00
1775952799475914000,1.8299140625,-10.167579650878906,36.07379150390625,28.27985382080078,2026-04-11T19:13:19.475-05:00
1775952799485971000,1.839970947265625,-10.527000427246094,34.12887191772461,30.69007110595703,2026-04-11T19:13:19.485-05:00
1775952799496028200,1.850028076171875,-11.666461944580078,32.119171142578125,32.62706756591797,2026-04-11T19:13:19.496-05:00
1775952799506085000,1.860085205078125,-12.231819152832031,31.184709548950195,33.356231689453125,2026-04-11T19:13:19.506-05:00
1775952799516141300,1.870141357421875,-12.892803192138672,31.88789939880371,32.26781463623047,2026-04-11T19:13:19.516-05:00
1775952799526198300,1.8801982421875,-13.680591583251953,33.34593963623047,30.386009216308594,2026-04-11T19:13:19.526-05:00
1775952799536255200,1.890255126953125,-14.378227233886719,34.8151741027832,28.312286376953125,2026-04-11T19:13:19.536-05:00
1775952799546312200,1.900312255859375,-15.547008514404297,35.81763458251953,26.285789489746094,2026-04-11T19:13:19.546-05:00
1775952799556368100,1.9103681640625,-17.387649536132812,36.15528106689453,24.511215209960938,2026-04-11T19:13:19.556-05:00
1775952799566425000,1.920425048828125,-19.792369842529297,36.09828186035156,22.970779418945312,2026-04-11T19:13:19.566-05:00
1775952799576482000,1.93048193359375,-22.383132934570312,35.45893096923828,21.53020477294922,2026-04-11T19:13:19.576-05:00
1775952799586539000,1.9405390625,-25.136234283447266,34.49922561645508,20.286483764648438,2026-04-11T19:13:19.586-05:00
1775952799596595200,1.95059521484375,-27.489608764648438,33.45323181152344,19.156723022460938,2026-04-11T19:13:19.596-05:00
1775952799606652200,1.960652099609375,-29.54815673828125,32.52345657348633,18.1436767578125,2026-04-11T19:13:19.606-05:00
1775952799616709000,1.970709228515625,-30.792400360107422,31.644515991210938,17.70281982421875,2026-04-11T19:13:19.616-05:00
1775952799626766000,1.98076611328125,-31.43354034423828,30.771038055419922,17.777786254882812,2026-04-11T19:13:19.626-05:00
1775952799636822000,1.990822021484375,-31.50772476196289,30.19257354736328,18.764724731445312,2026-04-11T19:13:19.636-05:00
1775952799646879000,2.00087890625,-30.804100036621094,29.946516036987305,20.483856201171875,2026-04-11T19:13:19.646-05:00
1775952799656936200,2.010936279296875,-29.580516815185547,29.570096969604492,22.334579467773438,2026-04-11T19:13:19.656-05:00
1775952799666993200,2.0209931640625,-27.36861801147461,29.719898223876953,24.406570434570312,2026-04-11T19:13:19.666-05:00
1775952799677050000,2.031050048828125,-25.16281509399414,29.790176391601562,26.552574157714844,2026-04-11T19:13:19.677-05:00
1775952799687106300,2.041106201171875,-22.71628189086914,29.745040893554688,28.75511932373047,2026-04-11T19:13:19.687-05:00
1775952799697163300,2.051163330078125,-20.21086883544922,29.5009765625,30.870506286621094,2026-04-11T19:13:19.697-05:00
1775952799707220200,2.06122021484375,-17.8673095703125,29.366025924682617,32.295738220214844,2026-04-11T19:13:19.707-05:00
1775952799717277200,2.071277099609375,-15.441856384277344,29.796472549438477,32.89775085449219,2026-04-11T19:13:19.717-05:00
1775952799727333000,2.0813330078125,-13.350704193115234,30.914344787597656,32.973175048828125,2026-04-11T19:13:19.727-05:00
1775952799737390000,2.09139013671875,-11.58184814453125,32.35589599609375,32.27001190185547,2026-04-11T19:13:19.737-05:00
1775952799747447000,2.101447021484375,-9.767459869384766,33.93174743652344,31.15502166748047,2026-04-11T19:13:19.747-05:00
1775952799757504000,2.11150390625,-9.767459869384766,33.93174743652344,31.15502166748047,2026-04-11T19:13:19.757-05:00
1775952799767560000,2.121559814453125,-8.299400329589844,35.190589904785156,30.12908935546875,2026-04-11T19:13:19.767-05:00
1775952799777617200,2.1316171875,-7.138542175292969,36.26616668701172,29.05963134765625,2026-04-11T19:13:19.777-05:00
1775952799787674000,2.141674072265625,-5.698966979980469,37.16205978393555,28.271469116210938,2026-04-11T19:13:19.787-05:00
1775952799797731300,2.1517314453125,-4.8052825927734375,37.59347152709961,27.826553344726562,2026-04-11T19:13:19.797-05:00
1775952799807788300,2.161788330078125,-3.986968994140625,37.8190803527832,27.600067138671875,2026-04-11T19:13:19.807-05:00
1775952799817844200,2.17184423828125,-3.4655990600585938,38.181419372558594,27.258216857910156,2026-04-11T19:13:19.817-05:00
1775952799827901200,2.181901123046875,-3.0159530639648438,38.3615608215332,27.130470275878906,2026-04-11T19:13:19.827-05:00
1775952799837958100,2.191958251953125,-2.25042724609375,38.65433120727539,26.79730224609375,2026-04-11T19:13:19.837-05:00
1775952799848015000,2.20201513671875,-1.904693603515625,38.9168815612793,26.412452697753906,2026-04-11T19:13:19.848-05:00
1775952799858071000,2.212071044921875,-1.8210525512695312,38.99677658081055,26.25146484375,2026-04-11T19:13:19.858-05:00
1775952799868128000,2.2221279296875,-1.305389404296875,39.237876892089844,25.83800506591797,2026-04-11T19:13:19.868-05:00
1775952799878185000,2.23218505859375,-1.0719757080078125,39.50282287597656,25.48565673828125,2026-04-11T19:13:19.878-05:00
1775952799888242200,2.2422421875,-0.8356475830078125,39.570072174072266,25.3033447265625,2026-04-11T19:13:19.888-05:00
1775952799898298000,2.252298095703125,-0.12738037109375,39.872352600097656,25.014129638671875,2026-04-11T19:13:19.898-05:00
1775952799908355000,2.26235498046875,0.13301849365234375,39.88050842285156,24.72840118408203,2026-04-11T19:13:19.908-05:00
1775952799918412000,2.272412109375,0.5489349365234375,40.17345428466797,24.517242431640625,2026-04-11T19:13:19.918-05:00
1775952799928469200,2.28246923828125,0.5709304809570312,40.25746536254883,24.24335479736328,2026-04-11T19:13:19.928-05:00
1775952799938526200,2.292526123046875,0.49609375,40.281455993652344,24.16706085205078,2026-04-11T19:13:19.938-05:00
1775952799948582100,2.30258203125,0.5250930786132812,40.400882720947266,23.986534118652344,2026-04-11T19:13:19.948-05:00
1775952799958639600,2.3126396484375,0.35204315185546875,40.39772415161133,23.920654296875,2026-04-11T19:13:19.958-05:00
1775952799968696600,2.322696533203125,0.05231475830078125,40.46553039550781,23.860694885253906,2026-04-11T19:13:19.968-05:00
1775952799978753500,2.33275341796875,-0.22412109375,40.58867263793945,23.783645629882812,2026-04-11T19:13:19.978-05:00
1775952799988809700,2.342809814453125,-0.7681350708007812,40.637508392333984,23.714385986328125,2026-04-11T19:13:19.988-05:00
1775952799998866700,2.35286669921875,-1.0562667846679688,40.61943817138672,23.791519165039062,2026-04-11T19:13:19.998-05:00
1775952800008923600,2.362923583984375,-1.5325393676757812,40.623268127441406,23.76799774169922,2026-04-11T19:13:20.008-05:00
1775952800018980600,2.372980712890625,-2.1179656982421875,40.456199645996094,23.767776489257812,2026-04-11T19:13:20.018-05:00
1775952800029036500,2.38303662109375,-2.1179656982421875,40.456199645996094,23.767776489257812,2026-04-11T19:13:20.029-05:00
1775952800039093500,2.393093505859375,-2.2595901489257812,40.5583610534668,23.810943603515625,2026-04-11T19:13:20.039-05:00
1775952800049150500,2.403150390625,-2.7781906127929688,40.315460205078125,23.96258544921875,2026-04-11T19:13:20.049-05:00
1775952800059207700,2.413207763671875,-3.1908950805664062,40.25825881958008,23.94793701171875,2026-04-11T19:13:20.059-05:00
1775952800069264600,2.4232646484375,-3.543609619140625,40.034934997558594,24.35472869873047,2026-04-11T19:13:20.069-05:00
1775952800079320800,2.43332080078125,-3.88275146484375,39.924678802490234,24.6116943359375,2026-04-11T19:13:20.079-05:00
1775952800089377800,2.443377685546875,-4.0953216552734375,39.762123107910156,24.73633575439453,2026-04-11T19:13:20.089-05:00
1775952800099434800,2.453434814453125,-4.2061004638671875,39.629337310791016,24.99797821044922,2026-04-11T19:13:20.099-05:00
1775952800109491700,2.46349169921875,-4.517181396484375,39.40604019165039,25.26543426513672,2026-04-11T19:13:20.109-05:00
1775952800119547600,2.473547607421875,-4.674095153808594,39.33339309692383,25.487075805664062,2026-04-11T19:13:20.119-05:00
1775952800129604600,2.4836044921875,-4.820472717285156,39.18577575683594,25.61060333251953,2026-04-11T19:13:20.129-05:00
1775952800139661600,2.49366162109375,-4.660774230957031,38.94517517089844,25.935707092285156,2026-04-11T19:13:20.139-05:00
1775952800149718500,2.503718505859375,-4.666145324707031,39.004966735839844,25.959625244140625,2026-04-11T19:13:20.149-05:00
1775952800159774700,2.513774658203125,-5.203208923339844,38.83280944824219,26.2091064453125,2026-04-11T19:13:20.159-05:00
1775952800169831700,2.523831787109375,-5.229225158691406,38.69706344604492,26.19373321533203,2026-04-11T19:13:20.169-05:00
1775952800179888600,2.533888671875,-5.553985595703125,38.60391616821289,26.156936645507812,2026-04-11T19:13:20.179-05:00
1775952800189945600,2.543945556640625,-5.755546569824219,38.55810546875,26.108291625976562,2026-04-11T19:13:20.189-05:00
1775952800200002800,2.5540029296875,-5.8338165283203125,38.62147903442383,26.180015563964844,2026-04-11T19:13:20.200-05:00
1775952800210058500,2.56405859375,-6.0695343017578125,38.44657897949219,26.27136993408203,2026-04-11T19:13:20.210-05:00
1775952800220115700,2.57411572265625,-6.056983947753906,38.38948440551758,26.30113983154297,2026-04-11T19:13:20.220-05:00
1775952800230172700,2.584172607421875,-6.2210540771484375,38.59987258911133,26.118324279785156,2026-04-11T19:13:20.230-05:00
1775952800240229600,2.594229736328125,-6.521453857421875,38.58316421508789,25.909515380859375,2026-04-11T19:13:20.240-05:00
1775952800250285600,2.60428564453125,-6.738151550292969,38.68737030029297,25.856353759765625,2026-04-11T19:13:20.250-05:00
1775952800260342500,2.614342529296875,-6.873435974121094,38.819278717041016,25.598968505859375,2026-04-11T19:13:20.260-05:00
1775952800270399700,2.624399658203125,-6.985809326171875,38.926483154296875,25.408889770507812,2026-04-11T19:13:20.270-05:00
1775952800280456700,2.634456787109375,-6.576576232910156,39.26567077636719,25.07268524169922,2026-04-11T19:13:20.280-05:00
1775952800290512600,2.6445126953125,-6.354881286621094,39.61988830566406,24.76683807373047,2026-04-11T19:13:20.290-05:00
1775952800300569600,2.654569580078125,-6.13983154296875,39.785621643066406,24.36388397216797,2026-04-11T19:13:20.300-05:00
1775952800310626600,2.66462646484375,-6.143440246582031,39.782554626464844,24.357398986816406,2026-04-11T19:13:20.310-05:00
1775952800320683500,2.67468359375,-5.963645935058594,40.26736831665039,23.74297332763672,2026-04-11T19:13:20.320-05:00
1775952800330740500,2.684740478515625,-5.989448547363281,40.53847885131836,23.31262969970703,2026-04-11T19:13:20.330-05:00
1775952800340796400,2.69479638671875,-6.040252685546875,40.58987045288086,23.05517578125,2026-04-11T19:13:20.340-05:00
1775952800350853600,2.704853515625,-6.412239074707031,40.58012390136719,22.918373107910156,2026-04-11T19:13:20.350-05:00
1775952800360910600,2.71491064453125,-6.568817138671875,40.62317657470703,22.864051818847656,2026-04-11T19:13:20.360-05:00
1775952800370967600,2.724967529296875,-6.649208068847656,40.688209533691406,22.910110473632812,2026-04-11T19:13:20.370-05:00
1775952800381023700,2.735023681640625,-6.585174560546875,40.63462829589844,22.854598999023438,2026-04-11T19:13:20.381-05:00
1775952800391080700,2.745080810546875,-6.2847747802734375,40.65924072265625,23.010223388671875,2026-04-11T19:13:20.391-05:00
1775952800401137700,2.7551376953125,-5.921775817871094,40.67321014404297,23.060630798339844,2026-04-11T19:13:20.401-05:00
1775952800411194600,2.765194580078125,-5.815742492675781,40.61360168457031,23.073867797851562,2026-04-11T19:13:20.411-05:00
1775952800421250600,2.77525048828125,-6.226341247558594,40.575950622558594,22.926849365234375,2026-04-11T19:13:20.421-05:00
1775952800431307500,2.7853076171875,-6.471366882324219,40.620731353759766,22.929046630859375,2026-04-11T19:13:20.431-05:00
1775952800441364500,2.795364501953125,-7.025810241699219,40.52128219604492,22.911514282226562,2026-04-11T19:13:20.441-05:00
1775952800451421400,2.80542138671875,-7.172550201416016,40.55707550048828,23.055099487304688,2026-04-11T19:13:20.451-05:00
1775952800461478400,2.815478515625,-7.320209503173828,40.587642669677734,23.026229858398438,2026-04-11T19:13:20.461-05:00
1775952800471534600,2.82553466796875,-7.4189300537109375,40.46538543701172,22.944862365722656,2026-04-11T19:13:20.471-05:00
1775952800481591600,2.835591552734375,-7.557979583740234,40.4486198425293,22.92053985595703,2026-04-11T19:13:20.481-05:00
1775952800491648800,2.845648681640625,-7.566047668457031,40.55319595336914,22.864341735839844,2026-04-11T19:13:20.491-05:00
1775952800501705700,2.855705810546875,-7.546382904052734,40.55989456176758,22.82915496826172,2026-04-11T19:13:20.501-05:00
1775952800511761700,2.86576171875,-7.646038055419922,40.62753677368164,22.696266174316406,2026-04-11T19:13:20.511-05:00
1775952800521818600,2.875818603515625,-8.043296813964844,40.63267517089844,22.468048095703125,2026-04-11T19:13:20.521-05:00
1775952800531875600,2.88587548828125,-8.20004653930664,40.66592788696289,22.55561065673828,2026-04-11T19:13:20.531-05:00
1775952800541932500,2.8959326171875,-8.079139709472656,40.6834716796875,22.465652465820312,2026-04-11T19:13:20.541-05:00
1775952800551988700,2.90598876953125,-8.124916076660156,40.65524673461914,22.48687744140625,2026-04-11T19:13:20.551-05:00
1775952800562045700,2.916045654296875,-7.940723419189453,40.793190002441406,22.34918212890625,2026-04-11T19:13:20.562-05:00
1775952800572102700,2.9261025390625,-7.991096496582031,40.71644592285156,22.37805938720703,2026-04-11T19:13:20.572-05:00
1775952800582159600,2.93615966796875,-8.11083984375,40.719825744628906,22.379295349121094,2026-04-11T19:13:20.582-05:00
1775952800592216600,2.946216552734375,-8.11083984375,40.719825744628906,22.379295349121094,2026-04-11T19:13:20.592-05:00
1775952800602272500,2.9562724609375,-8.421321868896484,40.80543518066406,22.163848876953125,2026-04-11T19:13:20.602-05:00
1775952800612329500,2.96632958984375,-8.823230743408203,40.754249572753906,22.167503356933594,2026-04-11T19:13:20.612-05:00
1775952800622386400,2.976386474609375,-8.75058364868164,40.83433532714844,22.002090454101562,2026-04-11T19:13:20.622-05:00
1775952800632443600,2.986443603515625,-8.89068603515625,40.950347900390625,21.73480987548828,2026-04-11T19:13:20.632-05:00
1775952800642499800,2.996499755859375,-8.954654693603516,41.088775634765625,21.52716064453125,2026-04-11T19:13:20.642-05:00
1775952800652556800,3.006556884765625,-9.171268463134766,41.19677734375,21.416534423828125,2026-04-11T19:13:20.652-05:00
1775952800662613800,3.01661376953125,-9.348617553710938,41.239418029785156,21.134292602539062,2026-04-11T19:13:20.662-05:00
1775952800672670700,3.026670654296875,-9.291526794433594,41.28021240234375,21.06060791015625,2026-04-11T19:13:20.672-05:00
1775952800682726700,3.0367265625,-9.224685668945312,41.32151412963867,21.085594177246094,2026-04-11T19:13:20.682-05:00
1775952800692783600,3.04678369140625,-9.331340789794922,41.339210510253906,20.973670959472656,2026-04-11T19:13:20.692-05:00
1775952800702840600,3.056840576171875,-9.260921478271484,41.41123962402344,20.906707763671875,2026-04-11T19:13:20.702-05:00
1775952800712897500,3.0668974609375,-9.242584228515625,41.47993469238281,20.774429321289062,2026-04-11T19:13:20.712-05:00
1775952800722954500,3.07695458984375,-9.038410186767578,41.58312225341797,20.721343994140625,2026-04-11T19:13:20.722-05:00
1775952800733010700,3.0870107421875,-8.897380828857422,41.668212890625,20.74665069580078,2026-04-11T19:13:20.733-05:00
1775952800743067600,3.097067626953125,-8.644813537597656,41.83808135986328,20.584671020507812,2026-04-11T19:13:20.743-05:00
1775952800753124600,3.10712451171875,-8.436405181884766,41.83748245239258,20.560409545898438,2026-04-11T19:13:20.753-05:00
1775952800763181800,3.117181884765625,-8.160987854003906,41.953773498535156,20.352455139160156,2026-04-11T19:13:20.763-05:00
1775952800773237500,3.127237548828125,-7.988349914550781,41.968841552734375,20.220001220703125,2026-04-11T19:13:20.773-05:00
1775952800783294700,3.137294677734375,-7.658851623535156,42.08762741088867,20.168907165527344,2026-04-11T19:13:20.783-05:00
1775952800793351700,3.1473515625,-7.421527862548828,42.28886413574219,20.004188537597656,2026-04-11T19:13:20.793-05:00
1775952800803408600,3.15740869140625,-6.930824279785156,42.259681701660156,19.909400939941406,2026-04-11T19:13:20.803-05:00
1775952800813464600,3.167464599609375,-6.476646423339844,42.31817626953125,19.954246520996094,2026-04-11T19:13:20.813-05:00
1775952800823521800,3.177521728515625,-6.0029296875,42.3145866394043,19.906219482421875,2026-04-11T19:13:20.823-05:00
1775952800833578800,3.187578857421875,-5.3079986572265625,42.4588737487793,19.95183563232422,2026-04-11T19:13:20.833-05:00
1775952800843635700,3.1976357421875,-4.769386291503906,42.52568817138672,20.024063110351562,2026-04-11T19:13:20.843-05:00
1775952800853692700,3.207692626953125,-3.9853591918945312,42.44816207885742,20.130447387695312,2026-04-11T19:13:20.853-05:00
1775952800863748600,3.21774853515625,-3.9853591918945312,42.44816207885742,20.130447387695312,2026-04-11T19:13:20.863-05:00
1775952800873805600,3.2278056640625,-3.5481643676757812,42.537296295166016,20.206008911132812,2026-04-11T19:13:20.873-05:00
1775952800883862500,3.237862548828125,-2.7897491455078125,42.64225769042969,20.038467407226562,2026-04-11T19:13:20.883-05:00
1775952800893919500,3.24791943359375,-2.2652816772460938,42.663963317871094,20.282447814941406,2026-04-11T19:13:20.893-05:00
1775952800903975400,3.257975341796875,-1.51837158203125,42.64765548706055,20.410446166992188,2026-04-11T19:13:20.903-05:00
1775952800914032400,3.268032470703125,-0.9785995483398438,42.62242126464844,20.32079315185547,2026-04-11T19:13:20.914-05:00
1775952800924089600,3.278089599609375,-0.33095550537109375,42.53187942504883,20.434844970703125,2026-04-11T19:13:20.924-05:00
1775952800934146800,3.288146728515625,0.6473159790039062,42.5164680480957,20.457969665527344,2026-04-11T19:13:20.934-05:00
1775952800944202800,3.29820263671875,1.2906723022460938,42.52709197998047,20.570472717285156,2026-04-11T19:13:20.944-05:00
1775952800954259700,3.308259765625,2.3882522583007812,42.36674880981445,20.705909729003906,2026-04-11T19:13:20.954-05:00
1775952800964316700,3.318316650390625,3.3704833984375,42.15330123901367,20.97229766845703,2026-04-11T19:13:20.964-05:00
1775952800974373600,3.32837353515625,4.139305114746094,41.950103759765625,21.28412628173828,2026-04-11T19:13:20.974-05:00
1775952800984430600,3.3384306640625,5.172264099121094,41.848663330078125,21.266555786132812,2026-04-11T19:13:20.984-05:00
1775952800994486500,3.348486572265625,5.857933044433594,41.655967712402344,21.58057403564453,2026-04-11T19:13:20.994-05:00
1775952801004543500,3.35854345703125,6.707237243652344,41.450645446777344,21.685989379882812,2026-04-11T19:13:21.004-05:00
1775952801014600700,3.3686005859375,7.753814697265625,41.284812927246094,21.977012634277344,2026-04-11T19:13:21.014-05:00
1775952801024657700,3.37865771484375,8.285430908203125,40.89536666870117,22.063697814941406,2026-04-11T19:13:21.024-05:00
1775952801034713900,3.3887138671875,9.227890014648438,40.616546630859375,22.178016662597656,2026-04-11T19:13:21.034-05:00
1775952801044770800,3.398770751953125,10.25042724609375,40.232200622558594,22.40770721435547,2026-04-11T19:13:21.044-05:00
1775952801054827800,3.408827880859375,11.249656677246094,39.72731018066406,22.74347686767578,2026-04-11T19:13:21.054-05:00
1775952801064884700,3.418884765625,12.418685913085938,39.201778411865234,23.077438354492188,2026-04-11T19:13:21.064-05:00
1775952801074940700,3.428940673828125,13.484214782714844,38.77291488647461,23.33544921875,2026-04-11T19:13:21.074-05:00
1775952801084997600,3.43899755859375,14.337051391601562,38.11640167236328,23.841445922851562,2026-04-11T19:13:21.084-05:00
1775952801095054600,3.4490546875,15.363571166992188,37.443153381347656,24.299728393554688,2026-04-11T19:13:21.095-05:00
1775952801105111600,3.459111572265625,16.076690673828125,36.77232360839844,24.805419921875,2026-04-11T19:13:21.105-05:00
1775952801115168500,3.46916845703125,17.01422882080078,36.12493133544922,25.355430603027344,2026-04-11T19:13:21.115-05:00
1775952801125224700,3.479224609375,17.67871856689453,35.24327087402344,26.06829833984375,2026-04-11T19:13:21.125-05:00
1775952801135281700,3.48928173828125,18.37407684326172,34.28738021850586,26.72820281982422,2026-04-11T19:13:21.135-05:00
1775952801145338600,3.499338623046875,18.382957458496094,34.27605056762695,26.734939575195312,2026-04-11T19:13:21.145-05:00
1775952801155395800,3.509395751953125,19.423873901367188,33.39539337158203,27.460708618164062,2026-04-11T19:13:21.155-05:00
1775952801165451800,3.51945166015625,19.934051513671875,32.54087829589844,28.134254455566406,2026-04-11T19:13:21.165-05:00
1775952801175508700,3.5295087890625,20.397994995117188,31.527198791503906,28.75769805908203,2026-04-11T19:13:21.175-05:00
1775952801185565700,3.539565673828125,21.026283264160156,30.837390899658203,29.2935791015625,2026-04-11T19:13:21.185-05:00
1775952801195622700,3.54962255859375,21.15119171142578,30.024276733398438,29.715415954589844,2026-04-11T19:13:21.195-05:00
1775952801205678800,3.559678955078125,21.5751953125,29.244441986083984,30.334732055664062,2026-04-11T19:13:21.205-05:00
1775952801215735800,3.56973583984375,21.836509704589844,28.708003997802734,30.625808715820312,2026-04-11T19:13:21.215-05:00
1775952801225792800,3.579792724609375,22.068771362304688,28.303539276123047,30.81866455078125,2026-04-11T19:13:21.225-05:00
1775952801235849700,3.589849609375,22.489852905273438,27.743804931640625,31.049560546875,2026-04-11T19:13:21.235-05:00
1775952801245906700,3.59990673828125,22.744415283203125,27.343706130981445,31.138877868652344,2026-04-11T19:13:21.245-05:00
1775952801255962600,3.609962646484375,23.255630493164062,26.836511611938477,31.334182739257812,2026-04-11T19:13:21.255-05:00
1775952801266019600,3.62001953125,23.680397033691406,26.39762306213379,31.464996337890625,2026-04-11T19:13:21.266-05:00
1775952801276076500,3.63007666015625,23.72496795654297,26.0990047454834,31.566131591796875,2026-04-11T19:13:21.276-05:00
1775952801286133800,3.6401337890625,23.893829345703125,25.64021873474121,31.740310668945312,2026-04-11T19:13:21.286-05:00
1775952801296189700,3.650189697265625,24.15655517578125,25.222511291503906,31.96660614013672,2026-04-11T19:13:21.296-05:00
1775952801306247000,3.660246826171875,24.111404418945312,24.849227905273438,32.09986877441406,2026-04-11T19:13:21.306-05:00
1775952801316304000,3.670303955078125,24.367965698242188,24.29449462890625,32.531517028808594,2026-04-11T19:13:21.316-05:00
1775952801326360800,3.68036083984375,24.317970275878906,23.97933578491211,32.750244140625,2026-04-11T19:13:21.326-05:00
1775952801336417800,3.690417724609375,24.358001708984375,23.444303512573242,33.188987731933594,2026-04-11T19:13:21.336-05:00
1775952801346473700,3.7004736328125,24.428314208984375,22.850006103515625,33.614341735839844,2026-04-11T19:13:21.346-05:00
1775952801356530700,3.71053076171875,24.419906616210938,22.10768699645996,34.144752502441406,2026-04-11T19:13:21.356-05:00
1775952801366587600,3.720587646484375,24.41216278076172,21.218860626220703,34.68779754638672,2026-04-11T19:13:21.366-05:00
1775952801376644600,3.73064453125,24.198081970214844,20.318531036376953,35.3721923828125,2026-04-11T19:13:21.376-05:00
1775952801386700800,3.74070068359375,24.02234649658203,19.28154754638672,36.127174377441406,2026-04-11T19:13:21.386-05:00
1775952801396757800,3.7507578125,24.056678771972656,18.11797332763672,36.882164001464844,2026-04-11T19:13:21.396-05:00
1775952801406814700,3.760814697265625,23.59717559814453,17.05831527709961,37.64038848876953,2026-04-11T19:13:21.406-05:00
1775952801416871700,3.77087158203125,23.599884033203125,17.061540603637695,37.64012145996094,2026-04-11T19:13:21.416-05:00
1775952801426927600,3.780927734375,22.994583129882812,16.081491470336914,38.37474060058594,2026-04-11T19:13:21.426-05:00
1775952801436984600,3.790984619140625,22.589859008789062,15.195013046264648,39.04839324951172,2026-04-11T19:13:21.436-05:00
1775952801447041800,3.801041748046875,22.044921875,14.522354125976562,39.555030822753906,2026-04-11T19:13:21.447-05:00
1775952801457098800,3.8110986328125,21.119598388671875,13.92383098602295,39.91180419921875,2026-04-11T19:13:21.457-05:00
1775952801467155700,3.82115576171875,20.982505798339844,13.741732597351074,40.29881286621094,2026-04-11T19:13:21.467-05:00
1775952801477211600,3.831211669921875,20.204681396484375,14.009993553161621,40.58909606933594,2026-04-11T19:13:21.477-05:00
1775952801487268900,3.841268798828125,19.288589477539062,14.367386817932129,40.81156921386719,2026-04-11T19:13:21.487-05:00
1775952801497325800,3.851325927734375,18.735496520996094,15.077186584472656,41.029388427734375,2026-04-11T19:13:21.497-05:00
1775952801507382800,3.8613828125,17.603614807128906,16.04507827758789,40.948944091796875,2026-04-11T19:13:21.507-05:00
1775952801517438700,3.871438720703125,16.19544219970703,17.275224685668945,41.09466552734375,2026-04-11T19:13:21.517-05:00
1775952801527495700,3.88149560546875,14.937858581542969,18.93354034423828,40.86677551269531,2026-04-11T19:13:21.527-05:00
1775952801537552600,3.891552734375,13.234222412109375,20.30866241455078,40.58782196044922,2026-04-11T19:13:21.537-05:00
1775952801547609600,3.901609619140625,11.263153076171875,21.78205108642578,40.49333953857422,2026-04-11T19:13:21.547-05:00
1775952801557665500,3.91166552734375,8.62774658203125,23.128049850463867,40.236427307128906,2026-04-11T19:13:21.557-05:00
1775952801567722500,3.921722412109375,5.90087890625,24.28447914123535,40.149391174316406,2026-04-11T19:13:21.567-05:00
1775952801577779700,3.93177978515625,3.0166778564453125,25.033618927001953,39.92945098876953,2026-04-11T19:13:21.577-05:00
1775952801587836700,3.941836669921875,-0.4462127685546875,25.35884666442871,39.71747589111328,2026-04-11T19:13:21.587-05:00
1775952801597894000,3.951893798828125,-3.5856399536132812,25.335237503051758,39.725975036621094,2026-04-11T19:13:21.597-05:00
1775952801607949800,3.96194970703125,-6.735847473144531,24.964637756347656,39.55363464355469,2026-04-11T19:13:21.607-05:00
1775952801618006800,3.9720068359375,-9.609973907470703,23.937532424926758,39.65754699707031,2026-04-11T19:13:21.618-05:00
1775952801628063700,3.982063720703125,-12.128036499023438,22.65859031677246,39.820709228515625,2026-04-11T19:13:21.628-05:00
1775952801638120700,3.99212060546875,-14.898590087890625,20.766098022460938,39.94721984863281,2026-04-11T19:13:21.638-05:00
1775952801648176600,4.0021767578125,-17.51131820678711,18.811786651611328,39.975067138671875,2026-04-11T19:13:21.648-05:00
1775952801658233600,4.012233642578125,-19.848220825195312,16.37810707092285,40.01927185058594,2026-04-11T19:13:21.658-05:00
1775952801668290600,4.02229052734375,-21.99428939819336,13.794557571411133,39.830955505371094,2026-04-11T19:13:21.668-05:00
1775952801678347500,4.032347412109375,-24.227153778076172,11.638633728027344,39.33300018310547,2026-04-11T19:13:21.678-05:00
1775952801688404700,4.04240478515625,-26.86301040649414,10.213605880737305,38.08771514892578,2026-04-11T19:13:21.688-05:00
1775952801698460700,4.052460693359375,-26.86301040649414,10.213605880737305,38.08771514892578,2026-04-11T19:13:21.698-05:00
1775952801708517600,4.062517578125,-29.521347045898438,9.45007038116455,36.43226623535156,2026-04-11T19:13:21.708-05:00
1775952801718574800,4.072574951171875,-32.01942825317383,9.47531795501709,34.119956970214844,2026-04-11T19:13:21.718-05:00
1775952801728631800,4.0826318359375,-34.55634689331055,9.825512886047363,31.540184020996094,2026-04-11T19:13:21.728-05:00
1775952801738687700,4.092687744140625,-36.159767150878906,9.95014476776123,29.595245361328125,2026-04-11T19:13:21.738-05:00
1775952801748744700,4.10274462890625,-37.70547103881836,9.961048126220703,27.87792205810547,2026-04-11T19:13:21.748-05:00
1775952801758801700,4.1128017578125,-38.49360275268555,9.83207893371582,26.68712615966797,2026-04-11T19:13:21.758-05:00
1775952801768858600,4.122858642578125,-39.070472717285156,9.288959503173828,26.062759399414062,2026-04-11T19:13:21.768-05:00
1775952801778915600,4.13291552734375,-39.70344161987305,8.60774040222168,25.40203857421875,2026-04-11T19:13:21.778-05:00
1775952801788971800,4.1429716796875,-40.09418487548828,8.056650161743164,24.978500366210938,2026-04-11T19:13:21.788-05:00
1775952801799028700,4.15302880859375,-40.41450500488281,7.517115116119385,24.250137329101562,2026-04-11T19:13:21.799-05:00
1775952801809085700,4.163085693359375,-41.50505065917969,6.409639358520508,22.615890502929688,2026-04-11T19:13:21.809-05:00
1775952801819142700,4.173142578125,-43.277984619140625,4.546392440795898,19.939002990722656,2026-04-11T19:13:21.819-05:00
1775952801829198600,4.183198486328125,-44.78566360473633,2.376349449157715,16.57775115966797,2026-04-11T19:13:21.829-05:00
1775952801839255600,4.193255615234375,-45.659175872802734,0.08390045166015625,13.319686889648438,2026-04-11T19:13:21.839-05:00
1775952801849312500,4.2033125,-46.353206634521484,-2.1187219619750977,10.941925048828125,2026-04-11T19:13:21.849-05:00
1775952801859369700,4.21336962890625,-46.69934844970703,-4.3349761962890625,9.173843383789062,2026-04-11T19:13:21.859-05:00
1775952801869426700,4.2234267578125,-46.56431579589844,-6.250283241271973,8.642417907714844,2026-04-11T19:13:21.869-05:00
1775952801879483000,4.23348291015625,-46.11244201660156,-7.836734771728516,9.299346923828125,2026-04-11T19:13:21.879-05:00
1775952801889539800,4.243539794921875,-45.627464294433594,-9.195969581604004,10.76641845703125,2026-04-11T19:13:21.889-05:00
1775952801899596800,4.2535966796875,-44.99199295043945,-10.094544410705566,12.731971740722656,2026-04-11T19:13:21.899-05:00
1775952801909653800,4.26365380859375,-44.10148620605469,-10.847129821777344,14.765815734863281,2026-04-11T19:13:21.909-05:00
1775952801919709700,4.273709716796875,-43.417686462402344,-11.287674903869629,16.90015411376953,2026-04-11T19:13:21.919-05:00
1775952801929766700,4.2837666015625,-42.365867614746094,-11.484587669372559,18.99126434326172,2026-04-11T19:13:21.929-05:00
1775952801939823600,4.29382373046875,-41.60346221923828,-11.61053466796875,20.739768981933594,2026-04-11T19:13:21.939-05:00
1775952801949880600,4.303880615234375,-40.54514694213867,-11.615394592285156,22.686996459960938,2026-04-11T19:13:21.949-05:00
1775952801959936800,4.313936767578125,-39.55519104003906,-11.380266189575195,24.60706329345703,2026-04-11T19:13:21.959-05:00
1775952801969993700,4.32399365234375,-38.60331726074219,-10.962593078613281,26.295562744140625,2026-04-11T19:13:21.969-05:00
1775952801980050700,4.33405078125,-38.597312927246094,-10.962247848510742,26.28467559814453,2026-04-11T19:13:21.980-05:00
1775952801990107600,4.344107666015625,-37.62736129760742,-10.168766021728516,28.03680419921875,2026-04-11T19:13:21.990-05:00
1775952802000164600,4.35416455078125,-36.604190826416016,-9.309819221496582,29.45246124267578,2026-04-11T19:13:22.000-05:00
1775952802010220500,4.364220458984375,-36.11005401611328,-8.348189353942871,30.721633911132812,2026-04-11T19:13:22.010-05:00
1775952802020277500,4.374277587890625,-35.312042236328125,-7.32654333114624,31.68761444091797,2026-04-11T19:13:22.020-05:00
1775952802030334500,4.38433447265625,-34.906307220458984,-6.425073146820068,32.35636901855469,2026-04-11T19:13:22.030-05:00
1775952802040391400,4.394391357421875,-34.71829605102539,-5.666203498840332,32.790313720703125,2026-04-11T19:13:22.040-05:00
1775952802050447600,4.404447509765625,-34.877174377441406,-4.902558326721191,32.76830291748047,2026-04-11T19:13:22.050-05:00
1775952802060504600,4.414504638671875,-35.21613311767578,-4.601808547973633,32.11384582519531,2026-04-11T19:13:22.060-05:00
1775952802070561500,4.4245615234375,-35.97735595703125,-4.431231498718262,31.488746643066406,2026-04-11T19:13:22.070-05:00
1775952802080618800,4.43461865234375,-36.4558219909668,-4.724448204040527,30.6123046875,2026-04-11T19:13:22.080-05:00
1775952802090675700,4.44467578125,-37.14533233642578,-5.231700897216797,29.851516723632812,2026-04-11T19:13:22.090-05:00
1775952802100731600,4.454731689453125,-37.57563400268555,-5.834028244018555,29.305458068847656,2026-04-11T19:13:22.100-05:00
1775952802110788600,4.46478857421875,-37.647369384765625,-6.5224738121032715,29.095138549804688,2026-04-11T19:13:22.110-05:00
1775952802120845600,4.474845458984375,-37.33613204956055,-7.2064924240112305,29.295135498046875,2026-04-11T19:13:22.120-05:00
1775952802130902500,4.484902587890625,-36.93942642211914,-7.474395275115967,29.603485107421875,2026-04-11T19:13:22.130-05:00
1775952802140958700,4.494958740234375,-36.486454010009766,-7.614119052886963,29.884872436523438,2026-04-11T19:13:22.140-05:00
1775952802151015700,4.505015625,-36.30006790161133,-7.583391189575195,30.21649169921875,2026-04-11T19:13:22.151-05:00
1775952802161072600,4.51507275390625,-36.20149230957031,-7.546209812164307,30.41057586669922,2026-04-11T19:13:22.161-05:00
1775952802171129600,4.525129638671875,-36.03757858276367,-7.3534836769104,30.39775848388672,2026-04-11T19:13:22.171-05:00
1775952802181186600,4.5351865234375,-36.1661376953125,-7.059058666229248,30.620681762695312,2026-04-11T19:13:22.181-05:00
1775952802191242500,4.545242431640625,-35.9049186706543,-7.051117420196533,30.805450439453125,2026-04-11T19:13:22.191-05:00
1775952802201299500,4.555299560546875,-35.4333381652832,-7.080917835235596,31.245086669921875,2026-04-11T19:13:22.201-05:00
1775952802211356700,4.565356689453125,-34.95418167114258,-7.007998466491699,31.7890625,2026-04-11T19:13:22.211-05:00
1775952802221413600,4.57541357421875,-34.57940673828125,-7.47103214263916,32.37907409667969,2026-04-11T19:13:22.221-05:00
1775952802231469600,4.585469482421875,-33.654884338378906,-7.577706813812256,33.186485290527344,2026-04-11T19:13:22.231-05:00
1775952802241526500,4.595526611328125,-32.55183410644531,-7.589110851287842,33.901405334472656,2026-04-11T19:13:22.241-05:00
1775952802251583700,4.605583740234375,-32.55308532714844,-7.5908732414245605,33.922645568847656,2026-04-11T19:13:22.251-05:00
1775952802261640700,4.615640625,-31.703826904296875,-7.589076042175293,34.591064453125,2026-04-11T19:13:22.261-05:00
1775952802271696600,4.625696533203125,-31.247772216796875,-7.545059680938721,35.26918029785156,2026-04-11T19:13:22.271-05:00
1775952802281753600,4.635753662109375,-30.52484893798828,-7.692830562591553,35.774574279785156,2026-04-11T19:13:22.281-05:00
1775952802291810600,4.645810546875,-30.266353607177734,-7.847747802734375,36.059410095214844,2026-04-11T19:13:22.291-05:00
1775952802301867500,4.655867431640625,-30.022022247314453,-7.810885906219482,36.186439514160156,2026-04-11T19:13:22.301-05:00
1775952802311924500,4.665924560546875,-30.034442901611328,-8.25251293182373,36.20709991455078,2026-04-11T19:13:22.311-05:00
1775952802321980400,4.67598046875,-29.961162567138672,-8.515953063964844,36.15973663330078,2026-04-11T19:13:22.321-05:00
1775952802332037400,4.686037353515625,-30.05260467529297,-8.924677848815918,36.02130126953125,2026-04-11T19:13:22.332-05:00
1775952802342094600,4.696094482421875,-29.98751449584961,-9.215810775756836,35.93031311035156,2026-04-11T19:13:22.342-05:00
1775952802352151800,4.70615185546875,-30.174850463867188,-9.47991943359375,35.78269958496094,2026-04-11T19:13:22.352-05:00
1775952802362207500,4.71620751953125,-29.95614242553711,-9.709264755249023,35.69358825683594,2026-04-11T19:13:22.362-05:00
1775952802372264700,4.7262646484375,-30.053226470947266,-9.817351341247559,35.6287841796875,2026-04-11T19:13:22.372-05:00
1775952802382321700,4.73632177734375,-29.941429138183594,-9.838191032409668,35.77734375,2026-04-11T19:13:22.382-05:00
1775952802392378600,4.746378662109375,-29.55465316772461,-9.831907272338867,35.96441650390625,2026-04-11T19:13:22.392-05:00
1775952802402435600,4.756435546875,-29.447158813476562,-9.655441284179688,36.14106750488281,2026-04-11T19:13:22.402-05:00
1775952802412491500,4.766491455078125,-29.396198272705078,-9.522135734558105,36.37843322753906,2026-04-11T19:13:22.412-05:00
1775952802422548500,4.776548583984375,-29.407543182373047,-9.436186790466309,36.479095458984375,2026-04-11T19:13:22.422-05:00
1775952802432605400,4.78660546875,-29.35455322265625,-9.334003448486328,36.38702392578125,2026-04-11T19:13:22.432-05:00
1775952802442662700,4.79666259765625,-29.655731201171875,-9.367043495178223,36.240447998046875,2026-04-11T19:13:22.442-05:00
1775952802452718600,4.806718505859375,-29.969493865966797,-9.384263038635254,35.98728942871094,2026-04-11T19:13:22.452-05:00
1775952802462775600,4.816775634765625,-30.40594482421875,-9.20473861694336,35.84552001953125,2026-04-11T19:13:22.462-05:00
1775952802472832500,4.82683251953125,-30.75324249267578,-9.17972183227539,35.510772705078125,2026-04-11T19:13:22.472-05:00
1775952802482889500,4.836889404296875,-31.054786682128906,-9.165168762207031,35.50091552734375,2026-04-11T19:13:22.482-05:00
1775952802492946700,4.84694677734375,-31.094585418701172,-8.913244247436523,35.22954559326172,2026-04-11T19:13:22.492-05:00
1775952802503002600,4.857002685546875,-31.231719970703125,-9.040247917175293,35.20921325683594,2026-04-11T19:13:22.503-05:00
1775952802513059600,4.8670595703125,-31,-8.829638481140137,35.321563720703125,2026-04-11T19:13:22.513-05:00
1775952802523116500,4.877116455078125,-30.89907455444336,-8.94831657409668,35.252098083496094,2026-04-11T19:13:22.523-05:00
1775952802533173500,4.887173583984375,-30.89907455444336,-8.94831657409668,35.252098083496094,2026-04-11T19:13:22.533-05:00
1775952802543229700,4.897229736328125,-31.037628173828125,-8.963380813598633,35.317039489746094,2026-04-11T19:13:22.543-05:00
1775952802553286700,4.90728662109375,-31.133880615234375,-8.973705291748047,35.350860595703125,2026-04-11T19:13:22.553-05:00
1775952802563343600,4.917343505859375,-30.957778930664062,-9.111161231994629,35.068336486816406,2026-04-11T19:13:22.563-05:00
1775952802573400600,4.927400634765625,-31.060230255126953,-9.159669876098633,35.067840576171875,2026-04-11T19:13:22.573-05:00
1775952802583456500,4.93745654296875,-31.14901351928711,-9.126182556152344,35.033836364746094,2026-04-11T19:13:22.583-05:00
1775952802593513500,4.947513427734375,-31.266639709472656,-9.237383842468262,35.03881072998047,2026-04-11T19:13:22.593-05:00
1775952802603570400,4.9575703125,-31.173099517822266,-9.146326065063477,35.10260772705078,2026-04-11T19:13:22.603-05:00
1775952802613627400,4.96762744140625,-31.32602310180664,-9.023628234863281,34.86882781982422,2026-04-11T19:13:22.613-05:00
1775952802623684600,4.9776845703125,-31.43268585205078,-9.11896800994873,34.91905975341797,2026-04-11T19:13:22.623-05:00
1775952802633740500,4.987740478515625,-31.29351806640625,-8.987777709960938,35.07770538330078,2026-04-11T19:13:22.633-05:00
1775952802643797800,4.9977978515625,-31.386703491210938,-9.078516006469727,35.160125732421875,2026-04-11T19:13:22.643-05:00
1775952802653854700,5.007854736328125,-31.184391021728516,-8.931268692016602,35.22337341308594,2026-04-11T19:13:22.653-05:00
1775952802663911700,5.01791162109375,-31.199840545654297,-8.971426963806152,35.229576110839844,2026-04-11T19:13:22.663-05:00
1775952802673967600,5.027967529296875,-31.26626205444336,-8.975160598754883,35.07209777832031,2026-04-11T19:13:22.673-05:00
1775952802684024600,5.038024658203125,-31.114002227783203,-8.940385818481445,35.24357604980469,2026-04-11T19:13:22.684-05:00
1775952802694081500,5.04808154296875,-31.234943389892578,-8.94605541229248,35.194313049316406,2026-04-11T19:13:22.694-05:00
1775952802704138500,5.058138427734375,-31.018787384033203,-8.85746955871582,35.329559326171875,2026-04-11T19:13:22.704-05:00
1775952802714194700,5.068194580078125,-30.91973876953125,-8.795940399169922,35.560081481933594,2026-04-11T19:13:22.714-05:00
1775952802724251600,5.078251708984375,-30.766307830810547,-8.80443000793457,35.63166809082031,2026-04-11T19:13:22.724-05:00
1775952802734308600,5.08830859375,-30.78493881225586,-8.764863014221191,35.64698791503906,2026-04-11T19:13:22.734-05:00
1775952802744365600,5.098365478515625,-30.780887603759766,-8.743188858032227,35.52106475830078,2026-04-11T19:13:22.744-05:00
1775952802754422500,5.108422607421875,-31.053573608398438,-8.865795135498047,35.345062255859375,2026-04-11T19:13:22.754-05:00
1775952802764478500,5.118478515625,-31.2867431640625,-8.908102035522461,35.21925354003906,2026-04-11T19:13:22.764-05:00
1775952802774535400,5.128535400390625,-31.506759643554688,-8.911127090454102,34.952301025390625,2026-04-11T19:13:22.774-05:00
1775952802784592600,5.138592529296875,-31.694454193115234,-8.884599685668945,34.63868713378906,2026-04-11T19:13:22.784-05:00
1775952802794649600,5.148649658203125,-32.03201675415039,-8.81345272064209,34.47369384765625,2026-04-11T19:13:22.794-05:00
1775952802804705800,5.158705810546875,-32.03201675415039,-8.81345272064209,34.47369384765625,2026-04-11T19:13:22.804-05:00
1775952802814762800,5.1687626953125,-32.49319839477539,-8.960617065429688,34.05645751953125,2026-04-11T19:13:22.814-05:00
1775952802824819700,5.17881982421875,-32.90292739868164,-8.734825134277344,33.518959045410156,2026-04-11T19:13:22.824-05:00
1775952802834876700,5.188876708984375,-33.405967712402344,-8.773588180541992,33.12516784667969,2026-04-11T19:13:22.834-05:00
1775952802844933600,5.19893359375,-33.718223571777344,-8.845258712768555,32.66820526123047,2026-04-11T19:13:22.844-05:00
1775952802854989600,5.208989501953125,-33.99418258666992,-8.87466812133789,32.35581970214844,2026-04-11T19:13:22.854-05:00
1775952802865046500,5.219046630859375,-34.39116668701172,-8.979995727539062,31.960174560546875,2026-04-11T19:13:22.865-05:00
1775952802875103500,5.229103515625,-34.614906311035156,-9.120081901550293,31.846054077148438,2026-04-11T19:13:22.875-05:00
1775952802885160400,5.239160400390625,-34.7083854675293,-9.018994331359863,31.93518829345703,2026-04-11T19:13:22.885-05:00
1775952802895216600,5.249216552734375,-34.86918258666992,-9.000866889953613,31.94481658935547,2026-04-11T19:13:22.895-05:00
1775952802905273600,5.259273681640625,-34.716209411621094,-9.027658462524414,31.83843231201172,2026-04-11T19:13:22.905-05:00
1775952802915330600,5.26933056640625,-34.764747619628906,-9.03162670135498,31.856430053710938,2026-04-11T19:13:22.915-05:00
1775952802925387800,5.2793876953125,-34.77484893798828,-9.182774543762207,31.745880126953125,2026-04-11T19:13:22.925-05:00
1775952802935444700,5.28944482421875,-34.798030853271484,-8.999198913574219,31.88709259033203,2026-04-11T19:13:22.935-05:00
1775952802945500700,5.299500732421875,-34.76883316040039,-8.978793144226074,31.78490447998047,2026-04-11T19:13:22.945-05:00
1775952802955557600,5.3095576171875,-34.61740493774414,-8.92931079864502,31.99236297607422,2026-04-11T19:13:22.955-05:00
1775952802965614800,5.31961474609375,-34.575286865234375,-8.726325988769531,32.137107849121094,2026-04-11T19:13:22.965-05:00
1775952802975672000,5.329672119140625,-34.296722412109375,-8.857598304748535,32.22755432128906,2026-04-11T19:13:22.975-05:00
1775952802985727700,5.339727783203125,-34.0684814453125,-8.754077911376953,32.58848571777344,2026-04-11T19:13:22.985-05:00
1775952802995785000,5.349784912109375,-33.50572967529297,-8.740922927856445,33.02007293701172,2026-04-11T19:13:22.995-05:00
1775952803005842000,5.359842041015625,-32.9744987487793,-8.65621566772461,33.35692596435547,2026-04-11T19:13:23.005-05:00
1775952803015899000,5.36989892578125,-32.93150329589844,-8.595624923706055,33.82640075683594,2026-04-11T19:13:23.015-05:00
1775952803025955000,5.379955078125,-32.68341827392578,-8.505611419677734,34.11963653564453,2026-04-11T19:13:23.025-05:00
1775952803036012000,5.390011962890625,-32.35367202758789,-8.654170036315918,34.36183166503906,2026-04-11T19:13:23.036-05:00
1775952803046069000,5.400069091796875,-31.823314666748047,-8.655811309814453,34.62440490722656,2026-04-11T19:13:23.046-05:00
1775952803056126000,5.4101259765625,-31.792926788330078,-8.637819290161133,34.578285217285156,2026-04-11T19:13:23.056-05:00
1775952803066183000,5.420182861328125,-31.947067260742188,-8.690093994140625,34.69255828857422,2026-04-11T19:13:23.066-05:00
1775952803076238800,5.43023876953125,-31.920738220214844,-8.711609840393066,34.689483642578125,2026-04-11T19:13:23.076-05:00
1775952803086295800,5.4402958984375,-31.918380737304688,-8.711453437805176,34.69108581542969,2026-04-11T19:13:23.086-05:00
1775952803096352800,5.450352783203125,-32.0832405090332,-8.876775741577148,34.52021789550781,2026-04-11T19:13:23.096-05:00
1775952803106409700,5.46040966796875,-31.957653045654297,-8.779768943786621,34.43852996826172,2026-04-11T19:13:23.106-05:00
1775952803116466000,5.4704658203125,-31.903484344482422,-8.79821491241455,34.43089294433594,2026-04-11T19:13:23.116-05:00
1775952803126523100,5.480523193359375,-32.004737854003906,-8.913290977478027,34.29668426513672,2026-04-11T19:13:23.126-05:00
1775952803136580000,5.490580078125,-31.897781372070312,-8.956881523132324,34.457801818847656,2026-04-11T19:13:23.136-05:00
1775952803146637000,5.500636962890625,-32.153297424316406,-9.081002235412598,34.367401123046875,2026-04-11T19:13:23.146-05:00
1775952803156694000,5.510694091796875,-32.385337829589844,-9.20028305053711,34.10264587402344,2026-04-11T19:13:23.156-05:00
1775952803166750000,5.52075,-32.35302734375,-9.124242782592773,34.08802795410156,2026-04-11T19:13:23.166-05:00
1775952803176807000,5.530806884765625,-32.50444793701172,-9.172069549560547,33.907142639160156,2026-04-11T19:13:23.176-05:00
1775952803186863900,5.54086376953125,-32.70427703857422,-9.148883819580078,33.68824005126953,2026-04-11T19:13:23.186-05:00
1775952803196920800,5.5509208984375,-32.961795806884766,-9.019425392150879,33.49440002441406,2026-04-11T19:13:23.196-05:00
1775952803206977000,5.56097705078125,-33.1198616027832,-9.134967803955078,33.24609375,2026-04-11T19:13:23.206-05:00
1775952803217034000,5.571033935546875,-33.600914001464844,-9.004247665405273,32.99352264404297,2026-04-11T19:13:23.217-05:00
1775952803227091000,5.581091064453125,-33.93156051635742,-9.163946151733398,32.848533630371094,2026-04-11T19:13:23.227-05:00
1775952803237148000,5.59114794921875,-33.938697814941406,-9.21911334991455,32.555877685546875,2026-04-11T19:13:23.237-05:00
1775952803247203800,5.601203857421875,-34.13531494140625,-9.364965438842773,32.21556091308594,2026-04-11T19:13:23.247-05:00
1775952803257260800,5.6112607421875,-34.24925231933594,-9.698381423950195,32.03648376464844,2026-04-11T19:13:23.257-05:00
1775952803267318000,5.621318115234375,-34.4605598449707,-9.788875579833984,31.868202209472656,2026-04-11T19:13:23.267-05:00
1775952803277375000,5.631375,-34.51769256591797,-9.871864318847656,31.6221923828125,2026-04-11T19:13:23.277-05:00
1775952803287432000,5.641431884765625,-34.356666564941406,-10.079032897949219,31.39598846435547,2026-04-11T19:13:23.287-05:00
1775952803297488100,5.651488037109375,-34.37054443359375,-10.193830490112305,31.533287048339844,2026-04-11T19:13:23.297-05:00
1775952803307545000,5.661545166015625,-34.244651794433594,-10.298133850097656,31.60272216796875,2026-04-11T19:13:23.307-05:00
1775952803317602000,5.67160205078125,-34.091190338134766,-10.451769828796387,31.557571411132812,2026-04-11T19:13:23.317-05:00
1775952803327659000,5.681658935546875,-34.212310791015625,-10.674235343933105,31.662246704101562,2026-04-11T19:13:23.327-05:00
1775952803337715000,5.69171484375,-33.88338851928711,-10.877046585083008,31.67577362060547,2026-04-11T19:13:23.337-05:00
1775952803347772000,5.70177197265625,-33.7399787902832,-10.986149787902832,31.958168029785156,2026-04-11T19:13:23.347-05:00
1775952803357828900,5.711828857421875,-33.7399787902832,-10.986149787902832,31.958168029785156,2026-04-11T19:13:23.357-05:00
1775952803367885800,5.7218857421875,-33.67605209350586,-11.088133811950684,31.995574951171875,2026-04-11T19:13:23.367-05:00
1775952803377942800,5.73194287109375,-33.549800872802734,-11.188539505004883,31.91425323486328,2026-04-11T19:13:23.377-05:00
1775952803387999000,5.7419990234375,-33.6532096862793,-11.177818298339844,31.89923095703125,2026-04-11T19:13:23.387-05:00
1775952803398056000,5.752055908203125,-33.529014587402344,-11.39233684539795,32.060203552246094,2026-04-11T19:13:23.398-05:00
1775952803408113200,5.762113037109375,-33.47343444824219,-11.456037521362305,32.244850158691406,2026-04-11T19:13:23.408-05:00
1775952803418170000,5.772170166015625,-33.09701919555664,-11.488598823547363,32.39152526855469,2026-04-11T19:13:23.418-05:00
1775952803428226000,5.78222607421875,-32.61970520019531,-11.689332962036133,32.51904296875,2026-04-11T19:13:23.428-05:00
1775952803438283000,5.792282958984375,-32.494136810302734,-11.83028793334961,32.75035095214844,2026-04-11T19:13:23.438-05:00
1775952803448340000,5.802340087890625,-32.29001235961914,-11.970602035522461,33.091064453125,2026-04-11T19:13:23.448-05:00
1775952803458397000,5.81239697265625,-31.867019653320312,-12.28550910949707,33.20610809326172,2026-04-11T19:13:23.458-05:00
1775952803468452900,5.822452880859375,-31.61197280883789,-12.4718017578125,33.46296691894531,2026-04-11T19:13:23.468-05:00
1775952803478510000,5.832510009765625,-31.190780639648438,-12.738077163696289,33.712615966796875,2026-04-11T19:13:23.478-05:00
1775952803488567000,5.842567138671875,-30.93619155883789,-12.861454010009766,33.972206115722656,2026-04-11T19:13:23.488-05:00
1775952803498624000,5.8526240234375,-30.632129669189453,-13.097423553466797,34.2880859375,2026-04-11T19:13:23.498-05:00
1775952803508681000,5.862680908203125,-30.327686309814453,-13.515007972717285,34.381248474121094,2026-04-11T19:13:23.508-05:00
1775952803518737000,5.87273681640625,-30.16646957397461,-13.732734680175781,34.55072021484375,2026-04-11T19:13:23.518-05:00
1775952803528793900,5.8827939453125,-29.924274444580078,-13.882214546203613,34.56343078613281,2026-04-11T19:13:23.528-05:00
1775952803538850800,5.892850830078125,-29.494789123535156,-14.405181884765625,34.53437042236328,2026-04-11T19:13:23.538-05:00
1775952803548908000,5.902907958984375,-29.556255340576172,-14.634124755859375,34.53815460205078,2026-04-11T19:13:23.548-05:00
1775952803558964000,5.9129638671875,-29.675094604492188,-14.994812965393066,34.475242614746094,2026-04-11T19:13:23.558-05:00
1775952803569021000,5.92302099609375,-29.855697631835938,-14.990812301635742,34.08280944824219,2026-04-11T19:13:23.569-05:00
1775952803579078000,5.933077880859375,-30.141921997070312,-15.371774673461914,33.97776794433594,2026-04-11T19:13:23.579-05:00
1775952803589135000,5.943135009765625,-30.455795288085938,-15.584754943847656,33.821006774902344,2026-04-11T19:13:23.589-05:00
1775952803599192000,5.953192138671875,-30.687374114990234,-15.639421463012695,33.45887756347656,2026-04-11T19:13:23.599-05:00
1775952803609248000,5.963248046875,-30.784183502197266,-16.02408218383789,33.02693176269531,2026-04-11T19:13:23.609-05:00
1775952803619305000,5.973304931640625,-31.18832778930664,-16.234554290771484,32.56573486328125,2026-04-11T19:13:23.619-05:00
1775952803629362000,5.98336181640625,-31.523395538330078,-16.525896072387695,32.20257568359375,2026-04-11T19:13:23.629-05:00
1775952803639419000,5.9934189453125,-31.523395538330078,-16.525896072387695,32.20257568359375,2026-04-11T19:13:23.639-05:00
1775952803649474800,6.003474853515625,-32.09206771850586,-16.72677230834961,31.803932189941406,2026-04-11T19:13:23.649-05:00
1775952803659531800,6.01353173828125,-32.32400894165039,-16.962562561035156,31.216270446777344,2026-04-11T19:13:23.659-05:00
1775952803669588700,6.023588623046875,-32.892173767089844,-16.95978546142578,30.705413818359375,2026-04-11T19:13:23.669-05:00
1775952803679646000,6.03364599609375,-33.02626037597656,-17.017173767089844,30.063026428222656,2026-04-11T19:13:23.679-05:00
1775952803689703000,6.043702880859375,-33.59897994995117,-17.086755752563477,29.809585571289062,2026-04-11T19:13:23.689-05:00
1775952803699759000,6.053759033203125,-33.9727668762207,-17.271259307861328,29.409011840820312,2026-04-11T19:13:23.699-05:00
1775952803709816000,6.063816162109375,-34.015987396240234,-17.54648208618164,28.984237670898438,2026-04-11T19:13:23.709-05:00
1775952803719873000,6.073873046875,-34.168094635009766,-17.75798225402832,28.873825073242188,2026-04-11T19:13:23.719-05:00
1775952803729930000,6.083929931640625,-33.99159240722656,-18.008180618286133,28.849205017089844,2026-04-11T19:13:23.729-05:00
1775952803739986000,6.09398583984375,-33.90234375,-18.274763107299805,28.787620544433594,2026-04-11T19:13:23.739-05:00
1775952803750043000,6.10404296875,-33.82796096801758,-18.492948532104492,28.886672973632812,2026-04-11T19:13:23.750-05:00
1775952803760099800,6.114099853515625,-33.46841812133789,-18.904815673828125,29.09217071533203,2026-04-11T19:13:23.760-05:00
1775952803770156800,6.12415673828125,-33.278770446777344,-19.09175682067871,29.15514373779297,2026-04-11T19:13:23.770-05:00
1775952803780213800,6.1342138671875,-33.15931701660156,-19.306833267211914,28.916824340820312,2026-04-11T19:13:23.780-05:00
1775952803790270000,6.14427001953125,-33.31675720214844,-19.64826202392578,28.640151977539062,2026-04-11T19:13:23.790-05:00
1775952803800327000,6.154326904296875,-33.6279296875,-19.813583374023438,28.30218505859375,2026-04-11T19:13:23.800-05:00
1775952803810384000,6.1643837890625,-33.87837600708008,-20.08098602294922,27.46422576904297,2026-04-11T19:13:23.810-05:00
1775952803820441000,6.174441162109375,-34.377586364746094,-20.404552459716797,26.547523498535156,2026-04-11T19:13:23.820-05:00
1775952803830496800,6.184496826171875,-35.05620574951172,-20.609580993652344,25.71007537841797,2026-04-11T19:13:23.830-05:00
1775952803840554000,6.194553955078125,-35.468082427978516,-20.764272689819336,24.532730102539062,2026-04-11T19:13:23.840-05:00
1775952803850611000,6.20461083984375,-36.3484992980957,-20.799530029296875,23.673179626464844,2026-04-11T19:13:23.850-05:00
1775952803860668000,6.21466796875,-36.50675964355469,-21.013839721679688,23.00513458251953,2026-04-11T19:13:23.860-05:00
1775952803870724000,6.22472412109375,-36.68263244628906,-21.111875534057617,22.372711181640625,2026-04-11T19:13:23.870-05:00
1775952803880781000,6.234781005859375,-36.88614273071289,-21.177934646606445,21.865943908691406,2026-04-11T19:13:23.880-05:00
1775952803890838000,6.244838134765625,-37.41127014160156,-21.453229904174805,21.405799865722656,2026-04-11T19:13:23.890-05:00
1775952803900895000,6.25489501953125,-37.37132263183594,-21.555007934570312,20.823028564453125,2026-04-11T19:13:23.900-05:00
1775952803910952000,6.264951904296875,-37.37132263183594,-21.555007934570312,20.823028564453125,2026-04-11T19:13:23.910-05:00
1775952803921007900,6.2750078125,-37.708702087402344,-21.550687789916992,20.43072509765625,2026-04-11T19:13:23.921-05:00
1775952803931064800,6.28506494140625,-37.74459457397461,-21.894262313842773,19.834335327148438,2026-04-11T19:13:23.931-05:00
1775952803941121800,6.295121826171875,-38.10049819946289,-21.814050674438477,19.272628784179688,2026-04-11T19:13:23.941-05:00
1775952803951178800,6.3051787109375,-38.25737380981445,-22.084545135498047,18.748504638671875,2026-04-11T19:13:23.951-05:00
1775952803961234700,6.315234619140625,-38.43967819213867,-22.154048919677734,18.10442352294922,2026-04-11T19:13:23.961-05:00
1775952803971291600,6.325291748046875,-38.59853744506836,-22.228055953979492,17.664642333984375,2026-04-11T19:13:23.971-05:00
1775952803981348900,6.335348876953125,-38.82770538330078,-22.36550521850586,17.134078979492188,2026-04-11T19:13:23.981-05:00
1775952803991405800,6.34540576171875,-38.986183166503906,-22.443069458007812,16.652114868164062,2026-04-11T19:13:23.991-05:00
1775952804001462800,6.355462890625,-39.17121505737305,-22.480722427368164,15.953292846679688,2026-04-11T19:13:24.001-05:00
1775952804011518700,6.365518798828125,-39.48442459106445,-22.65420150756836,15.212188720703125,2026-04-11T19:13:24.011-05:00
1775952804021575700,6.37557568359375,-39.72361373901367,-22.710582733154297,14.583206176757812,2026-04-11T19:13:24.021-05:00
1775952804031632600,6.385632568359375,-39.803741455078125,-22.727285385131836,13.761299133300781,2026-04-11T19:13:24.031-05:00
1775952804041689600,6.395689697265625,-39.877410888671875,-22.82306671142578,12.805503845214844,2026-04-11T19:13:24.041-05:00
1775952804051745800,6.405745849609375,-40.271331787109375,-22.833587646484375,12.254043579101562,2026-04-11T19:13:24.051-05:00
1775952804061802800,6.415802734375,-40.2624397277832,-22.732177734375,11.29266357421875,2026-04-11T19:13:24.061-05:00
1775952804071859700,6.425859619140625,-40.40740203857422,-22.937206268310547,10.53875732421875,2026-04-11T19:13:24.071-05:00
1775952804081916700,6.435916748046875,-40.62453842163086,-22.877281188964844,9.586227416992188,2026-04-11T19:13:24.081-05:00
1775952804091973600,6.4459736328125,-40.87305450439453,-23.027828216552734,9.022048950195312,2026-04-11T19:13:24.091-05:00
1775952804102029600,6.456029541015625,-41.178035736083984,-23.05207633972168,8.455162048339844,2026-04-11T19:13:24.102-05:00
1775952804112086500,6.46608642578125,-41.31475830078125,-23.178747177124023,7.992744445800781,2026-04-11T19:13:24.112-05:00
1775952804122143700,6.476143798828125,-41.22203063964844,-23.333412170410156,7.525566101074219,2026-04-11T19:13:24.122-05:00
1775952804132200700,6.48620068359375,-41.28173065185547,-23.496448516845703,7.22796630859375,2026-04-11T19:13:24.132-05:00
1775952804142257000,6.4962568359375,-41.149017333984375,-23.521730422973633,6.870765686035156,2026-04-11T19:13:24.142-05:00
1775952804152313900,6.50631396484375,-40.96891403198242,-23.55771255493164,6.8889312744140625,2026-04-11T19:13:24.152-05:00
1775952804162370800,6.516370849609375,-41.176963806152344,-23.532453536987305,6.6793365478515625,2026-04-11T19:13:24.162-05:00
1775952804172427800,6.526427734375,-41.103363037109375,-23.557598114013672,6.440460205078125,2026-04-11T19:13:24.172-05:00
1775952804182484700,6.536484619140625,-41.217838287353516,-23.66288948059082,6.469673156738281,2026-04-11T19:13:24.182-05:00
1775952804192540700,6.546540771484375,-41.217838287353516,-23.66288948059082,6.469673156738281,2026-04-11T19:13:24.192-05:00
1775952804202597600,6.55659765625,-41.176551818847656,-23.693456649780273,6.2232666015625,2026-04-11T19:13:24.202-05:00
1775952804212654600,6.566654541015625,-40.997257232666016,-23.782093048095703,6.0776824951171875,2026-04-11T19:13:24.212-05:00
1775952804222711600,6.576711669921875,-40.96965408325195,-23.795312881469727,6.077842712402344,2026-04-11T19:13:24.222-05:00
1775952804232767700,6.586767822265625,-41.02500915527344,-23.834693908691406,5.773200988769531,2026-04-11T19:13:24.232-05:00
1775952804242824700,6.59682470703125,-41.075828552246094,-23.761564254760742,5.475830078125,2026-04-11T19:13:24.242-05:00
1775952804252882000,6.6068818359375,-41.02210998535156,-23.82330894470215,5.4233551025390625,2026-04-11T19:13:24.252-05:00
1775952804262939000,6.61693896484375,-41.002967834472656,-24.059932708740234,5.1798095703125,2026-04-11T19:13:24.262-05:00
1775952804272994800,6.626994873046875,-40.916481018066406,-24.07845115661621,5.114051818847656,2026-04-11T19:13:24.272-05:00
1775952804283051800,6.6370517578125,-40.88405990600586,-24.151630401611328,5.144752502441406,2026-04-11T19:13:24.283-05:00
1775952804293108700,6.647108642578125,-41.01383972167969,-24.11052131652832,4.983650207519531,2026-04-11T19:13:24.293-05:00
1775952804303165700,6.657165771484375,-41.44537353515625,-24.140913009643555,4.981010437011719,2026-04-11T19:13:24.303-05:00
1775952804313222700,6.66722265625,-41.29936981201172,-24.254432678222656,5.01318359375,2026-04-11T19:13:24.313-05:00
1775952804323278600,6.677278564453125,-40.94878005981445,-24.305374145507812,5.059783935546875,2026-04-11T19:13:24.323-05:00
1775952804333335800,6.687335693359375,-41.07786560058594,-24.189733505249023,5.007514953613281,2026-04-11T19:13:24.333-05:00
1775952804343392800,6.697392822265625,-41.25657653808594,-24.23822021484375,4.907554626464844,2026-04-11T19:13:24.343-05:00
1775952804353449700,6.70744970703125,-41.36493682861328,-24.17607879638672,4.9057769775390625,2026-04-11T19:13:24.353-05:00
1775952804363505700,6.717505615234375,-41.38939666748047,-24.206750869750977,5.038307189941406,2026-04-11T19:13:24.363-05:00
1775952804373562600,6.727562744140625,-40.971031188964844,-24.3870792388916,4.921966552734375,2026-04-11T19:13:24.373-05:00
1775952804383619600,6.73761962890625,-41.07079315185547,-24.270469665527344,4.879753112792969,2026-04-11T19:13:24.383-05:00
1775952804393676800,6.7476767578125,-41.02001190185547,-24.373001098632812,4.867469787597656,2026-04-11T19:13:24.393-05:00
1775952804403733800,6.757733642578125,-40.83473205566406,-24.41340446472168,4.8331146240234375,2026-04-11T19:13:24.403-05:00
1775952804413789700,6.767789794921875,-40.892059326171875,-24.361513137817383,4.959808349609375,2026-04-11T19:13:24.413-05:00
1775952804423846700,6.7778466796875,-40.94099426269531,-24.491954803466797,5.016410827636719,2026-04-11T19:13:24.423-05:00
1775952804433903900,6.78790380859375,-40.93888854980469,-24.55571174621582,4.907318115234375,2026-04-11T19:13:24.433-05:00
1775952804443960800,6.7979609375,-40.97923278808594,-24.550378799438477,4.9128875732421875,2026-04-11T19:13:24.443-05:00
1775952804454016800,6.808016845703125,-40.777076721191406,-24.607337951660156,4.8709869384765625,2026-04-11T19:13:24.454-05:00
1775952804464073700,6.81807373046875,-40.777076721191406,-24.607337951660156,4.8709869384765625,2026-04-11T19:13:24.464-05:00
1775952804474130700,6.828130615234375,-40.785301208496094,-24.554548263549805,4.888526916503906,2026-04-11T19:13:24.474-05:00
1775952804484187600,6.838187744140625,-40.79798889160156,-24.657634735107422,4.871543884277344,2026-04-11T19:13:24.484-05:00
1775952804494244600,6.84824462890625,-40.760154724121094,-24.65069007873535,4.9400177001953125,2026-04-11T19:13:24.494-05:00
1775952804504300500,6.858300537109375,-40.986656188964844,-24.61229705810547,4.9144134521484375,2026-04-11T19:13:24.504-05:00
1775952804514357500,6.868357421875,-40.78620910644531,-24.6339111328125,4.835365295410156,2026-04-11T19:13:24.514-05:00
1775952804524414500,6.87841455078125,-40.865440368652344,-24.564960479736328,4.9489593505859375,2026-04-11T19:13:24.524-05:00
1775952804534471700,6.8884716796875,-40.94997787475586,-24.51027488708496,4.814598083496094,2026-04-11T19:13:24.534-05:00
1775952804544528000,6.89852783203125,-40.75316619873047,-24.540361404418945,4.8544769287109375,2026-04-11T19:13:24.544-05:00
1775952804554584800,6.908584716796875,-41.03920364379883,-24.420454025268555,4.759437561035156,2026-04-11T19:13:24.554-05:00
1775952804564641800,6.918641845703125,-40.94392395019531,-24.465139389038086,4.8360443115234375,2026-04-11T19:13:24.564-05:00
1775952804574698800,6.92869873046875,-40.88279724121094,-24.588851928710938,4.846343994140625,2026-04-11T19:13:24.574-05:00
1775952804584755700,6.938755615234375,-41.27257537841797,-24.553903579711914,4.92962646484375,2026-04-11T19:13:24.584-05:00
1775952804594811600,6.948811767578125,-41.17127990722656,-24.516448974609375,4.8347930908203125,2026-04-11T19:13:24.594-05:00
1775952804604868600,6.95886865234375,-40.89901351928711,-24.53301429748535,4.8500518798828125,2026-04-11T19:13:24.604-05:00
1775952804614925600,6.968925537109375,-40.98561096191406,-24.498268127441406,4.878570556640625,2026-04-11T19:13:24.614-05:00
1775952804624982500,6.978982421875,-40.787540435791016,-24.588096618652344,4.833587646484375,2026-04-11T19:13:24.624-05:00
1775952804635038700,6.989038818359375,-40.898170471191406,-24.494131088256836,4.9737548828125,2026-04-11T19:13:24.635-05:00
1775952804645095700,6.999095703125,-40.771507263183594,-24.500812530517578,4.944000244140625,2026-04-11T19:13:24.645-05:00
1775952804655152600,7.009152587890625,-40.75963592529297,-24.54936981201172,5.2966156005859375,2026-04-11T19:13:24.655-05:00
1775952804665209900,7.0192099609375,-41.06143569946289,-24.433475494384766,5.560272216796875,2026-04-11T19:13:24.665-05:00
1775952804675266800,7.029266845703125,-40.936073303222656,-24.280872344970703,5.7332611083984375,2026-04-11T19:13:24.675-05:00
1775952804685322800,7.03932275390625,-40.972328186035156,-24.16800308227539,6.4029541015625,2026-04-11T19:13:24.685-05:00
1775952804695379700,7.049379638671875,-41.09239196777344,-23.767837524414062,6.86016845703125,2026-04-11T19:13:24.695-05:00
1775952804705436700,7.059436767578125,-40.94793701171875,-23.710670471191406,7.6477203369140625,2026-04-11T19:13:24.705-05:00
1775952804715493600,7.06949365234375,-41.03126525878906,-23.40281867980957,8.407852172851562,2026-04-11T19:13:24.715-05:00
1775952804725549800,7.0795498046875,-40.685386657714844,-23.30632972717285,9.404960632324219,2026-04-11T19:13:24.725-05:00
1775952804735606800,7.089606689453125,-40.463958740234375,-23.244964599609375,10.831100463867188,2026-04-11T19:13:24.735-05:00
1775952804745663700,7.099663818359375,-40.463958740234375,-23.244964599609375,10.831100463867188,2026-04-11T19:13:24.745-05:00
1775952804755720700,7.109720703125,-40.36948776245117,-23.011127471923828,12.387596130371094,2026-04-11T19:13:24.755-05:00
1775952804765776600,7.119776611328125,-39.765220642089844,-22.877613067626953,14.027793884277344,2026-04-11T19:13:24.765-05:00
1775952804775833600,7.12983349609375,-39.44194793701172,-22.51106834411621,15.841072082519531,2026-04-11T19:13:24.775-05:00
1775952804785890600,7.139890625,-38.76845169067383,-22.188983917236328,17.859359741210938,2026-04-11T19:13:24.785-05:00
1775952804795947500,7.149947509765625,-38.01413345336914,-21.864337921142578,19.668243408203125,2026-04-11T19:13:24.795-05:00
1775952804806004700,7.160004638671875,-37.209293365478516,-21.345285415649414,21.54016876220703,2026-04-11T19:13:24.806-05:00
1775952804816060700,7.170060791015625,-36.46888732910156,-20.840946197509766,23.22362518310547,2026-04-11T19:13:24.816-05:00
1775952804826118000,7.180117919921875,-35.678863525390625,-20.59264373779297,24.837234497070312,2026-04-11T19:13:24.826-05:00
1775952804836174800,7.1901748046875,-34.79119873046875,-20.285686492919922,26.368789672851562,2026-04-11T19:13:24.836-05:00
1775952804846231800,7.200231689453125,-33.96688461303711,-19.940834045410156,27.542518615722656,2026-04-11T19:13:24.846-05:00
1775952804856287700,7.210287841796875,-33.265628814697266,-19.620689392089844,28.36347198486328,2026-04-11T19:13:24.856-05:00
1775952804866344700,7.2203447265625,-33.10112762451172,-19.334026336669922,29.102584838867188,2026-04-11T19:13:24.866-05:00
1775952804876401700,7.230401611328125,-32.73551940917969,-19.249568939208984,29.387664794921875,2026-04-11T19:13:24.876-05:00
1775952804886458600,7.240458740234375,-32.50255584716797,-19.170427322387695,29.739662170410156,2026-04-11T19:13:24.886-05:00
1775952804896515600,7.250515625,-32.70722961425781,-19.084678649902344,29.837936401367188,2026-04-11T19:13:24.896-05:00
1775952804906571800,7.26057177734375,-32.77742004394531,-18.883495330810547,29.887855529785156,2026-04-11T19:13:24.906-05:00
1775952804916628700,7.270628662109375,-32.859493255615234,-18.56694793701172,30.022010803222656,2026-04-11T19:13:24.916-05:00
1775952804926685700,7.280685791015625,-32.80038070678711,-18.406612396240234,29.969703674316406,2026-04-11T19:13:24.926-05:00
1775952804936742700,7.29074267578125,-32.78581619262695,-18.110740661621094,30.064041137695312,2026-04-11T19:13:24.936-05:00
1775952804946798600,7.300798583984375,-32.821842193603516,-17.79515838623047,30.289901733398438,2026-04-11T19:13:24.946-05:00
1775952804956855600,7.31085546875,-32.68143081665039,-17.68412971496582,30.344573974609375,2026-04-11T19:13:24.956-05:00
1775952804966912500,7.32091259765625,-32.74074935913086,-17.572734832763672,30.53729248046875,2026-04-11T19:13:24.966-05:00
1775952804976969500,7.330969482421875,-32.88631057739258,-17.592510223388672,30.41478729248047,2026-04-11T19:13:24.976-05:00
1775952804987026400,7.3410263671875,-32.67892837524414,-17.615018844604492,30.561676025390625,2026-04-11T19:13:24.987-05:00
1775952804997082600,7.35108251953125,-32.76905822753906,-17.371437072753906,30.594451904296875,2026-04-11T19:13:24.997-05:00
1775952805007139800,7.361139892578125,-32.794307708740234,-17.375946044921875,30.617454528808594,2026-04-11T19:13:25.007-05:00
1775952805017196800,7.37119677734375,-32.794307708740234,-17.375946044921875,30.617454528808594,2026-04-11T19:13:25.017-05:00
1775952805027253800,7.381253662109375,-33.00983428955078,-17.100093841552734,30.410682678222656,2026-04-11T19:13:25.027-05:00
1775952805037309700,7.391309814453125,-33.0750732421875,-16.954004287719727,30.431495666503906,2026-04-11T19:13:25.037-05:00
1775952805047366700,7.40136669921875,-33.204830169677734,-16.899425506591797,30.29016876220703,2026-04-11T19:13:25.047-05:00
1775952805057423600,7.411423583984375,-33.469261169433594,-16.690753936767578,30.326881408691406,2026-04-11T19:13:25.057-05:00
1775952805067480600,7.42148046875,-33.52955627441406,-16.340932846069336,30.084739685058594,2026-04-11T19:13:25.067-05:00
1775952805077537500,7.43153759765625,-33.62966537475586,-16.210248947143555,30.169479370117188,2026-04-11T19:13:25.077-05:00
1775952805087593700,7.44159375,-33.701236724853516,-15.985218048095703,30.272483825683594,2026-04-11T19:13:25.087-05:00
1775952805097650700,7.451650634765625,-34.04932403564453,-15.869403839111328,30.09143829345703,2026-04-11T19:13:25.097-05:00
1775952805107707600,7.461707763671875,-34.00651550292969,-15.707021713256836,30.109169006347656,2026-04-11T19:13:25.107-05:00
1775952805117764600,7.4717646484375,-34.00421142578125,-15.563697814941406,30.236572265625,2026-04-11T19:13:25.117-05:00
1775952805127820500,7.481820556640625,-33.98894119262695,-15.350793838500977,30.189903259277344,2026-04-11T19:13:25.127-05:00
1775952805137877500,7.49187744140625,-33.998260498046875,-15.135955810546875,30.308731079101562,2026-04-11T19:13:25.137-05:00
1775952805147934700,7.501934814453125,-34.00530242919922,-14.852266311645508,30.499298095703125,2026-04-11T19:13:25.147-05:00
1775952805157991700,7.51199169921875,-33.996826171875,-14.750894546508789,30.56354522705078,2026-04-11T19:13:25.157-05:00
1775952805168048600,7.522048583984375,-33.978355407714844,-14.433653831481934,30.787193298339844,2026-04-11T19:13:25.168-05:00
1775952805178104600,7.5321044921875,-33.834781646728516,-14.465622901916504,30.96844482421875,2026-04-11T19:13:25.178-05:00
1775952805188161500,7.54216162109375,-33.780330657958984,-14.34809684753418,31.164764404296875,2026-04-11T19:13:25.188-05:00
1775952805198218800,7.55221875,-33.706573486328125,-14.149763107299805,31.340538024902344,2026-04-11T19:13:25.198-05:00
1775952805208275700,7.562275634765625,-33.72193145751953,-14.063711166381836,31.3199462890625,2026-04-11T19:13:25.208-05:00
1775952805218331600,7.57233154296875,-33.589111328125,-13.989662170410156,31.488059997558594,2026-04-11T19:13:25.218-05:00
1775952805228388600,7.582388671875,-33.68929672241211,-13.858160018920898,31.534339904785156,2026-04-11T19:13:25.228-05:00
1775952805238445600,7.592445556640625,-33.47216033935547,-13.890596389770508,31.67217254638672,2026-04-11T19:13:25.238-05:00
1775952805248502500,7.60250244140625,-33.54410171508789,-13.901247024536133,31.81464385986328,2026-04-11T19:13:25.248-05:00
1775952805258559500,7.6125595703125,-33.69707489013672,-13.789976119995117,31.622634887695312,2026-04-11T19:13:25.258-05:00
1775952805268615400,7.622615478515625,-33.89396286010742,-13.671209335327148,31.596527099609375,2026-04-11T19:13:25.268-05:00
1775952805278672400,7.63267236328125,-33.89828872680664,-13.471626281738281,31.45195770263672,2026-04-11T19:13:25.278-05:00
1775952805288729600,7.6427294921875,-34.117576599121094,-13.481311798095703,31.19781494140625,2026-04-11T19:13:25.288-05:00
1775952805298786800,7.652786865234375,-34.117576599121094,-13.481311798095703,31.19781494140625,2026-04-11T19:13:25.298-05:00
1775952805308842800,7.6628427734375,-34.309574127197266,-13.281631469726562,30.999107360839844,2026-04-11T19:13:25.308-05:00
1775952805318899700,7.672899658203125,-34.587013244628906,-13.204977035522461,30.663803100585938,2026-04-11T19:13:25.318-05:00
1775952805328956700,7.682956787109375,-34.826263427734375,-13.22829818725586,30.202491760253906,2026-04-11T19:13:25.328-05:00
1775952805339013600,7.693013671875,-35.05031967163086,-13.03917121887207,30.06053924560547,2026-04-11T19:13:25.339-05:00
1775952805349070600,7.703070556640625,-35.37152099609375,-12.80171012878418,29.82921600341797,2026-04-11T19:13:25.349-05:00
1775952805359126500,7.71312646484375,-35.528564453125,-12.824762344360352,29.824066162109375,2026-04-11T19:13:25.359-05:00
1775952805369183500,7.72318359375,-35.554691314697266,-12.776906967163086,29.836448669433594,2026-04-11T19:13:25.369-05:00
1775952805379240400,7.733240478515625,-35.481895446777344,-12.686656951904297,29.692176818847656,2026-04-11T19:13:25.379-05:00
1775952805389297700,7.743297607421875,-35.51094436645508,-12.678993225097656,29.908599853515625,2026-04-11T19:13:25.389-05:00
1775952805399353600,7.753353515625,-35.40318298339844,-12.676549911499023,29.852996826171875,2026-04-11T19:13:25.399-05:00
1775952805409410600,7.76341064453125,-35.407283782958984,-12.74533462524414,29.77740478515625,2026-04-11T19:13:25.409-05:00
1775952805419467800,7.7734677734375,-35.32242965698242,-12.691926956176758,29.854354858398438,2026-04-11T19:13:25.419-05:00
1775952805429524700,7.783524658203125,-35.18401336669922,-12.756948471069336,29.904205322265625,2026-04-11T19:13:25.429-05:00
1775952805439581700,7.793581787109375,-35.163108825683594,-12.89635944366455,29.937881469726562,2026-04-11T19:13:25.439-05:00
1775952805449637600,7.8036376953125,-35.167911529541016,-12.880420684814453,30.0966796875,2026-04-11T19:13:25.449-05:00
1775952805459694600,7.813694580078125,-34.99014663696289,-12.973669052124023,30.229286193847656,2026-04-11T19:13:25.459-05:00
1775952805469751600,7.82375146484375,-34.737770080566406,-13.22452163696289,30.444740295410156,2026-04-11T19:13:25.469-05:00
1775952805479808500,7.83380859375,-34.573997497558594,-13.344743728637695,30.52606964111328,2026-04-11T19:13:25.479-05:00
1775952805489864700,7.84386474609375,-34.4912223815918,-13.432197570800781,30.498130798339844,2026-04-11T19:13:25.489-05:00
1775952805499921700,7.853921630859375,-34.38522720336914,-13.289538383483887,30.56562042236328,2026-04-11T19:13:25.499-05:00
1775952805509978600,7.863978515625,-34.5094108581543,-13.296191215515137,30.507530212402344,2026-04-11T19:13:25.509-05:00
1775952805520035600,7.87403564453125,-34.50221633911133,-13.37376594543457,30.61750030517578,2026-04-11T19:13:25.520-05:00
1775952805530092500,7.884092529296875,-34.425655364990234,-13.480180740356445,30.605140686035156,2026-04-11T19:13:25.530-05:00
1775952805540148500,7.8941484375,-34.18260955810547,-13.677056312561035,30.652053833007812,2026-04-11T19:13:25.540-05:00
1775952805550205400,7.904205322265625,-34.15980529785156,-13.639037132263184,30.771728515625,2026-04-11T19:13:25.550-05:00
1775952805560262700,7.9142626953125,-34.134124755859375,-13.739221572875977,31.02918243408203,2026-04-11T19:13:25.560-05:00
1775952805570319600,7.924319580078125,-33.64977264404297,-13.87747573852539,31.101028442382812,2026-04-11T19:13:25.570-05:00
1775952805580375800,7.934375732421875,-33.64977264404297,-13.87747573852539,31.101028442382812,2026-04-11T19:13:25.580-05:00
1775952805590432800,7.944432861328125,-33.43025588989258,-13.915640830993652,31.45391082763672,2026-04-11T19:13:25.590-05:00
1775952805600489700,7.95448974609375,-33.24681091308594,-13.931546211242676,31.67693328857422,2026-04-11T19:13:25.600-05:00
1775952805610546700,7.964546630859375,-32.96061706542969,-13.943954467773438,31.790435791015625,2026-04-11T19:13:25.610-05:00
1775952805620602600,7.9746025390625,-32.715126037597656,-14.011955261230469,32.020225524902344,2026-04-11T19:13:25.620-05:00
1775952805630659600,7.98465966796875,-32.64363098144531,-14.187255859375,31.989166259765625,2026-04-11T19:13:25.630-05:00
1775952805640716500,7.994716552734375,-32.5679931640625,-14.367822647094727,32.05084991455078,2026-04-11T19:13:25.640-05:00
1775952805650773500,8.0047734375,-32.53017044067383,-14.379064559936523,32.057098388671875,2026-04-11T19:13:25.650-05:00
1775952805660830500,8.01483056640625,-32.71783447265625,-14.545414924621582,31.92804718017578,2026-04-11T19:13:25.660-05:00
1775952805670886700,8.02488671875,-32.59687423706055,-14.634600639343262,31.895645141601562,2026-04-11T19:13:25.670-05:00
1775952805680943600,8.034943603515625,-32.69559097290039,-14.683147430419922,31.931472778320312,2026-04-11T19:13:25.680-05:00
1775952805691000600,8.04500048828125,-32.5318489074707,-14.929779052734375,31.84674072265625,2026-04-11T19:13:25.691-05:00
1775952805701057800,8.055057861328125,-32.35441207885742,-14.874837875366211,31.842689514160156,2026-04-11T19:13:25.701-05:00
1775952805711113500,8.065113525390625,-32.43719482421875,-15.141510009765625,31.861572265625,2026-04-11T19:13:25.711-05:00
1775952805721170700,8.075170654296874,-32.39324188232422,-15.264913558959961,31.969497680664062,2026-04-11T19:13:25.721-05:00
1775952805731227600,8.0852275390625,-32.4799690246582,-15.46267318725586,32.06328582763672,2026-04-11T19:13:25.731-05:00
1775952805741284600,8.09528466796875,-32.10044479370117,-15.766040802001953,31.922515869140625,2026-04-11T19:13:25.741-05:00
1775952805751341600,8.105341552734375,-32.12759017944336,-15.850339889526367,31.80413055419922,2026-04-11T19:13:25.751-05:00
1775952805761397800,8.115397705078125,-32.379878997802734,-15.930387496948242,31.661277770996094,2026-04-11T19:13:25.761-05:00
1775952805771454700,8.125454833984374,-32.2164306640625,-16.179664611816406,31.697128295898438,2026-04-11T19:13:25.771-05:00
1775952805781511700,8.13551171875,-32.06004333496094,-16.283184051513672,31.796798706054688,2026-04-11T19:13:25.781-05:00
1775952805791568600,8.145568603515626,-32.08653259277344,-16.364978790283203,31.796173095703125,2026-04-11T19:13:25.791-05:00
1775952805801624600,8.15562451171875,-31.876239776611328,-16.412677764892578,31.759254455566406,2026-04-11T19:13:25.801-05:00
1775952805811681500,8.165681640625,-31.943614959716797,-16.551305770874023,31.905555725097656,2026-04-11T19:13:25.811-05:00
1775952805821738500,8.175738525390624,-31.757144927978516,-16.783830642700195,31.87804412841797,2026-04-11T19:13:25.821-05:00
1775952805831795500,8.18579541015625,-31.43588638305664,-16.940105438232422,32.16249084472656,2026-04-11T19:13:25.831-05:00
1775952805841852700,8.195852783203126,-31.511249542236328,-17.111371994018555,32.06883239746094,2026-04-11T19:13:25.841-05:00
1775952805851908600,8.20590869140625,-31.511249542236328,-17.111371994018555,32.06883239746094,2026-04-11T19:13:25.851-05:00
1775952805861965800,8.2159658203125,-31.259708404541016,-17.256776809692383,31.93017578125,2026-04-11T19:13:25.861-05:00
1775952805872022800,8.226022705078124,-31.46910858154297,-17.357620239257812,31.864219665527344,2026-04-11T19:13:25.872-05:00
1775952805882079700,8.236079833984375,-31.668853759765625,-17.79401206970215,31.608230590820312,2026-04-11T19:13:25.882-05:00
1775952805892136700,8.24613671875,-31.753421783447266,-18.086341857910156,31.437896728515625,2026-04-11T19:13:25.892-05:00
1775952805902192600,8.256192626953125,-31.996414184570312,-18.207626342773438,31.136367797851562,2026-04-11T19:13:25.902-05:00
1775952805912249600,8.26624951171875,-31.698829650878906,-18.59955596923828,30.81231689453125,2026-04-11T19:13:25.912-05:00
1775952805922306600,8.276306640625,-31.685707092285156,-18.993432998657227,30.710472106933594,2026-04-11T19:13:25.922-05:00
1775952805932363500,8.286363525390625,-31.755382537841797,-19.10541534423828,30.51696014404297,2026-04-11T19:13:25.932-05:00
1775952805942419500,8.29641943359375,-31.740936279296875,-19.322572708129883,30.341842651367188,2026-04-11T19:13:25.942-05:00
1775952805952476700,8.3064765625,-32.0355224609375,-19.435935974121094,29.97674560546875,2026-04-11T19:13:25.952-05:00
1775952805962534000,8.316533935546875,-32.50278854370117,-19.590286254882812,29.21887969970703,2026-04-11T19:13:25.962-05:00
1775952805972590800,8.3265908203125,-33.08710861206055,-19.995258331298828,28.398391723632812,2026-04-11T19:13:25.972-05:00
1775952805982646800,8.336646728515625,-33.674190521240234,-20.38493537902832,27.36229705810547,2026-04-11T19:13:25.982-05:00
1775952805992703700,8.346703857421875,-34.342403411865234,-20.888690948486328,26.15887451171875,2026-04-11T19:13:25.992-05:00
1775952806002760700,8.3567607421875,-35.3494758605957,-21.273229598999023,24.81976318359375,2026-04-11T19:13:26.002-05:00
1775952806012817700,8.366817626953125,-36.02513885498047,-21.752355575561523,23.12396240234375,2026-04-11T19:13:26.012-05:00
1775952806022874600,8.37687451171875,-36.875282287597656,-22.071794509887695,21.459068298339844,2026-04-11T19:13:26.022-05:00
1775952806032930600,8.3869306640625,-37.48906707763672,-22.365856170654297,19.99761199951172,2026-04-11T19:13:26.032-05:00
1775952806042987500,8.396987548828125,-37.99934005737305,-22.45815658569336,18.382888793945312,2026-04-11T19:13:26.042-05:00
1775952806053044700,8.407044677734374,-38.56978988647461,-22.610532760620117,17.1976318359375,2026-04-11T19:13:26.053-05:00
1775952806063101700,8.417101806640625,-39.0192756652832,-22.724912643432617,16.16840362548828,2026-04-11T19:13:26.063-05:00
1775952806073157600,8.42715771484375,-39.14519500732422,-22.985960006713867,15.0419921875,2026-04-11T19:13:26.073-05:00
1775952806083214800,8.43721484375,-39.526451110839844,-23.251075744628906,14.251625061035156,2026-04-11T19:13:26.083-05:00
1775952806093271800,8.447271728515625,-39.527870178222656,-23.451879501342773,13.516708374023438,2026-04-11T19:13:26.093-05:00
1775952806103328800,8.457328857421874,-39.611759185791016,-23.636943817138672,12.770576477050781,2026-04-11T19:13:26.103-05:00
1775952806113385700,8.4673857421875,-39.76228332519531,-23.541170120239258,11.925323486328125,2026-04-11T19:13:26.113-05:00
1775952806123441700,8.477441650390626,-39.777076721191406,-23.969629287719727,11.052581787109375,2026-04-11T19:13:26.123-05:00
1775952806133498600,8.48749853515625,-39.77985382080078,-23.969953536987305,11.052467346191406,2026-04-11T19:13:26.133-05:00
1775952806143555600,8.4975556640625,-39.733978271484375,-24.41189956665039,10.468017578125,2026-04-11T19:13:26.143-05:00
1775952806153612500,8.507612548828124,-39.836585998535156,-24.6679744720459,9.880073547363281,2026-04-11T19:13:26.153-05:00
1775952806163668700,8.517668701171875,-39.535911560058594,-25.063631057739258,9.203582763671875,2026-04-11T19:13:26.163-05:00
1775952806173725700,8.5277255859375,-39.61793518066406,-25.18560791015625,8.862762451171875,2026-04-11T19:13:26.173-05:00
1775952806183782700,8.53778271484375,-39.569026947021484,-25.3607120513916,8.437461853027344,2026-04-11T19:13:26.183-05:00
1775952806193839600,8.547839599609375,-39.329917907714844,-25.55223846435547,8.090347290039062,2026-04-11T19:13:26.193-05:00
1775952806203896800,8.557896728515624,-39.306884765625,-25.603649139404297,7.84552001953125,2026-04-11T19:13:26.203-05:00
1775952806213952500,8.567952392578125,-39.33744430541992,-25.595510482788086,7.770240783691406,2026-04-11T19:13:26.213-05:00
1775952806224009700,8.578009765625,-39.33547592163086,-25.77472686767578,7.550010681152344,2026-04-11T19:13:26.224-05:00
1775952806234066700,8.588066650390624,-39.494964599609375,-25.96023941040039,7.491874694824219,2026-04-11T19:13:26.234-05:00
1775952806244123600,8.59812353515625,-39.23405456542969,-26.035242080688477,7.295768737792969,2026-04-11T19:13:26.244-05:00
1775952806254179800,8.608179931640626,-39.407135009765625,-26.04935073852539,7.37127685546875,2026-04-11T19:13:26.254-05:00
1775952806264236800,8.61823681640625,-39.415748596191406,-26.117198944091797,7.214202880859375,2026-04-11T19:13:26.264-05:00
1775952806274293800,8.628293701171875,-39.22949981689453,-26.171430587768555,7.021392822265625,2026-04-11T19:13:26.274-05:00
1775952806284350700,8.638350830078124,-39.26708221435547,-26.094865798950195,7.004753112792969,2026-04-11T19:13:26.284-05:00
1775952806294407700,8.64840771484375,-39.15845489501953,-25.99209976196289,6.685630798339844,2026-04-11T19:13:26.294-05:00
1775952806304463600,8.658463623046876,-38.99906921386719,-25.879661560058594,6.538169860839844,2026-04-11T19:13:26.304-05:00
1775952806314520600,8.6685205078125,-39.31266784667969,-26.09185028076172,6.67022705078125,2026-04-11T19:13:26.314-05:00
1775952806324577500,8.67857763671875,-39.342464447021484,-26.140975952148438,6.493072509765625,2026-04-11T19:13:26.324-05:00
1775952806334634500,8.688634521484374,-39.454078674316406,-26.11129379272461,6.5435333251953125,2026-04-11T19:13:26.334-05:00
1775952806344690700,8.698690673828125,-39.14226531982422,-26.16492462158203,6.489387512207031,2026-04-11T19:13:26.344-05:00
1775952806354747600,8.70874755859375,-39.0098876953125,-26.06906509399414,6.499839782714844,2026-04-11T19:13:26.354-05:00
1775952806364804900,8.718804931640625,-39.19930648803711,-25.961013793945312,6.512474060058594,2026-04-11T19:13:26.364-05:00
1775952806374861800,8.72886181640625,-39.06630325317383,-26.039379119873047,6.47625732421875,2026-04-11T19:13:26.374-05:00
1775952806384918800,8.738918701171874,-38.93416976928711,-26.061429977416992,6.488197326660156,2026-04-11T19:13:26.384-05:00
1775952806394974700,8.748974609375,-39.096839904785156,-26.142744064331055,6.592376708984375,2026-04-11T19:13:26.394-05:00
1775952806405031700,8.75903173828125,-39.096839904785156,-26.142744064331055,6.592376708984375,2026-04-11T19:13:26.405-05:00
1775952806415088600,8.769088623046875,-39.14950942993164,-26.17983627319336,6.456207275390625,2026-04-11T19:13:26.415-05:00
1775952806425145600,8.7791455078125,-39.385765075683594,-26.0826416015625,6.462776184082031,2026-04-11T19:13:26.425-05:00
1775952806435201800,8.789201904296876,-39.22399139404297,-26.067935943603516,6.4284820556640625,2026-04-11T19:13:26.435-05:00
1775952806445258800,8.7992587890625,-39.26051712036133,-26.013341903686523,6.459190368652344,2026-04-11T19:13:26.445-05:00
1775952806455315700,8.809315673828126,-39.3900146484375,-25.873262405395508,6.557502746582031,2026-04-11T19:13:26.455-05:00
1775952806465372700,8.81937255859375,-39.392921447753906,-25.957542419433594,6.708778381347656,2026-04-11T19:13:26.465-05:00
1775952806475429600,8.8294296875,-39.33013153076172,-25.894811630249023,6.808372497558594,2026-04-11T19:13:26.475-05:00
1775952806485485600,8.839485595703126,-39.446617126464844,-25.91434669494629,6.909034729003906,2026-04-11T19:13:26.485-05:00
1775952806495542800,8.849542724609375,-39.215850830078125,-25.994821548461914,7.073326110839844,2026-04-11T19:13:26.495-05:00
1775952806505599700,8.859599853515626,-39.342525482177734,-25.7737979888916,7.320762634277344,2026-04-11T19:13:26.505-05:00
1775952806515656700,8.86965673828125,-39.326202392578125,-25.595674514770508,7.796783447265625,2026-04-11T19:13:26.515-05:00
1775952806525713000,8.879712890625,-39.530364990234375,-25.369855880737305,8.618843078613281,2026-04-11T19:13:26.525-05:00
1775952806535769900,8.889769775390626,-39.52276611328125,-25.007442474365234,9.742111206054688,2026-04-11T19:13:26.535-05:00
1775952806545826800,8.899826904296875,-39.08068084716797,-24.719696044921875,11.058036804199219,2026-04-11T19:13:26.545-05:00
1775952806555883800,8.9098837890625,-38.839698791503906,-24.531414031982422,12.698211669921875,2026-04-11T19:13:26.555-05:00
1775952806565940700,8.919940673828124,-38.51777648925781,-24.133384704589844,14.569778442382812,2026-04-11T19:13:26.565-05:00
1775952806575996700,8.92999658203125,-38.005126953125,-23.94133949279785,16.177574157714844,2026-04-11T19:13:26.575-05:00
1775952806586053600,8.9400537109375,-37.403465270996094,-23.826810836791992,17.77166748046875,2026-04-11T19:13:26.586-05:00
1775952806596110600,8.950110595703125,-36.85598373413086,-23.545263290405273,19.191505432128906,2026-04-11T19:13:26.596-05:00
1775952806606167600,8.96016748046875,-36.422080993652344,-23.257909774780273,20.4700927734375,2026-04-11T19:13:26.606-05:00
1775952806616223700,8.9702236328125,-35.920562744140625,-22.823366165161133,21.660202026367188,2026-04-11T19:13:26.616-05:00
1775952806626280700,8.98028076171875,-35.66863250732422,-22.527328491210938,22.771026611328125,2026-04-11T19:13:26.626-05:00
1775952806636338000,8.990337890625,-35.16441345214844,-22.187889099121094,23.84418487548828,2026-04-11T19:13:26.636-05:00
1775952806646395000,9.000394775390625,-34.503875732421875,-21.61394500732422,24.737449645996094,2026-04-11T19:13:26.646-05:00
1775952806656451800,9.010451904296875,-33.98832321166992,-21.3327693939209,25.697044372558594,2026-04-11T19:13:26.656-05:00
1775952806666507800,9.0205078125,-33.69742202758789,-20.840723037719727,26.570899963378906,2026-04-11T19:13:26.666-05:00
1775952806676564700,9.030564697265625,-33.393306732177734,-20.51361846923828,27.5323486328125,2026-04-11T19:13:26.676-05:00
1775952806686621700,9.04062158203125,-33.393306732177734,-20.51361846923828,27.5323486328125,2026-04-11T19:13:26.686-05:00
1775952806696678700,9.0506787109375,-33.155879974365234,-20.026187896728516,28.087371826171875,2026-04-11T19:13:26.696-05:00
1775952806706734600,9.060734619140625,-32.83870315551758,-19.598224639892578,28.681671142578125,2026-04-11T19:13:26.706-05:00
1775952806716791800,9.070791748046876,-33.108821868896484,-19.127798080444336,28.89556121826172,2026-04-11T19:13:26.716-05:00
1775952806726848800,9.080848876953125,-32.75230407714844,-18.736095428466797,29.19934844970703,2026-04-11T19:13:26.726-05:00
1775952806736905700,9.09090576171875,-32.62824630737305,-18.47437858581543,29.410842895507812,2026-04-11T19:13:26.736-05:00
1775952806746962700,9.100962646484374,-32.696712493896484,-18.367584228515625,29.558883666992188,2026-04-11T19:13:26.746-05:00
1775952806757018600,9.1110185546875,-32.65291976928711,-18.147907257080078,29.71881103515625,2026-04-11T19:13:26.757-05:00
1775952806767075600,9.12107568359375,-32.713890075683594,-17.957143783569336,29.714752197265625,2026-04-11T19:13:26.767-05:00
1775952806777132800,9.1311328125,-32.822715759277344,-17.696603775024414,29.923194885253906,2026-04-11T19:13:26.777-05:00
1775952806787189800,9.141189697265625,-32.906982421875,-17.458723068237305,30.15076446533203,2026-04-11T19:13:26.787-05:00
1775952806797245700,9.15124560546875,-32.79206466674805,-17.208642959594727,30.31592559814453,2026-04-11T19:13:26.797-05:00
1775952806807302700,9.161302734375,-32.583126068115234,-16.86345863342285,30.409713745117188,2026-04-11T19:13:26.807-05:00
1775952806817359600,9.171359619140626,-32.7854118347168,-16.63702964782715,30.619781494140625,2026-04-11T19:13:26.817-05:00
1775952806827416800,9.181416748046875,-32.912879943847656,-16.404523849487305,30.589279174804688,2026-04-11T19:13:26.827-05:00
1775952806837473800,9.191473876953125,-32.922576904296875,-16.2226619720459,30.68897247314453,2026-04-11T19:13:26.837-05:00
1775952806847529700,9.20152978515625,-32.88591003417969,-15.997371673583984,30.63726806640625,2026-04-11T19:13:26.847-05:00
1775952806857586700,9.211586669921875,-32.98143768310547,-15.930500030517578,30.560562133789062,2026-04-11T19:13:26.857-05:00
1775952806867643600,9.2216435546875,-33.193397521972656,-15.615676879882812,30.594512939453125,2026-04-11T19:13:26.867-05:00
1775952806877700600,9.23170068359375,-33.229087829589844,-15.701824188232422,30.647720336914062,2026-04-11T19:13:26.877-05:00
1775952806887757600,9.241757568359375,-33.14390563964844,-15.716833114624023,30.70861053466797,2026-04-11T19:13:26.887-05:00
1775952806897813500,9.2518134765625,-33.25499725341797,-15.52305793762207,30.882057189941406,2026-04-11T19:13:26.897-05:00
1775952806907870700,9.26187060546875,-33.191097259521484,-15.488020896911621,30.8642578125,2026-04-11T19:13:26.907-05:00
1775952806917927700,9.271927734375,-33.16023635864258,-15.273656845092773,30.847335815429688,2026-04-11T19:13:26.917-05:00
1775952806927984600,9.281984619140625,-33.24580001831055,-15.052116394042969,30.870986938476562,2026-04-11T19:13:26.927-05:00
1775952806938040800,9.292040771484375,-33.0842170715332,-15.06566047668457,30.775360107421875,2026-04-11T19:13:26.938-05:00
1775952806948097800,9.302097900390624,-33.099151611328125,-14.89968490600586,30.882400512695312,2026-04-11T19:13:26.948-05:00
1775952806958154800,9.31215478515625,-33.099151611328125,-14.89968490600586,30.882400512695312,2026-04-11T19:13:26.958-05:00
1775952806968211200,9.322211181640625,-33.2790412902832,-14.812515258789062,30.840797424316406,2026-04-11T19:13:26.968-05:00
1775952806978268400,9.332268310546874,-33.243656158447266,-14.793022155761719,30.730484008789062,2026-04-11T19:13:26.978-05:00
1775952806988324000,9.342323974609375,-33.477806091308594,-14.552474975585938,30.745468139648438,2026-04-11T19:13:26.988-05:00
1775952806998381300,9.35238134765625,-33.43117141723633,-14.561134338378906,30.70708465576172,2026-04-11T19:13:26.998-05:00
1775952807008438500,9.3624384765625,-33.48396301269531,-14.502185821533203,30.777175903320312,2026-04-11T19:13:27.008-05:00
1775952807018495500,9.37249560546875,-33.42983627319336,-14.327760696411133,30.62706756591797,2026-04-11T19:13:27.018-05:00
1775952807028551400,9.382551513671874,-33.368648529052734,-14.356406211853027,30.590621948242188,2026-04-11T19:13:27.028-05:00
1775952807038608400,9.3926083984375,-33.69670486450195,-14.366764068603516,30.693435668945312,2026-04-11T19:13:27.038-05:00
1775952807048665300,9.402665283203126,-33.68003845214844,-14.192283630371094,30.625762939453125,2026-04-11T19:13:27.048-05:00
1775952807058722300,9.412722412109375,-33.730857849121094,-14.201581954956055,30.600326538085938,2026-04-11T19:13:27.058-05:00
1775952807068778200,9.4227783203125,-33.877357482910156,-14.032958984375,30.65106964111328,2026-04-11T19:13:27.068-05:00
1775952807078835200,9.432835205078124,-34.09242248535156,-14.02410888671875,30.657119750976562,2026-04-11T19:13:27.078-05:00
1775952807088892200,9.44289208984375,-33.89476013183594,-13.920759201049805,30.68964385986328,2026-04-11T19:13:27.088-05:00
1775952807098949000,9.45294921875,-34.23740768432617,-13.84765911102295,30.673019409179688,2026-04-11T19:13:27.098-05:00
1775952807109006300,9.46300634765625,-34.27754211425781,-13.887481689453125,30.471939086914062,2026-04-11T19:13:27.109-05:00
1775952807119062300,9.473062255859375,-34.526432037353516,-13.74708366394043,30.349441528320312,2026-04-11T19:13:27.119-05:00
1775952807129119500,9.483119384765626,-34.83082580566406,-13.678240776062012,30.031570434570312,2026-04-11T19:13:27.129-05:00
1775952807139176400,9.493176513671875,-34.917579650878906,-13.615245819091797,29.886306762695312,2026-04-11T19:13:27.139-05:00
1775952807149233400,9.5032333984375,-35.05812454223633,-13.28675651550293,29.950027465820312,2026-04-11T19:13:27.149-05:00
1775952807159289300,9.513289306640624,-34.890926361083984,-13.3486328125,29.868927001953125,2026-04-11T19:13:27.159-05:00
1775952807169346300,9.52334619140625,-34.86968231201172,-13.25917911529541,29.87535858154297,2026-04-11T19:13:27.169-05:00
1775952807179403300,9.5334033203125,-35.05522155761719,-13.039661407470703,29.906280517578125,2026-04-11T19:13:27.179-05:00
1775952807189460200,9.543460205078125,-34.98297882080078,-13.116096496582031,30.05011749267578,2026-04-11T19:13:27.189-05:00
1775952807199517200,9.55351708984375,-34.59886169433594,-12.736536026000977,30.189369201660156,2026-04-11T19:13:27.199-05:00
1775952807209573400,9.563573486328124,-34.63813781738281,-12.721895217895508,30.27521514892578,2026-04-11T19:13:27.209-05:00
1775952807219630300,9.57363037109375,-34.339202880859375,-12.866109848022461,30.66516876220703,2026-04-11T19:13:27.219-05:00
1775952807229687300,9.583687255859376,-34.322391510009766,-12.977409362792969,31.021530151367188,2026-04-11T19:13:27.229-05:00
1775952807239744300,9.593744140625,-34.322391510009766,-12.977409362792969,31.021530151367188,2026-04-11T19:13:27.239-05:00
1775952807249800200,9.60380029296875,-33.972389221191406,-13.004534721374512,30.988746643066406,2026-04-11T19:13:27.249-05:00
1775952807259857200,9.613857177734374,-33.690162658691406,-13.22426986694336,31.085227966308594,2026-04-11T19:13:27.259-05:00
1775952807269914400,9.623914306640625,-33.81343078613281,-13.31154727935791,31.178878784179688,2026-04-11T19:13:27.269-05:00
1775952807279971300,9.633971435546876,-33.67348861694336,-13.508849143981934,31.089218139648438,2026-04-11T19:13:27.279-05:00
1775952807290028300,9.6440283203125,-33.564701080322266,-13.69443416595459,31.037002563476562,2026-04-11T19:13:27.290-05:00
1775952807300084500,9.65408447265625,-33.75346755981445,-13.869316101074219,30.93512725830078,2026-04-11T19:13:27.300-05:00
1775952807310141400,9.664141357421874,-33.87009048461914,-13.977184295654297,30.742652893066406,2026-04-11T19:13:27.310-05:00
1775952807320198400,9.674198486328125,-33.654945373535156,-14.095626831054688,30.712318420410156,2026-04-11T19:13:27.320-05:00
1775952807330255400,9.68425537109375,-33.84354782104492,-14.294136047363281,30.55724334716797,2026-04-11T19:13:27.330-05:00
1775952807340311300,9.694311279296874,-33.68184280395508,-14.45952033996582,30.567764282226562,2026-04-11T19:13:27.340-05:00
1775952807350368300,9.7043681640625,-33.72040557861328,-14.638422012329102,30.535057067871094,2026-04-11T19:13:27.350-05:00
1775952807360425200,9.71442529296875,-33.86247253417969,-14.922592163085938,30.245895385742188,2026-04-11T19:13:27.360-05:00
1775952807370482200,9.724482177734375,-34.04286193847656,-14.869622230529785,30.192306518554688,2026-04-11T19:13:27.370-05:00
1775952807380539100,9.7345390625,-34.10277557373047,-14.95762825012207,30.16400909423828,2026-04-11T19:13:27.380-05:00
1775952807390595300,9.74459521484375,-33.775306701660156,-15.059633255004883,30.20508575439453,2026-04-11T19:13:27.390-05:00
1775952807400652300,9.75465234375,-33.55530548095703,-15.177117347717285,30.50800323486328,2026-04-11T19:13:27.400-05:00
1775952807410709500,9.76470947265625,-33.32114791870117,-15.261401176452637,30.477943420410156,2026-04-11T19:13:27.410-05:00
1775952807420766500,9.774766357421875,-33.16726303100586,-15.264900207519531,30.606346130371094,2026-04-11T19:13:27.420-05:00
1775952807430822400,9.784822509765625,-32.92644119262695,-15.301372528076172,30.814674377441406,2026-04-11T19:13:27.430-05:00
1775952807440879400,9.79487939453125,-32.71604919433594,-15.523589134216309,30.855369567871094,2026-04-11T19:13:27.440-05:00
1775952807450936300,9.804936279296875,-32.371490478515625,-15.614202499389648,31.319381713867188,2026-04-11T19:13:27.450-05:00
1775952807460993300,9.8149931640625,-31.910961151123047,-15.959541320800781,31.88530731201172,2026-04-11T19:13:27.460-05:00
1775952807471050200,9.82505029296875,-31.41461944580078,-16.14716339111328,32.08898162841797,2026-04-11T19:13:27.471-05:00
