time,seconds_elapsed,z,y,x
1773522019546601500,0.0886015625,0.07444295430481433,0.321273396576941,-2.5186615680396556
1773522019556639500,0.098639404296875,0.24694705438911912,-0.7465814603850245,-2.36562482336089
1773522019566677500,0.108677490234375,-0.11847498825490474,-2.22933492308259,-0.898113353458792
1773522019576715500,0.118715576171875,-1.2921364905565977,-2.9702962054982778,0.5947327564470469
1773522019586754600,0.128754638671875,-1.8178309282213447,0.16356822169572113,-0.433918801895529
1773522019596792600,0.13879248046875,-0.6221499018132687,2.0708806833997366,-1.146176406265795
1773522019606830600,0.14883056640625,0.2571089674413204,2.1108745478749276,-1.1188147904790937
1773522019616869400,0.158869384765625,0.15731763686835765,2.4163556242972613,-0.5374203851632774
1773522019626907600,0.16890771484375,0.45333004319965836,1.9774290772423146,-0.8047738293737172
1773522019636945400,0.1789453125,-1.1825807218164204,1.726668894305825,0.6998705626145005
1773522019646984700,0.188984619140625,-1.4426590604573488,1.6729370118573308,0.5112684374272823
1773522019657022500,0.1990224609375,-0.08725918125808238,3.1357772750779986,-0.12110445997565984
1773522019667060700,0.209060791015625,1.3415017022281885,4.465913825944066,-0.27374124555140733
1773522019677098500,0.219098388671875,-0.0010918868899345397,3.613129706639051,-0.4866492522165179
1773522019687137500,0.229137451171875,-1.6421213100939989,1.5413462291806936,-0.5694491159781814
1773522019697175600,0.239175537109375,-2.807072851717472,-0.23845979655086993,-0.2633946235820651
1773522019707213600,0.249213623046875,-2.504826519432664,-0.8240446392938494,0.23429332452118395
1773522019717252600,0.259252685546875,-1.9430051218539475,-0.5121826296627521,0.4440586492463946
1773522019727290600,0.26929052734375,-1.9508008902966976,0.34723289048075673,0.6742401545345783
1773522019737328600,0.27932861328125,-1.5937112071901558,1.072050555086136,0.9681827688544988
1773522019747366400,0.289366455078125,0.05127309111952781,1.1197639078974724,1.0703320607304572
1773522019757405400,0.299405517578125,-0.20303192481696605,0.6260463247299194,0.24239421339035033
1773522019767443700,0.309443603515625,-0.13088321892917154,0.4268111618474126,-0.20599165140539408
1773522019777481500,0.3194814453125,0.6343354296475648,0.5215577762514353,-0.09574483166113495
1773522019787520800,0.329520751953125,1.2080413262873888,0.3740484166920185,-0.2276142851486802
1773522019797558500,0.33955859375,-0.8369429915726184,0.3139016987651586,-0.6866041076757013
1773522019807596500,0.349596435546875,-2.113016820600629,0.37490152639001606,-0.7769625701233744
1773522019817635600,0.359635498046875,0.5283025743365287,-0.2036547328904271,-0.6897837606251239
1773522019827673300,0.36967333984375,1.7619547272205351,-0.3753656367704272,-1.1254492600575088
1773522019837711600,0.379711669921875,1.2151689862102268,0.3475688444368541,-1.202067950966209
1773522019847749400,0.389749267578125,0.6442763934254646,1.3983013016842305,-0.7245375324897467
1773522019857788700,0.39978857421875,-0.30547756929099557,2.0259248126029967,0.06119169693514705
1773522019867826400,0.409826416015625,-1.2606184857428073,1.407290809956193,0.8846512298174202
1773522019877864700,0.41986474609375,-1.2426175496280192,0.23567440361604095,1.1680227657623588
1773522019887903500,0.429903564453125,-1.1208224770396946,-0.8687493118084967,1.1922295707799493
1773522019897941500,0.43994140625,-1.056706855481863,-1.4985301468916237,1.5836489551201463
1773522019907979500,0.4499794921875,-0.7193687515497207,-1.3096053656212985,1.7536393188178538
1773522019918017500,0.460017578125,-0.13209142567515372,-0.7648813794463872,1.506537073867023
1773522019928056600,0.470056640625,0.3816729202210903,0.06369695775434374,1.2690585434384642
1773522019938094600,0.480094482421875,-0.006554828470945358,0.0329632351860404,1.3380742119975386
1773522019948132600,0.490132568359375,-0.28249533763229845,-0.6380607337810099,1.3237953651458023
1773522019958171600,0.500171630859375,-0.0036404023289680477,-1.2580528730385006,1.1420499739855527
1773522019968209400,0.51020947265625,0.47367783470153807,-1.6607487075440586,0.9730148651860654
1773522019978247700,0.52024755859375,0.5790852515906095,-1.9221951196677982,0.9477782787293195
1773522019988286500,0.530286376953125,0.43735447543263434,-1.7315867692247031,0.8733910001344978
1773522019998324700,0.54032470703125,0.42271337113976476,-1.5001041182100772,0.9157251441255211
1773522020008362500,0.550362548828125,0.3276338715195656,-1.1652943637117743,0.8498296534135937
1773522020018400500,0.560400390625,0.6127747552245855,-0.800040955632925,0.5992259762130677
1773522020028439600,0.570439453125,0.9181675688415766,-0.7918114719480276,0.6145808547984808
1773522020038477300,0.580477294921875,1.0811194122046233,-0.910900500448048,0.3462765396039933
1773522020048515600,0.590515625,1.2174661572366952,-0.8258230471432209,0.1266082450237125
1773522020058554600,0.6005546875,1.179414951261878,-0.578302869041264,-0.14421090253591537
1773522020068592600,0.610592529296875,1.3009563413500784,-0.37667818067371844,-0.5504398065384477
1773522020078630400,0.62063037109375,1.382810448694229,-0.5535962978079915,-0.5046618057038634
1773522020088669400,0.63066943359375,0.715201694998145,-0.801788383822143,-0.24815438435226678
1773522020098707500,0.64070751953125,0.004956161102652549,-0.8947995527356862,-0.014103709480538964
1773522020108745500,0.650745361328125,-0.28415654884278774,-0.9914610608503222,0.21230777574963866
1773522020118784500,0.660784423828125,0.005684475377202034,-0.9457789216056466,0.20075886531844733
1773522020128822500,0.670822509765625,0.5257341851532459,-0.7487859846919774,0.013974164816737173
1773522020138860500,0.680860595703125,0.8055255245238542,-0.5964332767546177,-0.08690423034057021
1773522020148898600,0.690898681640625,0.7745593083739281,-0.5138961555823683,-0.1721671962801367
1773522020158937300,0.700937255859375,0.6387988387972116,-0.6075748484939336,-0.14872589574232697
1773522020168976000,0.710975830078125,0.9786030405819416,-0.4595139925315976,-0.21341982864476738
1773522020179014000,0.721013916015625,1.3142653202563523,-0.10264350513368845,-0.30324893345609305
1773522020189053000,0.731052978515625,1.1391893238574267,-0.035785891391336914,-0.22834245329275726
1773522020199091000,0.741091064453125,0.9345137234866618,-0.3292459828913212,-0.1231651918977499
1773522020209129000,0.75112890625,0.8469406539738178,-0.6394187242612243,-0.18290617856793104
1773522020219168000,0.76116796875,0.7660966004550457,-0.7697206361711024,-0.296296703165397
1773522020229205800,0.771205810546875,0.6551321339607238,-0.7841875529408454,-0.21666779759004712
1773522020239244000,0.781244140625,0.37813188661336894,-0.6406038423925637,0.01634904072191566
1773522020249282800,0.79128271484375,0.25056641393005846,-0.4554626713141799,0.20501257724016902
1773522020259321000,0.801321044921875,0.34916707341372966,-0.35120734706968065,0.4656427045449614
1773522020269358800,0.81135888671875,0.37841128807663915,-0.16167612433880565,0.5984292363448068
1773522020279396900,0.82139697265625,0.4534013548702001,-0.00720306324660778,0.44820663577131925
1773522020289436000,0.831435791015625,0.493299650016427,0.004584989702701568,0.29056327407993376
1773522020299473700,0.8414736328125,0.6218254921644926,-0.06516659191548824,0.16492531712679193
1773522020309512000,0.851511962890625,0.7169727963238954,-0.16722469837665557,0.1813778547558002
1773522020319551000,0.861551025390625,0.5309726703286171,-0.24209113879054783,0.2775022968516685
1773522020329589000,0.871589111328125,0.4057885398238897,-0.37386926073282956,0.3803155507953837
1773522020339626800,0.881626708984375,0.3403945688933134,-0.5045402982160448,0.49528001017868517
1773522020349665800,0.891665771484375,0.21281682125031948,-0.5308680409103632,0.3684689360592514
1773522020359703800,0.901703857421875,0.1421837806224823,-0.29989567750543356,0.09865156768700108
1773522020369741800,0.911741943359375,0.33374621692001816,-0.10382716196030378,-0.03980371219795197
1773522020379780900,0.92178076171875,0.759760383170843,-0.19212416183352468,-0.08911048994688317
1773522020389819000,0.93181884765625,0.847339297902584,-0.40067046615779395,0.1779683933721855
1773522020399857000,0.94185693359375,0.47956864630579943,-0.5456552756756544,0.4324296227836981
1773522020409896000,0.95189599609375,0.025585692155361175,-0.46426177158057685,0.6011666984846815
1773522020419933700,0.96193359375,-0.37240707922577854,-0.34707974574565886,0.8178199195601046
1773522020429972000,0.971971923828125,-0.6312585064202547,-0.2569011699095368,1.0043331096440553
1773522020440009700,0.982009765625,-0.7062450660824775,-0.2289645307138562,1.0106044449985028
1773522020450049000,0.992049072265625,-0.5826882445186377,-0.26369536009430883,0.7074446511305869
1773522020460086800,1.002086669921875,-0.46897594062089915,-0.2728700156748295,0.20279428013619033
1773522020470125000,1.012125,-0.25369360603988167,-0.24799217952787875,-0.12303634135369211
1773522020480163800,1.022163818359375,0.08662497500777244,-0.22585867365300655,-0.27782365602683273
1773522020490201900,1.032201904296875,0.2286000813156366,-0.3118710697203874,-0.3583966009866446
1773522020500240000,1.042239990234375,0.20269757829606533,-0.4432619459107518,-0.43127756667174394
1773522020510279000,1.05227880859375,0.18587328474521636,-0.514551404620707,-0.4393780171494931
1773522020520317000,1.06231689453125,0.048669630622863766,-0.47732875842452044,-0.31268202077709134
1773522020530355000,1.07235498046875,-0.2436328152745962,-0.3475847726583481,-0.03479008528701961
1773522020540393700,1.082393798828125,-0.4865151044428348,-0.3465893318802118,0.2548920951094478
1773522020550432000,1.092431884765625,-0.4604173711121082,-0.49525370669364926,0.41262160071432585
1773522020560469800,1.1024697265625,-0.3292155877530575,-0.49645665274262424,0.417067474207282
1773522020570509000,1.112509033203125,-0.20647943492233753,-0.26502105574011803,0.2830507064927369
1773522020580546800,1.122546875,0.04019523226618767,0.024704233145713805,0.15836553848609328
1773522020590584800,1.132584716796875,0.2679015796124935,0.15582038404792548,0.07758980096317827
1773522020600623900,1.142623779296875,0.33073592918813227,0.10527180781066417,0.0763558752540499
1773522020610662000,1.152661865234375,0.3778080614864826,-0.0195782684341073,0.16698022209629415
1773522020620700000,1.162699951171875,0.36089024443328377,-0.06910130101591348,0.2138885421350598
1773522020630737700,1.172737548828125,0.3073503774255514,-0.05580576611310243,0.20432868662923573
1773522020640777000,1.18277685546875,0.33362638993263244,-0.09199088595509529,0.2055794904079288
1773522020650814700,1.192814697265625,0.32594401873648166,-0.11421440820097922,0.14574987560622393
1773522020660853000,1.20285302734375,0.31122751111984254,-0.053013797307014464,0.015445917869731783
1773522020670891800,1.212891845703125,0.3284516176432371,0.026247370934486387,0.014705036374554037
1773522020680929800,1.2229296875,0.2816220619291067,0.16028613128513097,0.11394874300211667
1773522020690967800,1.2329677734375,0.14916647911667824,0.29023469971269367,0.19390658827088772
1773522020701006800,1.2430068359375,0.0705184743374586,0.34102672931700945,0.27980186076462266
1773522020711044900,1.253044921875,-0.06932254255115985,0.38198096325695513,0.278036896918714
1773522020721083000,1.263082763671875,-0.20463936001360417,0.35979046649783847,0.1791005026746541
1773522020731121700,1.27312158203125,-0.12635901950299738,0.34905484521090985,0.09443133790977298
1773522020741160000,1.283159912109375,-0.029569208833575247,0.43427842898815866,-0.02295497832559049
1773522020751197700,1.29319775390625,-0.05524608640372753,0.4703741169810295,-0.06893047449365258
1773522020761237000,1.303237060546875,0.06507014580368996,0.46169630500674247,-0.02477393738105893
1773522020771274800,1.313274658203125,0.1985334443539381,0.5075356806397437,0.029303470569476485
1773522020781313000,1.32331298828125,0.08035890035033226,0.5462339523464441,-0.0196943690944463
1773522020791351800,1.333351806640625,0.08020049491822719,0.5260594715848564,-0.05476539021469652
1773522020801389800,1.343389892578125,0.1207464403182268,0.4499360168471932,-0.054365796437859534
1773522020811427800,1.353427734375,0.07189911504089831,0.3438829955309629,-0.06893390855975448
1773522020821467000,1.363466796875,0.06094517482817172,0.3021969401851296,-0.015005480625852942
1773522020831505000,1.3735048828125,0.07265899349749087,0.3539458321228623,0.0700532679785043
1773522020841543000,1.38354296875,0.07358838330209255,0.40705315293222666,0.09357698610275983
1773522020851581700,1.393581787109375,0.10674012679755687,0.3317988822445273,0.17798267762586473
1773522020861620000,1.403619873046875,0.2738496743619442,0.21015344725996254,0.22421375599019228
1773522020871657700,1.41365771484375,0.2679091783970594,0.14217121340185404,0.21615582947991788
1773522020881697000,1.423697021484375,0.2774731255561113,0.12643792995810507,0.1529845030348748
1773522020891734800,1.43373486328125,0.5164870488584041,0.11980068390071391,0.11744338018484413
1773522020901773000,1.44377294921875,0.5790349827080965,0.07330079853236675,0.19568338868506252
1773522020911811800,1.453811767578125,0.4857014499723911,0.004870820906758308,0.29222411996424197
1773522020921849900,1.463849853515625,0.4856190323859453,-0.010246376465260982,0.2656988088712096
1773522020931887900,1.473887939453125,0.5054173733115196,-0.06962240228056907,0.17923033959940074
1773522020941926000,1.48392578125,0.4838566988885402,-0.19287351889610288,0.21503500875644385
1773522020951965000,1.49396484375,0.401267263007164,-0.30348610321283337,0.32296025368534026
1773522020962002700,1.504002685546875,0.2969803745806217,-0.34574089835733174,0.4227278380565345
1773522020972041000,1.514041015625,0.2387006195694208,-0.35603549787849187,0.45145241275951264
1773522020982080000,1.524080078125,0.22327450237870214,-0.3465513379573822,0.3865112270977348
1773522020992117800,1.53411767578125,0.2582464470386505,-0.3726660224229097,0.2713032047495246
1773522021002155800,1.54415576171875,0.345050285744667,-0.4402306153908372,0.17948270692527293
1773522021012194800,1.55419482421875,0.276074949195981,-0.46935880245864386,0.23438984369821844
1773522021022232800,1.56423291015625,0.011268412989377976,-0.49317690041959283,0.3933952144578099
1773522021032270800,1.574270751953125,-0.0879471635222435,-0.44022915408611296,0.4805993045277893
1773522021042310000,1.584309814453125,-0.12835925340950488,-0.32011896584481,0.4590693175040185
1773522021052348000,1.594347900390625,-0.2095785699814558,-0.20650164675414562,0.4240968613874167
1773522021062386000,1.604385986328125,-0.28836919810175893,-0.1055468253597617,0.2805024833146483
1773522021072425000,1.614425048828125,-0.3799532568216324,-0.061489364707469935,0.015969612950272858
1773522021082462700,1.624462646484375,-0.38090719654560085,-0.07192220365554094,-0.18220325446296481
1773522021092501000,1.6345009765625,-0.383875983223319,-0.08592588682770728,-0.2517262514896691
1773522021102539800,1.644539794921875,-0.335971491754055,-0.016693945169448852,-0.2997616393296048
1773522021112577800,1.654577880859375,-0.22490999462604522,0.014643734641373156,-0.21547877046857028
1773522021122615800,1.66461572265625,-0.19990005653202533,-0.033948154570162294,-0.017845526357367632
1773522021132654800,1.67465478515625,-0.15627134268581866,-0.021984452793002127,0.07068864327259361
1773522021142692900,1.68469287109375,-0.07261164722442627,0.022751930034160612,-0.02049921920392662
1773522021152731000,1.69473095703125,0.15697510704100132,0.10005378090143204,-0.2185956603800878
1773522021162770000,1.70477001953125,0.36947920908033843,0.17430267393887042,-0.2961886031484231
1773522021172807700,1.7148076171875,0.3989274218827486,0.37875264886021615,-0.45102026841994375
1773522021182846000,1.724845947265625,0.4389823688954115,0.5910363861471414,-0.675932710731402
1773522021192884700,1.734884765625,0.43140521163940426,0.7702440755233169,-0.8199114119466394
1773522021202922800,1.7449228515625,0.2837713489174843,0.9781929984763265,-1.0371982912831008
1773522021212960800,1.754960693359375,0.14379706103801726,0.8765776673465967,-0.8985761486649513
1773522021222999800,1.764999755859375,0.10709025540947914,0.6050029521793127,-0.30731106832847
1773522021233037800,1.775037841796875,0.023756723162531853,0.481305845361948,0.23133513230271635
1773522021243075800,1.785075927734375,0.14505144501328468,0.9430632329061627,0.1954720109567046
1773522021253114600,1.795114501953125,0.39406303071677684,2.372133328472078,-0.3589353840384632
1773522021263153000,1.80515283203125,1.1669739873617886,2.4377277904108166,-0.4337291245423257
1773522021273190700,1.815190673828125,2.5149405016899107,0.31351211492568254,0.25295140937045213
1773522021283230000,1.82522998046875,2.1816332607090474,-1.6843284667044878,0.043726621262729165
1773522021293267700,1.835267822265625,1.7134171985447406,-2.663823487690091,0.7586872009813785
1773522021303306000,1.845305908203125,1.863968994539976,-1.806044774968177,0.5763607950627804
1773522021313344800,1.8553447265625,1.7624398803889751,-0.09482216385826468,-1.285529931898415
1773522021323382800,1.8653828125,-1.0228051704019308,1.6328553229682146,-3.5739565108969806
1773522021333420800,1.8754208984375,-3.1792262484431264,3.286142316329479,-4.593952176836133
1773522021343459800,1.8854599609375,-0.2036006646156311,2.7780256209313867,-3.1390257554799317
1773522021353497900,1.895497802734375,-0.3740297119915485,-0.1097322943508625,-1.3734253652334212
1773522021363536000,1.905535888671875,-0.9805395616024732,-1.0879494043551385,-1.1961878068864344
1773522021373574700,1.91557470703125,0.31123803251385684,0.2635863467618823,-2.335560086095333
1773522021383613000,1.925613037109375,0.1035322706669569,1.949145524305105,-3.5347038201779126
1773522021393650700,1.935650634765625,0.28602058914899825,2.48789876550734,-3.6673838593959807
1773522021403690000,1.94568994140625,0.6511398494541645,1.8055008773498236,-2.2151398089915513
1773522021413727700,1.955727783203125,0.5605284351587295,0.7980090844791382,-0.8775479736834764
1773522021423766000,1.96576611328125,0.053280339288711544,0.9750538236677646,-1.1037544378608464
1773522021433804800,1.9758046875,-0.1743652177810669,1.4620911984190343,-1.6437971343517304
1773522021443842800,1.9858427734375,-0.9405307918190956,1.8954796928301452,-2.6414947515040637
1773522021453880800,1.995880859375,-0.9046826488465071,2.3561535229213533,-2.6997534637272356
1773522021463919900,2.005919921875,0.603732201591134,1.3979554108560084,-2.636722714796662
1773522021473958000,2.0159580078125,1.4419915364593268,0.06347418184913695,-3.0640088006794453
1773522021483995600,2.02599560546875,-0.21214637464284897,1.4185761740803717,-2.9037457580089567
1773522021494034700,2.03603466796875,-1.0429875422090291,1.8620757281392812,-3.2339509413212535
1773522021504073000,2.046072998046875,-1.2185083597660065,1.0887719727843999,-3.137203216227889
1773522021514110700,2.05611083984375,-1.7796826916128397,0.6128284216405824,-3.4207553694367405
1773522021524150000,2.06614990234375,-2.1356144368559122,0.7915269559182226,-4.383865072810649
1773522021534187800,2.076187744140625,-3.182804691451788,1.1741374492503702,-4.826227147272229
1773522021544225800,2.086225830078125,-3.985996804592013,1.3616113010600208,-4.993332603183388
1773522021554264800,2.096264892578125,-3.7450972136735916,1.139468067733571,-4.920066875964403
1773522021564302600,2.106302490234375,-3.035404637485742,1.2068472941972315,-5.031995803576708
1773522021574340900,2.1163408203125,-2.211231111115217,2.097569660621881,-5.174564199602604
1773522021584379600,2.126379638671875,-1.553820510828495,2.519628659506142,-5.326753241410851
1773522021594418000,2.13641796875,-0.8659557355672121,2.7391145832568404,-5.214155620756745
1773522021604455700,2.14645556640625,0.13809446548223495,3.2610157661184664,-4.738454171273112
1773522021614494700,2.15649462890625,1.1341086595922707,3.5853707620978352,-4.819401100644469
1773522021624532700,2.16653271484375,1.9734090279459953,3.8612031347095965,-4.749864623081684
1773522021634570800,2.17657080078125,2.553276954346895,4.268172408750653,-4.343790252053737
1773522021644609800,2.18660986328125,2.9689620342850684,4.789863455992937,-4.182139554417133
1773522021654647800,2.196647705078125,3.2889053513020277,6.069678809636831,-2.726723888239264
1773522021664685800,2.206685791015625,3.6586078477442263,7.269861823639273,-0.8887713784873486
1773522021674724900,2.216724853515625,4.48427599658668,7.688502830773592,0.16342179896235465
1773522021684762600,2.2267626953125,5.392476298165321,7.14929483154118,1.3390022866278886
1773522021694801000,2.23680078125,5.770764252123237,5.8703083299368615,2.3195196363985535
1773522021704839700,2.246839599609375,5.439612727871537,5.913456566789746,3.3922102429538965
1773522021714878000,2.2568779296875,5.241080452561378,6.255545664641261,3.9183448256015776
1773522021724915700,2.266915771484375,4.121312453010678,7.1824518357336515,5.415377865803241
1773522021734954800,2.276954833984375,3.5123464424192905,6.847717776820063,6.7722764591276645
1773522021744992800,2.28699267578125,3.3256466437220573,5.87881663056314,7.682088872078061
1773522021755030800,2.29703076171875,2.7116426389634607,5.810347489970922,8.164448610407113
1773522021765069800,2.30706982421875,2.241170322304964,5.445092036065459,7.7702458789587014
1773522021775107800,2.31710791015625,0.857208950009942,6.611379794728755,8.142135071790218
1773522021785145900,2.327145751953125,-0.3587549859702587,6.923781610324978,9.063733199602366
1773522021795185000,2.337184814453125,-0.06621697775125503,4.777798339667916,9.559809913116693
1773522021805222700,2.34722265625,0.3429980293899774,3.671479019755125,10.710651680845022
1773522021815261000,2.357260986328125,0.7411918763011693,2.9694249756217,11.444953797632456
1773522021825299700,2.3672998046875,0.36843349941968917,2.9703070191532372,11.884073529171943
1773522021835338000,2.377337890625,-0.8410118484467267,2.6757033105760812,11.715795522350072
1773522021845375700,2.387375732421875,-2.7430586447075007,1.86317813642323,10.633336970496178
1773522021855414800,2.397414794921875,-4.556590414430201,0.9159364487886428,9.872050985193251
1773522021865452800,2.407452880859375,-6.276774915152788,-0.25266017133891583,9.282011208868026
1773522021875490800,2.41749072265625,-7.595342901039123,-1.0060708932220934,8.305223693275451
1773522021885529900,2.42752978515625,-8.251464046037196,-1.2396388260781763,7.792804916769265
1773522021895568000,2.43756787109375,-7.853444386649131,-1.6175784049898385,7.826722968462109
1773522021905606000,2.44760595703125,-7.210192660096287,-1.496754807782173,7.546556950560212
1773522021915645000,2.45764501953125,-6.7476943910568945,-1.0082347932577134,6.361762644347548
1773522021925682700,2.4676826171875,-6.30573505217731,-0.49618777267336844,4.939548406025767
1773522021935720700,2.477720703125,-5.943572888112068,-0.09472411031126976,3.7440281231373547
1773522021945759700,2.487759765625,-5.752385714867711,-0.06693477063179015,2.7306010219335555
1773522021955797800,2.4977978515625,-6.896056568053364,-0.5022866740703582,1.4905641364485025
1773522021965835800,2.507835693359375,-8.138816741022467,-1.3018062361776828,-0.46471945222020145
1773522021975874800,2.517874755859375,-8.888510488209128,-1.5222639275699854,-3.8994998398780822
1773522021985912800,2.527912841796875,-11.99146773596406,-1.6579951710522174,-5.592800717589259
1773522021995950600,2.53795068359375,-10.208347471117973,-2.3759090476185083,-4.759045123881101
1773522022005990000,2.547989990234375,-7.189476619803905,-0.6355185019522905,-3.188697841143608
1773522022016027600,2.558027587890625,-3.781286717429757,0.6966402023911475,-1.8185387842297553
1773522022026066000,2.56806591796875,-1.5272154124975204,1.2441823147267101,0.4852396776795387
1773522022036104700,2.578104736328125,0.36863647464588284,0.8730009779036044,2.816242831122875
1773522022046142700,2.588142822265625,1.276319474352151,1.4066703399702907,4.390111858245731
1773522022056180700,2.5981806640625,1.3061879583932459,1.3926196027860045,4.337875475051999
1773522022066219800,2.6082197265625,1.2126305537737905,0.8178229883000254,4.177394990238547
1773522022076257800,2.6182578125,1.5027660308957098,0.07079086153805256,4.047354651874303
1773522022086295800,2.6282958984375,1.5466267999321222,-0.39600101304203267,3.565221708038449
1773522022096334600,2.63833447265625,1.4473513099268078,-0.8921724191024899,2.644395149120688
1773522022106372900,2.648372802734375,1.953282185718417,-0.9357102397948502,1.4663736980438231
1773522022116410600,2.65841064453125,2.3802219423815605,-0.6564259731635451,1.2666314624220132
1773522022126450000,2.668449951171875,2.336628884370625,-0.7003326271682977,1.3669886101841926
1773522022136487700,2.67848779296875,1.3903773768171668,-1.6081971209213137,1.5501292550951242
1773522022146526000,2.68852587890625,-0.16816753218472003,-3.0835259865760802,1.2699497931897639
1773522022156564700,2.698564697265625,-0.7366764447033405,-3.760342129078507,0.09526303949356078
1773522022166606000,2.708606201171875,-1.2574079992637037,-4.17885366461426,-0.9099877695173024
1773522022176644400,2.718644287109375,-0.775835027398169,-4.546170434963703,-1.5409750577807426
1773522022186683100,2.72868310546875,0.5158788538321852,-4.01317531889677,-2.0746277609735726
1773522022196721400,2.738721435546875,0.6895400149971246,-3.6560388740390537,-2.0965636984497307
1773522022206759200,2.74875927734375,1.325209908118844,-3.5317426322847605,-2.4085808986425397
1773522022216798200,2.758798095703125,1.730682806122303,-3.0358062040239573,-3.789112296488881
1773522022226836200,2.768836181640625,2.317085687249899,-2.7564199383229018,-4.1880449790686365
1773522022236874200,2.778874267578125,2.6132956619799135,-1.9412186768285928,-4.3385815774947405
1773522022246913300,2.788913330078125,1.3030009989202023,-1.1693978535078464,-4.189402823418378
1773522022256951300,2.798951416015625,0.7624158661156892,0.08076521612890064,-3.84472896977067
1773522022266989300,2.8089892578125,-0.12907412368059157,-1.1491362789846955,-3.3610049573510885
1773522022277028400,2.8190283203125,-1.711003123140335,-1.7906315172590315,-2.498143680667877
1773522022287066000,2.829066162109375,-0.46823856625705956,-0.09590911884475499,-1.6134961041122673
1773522022297104400,2.8391044921875,0.13905366590321064,0.5777507881164551,-1.0191337884128093
1773522022307143200,2.84914306640625,0.9768091429024934,1.4519870069034397,-0.705544808858633
1773522022317181400,2.859181396484375,2.3200135573953387,3.0645743256077167,-1.1684183409512043
1773522022327220200,2.86922021484375,2.4354928709656,4.3885918090716,-1.9212328505069016
1773522022337258200,2.87925830078125,1.349514912813902,5.002601366788149,-2.357081597551703
1773522022347296300,2.889296142578125,0.854293939346075,4.8114533565104,-2.8634897354662416
1773522022357335300,2.899335205078125,0.6785773069560528,4.763854569989443,-2.1936679818958043
1773522022367373300,2.909373291015625,1.3476876973867415,5.173437241399288,0.015639467680454253
1773522022377411300,2.919411376953125,1.5226117180943488,4.733241697321832,2.5217805768430233
1773522022387450000,2.9294501953125,1.1734171721518039,4.781522913148999,3.653209203571081
1773522022397488400,2.93948828125,0.3546633327424526,5.0499423791557545,2.2374206143826245
1773522022407526100,2.949526123046875,1.269578621789813,4.266253715647757,0.395066070279479
1773522022417565400,2.9595654296875,1.4367548048496246,4.161736817857623,-0.8098211758911609
1773522022427603200,2.969603271484375,0.33503684125244615,3.146723616506159,0.1544873818784952
1773522022437641200,2.97964111328125,-0.7961269970595836,2.0027295227155086,1.850662353721261
1773522022447680300,2.98968017578125,-3.1914778272509574,0.7012337407264858,3.8636733242154118
1773522022457718000,2.999718017578125,-4.387766756424307,1.511959245046228,6.2782397270083425
1773522022467756300,3.00975634765625,-3.4707401743113993,1.5569194997571407,7.351231362336874
1773522022477795300,3.01979541015625,-2.313845097893476,1.3178303192615508,6.786905288460851
1773522022487833300,3.029833251953125,-1.4953572159439323,1.4797705013640223,5.051452783718705
1773522022497871000,3.03987109375,-1.8492904808461665,0.30020971189066764,4.113031531399488
1773522022507910100,3.04991015625,-1.1354290945410728,0.7875921737525612,1.9470003289699553
1773522022517948200,3.0599482421875,0.42801089302599427,-0.39392274546325207,-1.4517892923742532
1773522022527986200,3.069986083984375,1.0595236664682626,-0.4733922957584262,-4.324290601813793
1773522022538025200,3.080025146484375,1.556293622943759,-0.11901391743719578,-6.079217622354626
1773522022548063200,3.090063232421875,1.97875272706151,-0.31655177488252517,-5.835414711210131
1773522022558101200,3.100101318359375,1.7528747641861437,-0.38366555534303187,-5.253126864185929
1773522022568140300,3.110140380859375,2.2965508487433195,-0.030375264519453046,-4.478313873311877
1773522022578178000,3.120177978515625,2.6731530415713785,0.0041822541207075115,-3.4521102926433085
1773522022588216300,3.13021630859375,2.9998329733669755,0.003912935660034418,-3.0008757604181766
1773522022598255000,3.140255126953125,2.8263234956324097,-0.09066621322259306,-2.5931015997350215
1773522022608293400,3.15029345703125,1.742491901859641,-0.6188996678456664,-2.1155384480327366
1773522022618332200,3.160332275390625,0.1390297005057335,-1.3229675360195339,-2.2483143488407134
1773522022628370200,3.1703701171875,-1.5693717157036065,-2.90457870170176,-2.2304887692928315
1773522022638408200,3.180408203125,-0.9414221877008676,-3.8053269337087867,-2.171478946441412
1773522022648447200,3.190447265625,0.2845440868556499,-3.8679637148857116,-1.8325953666329382
1773522022658485200,3.2004853515625,1.1431605655759571,-3.8548353532433506,-0.06792962688803672
1773522022668523300,3.210523193359375,1.1797662489175795,-3.598004618221521,1.293713530614972
1773522022678562000,3.22056201171875,0.47065702557563777,-3.159969174787402,1.441101309621334
1773522022688600300,3.230600341796875,0.08906009320020675,-2.333813388558477,0.669623016127944
1773522022698638000,3.24063818359375,1.0225947425216435,-0.18721636991724372,-1.0857587624430656
1773522022708677400,3.250677490234375,1.3900935914397239,0.003465338023006916,-1.9771511370837687
1773522022718715100,3.260715087890625,0.6682078886330127,-1.5338368764638899,-2.4072557875186202
1773522022728753400,3.27075341796875,-0.05067512522637844,-0.46592181374728675,-2.7093974903851747
1773522022738792200,3.280792236328125,-0.021690438282489774,1.9328677587211132,-3.516642093786597
1773522022748830200,3.290830322265625,0.31057226208150385,2.4009229312352836,-2.8599796815186735
1773522022758868200,3.3008681640625,0.295092368876934,2.181936773700267,-0.8324205457121133
1773522022768907300,3.3109072265625,0.4208294570893049,2.154096726746857,-0.15022446373701095
1773522022778945300,3.3209453125,0.24010639471411704,2.218245227660984,-0.36367958289086816
1773522022788983300,3.3309833984375,1.4921534514665602,2.797982659550011,-0.6713041010826826
1773522022799022000,3.34102197265625,4.142535858303308,3.328964682228863,-3.472766711702943
1773522022809060400,3.351060302734375,4.253679188495874,2.586626850762963,-3.1471482716590162
1773522022819098000,3.36109814453125,1.637432275494933,3.3473619241848587,-0.4365840755820274
1773522022829137400,3.371137451171875,-0.4385924927949905,5.619829009768367,0.6271510711014271
1773522022839175200,3.381175048828125,-1.1229004523575306,5.248801986724138,0.7093085453063249
1773522022849214200,3.391214111328125,-2.9757787285625934,3.4545033252596853,1.0845482176095247
1773522022859252200,3.401252197265625,-3.139057319661975,1.703999235727638,1.6766168694138526
1773522022869290200,3.411290283203125,-3.269043882012367,0.864599937044084,1.8629139325290918
1773522022879329300,3.421329345703125,-2.3182634988576174,1.1704672363050281,1.6747013911813498
1773522022889367300,3.4313671875,-1.2590958062201738,1.308158235552907,0.5822627125829458
1773522022899405300,3.4414052734375,-0.11218319463431835,0.8744142057023941,-0.8880115000307559
1773522022909444400,3.4514443359375,0.8443699267029762,0.7015219830833375,-2.1751871533095835
1773522022919482000,3.461482177734375,0.5236188004344702,0.9897421281032264,-2.3702087901502846
1773522022929520000,3.47152001953125,-0.8873124118506908,0.6918164354965091,-2.4633231271773575
1773522022939559200,3.48155908203125,-2.3292373128145933,0.572228517563641,-2.6497195590138434
1773522022949597400,3.491597412109375,-1.3672013761520385,0.6017480420365929,-2.7844769890278576
1773522022959635200,3.50163525390625,-0.2617360427200794,1.1851625550031661,-2.6846979334145784
1773522022969674200,3.51167431640625,-0.02037526403069496,2.173902666456997,-2.908444729480147
1773522022979712300,3.521712158203125,-0.4070645511090755,2.3685791431218384,-2.818475704741478
1773522022989750300,3.531750244140625,0.6009639059215783,1.0360773244291543,-1.9403420401245355
1773522022999789300,3.541789306640625,2.907505402803421,-3.748693776860833,5.296314848527312
1773522023009827000,3.5518271484375,-1.0471376476258039,-2.044566969230771,6.865241158550977
1773522023019865300,3.561865234375,-4.553397463607788,1.0818538639590143,5.093038593560457
1773522023029904400,3.571904296875,-4.373595607730746,2.801945133440196,4.39455071747601
1773522023039942100,3.581942138671875,-1.8932500340819358,3.39954219327718,4.101667841342091
1773522023049981400,3.5919814453125,0.1416904441475868,2.836444784413278,3.65287544157207
1773522023060019200,3.602019287109375,1.0701748243421316,2.2500164765834807,2.7867057709932324
1773522023070057200,3.61205712890625,1.3781985709846019,1.6484008287549017,2.4475170707583427
1773522023080096300,3.62209619140625,1.367284378260374,1.1730147288307546,2.523468676060438
1773522023090134000,3.632134033203125,0.42480829759240146,0.9813330500677228,1.9729846650540828
1773522023100172300,3.64217236328125,-0.6946651029258966,0.785585144779086,1.3780243834614754
1773522023110211000,3.652211181640625,-1.167784719222784,-0.06485971792340278,0.7403074946820736
1773522023120249300,3.662249267578125,-0.44603637906014915,-1.2435101145535707,1.3786182577013968
1773522023130287000,3.672287109375,0.8261205687850713,-1.1686588717088102,2.2945646433621643
1773522023140326100,3.682326171875,1.133033723837137,-0.8243912607744336,1.9400562089204787
1773522023150364200,3.6923642578125,0.870963334596157,-1.7243246692672372,1.093784832510352
1773522023160402200,3.702402099609375,0.33599954880475996,-2.9162752769753335,1.349824124893546
1773522023170438000,3.71243798828125,-0.013091536763310431,-3.1191046649575234,1.5260212342768906
1773522023180475600,3.7224755859375,0.2526063953250646,-2.427961306416988,1.3613883059591054
1773522023190514000,3.732513916015625,0.37720015872120854,-1.5753963828206061,0.7741931054100394
1773522023200552700,3.742552734375,0.2093681421011686,-0.8945546380639076,-0.18006138359606266
1773522023210590700,3.7525908203125,0.3773492118030786,-0.7145107901245356,-0.3630351475074887
1773522023220629800,3.762629638671875,0.8076280497610568,-1.3147066342830658,0.17404840691685675
1773522023230667800,3.772667724609375,0.27386779454052446,-2.2459002734363076,0.483105588260293
1773522023240705800,3.782705810546875,-1.6543565222889185,-2.4709487997502086,0.7345876557305455
1773522023250744800,3.792744873046875,-3.1624516392529007,-2.6160622040838,-0.46385435982346535
1773522023260782600,3.802782470703125,-1.7016215468108653,-2.266566044846177,-1.862739745005965
1773522023270820900,3.81282080078125,-0.15294599765539169,-0.9613672436207532,-1.8567519027680157
1773522023280859600,3.822859619140625,-0.10811901393532752,0.2704021642565727,-1.6903414433836936
1773522023290898000,3.83289794921875,0.7435399007320403,0.8045651550590992,-0.7969868287593126
1773522023300935700,3.842935791015625,0.6063111121684313,1.254583881753683,-0.34345629455149174
1773522023310974700,3.852974609375,0.10130699583292006,1.5019588061660527,-0.27972762648463245
1773522023321012700,3.8630126953125,-0.49837388454079623,1.5151315914720296,0.05071428819298744
1773522023331050800,3.87305078125,-0.7744564325213432,0.981112393054366,0.43152270053923125
1773522023341089800,3.88308984375,-0.6503671115159988,0.260384628111124,1.143610647431016
1773522023351127800,3.8931279296875,-1.1125368792533874,0.31925884188413617,1.762438126823306
1773522023361166600,3.90316650390625,-0.2650426830500364,-0.3877542859613895,1.2548141833782196
1773522023371204900,3.913204833984375,0.2352022560596466,-0.5270967056781053,0.6363479385137557
1773522023381243000,3.923242919921875,-0.3206652015507221,-0.6335884106725453,0.9073954149365424
1773522023391282000,3.933281982421875,-1.2624410249948501,-0.8171586791723966,1.3737585427105425
1773522023401319700,3.943319580078125,-1.8192846341609954,-0.8629694132328033,1.4009218594461679
1773522023411357700,3.953357666015625,-2.5404911225318907,-1.6565864732980726,1.8469833729475735
1773522023421396700,3.963396728515625,-3.983860377085209,-2.8663118071496485,1.552483124744892
1773522023431434800,3.973434814453125,-4.738765136918425,-4.065983949020505,1.4577484930396079
1773522023441472800,3.98347265625,-4.979512167623639,-4.987700734776258,1.3116396479278802
1773522023451511800,3.99351171875,-2.059688550516963,-5.009866973876953,1.3200629006192088
1773522023461549800,4.0035498046875,1.4891700517416,-4.559092460379004,1.8437743477731943
1773522023471587600,4.013587646484375,-2.276618652305007,-3.6898382677882906,1.6354501617670059
1773522023481626600,4.023626708984375,-2.0443682317882774,-2.316678860014677,1.1592898625999688
1773522023491664600,4.03366455078125,-0.3099830640166998,-1.054196333965659,1.2362205420672894
1773522023501703000,4.043702880859375,-0.10750292786359786,-1.145214575496316,0.9369950189083814
1773522023511741700,4.05374169921875,-0.5416577304720879,-1.3955518568456171,1.1001213420554994
1773522023521779700,4.06377978515625,-0.26250059735178943,-0.6229565420210361,1.5738707806885242
1773522023531818800,4.07381884765625,-0.10598784712553024,0.9431804295450449,1.552716641239822
1773522023541856800,4.083856689453125,-1.089383382681012,2.4585481678605077,1.1865740292362867
1773522023551894800,4.093894775390625,-0.5386345832586288,2.876445078629255,0.6095015787728131
1773522023561933800,4.103933837890625,1.3710750027149914,2.5302491299808025,0.1375501294724643
1773522023571971600,4.1139716796875,2.147254605767131,3.0077777948915956,-0.3815649298019707
1773522023582009900,4.124009765625,3.096512893921137,4.311022539439797,-0.8835457527935504
1773522023592048600,4.134048583984375,3.658907122951746,4.35997274056971,-2.0279143789850176
1773522023602086700,4.144086669921875,5.102537074267864,2.047071645528078,-2.8666096210524437
1773522023612124700,4.154124755859375,8.214616955155133,-0.9620593175381421,-1.3526381594009698
1773522023622163700,4.164163818359375,10.167491729116438,-1.8347662809312342,0.8722966290265322
1773522023632201700,4.17420166015625,9.44974268772304,-3.2261604335755107,5.533149089702963
1773522023642239700,4.18423974609375,4.063911234399676,-1.7348814268559216,3.3555805942147967
1773522023652278800,4.19427880859375,3.1206022100389004,2.1577812604784965,-1.249399464853108
1773522023662316800,4.20431689453125,3.1624972319602964,4.282951460209489,0.337062501861155
1773522023672355600,4.21435546875,2.1755191617429257,6.059969316527247,-0.5490339583285152
1773522023682393900,4.224393798828125,3.0317274102777243,6.033248482862114,-2.109535992747545
1773522023692431600,4.234431640625,3.3047587539941072,3.696993984761834,-0.7597307186849415
1773522023702470700,4.244470703125,3.1071488542258736,2.759676894292235,0.8075070537298917
1773522023712508700,4.2545087890625,4.453519039273262,0.5741320130974054,0.9665855627909302
1773522023722546700,4.264546630859375,4.634843574672937,-2.00732415702939,1.261790159870684
1773522023732585700,4.274585693359375,2.691505859863758,-4.572854443749785,0.7924328187167644
1773522023742623700,4.284623779296875,-0.22848376145958899,-4.113184676134586,1.432037420938909
1773522023752661800,4.294661865234375,-1.748998799535632,-0.8242822474420071,1.3243749185994267
1773522023762700800,4.30470068359375,-3.0702725372493265,0.3214554751455784,1.0211574031949042
1773522023772738800,4.31473876953125,-2.974550648072362,0.07477437821626663,0.40630116552114487
1773522023782776800,4.32477685546875,-2.315026416632533,-0.1571492945641279,0.10226678077578544
1773522023792815600,4.334815673828125,-2.1889713485121725,-0.7837661126583814,0.10194354017078876
1773522023802854000,4.34485400390625,-3.0338977400541305,-0.0018085107266902923,0.6747334910094738
1773522023812892700,4.354892578125,-4.251002662762999,0.10438684166967868,1.20449561650455
1773522023822930700,4.3649306640625,-5.5540837411820885,-0.7004699898123741,1.836428661185503
1773522023832968700,4.37496875,-6.066150050988793,-0.7910504244476556,2.6007208425670862
1773522023843007700,4.3850078125,-5.29478807735145,-0.408565018799901,2.1106839937388897
1773522023853045800,4.395045654296875,-4.34100734333694,-0.12648819884061813,0.6048071373462677
1773522023863083800,4.405083740234375,-3.8992309598088264,-0.27768179987072944,0.5221113184809685
1773522023873122800,4.415122802734375,-3.8685894455686207,-0.19919629217684268,1.2110831782013176
1773522023883160800,4.425160888671875,-2.9493104083538055,-0.7005453931361436,2.149520797133446
1773522023893198800,4.43519873046875,-1.4991557314440607,-0.8533546126693486,2.498106855788827
1773522023903238000,4.44523779296875,1.0152128155767917,-0.7183230418890714,2.326078556522727
1773522023913275600,4.455275634765625,2.5956340408220884,-0.9085989455074072,2.0063298852950333
1773522023923314000,4.46531396484375,2.1282614437446,-1.2305705534815787,1.6259715548038483
1773522023933352700,4.475352783203125,2.184136767962575,-0.8930237752348184,0.7951444157630204
1773522023943390700,4.485390625,2.42802297347635,-0.0681488225966692,-0.3963555255681276
1773522023953429800,4.4954296875,2.2109061169445514,-0.1944376994729042,-1.2774889565229415
1773522023963467800,4.5054677734375,1.4358338906124233,-0.28026187949180603,-1.7678706732660532
1773522023973505800,4.515505859375,0.3760068572834134,0.3844657658100128,-1.2343781290709972
1773522023983544800,4.525544921875,-0.2991743774935603,0.8613608089923858,-1.0069593664944172
1773522023993582800,4.535582763671875,-0.5303142064198851,2.3073101431667804,-2.196054000249505
1773522024003620900,4.545620849609375,-1.7736702994555233,2.065952871608734,-1.334725339961052
1773522024013659600,4.55565966796875,-2.277102051907778,1.0092863481372594,-0.8165121979624033
1773522024023698000,4.565697998046875,-1.9004124730572103,1.0855196929901838,-1.3096832531630993
1773522024033735700,4.575735595703125,-0.7717436664313078,1.0536281786888837,-1.8285270942807197
1773522024043774700,4.585774658203125,-0.3758849844694137,1.247847851496935,-2.6046587665379044
1773522024053812700,4.595812744140625,-1.3183733400970696,1.248895314723253,-4.687683768978714
1773522024063850800,4.605850830078125,-0.6588286503911018,2.3111329163253305,-4.8616193631708615
1773522024073889800,4.615889892578125,-0.09768442142158747,2.3981512745648623,-4.103125638934969
1773522024083927600,4.625927490234375,0.2965256165504455,1.4213362864434718,-5.389360211971402
1773522024093966800,4.635966796875,-1.0977826699748634,-0.20933073270022867,-4.734362518045306
1773522024104004900,4.6460048828125,0.20454495972841977,-0.6594184329777956,-2.753491483655572
1773522024114043000,4.65604296875,1.728342088215053,-0.5259516272962093,-2.820666492784023
1773522024124082000,4.66608203125,1.6012705365285276,-2.6259569906324147,-3.559768703329563
1773522024134119700,4.67611962890625,1.1434995882719754,-1.4436071549624203,-3.3397797984927893
1773522024144157700,4.68615771484375,0.7632838811218738,1.125663487330079,-2.1464885898306965
1773522024154196700,4.69619677734375,0.7184615735769272,0.9357254373639822,-0.7906172937273979
1773522024164234800,4.70623486328125,-0.033467969837784765,-0.008704115459322929,0.4619511565506458
1773522024174272800,4.716272705078125,-1.9936551126390694,-0.9618050505161285,3.4461288801461456
1773522024184311800,4.726311767578125,-1.2891782252728938,-2.085685161560774,3.414661436475813
1773522024194349800,4.736349853515625,0.08683014219105244,-0.7342144385039806,5.466663231882452
1773522024204388900,4.746388916015625,1.246062721645832,1.1826771679282189,6.348040992987156
1773522024214427000,4.756427001953125,3.174122787824273,1.788635813397169,6.452961503142118
1773522024224464600,4.766464599609375,3.838994225510955,3.066487173491716,6.625573739776015
1773522024234503700,4.776503662109375,3.457299677979946,2.5842390788435936,6.466902350211143
1773522024244541700,4.786541748046875,2.5183377429127694,0.564867341145873,2.72689018471688
1773522024254579700,4.796579833984375,-0.8626023334860801,0.21030396164655685,0.1012862453058362
1773522024264618800,4.80661865234375,-3.448733509686589,0.6218406897336244,-0.15635434479415417
1773522024274656800,4.81665673828125,-3.6743510680601,0.9925333662569522,0.5727203927338123
1773522024284694800,4.82669482421875,-2.3699013316363096,1.226058629015088,1.5085004828944801
1773522024294733800,4.83673388671875,-1.9500269833147525,1.5810931331574916,2.4844845731496807
1773522024304771600,4.846771484375,-1.4945739566117524,2.3735306280493735,2.9887752805188295
1773522024314809900,4.856809814453125,-0.9717977444812654,1.5520254441052674,1.6746847323074936
1773522024324848600,4.8668486328125,-0.7865525285065174,0.7960118462473154,0.6516399079307913
1773522024334887000,4.876886962890625,-1.0547829016819597,0.09000292700827121,0.03726297820657491
1773522024344925700,4.88692578125,-2.0063427447766062,-1.0685492689669132,-0.5934668281644583
1773522024354963700,4.896963623046875,-2.9714728480622172,-1.9953443809002636,-1.365984693838656
1773522024365001700,4.907001708984375,-3.6681940067350864,-1.8197797242015599,-1.9107088261440395
1773522024375040800,4.917040771484375,-2.2684598957687614,-2.0189649104624987,-1.0639449900418518
1773522024385078800,4.927078857421875,-0.11047609845548867,-1.2339502590477467,0.31968262025415894
1773522024395116800,4.93711669921875,0.6049366089448333,-0.3136041771233082,1.0875561672538518
1773522024405155600,4.947155517578125,0.42622839352339503,-0.060581017690896986,1.1392281945630907
1773522024415193900,4.95719384765625,-0.6609554332867265,-0.393745635330677,0.3077671415328979
1773522024425231600,4.967231689453125,-0.9743582426190376,-1.124501457813382,-0.6325935544162988
1773522024435271000,4.97727099609375,-0.5766378584384918,-2.23315828076303,-1.1670268865928053
1773522024445308700,4.98730859375,-0.06611410189867019,-2.523192781728506,-0.4203124474778771
1773522024455347000,4.997346923828125,-0.020835867279767988,-2.350013558861613,2.09493317463845
1773522024465385700,5.0073857421875,-0.2233639342278242,-1.0293313573002814,3.1675325957790017
1773522024475423700,5.017423828125,1.224792262341082,0.6574293049871921,1.7971178105384111
1773522024485462800,5.027462890625,2.415729601353407,1.1948024900078773,-0.31933950590491295
1773522024495500800,5.037500732421875,2.828869088461995,1.1646008284896612,-2.347208146052062
1773522024505538800,5.047538818359375,1.963886581841111,0.8598930745273828,-4.102857927909493
1773522024515577900,5.057577880859375,1.0098363832354544,0.4132973080188036,-3.530136658392846
1773522024525615600,5.06761572265625,-0.3674766370862722,-0.7637988449066877,-1.0444558611959218
1773522024535654000,5.07765380859375,-0.6642880848407745,-1.2675263654351234,0.5694762962460518
1773522024545692700,5.087692626953125,0.7694687072366475,-0.485287608474493,0.5353372952789068
1773522024555731000,5.09773095703125,0.9980845706433057,0.6001601883232593,0.09456482809633016
1773522024565768700,5.107768798828125,0.7445058231547474,0.6984229941546917,0.12499708350002765
1773522024575807700,5.117807861328125,0.43821664521992204,0.1776408784508705,0.7119122980639339
1773522024585845800,5.127845703125,-0.5801771384805441,-0.09444704693555832,1.0715142562523483
1773522024595884800,5.137884765625,-1.0373299548387527,-0.63624681622684,1.5780416366323828
1773522024605922800,5.1479228515625,-1.0154238279789685,-0.46790568104088304,1.685428244639933
1773522024615960800,5.1579609375,-0.45424540447890754,-0.17887538868188857,1.3789213323011993
1773522024625999600,5.16799951171875,-0.9910083486467599,-0.0760386990636587,0.32606296894103287
1773522024636038000,5.178037841796875,-0.6958078432202339,-0.7604974652737378,-0.8602630768835544
1773522024646075600,5.18807568359375,-0.39763621302843094,-0.8256769166707992,-1.2905199952706694
1773522024656115000,5.198114990234375,-0.22201544222831726,-0.562696426847577,-0.8264958318382502
1773522024666152700,5.208152587890625,-1.127711067509651,-0.28723113398253913,-0.041564767053723334
1773522024676191000,5.21819091796875,0.0726449649721384,-0.7641805377006531,0.7707797898352146
1773522024686229800,5.228229736328125,0.389543799726665,0.6075327629178762,0.4025906205654144
1773522024696267800,5.238267822265625,0.3251248113080859,1.4450807346463204,-0.09369535178542136
1773522024706306800,5.248306884765625,0.41095659011155367,0.9781962133467197,0.11141513287127017
1773522024716344800,5.2583447265625,-0.5972609597504138,0.06834229934215545,0.9403028282821178
1773522024726382800,5.2683828125,-2.5994334331050513,-0.8901742310225963,1.9098621461868286
1773522024736422000,5.278421875,-4.981091545769572,-2.0646388664007187,2.8722517185926435
1773522024746459600,5.288459716796875,-4.347579999725521,-1.772123070013523,2.873388029146194
1773522024756498000,5.298497802734375,-2.4912425229772923,-0.6652274115175009,1.8355021939903498
1773522024766536700,5.30853662109375,-0.10963117206394672,0.3146528093934059,0.7314081489115953
1773522024776575000,5.318574951171875,0.41770811019837856,0.8163596377491951,0.9291764541119336
1773522024786612700,5.32861279296875,1.4740861721172929,-0.17460720984339714,1.8126041334837675
1773522024796651800,5.33865185546875,1.817405396285653,0.2313192771464586,1.277838500612974
1773522024806689800,5.348689697265625,1.9935563284397124,0.13647066367268562,1.1281003590881824
1773522024816727600,5.3587275390625,1.116476556789875,0.07086100416481494,1.2893915757626295
1773522024826766800,5.368766845703125,1.112241111177206,0.33773031812012194,0.8579390178501606
1773522024836804900,5.378804931640625,0.9859101487249136,0.7587018140286207,0.9074135351151228
1773522024846843600,5.38884375,0.15454174241423607,0.2223439435303211,0.8701923502236604
1773522024856882000,5.3988818359375,-1.517255159497261,-0.884141380599141,0.8993874650478363
1773522024866919700,5.408919677734375,-1.9417203427404164,-1.679863303989172,0.10446107594966887
1773522024876958700,5.418958740234375,-0.7395832720607519,-1.4626479555189609,-0.5843243212878704
1773522024886996700,5.428996826171875,0.4113917666584253,0.42454350917637346,-0.3458177629858255
1773522024897034800,5.43903466796875,2.1682368957802653,1.644858626103401,-0.1503185717612505
1773522024907073800,5.44907373046875,2.690306420946121,1.6577900038689375,-0.4719067333757877
1773522024917111600,5.459111572265625,1.6608312712609767,-0.3640712125569582,-0.7176900046825408
1773522024927149800,5.46914990234375,-0.7676783166885376,-3.9033541772186755,0.07811433629393577
1773522024937188900,5.47918896484375,-5.140621013468504,-6.2710641362905495,-1.6963421451032161
1773522024947227000,5.489226806640625,-1.2048688337311149,-1.2702391315251589,-0.23304420124292372
1773522024957266000,5.499265869140625,-1.3166466624349356,0.8554986389607191,-0.8943798660188913
1773522024967303700,5.5093037109375,0.5173398662954568,0.9912632001906633,-1.3385574654698371
1773522024977341700,5.519341796875,0.8701935192674398,0.7710141831129789,-2.440498131906986
1773522024987380700,5.529380615234375,0.3318772081777453,-0.03949322147667408,-3.4296254891127345
1773522024997418800,5.539418701171875,1.6506126595854758,-1.2000927053704857,-3.7288627027094363
1773522025007456800,5.549456787109375,0.4796797054648399,-2.6317314823806286,-4.483054930359125
1773522025017495600,5.55949560546875,-0.005298983190953731,-2.858861491143703,-5.319957589921355
1773522025027533800,5.569533935546875,-1.2892179727613926,-0.4668848135605454,-5.744462520653009
1773522025037571600,5.579571533203125,0.6049377779886126,-4.125296261949837,-4.085598165550827
1773522025047611000,5.58961083984375,-0.9293211232796311,-0.8080076967284083,-2.180548388081789
1773522025057648600,5.599648681640625,0.9368442122608422,3.9678868551447986,-1.196035831195116
1773522025067687000,5.60968701171875,1.8981956737905739,5.421548078870773,1.130242047291994
1773522025077725700,5.6197255859375,2.0942942922130228,5.19818180655539,3.6093116096556184
1773522025087763700,5.629763671875,1.5727572664886713,4.373045280371606,3.303768573912978
1773522025097802800,5.639802734375,0.7447533681750297,5.2234606247186655,2.1438643788069487
1773522025107840800,5.6498408203125,1.2725132139369844,3.02051715721637,1.4614976164400577
1773522025117878800,5.659878662109375,-0.14733312620967626,3.670480948628485,0.4431634539723396
1773522025127917800,5.669917724609375,-0.5146843833506107,2.2667644900277257,-0.231721428206563
1773522025137955600,5.67995556640625,-0.2078463393613696,1.1304046905077993,-0.6300450389772653
1773522025147993900,5.689993896484375,-0.3398237832680344,0.005126841494441032,-1.6200123541384934
1773522025158032600,5.70003271484375,-0.15362638113498686,-0.18294483007788656,-3.015369565194845
1773522025168071000,5.71007080078125,0.4984498723864555,1.6228952160984276,-2.091680602583289
1773522025178108700,5.720108642578125,0.8348008649773895,3.535068854098022,-0.3028466362655163
1773522025188147700,5.730147705078125,0.13823226651772855,4.181886748699844,0.8358142798036337
1773522025198185700,5.740185791015625,-0.6804119750373065,5.104833660772442,2.3722499405890702
1773522025208224800,5.750224853515625,-0.8415048926606774,6.583216361039876,4.1556273950666185
1773522025218262800,5.7602626953125,-0.9370159155659377,1.758428598921001,4.362394999280571
1773522025228300800,5.77030078125,-0.8703590850926936,-3.8619939928263425,3.270976311379671
1773522025238339800,5.78033984375,-0.2791743765160441,-4.285648736469447,1.5274293475091456
1773522025248377900,5.7903779296875,-1.504827493470162,-3.369145885969698,1.0935744046300648
1773522025258415600,5.80041552734375,-2.6475334471464156,-1.4975195085443556,1.183790097606182
1773522025268455000,5.810454833984375,-2.618679108583927,-1.246716655509919,0.8591530698150396
1773522025278492700,5.82049267578125,-1.9599847520969806,-1.2660212215691804,0.12083061147034167
1773522025288531000,5.830531005859375,-1.2986696917176246,-0.6343445628020912,-0.21679157010018824
1773522025298569700,5.84056982421875,-0.8752741835325956,-0.05943718141801655,-0.48956572418510913
1773522025308607700,5.850607666015625,-0.28692659807801246,0.3615662439987063,-0.7469044087290764
1773522025318646800,5.860646728515625,0.38497517663687464,0.7770142272453755,-0.9532014728218317
1773522025328684800,5.870684814453125,1.0012363126724957,1.1521115684684364,-0.9211907160550356
1773522025338722800,5.880722900390625,1.3677223312862217,1.201397577423975,-0.7871119159549474
1773522025348761900,5.890761962890625,1.4126745488211512,0.9315336847625673,-0.48749476312994955
1773522025358799600,5.900799560546875,1.135201131004095,0.6013934564452618,-0.23563129512667655
1773522025368838000,5.910837890625,0.7684370261013508,0.4106627217315137,0.016765256839990614
1773522025378876700,5.920876708984375,0.38246377833783624,0.5844168218769132,0.08671089972555637
1773522025388915000,5.9309150390625,0.08584200793653726,0.2929827563118189,-0.009089315384626389
1773522025398952700,5.94095263671875,0.016758827099204062,0.2935808683354407,-0.06371931571662426
1773522025408991700,5.95099169921875,-0.3854243817090988,0.6419673858307302,-0.1252338148653507
1773522025419029800,5.96102978515625,-0.7850123133271932,0.8972095364868641,-0.19510639251470566
1773522025429068800,5.97106884765625,-0.832132084159553,1.1126567793060094,-0.28613281735181806
1773522025439106800,5.98110693359375,-0.9020468935154378,1.5344193525269627,-0.1422089150637388
1773522025449144800,5.991144775390625,-1.0752607493042945,0.9811659498725086,-0.23132570688724516
1773522025459183600,6.00118359375,-0.3761117789626121,0.47308534870110447,-0.3412567386806011
1773522025469222000,6.011221923828125,-0.6380534272573888,0.1525769451472908,-0.28126375001072884
1773522025479259600,6.021259765625,-0.5346276857048273,0.47051235640794037,-0.36889001101553437
1773522025489299000,6.031298828125,-0.29950434010028837,0.5359698940940201,-0.341176659181714
1773522025499336700,6.041336669921875,-0.11424582625254988,0.42787367651239033,-0.24877602338194846
1773522025509375000,6.051375,-0.06183759362325072,0.4977227271556854,-0.2667459798365831
1773522025519413800,6.061413818359375,-0.10432605139315128,0.0047635611400008195,-0.38780046319067474
1773522025529451800,6.07145166015625,-0.17005319980084896,-0.3889430573545396,-0.042918519750237465
1773522025539490800,6.08149072265625,-0.3012052987992763,-0.397354473477602,0.16030571276843547
1773522025549528800,6.09152880859375,-0.11284487341344356,-0.45304640395268797,0.2118751564860344
1773522025559566800,6.10156689453125,-0.025696166792511937,-0.21475027353093026,0.22889409582614897
1773522025569606000,6.11160595703125,0.03506371459662914,-0.29285028903856875,0.28839550158679483
1773522025579643600,6.1216435546875,0.047181730152666565,-0.3465956154905259,0.30458617340922356
1773522025589682000,6.131681884765625,0.05573913061767816,-0.42683936502858993,0.21574235330820082
1773522025599720700,6.141720703125,0.061087505908310406,-0.5214508087456226,0.09873568404018879
1773522025609759000,6.151759033203125,0.022467414004355667,-0.5777512265078724,-0.004544657692313194
1773522025619797800,6.1617978515625,0.010577069724351167,-0.7952632198370992,-0.1551326940447092
1773522025629835800,6.171835693359375,0.025596213549375534,-0.7043067914962768,0.07172726560533046
1773522025639873800,6.181873779296875,-0.04711363335251808,-0.5066229497089981,0.15692717624604702
1773522025649912800,6.191912841796875,-0.059251230391860005,-0.47612142846137284,0.012257424026727675
1773522025659950800,6.201950927734375,-0.07163608019053935,-0.26501272630319,0.05406126053333282
1773522025669988900,6.21198876953125,0.026501199565082786,-0.1406789290174842,0.03280044583976269
1773522025680027600,6.222027587890625,0.08518412854969501,0.002805120548605919,-0.04705342759788036
1773522025690066000,6.23206591796875,0.08625906430482864,0.11511442578062414,-0.03591653203368187
1773522025700103700,6.242103759765625,0.09924494873657821,0.1807085954584181,-0.0367430459856987
1773522025710143000,6.25214306640625,0.09483400042653083,0.24273265156447885,-0.037296003693342204
1773522025720180700,6.2621806640625,0.132818278644979,0.25653730503320693,-0.013755553629994392
1773522025730219000,6.272218994140625,0.11507014824748038,0.2908843957930803,0.022397125247120855
1773522025740257800,6.2822578125,0.095201080173254,0.26004502089321613,0.06204933667778968
1773522025750295800,6.2922958984375,0.0870168969348073,0.2655833657979965,0.10180968465805053
1773522025760334800,6.3023349609375,0.12186813782453536,0.23931334464028475,0.13516951794624327
1773522025770372900,6.312372802734375,0.14140110581219195,0.2832259899944067,0.24584815323650835
1773522025780411000,6.322410888671875,0.21673604052066803,0.3259706144824624,0.41040041753351686
1773522025790450000,6.332449951171875,0.2906722143471241,0.3593438917741179,0.4265408204734325
1773522025800487700,6.34248779296875,0.2888771476238966,0.11294029661193489,0.11004852069318294
1773522025810526000,6.35252587890625,0.24764205091595648,0.0021190379805862904,0.04328852210640907
1773522025820564700,6.362564697265625,0.39899668772667646,-0.054299599333852526,0.17888532555401324
1773522025830603000,6.37260302734375,0.5439478872358798,-0.26793022118508814,0.17386077539026737
1773522025840641800,6.382641845703125,0.5507824094310403,-0.18397066599428652,0.28376433465480805
1773522025850679800,6.3926796875,0.8457447221875191,-0.20956132658571003,0.12931027052402497
1773522025860717800,6.4027177734375,0.9569424129158258,-0.5277674445465207,-0.16445055748820303
1773522025870756900,6.4127568359375,0.9178770614624023,-0.7080097376674414,0.047614568611979484
1773522025880795000,6.422794921875,0.7771747515693307,-0.757349230375886,0.13916121793091296
1773522025890833000,6.4328330078125,0.9061012834727764,-0.8629524620980024,0.27138591459691525
1773522025900871700,6.44287158203125,1.002013726785779,-1.025749699421227,0.42925124847590923
1773522025910910000,6.452909912109375,0.8912307543382048,-1.0511708486646414,0.6768804399102926
1773522025920947700,6.46294775390625,0.9039090341255068,-1.037114850783348,0.8118979821652174
1773522025930987000,6.472987060546875,0.9558540331572294,-1.0084373300924896,0.896211757621169
1773522025941024800,6.483024658203125,0.9850544086784124,-1.1991381811246276,0.8454635671585797
1773522025951063800,6.493063720703125,0.8870014462053776,-1.2471595769718289,0.7458972775131464
1773522025961101800,6.503101806640625,0.8574728616431355,-1.4117790612861514,0.5930366200536489
1773522025971139800,6.513139892578125,0.74545216409415,-1.4892466241091489,0.6374503467977046
1773522025981179000,6.523178955078125,0.7194926701903342,-1.6275541478201745,0.6954097838133573
1773522025991217000,6.533216796875,0.62886138215065,-1.8582222675815223,0.273531109932065
1773522026001255000,6.5432548828125,0.5944418106764555,-1.9878718530625104,-0.021080197429656982
1773522026011294000,6.5532939453125,0.4832791912615299,-1.9408511586904524,0.03486380811035633
1773522026021331700,6.563331787109375,0.36841362567543984,-1.9650608863174914,0.24065526076853275
1773522026031369700,6.57336962890625,0.39483547639399763,-1.7720342226862906,0.25543022057414055
1773522026041408800,6.58340869140625,0.4388543586015701,-1.4790470093950627,0.12679215022325516
1773522026051446800,6.59344677734375,0.20664514687806368,-0.9209086842432618,0.07176759761571884
1773522026061485800,6.60348583984375,0.2293728192538023,-0.6504828468501568,0.16875789929330348
1773522026071523800,6.61352392578125,0.35639775531962514,-0.39874242070466276,0.2845154452830553
1773522026081561900,6.623561767578125,0.26568039643168445,-0.09683131172358989,0.0741957015454769
1773522026091601000,6.633600830078125,0.1339174720585346,0.15318857423961163,-0.06460369733572006
1773522026101639000,6.643638916015625,0.2022897281475365,0.3299742971658706,0.08299450955092906
1773522026111676700,6.6536767578125,0.20283318737447262,0.5288263059496879,0.24369535911679266
1773522026121715700,6.6637158203125,0.1274479837834835,0.7303466571599244,0.24630174222290516
1773522026131753700,6.673753662109375,0.041565643836557864,0.9031722442835569,0.2214391036450863
1773522026141792800,6.683792724609375,0.0011287117689847946,0.976198317527771,0.17480127111077307
1773522026151830800,6.693830810546875,-0.017539602213352917,0.9913470790818333,0.02791033571064472
1773522026161868800,6.703868896484375,-0.08475625852644443,0.9945409066870808,-0.10279635760784149
1773522026171907000,6.713906982421875,-0.2375847672820091,0.9446291670486331,-0.2504956867814064
1773522026181944800,6.72394482421875,-0.3452938852421939,0.8484121878311037,-0.30485739156603814
1773522026191983000,6.733983154296875,-0.40786110831424593,0.7263496964782477,-0.2982207300305366
1773522026202022000,6.74402197265625,-0.5099596929162741,0.6287108677640557,-0.27692309045791624
1773522026212060000,6.754059814453125,-0.5884066221654415,0.5234858217045665,-0.26753508438766
1773522026222098000,6.764097900390625,-0.6089153033174574,0.4347007460534572,-0.2269412081927061
1773522026232137000,6.774136962890625,-0.5817933415055274,0.3795654265478253,-0.14022446324825286
1773522026242175000,6.784175048828125,-0.575139728835225,0.31609570167809725,-0.08694763109087944
1773522026252214000,6.794214111328125,-0.5329290650933981,0.23125234939008948,-0.1288379768371582
1773522026262251800,6.804251708984375,-0.4532452875256538,0.146762925106287,-0.10539105027616023
1773522026272290000,6.8142900390625,-0.3616179741859436,-0.006342354764044284,-0.06888415113389491
1773522026282328800,6.824328857421875,-0.2796392175488174,-0.12741028212159872,-0.034009237107634545
1773522026292367000,6.8343671875,-0.19824805154129863,-0.1835404578834772,-0.04930091426372528
1773522026302404900,6.84440478515625,0.05365618686378002,-0.14377134207487105,-0.30366262882351874
1773522026312444000,6.85444384765625,0.024183424142003057,-0.20433131697773932,0.11701894422769546
1773522026322482000,6.86448193359375,0.08452420333623886,-0.11386632541567086,0.07229483636021614
1773522026332519700,6.874519775390625,0.07918634943962097,-0.05783142672181129,-0.0785229170948267
1773522026342559000,6.88455908203125,0.12825973855778575,-0.0243275087878108,-0.25447861893773077
1773522026352596700,6.8945966796875,0.06708207014799118,0.020853110675513743,-0.43216275200843807
1773522026362635800,6.9046357421875,-0.08644085061252117,0.06569236935526132,-0.4755407059639692
1773522026372674000,6.914674072265625,-0.2157435223519802,0.09200842161178588,-0.3974357220202684
1773522026382711800,6.9247119140625,-0.26822365117371083,0.029426293231546878,-0.4736334110379219
1773522026392751000,6.934751220703125,-0.052099020549654956,0.07758125233054161,-0.7618564786672591
1773522026402788900,6.944788818359375,-0.16225860040187834,-0.04267945029735565,-0.39319969188570975
1773522026412827000,6.954826904296875,-0.2728904739409685,-0.17785948963761328,-0.37916239870488644
1773522026422866000,6.964865966796875,-0.33285365199446676,-0.23199586123377083,-0.2784095296233892
1773522026432903700,6.974903564453125,-0.3629249651312828,-0.19846505529284475,-0.11352934854626655
1773522026442943000,6.98494287109375,-0.4297784872204065,-0.12530629557967185,-0.23213585422635077
1773522026452980700,6.994980712890625,-0.2759165437638759,0.07606792515814303,-0.6207219148367643
1773522026463019000,7.00501904296875,-0.3165133425682783,0.22785744625478982,-0.25389526609182356
1773522026473058000,7.01505810546875,-0.304957856265828,0.3189592744156718,-0.318265154671669
1773522026483095800,7.025095703125,-0.32258762098066507,0.4046300174385309,-0.4038748151570558
1773522026493133800,7.0351337890625,-0.30510698241293427,0.5598273011520505,-0.5834095445305109
1773522026503172900,7.0451728515625,-0.19773323388695715,0.6982289328873157,-0.5182938060194253
1773522026513211000,7.0552109375,-0.07587985524013638,0.8514706986188888,-0.3824526724219322
1773522026523249000,7.065248779296875,0.0019207389295101164,0.895152603957057,-0.36043548640310763
1773522026533287700,7.07528759765625,0.09056699063181876,0.9040183397188782,-0.2586263862669468
1773522026543326000,7.085325927734375,0.12020575757026672,0.8545727562874555,-0.12470540707707405
1773522026553364700,7.09536474609375,0.042909167400002474,0.8706058994606137,-0.13249182316958905
1773522026563403000,7.105403076171875,-0.026989202277734874,0.8790624698996543,-0.1745125172972679
1773522026573440800,7.115440673828125,-0.1408452254951,0.7785004472151398,-0.10723229422867298
1773522026583479800,7.125479736328125,-0.27899280940406024,0.6272913563549518,0.0035901334464550016
1773522026593517800,7.135517822265625,-0.35165004933588206,0.4880208328306675,0.12913959013223647
1773522026603555800,7.145555908203125,-0.36154198634028434,0.3530181958839297,0.20997136869132518
1773522026613595000,7.155594970703125,-0.34246428783945737,0.27417525305449963,0.20322832417190073
1773522026623633000,7.1656328125,-0.2905395278781652,0.2276014256671071,0.18273206411004064
1773522026633671000,7.1756708984375,-0.2248958930354565,0.28722967267781496,0.19440029007196424
1773522026643710000,7.1857099609375,-0.06788235368020833,0.6498813738256692,0.22993980548679827
1773522026653747700,7.195747802734375,0.02643500246107578,0.9088479518324136,0.17999883975386619
1773522026663787000,7.205787109375,-0.13625738624818623,0.5148895505338907,0.2047802297890186
1773522026673824800,7.21582470703125,0.007608063850924373,0.467599976092577,0.5077712429612875
1773522026683863000,7.225863037109375,0.039974356057122344,0.9185162361487745,0.7574088516086339
1773522026693901800,7.23590185546875,-0.0034106121610850094,0.8363277822837233,0.7729004352509975
1773522026703939800,7.24593994140625,0.05224924267530441,0.6522919420987368,0.7880570878505706
1773522026713977900,7.255977783203125,0.04100888673663139,0.468515629632771,0.789389797759056
1773522026724017000,7.266016845703125,0.06158931795060634,0.22545359998345374,0.6814560772627591
1773522026734055000,7.276054931640625,0.09764847332537174,0.014268763849139212,0.5260094949632883
1773522026744094000,7.286093994140625,0.14415544602163136,-0.17064941212832926,0.3301642667800188
1773522026754131700,7.296131591796875,0.17667992446422576,-0.3033753363147378,0.18768179547190664
1773522026764170000,7.306169921875,0.21604221303761004,-0.32112668158262964,0.02104804872572422
1773522026774208800,7.316208740234375,0.2868763291954994,-0.24269494990259408,-0.1640349624246359
1773522026784247000,7.3262470703125,0.36778278042599555,-0.14959990209788082,-0.3773644093722105
1773522026794284800,7.336284912109375,0.43251770292595026,-0.08496025666594505,-0.539531239837408
1773522026804323800,7.34632373046875,0.5066796483322977,-0.07331278123110532,-0.620705548223853
1773522026814361900,7.35636181640625,0.5355762186013162,-0.09421382270157337,-0.6135954239577055
1773522026824400000,7.36639990234375,0.544589107748866,-0.10550532430559396,-0.5129144510686398
1773522026834439000,7.37643896484375,0.4804175182200968,-0.07808949411362409,-0.38565760594308374
1773522026844477000,7.386476806640625,0.43497956299483775,-0.011935936987400054,-0.2262052951335907
1773522026854515700,7.396515625,0.3833493290007114,-0.016534370693564414,-0.021048633247613906
1773522026864554000,7.406553955078125,0.2960978926576674,-0.0472737923502922,0.011008300748467445
1773522026874591700,7.416591796875,0.2571137897469103,-0.14260463638305662,-0.015085925450921057
1773522026884631000,7.426631103515625,0.26020854089185597,-0.2495689273253083,-0.0711117640554905
1773522026894668800,7.436668701171875,0.24277824427187442,-0.2863938063755631,-0.1133224277973175
1773522026904707000,7.44670703125,0.16882643448486923,-0.2993883125051856,-0.11610299842655658
1773522026914745900,7.456745849609375,0.018407178828120232,-0.26580577637702224,-0.1325157885670662
1773522026924783900,7.466783935546875,-0.09871639481782912,-0.2142401320517063,-0.0651285979926586
1773522026934823000,7.476822998046875,-0.20673472485765815,-0.2694125686973333,0.09493395366966724
1773522026944861000,7.48686083984375,-0.3231342220127582,-0.4085357927054167,0.26548867325186726
1773522026954899000,7.49689892578125,-0.3992528544448316,-0.6031304363057017,0.4339128105461597
1773522026964938000,7.50693798828125,-0.4002366047851741,-0.7495289120137691,0.5557850400239229
1773522026974975700,7.516975830078125,-0.32950653352364895,-0.8638806828588247,0.6536848577618598
1773522026985014000,7.527013916015625,-0.24321795086339115,-0.8892270133003592,0.6419938354462384
1773522026995052800,7.537052734375,-0.09933701093420386,-0.7990358702436089,0.4558955097734928
1773522027005091000,7.547091064453125,0.07161153027117252,-0.6205106101736426,0.18692250153720377
1773522027015129900,7.5571298828125,0.18854279621541498,-0.49209962657690043,0.06998948202729224
1773522027025168000,7.56716796875,0.256814952930808,-0.46068888152986764,0.09878887553215027
1773522027035206000,7.577205810546875,0.34526436688676476,-0.44010581996738907,0.011766425639390945
1773522027045245000,7.587244873046875,0.4592079953223467,-0.489131424421072,-0.12433131306767463
1773522027055283000,7.597282958984375,0.5661703865684569,-0.6095888186648488,-0.2870242132335901
1773522027065321000,7.607321044921875,0.9128156864196062,-0.37624621899724003,0.08314823880791664
1773522027075359700,7.61735986328125,0.9862957870416342,-0.5647612504228949,0.06677402711212635
1773522027085398000,7.62739794921875,0.6785293761610984,-0.3956918009623885,-0.024742227068543433
1773522027095435800,7.637435791015625,0.9818063666678964,-0.7979021900385618,0.6737281133592128
1773522027105475000,7.64747509765625,0.9456868594080209,-0.8247805523529649,0.982380805554986
1773522027115512800,7.657512939453125,0.7192512626498937,-0.632645576864481,1.0644862573117018
1773522027125551900,7.6675517578125,0.6449667868424207,-1.0099629322245716,1.7975205461204051
1773522027135590000,7.67758984375,0.3518851732660085,-0.41275984014123673,1.2908698316216467
1773522027145628000,7.6876279296875,0.06428447531871498,0.14173369876742362,0.5269646037310362
1773522027155667000,7.6976669921875,-0.49477907491922374,0.43384266791939735,-0.033438159221410746
1773522027165705000,7.707705078125,-1.6664508647084235,0.5923255491748451,-0.6585679536283016
1773522027175743700,7.71774365234375,-2.2088567831993102,0.8608250946804881,-1.1121972720354796
1773522027185782800,7.72778271484375,-2.61803964163661,1.2782158094927667,-1.6783996611773966
1773522027195820800,7.73782080078125,-2.604413267344236,1.4278066515013574,-2.1254712285041806
1773522027205859800,7.74785986328125,-1.7626596606194973,1.1880705514043568,-1.1324877803921698
1773522027215897900,7.75789794921875,-0.6167886670410633,0.9747045718386769,0.10559212580621243
1773522027225935600,7.767935546875,0.3378898560633883,0.8664125394240021,0.17963292905092237
1773522027235975000,7.777974853515625,0.9578974486183375,0.7768880435824393,-0.05224456650018692
1773522027246012700,7.7880126953125,1.0904045424222946,0.8408473055347799,-0.13965747701525688
1773522027256051000,7.798051025390625,0.8774515275716781,1.1389096301332116,-0.3408382210075855
1773522027266089700,7.80808984375,0.45358723283112046,1.3803709465876222,-0.6597644699364901
1773522027276127700,7.818127685546875,0.094565120357275,1.2719158325657247,-0.8465431790888309
1773522027286165800,7.828165771484375,-0.11550437494628131,1.1082342136234045,-0.9602654198586941
1773522027296204800,7.838204833984375,-0.1803951455950737,0.8548299459189176,-0.9459469716489315
1773522027306242800,7.848242919921875,-0.24845460940785705,0.6199868785604834,-1.0493003786176442
1773522027316281900,7.85828173828125,-0.22827333357930182,0.41767976088672876,-1.176384205263853
1773522027326319600,7.868319580078125,-0.18616375559177248,0.3025415158390999,-1.1883628123492003
1773522027336358000,7.87835791015625,-0.16999182500243187,0.21705197460204362,-1.0897662445187568
1773522027346396700,7.888396728515625,-0.18635021807458252,0.7978530901998281,-1.158832766482234
1773522027356435000,7.89843505859375,-0.29656134545095264,0.8175354035302996,-1.086755956786871
1773522027366472700,7.90847265625,-0.02302782436609268,-0.6339759486854076,-0.3104828302323818
1773522027376511700,7.91851171875,0.055592780949547886,-1.1730480465784667,0.32671558763086794
1773522027386549800,7.9285498046875,0.02671096985824406,-1.0674991753920913,0.7561094594478607
1773522027396588800,7.9385888671875,-0.2860515322765335,-0.42472851035445924,0.7411147194117307
1773522027406626800,7.948626708984375,-0.24256661081518976,-0.6077154260084032,1.0180483312636612
1773522027416664800,7.958664794921875,-0.33161212750077246,-0.6420894047752023,1.1088456235200166
1773522027426703600,7.96870361328125,-0.33987310230247675,-0.6824848357886075,1.0612117656856774
1773522027436742000,7.978741943359375,-0.34818799924850463,-0.7582379959091544,0.9512649518013
1773522027446779600,7.988779541015625,-0.2582031193535775,-0.8430755029782653,0.968921020001173
1773522027456819000,7.99881884765625,-0.26130634606592357,-0.8486419049337506,1.0576379988521336
1773522027466856700,8.008856689453125,-0.276371959381178,-0.8376008709594607,0.771750680693984
1773522027476895700,8.018895751953124,-0.19387597393691539,-0.5803463575676083,0.5059726691067219
1773522027486933800,8.028933837890625,-0.12137297471873461,-0.21318039386570453,0.22329145351350307
1773522027496971800,8.0389716796875,-0.003040098348259926,0.07800356939584016,0.00774549956023693
1773522027507010800,8.0490107421875,0.0697603494465351,0.21578560792803764,-0.15537760871648787
1773522027517048800,8.059048828125,0.09312544294297695,0.27128888396322726,-0.21789748551547525
1773522027527086800,8.0690869140625,0.07635667897164822,0.2865422749355435,-0.22429040142297743
1773522027537126000,8.0791259765625,0.058859673791006206,0.24106997904926536,-0.2064157220363617
1773522027547163600,8.08916357421875,0.02431318800151348,0.1169017475888133,-0.1904857469767332
1773522027557203000,8.099202880859375,-0.01644084719121456,-0.0011082535028457642,-0.17605448604226112
1773522027567240700,8.10924072265625,-0.05768938790261745,-0.09850859728604555,-0.16258125648498534
1773522027577279000,8.119279052734376,-0.11455810707211493,-0.1613455772101879,-0.12377543275058268
1773522027587317800,8.12931787109375,-0.15701068981103597,-0.16124679301083086,-0.08634908067584038
1773522027597355800,8.139355712890625,-0.15199812234602866,-0.1448956699296832,-0.03685118253529072
1773522027607393800,8.149393798828125,-0.10967976044602691,-0.14776508788615464,-0.0022901567637920377
1773522027617432800,8.159432861328124,-0.057983402413129805,-0.13092033606916664,-0.02097615253329277
1773522027627470800,8.169470947265625,0.0009012596886605024,-0.10445523073077201,-0.014831658428907393
1773522027637508900,8.1795087890625,0.08097856661863624,-0.09041501494050025,0.00755903707742691
1773522027647547600,8.189547607421876,0.1251561465192586,-0.029153029248118398,0.012876432707905769
1773522027657586000,8.1995859375,0.11294307309091091,0.024183424142003057,0.00012801029384136198
1773522027667624700,8.209624755859375,0.11145319985933601,0.0636845366641879,-0.041138650596141815
1773522027677663000,8.2196630859375,0.12180858965702354,0.11153846698999405,-0.08801379901766776
1773522027687700700,8.22970068359375,0.08646196646578609,0.18495938477069138,-0.10745733515620232
1773522027697739800,8.23973974609375,0.03125789257287979,0.23886954639554023,-0.11437047554552554
1773522027707777800,8.24977783203125,0.00030687399208545685,0.29393413875252006,-0.08928396508395671
1773522027717816800,8.25981689453125,-0.012779402074217796,0.33415304415524005,-0.058390229648351666
1773522027727854800,8.269854736328124,-0.043577422050386665,0.31456279302239415,-0.039516017830371855
1773522027737892900,8.279892822265625,-0.04453121564388275,0.24338731608092784,-0.015261282017827033
1773522027747931600,8.289931640625,-0.06355915671885014,0.1562815718188882,-0.0031938276052474973
1773522027757970000,8.299969970703126,-0.06576046615540981,0.05484305856078863,0.03474105851352215
1773522027768007700,8.310007568359374,-0.06909216786138712,-0.0006087795481085777,0.050177112576365465
1773522027778046700,8.320046630859375,-0.06390577819943427,-0.07880904055982828,0.044266427227854725
1773522027788084700,8.330084716796875,-0.06977569314613938,-0.15644348438233135,0.07260872461497783
1773522027798123000,8.340123046875,-0.06084829032495617,-0.2070376533269882,0.11252455541789531
1773522027808161800,8.350161865234375,-0.054072950971126556,-0.2792348745316267,0.23518179779350756
1773522027818199800,8.36019970703125,-0.038269744096323846,-0.30452918252497907,0.3851525790303945
1773522027828238800,8.37023876953125,-0.020476897774264216,-0.27797756794691086,0.5178384634673595
1773522027838276900,8.38027685546875,0.019464578926563263,-0.3458730003044009,0.5793892029732466
1773522027848315000,8.39031494140625,0.05898425001874566,-0.3473527174681425,0.5844745434135198
1773522027858354000,8.40035400390625,0.13944412652552127,-0.39280835448056456,0.46554830425977706
1773522027868391700,8.4103916015625,0.17512465784624218,-0.43062692074328657,0.3901514102309942
1773522027878430000,8.420429931640625,0.21152283591702578,-0.40007571513503787,0.42063539582192894
1773522027888468700,8.43046875,0.23990005848705767,-0.3452159977003932,0.49299745219945906
1773522027898506800,8.4405068359375,0.2656576000779867,-0.19895430011451243,0.564768556946516
1773522027908545800,8.4505458984375,0.3709520581118762,-0.042383389960229396,0.678888272601366
1773522027918583800,8.460583740234375,0.33240722340121864,0.1708373359158635,0.8608031751096248
1773522027928621800,8.470621826171875,0.33433716855049134,0.27174101164489983,0.7699146974384784
1773522027938660900,8.480660888671874,0.29649463689029215,0.3776324126586318,0.6502648201853036
1773522027948699000,8.490698974609375,0.19399521640241144,0.33826661695390936,0.5012018014430999
1773522027958737000,8.50073681640625,0.10894377432167529,0.2521896312177181,0.48405777441859243
1773522027968775700,8.510775634765626,0.0265006150431931,0.07985913413465022,0.4736678978294134
1773522027978814000,8.52081396484375,0.009518500582128763,-0.050830315788090226,0.38134324987530704
1773522027988852700,8.530852783203125,0.06286255275681614,-0.21992957586497067,0.11091127500236034
1773522027998890800,8.540890869140625,0.08907587529122829,-0.6544400600433349,-0.2877759083837271
1773522028008928800,8.5509287109375,0.14240005372166634,-0.8565522396668791,-0.5581669667243957
1773522028018967800,8.5609677734375,0.1960632548481226,-1.0863517599001526,-0.83970018132627
1773522028029005800,8.571005859375,0.2547492525726557,-1.2628092737853527,-0.8920821104705333
1773522028039043800,8.5810439453125,0.2382226267941296,-1.4305118188068269,-0.7904203098505735
1773522028049083000,8.591082763671874,0.2604268598176539,-1.414963244280219,-0.6189367849856615
1773522028059121000,8.601120849609375,0.2755254986196756,-1.2720938194811344,-0.4691881220668554
1773522028069159700,8.61115966796875,0.2346399460017681,-0.9365399686172604,-0.39023148972988125
1773522028079198000,8.621197998046876,0.2608282802253961,-0.5144914911270141,-0.5162579162776469
1773522028089235700,8.631235595703124,0.1442144096672535,0.03231909206360578,-0.3707236561834812
1773522028099274800,8.641274658203125,0.09397957555428146,0.4409761730611324,-0.3306307152479887
1773522028109312800,8.651312744140625,0.052258010503649706,0.8079086202681064,-0.27018238402605055
1773522028119350800,8.661350830078124,-0.022416852860897778,1.0524506593421101,-0.2334638879597187
1773522028129389800,8.671389892578125,-0.12116028181612491,1.1546057964369654,-0.22762276071608065
1773522028139427800,8.681427734375,-0.2115646292321384,1.040806106516719,-0.2721843714982271
1773522028149467000,8.691466796875,-0.33390389169976115,0.7866416680946946,-0.2300648931711912
1773522028159505000,8.7015048828125,-0.37631037027463315,0.4433052005305886,-0.07898352034389972
1773522028169542400,8.71154248046875,-0.3590815875761211,0.13609364705383778,0.05329845946729183
1773522028179581400,8.72158154296875,-0.3031424043416977,-0.08810556895434855,0.13311726159155368
1773522028189619200,8.731619140625,-0.157056793975085,-0.14561083246171475,0.0598439355880022
1773522028199658500,8.741658447265625,-0.007141250056773424,-0.10440291602164506,-0.08962240325808525
1773522028209696300,8.7516962890625,0.12926014777198433,0.016764087796211243,-0.39012802935540675
1773522028219734300,8.761734375,0.19333704475462435,0.09122574680149555,-0.6628542526453733
1773522028229773300,8.771773193359374,0.17261925089657307,0.21031565208435057,-0.7685983541429042
1773522028239811000,8.78181103515625,0.0585686549551785,0.2450835986047983,-0.8075964855790138
1773522028249849300,8.791849365234375,-0.018906945043802262,0.3232224848181009,-0.7024854212880134
1773522028259888000,8.80188818359375,-0.17820450368300078,0.32325843291431666,-0.5321750318557024
1773522028269926400,8.811926513671875,-0.23147008379399775,0.39101854845434425,-0.48681671773791313
1773522028279965400,8.82196533203125,-0.28439371859952806,0.45477527357190844,-0.5947556989312172
1773522028290003200,8.832003173828125,-0.3362150912515819,0.5526876585304736,-0.4571913948029279
1773522028300041200,8.842041259765624,-0.44604909241124985,0.488006804305315,-0.3985901527523994
1773522028310080300,8.852080322265625,-0.37251989195048807,0.4009925377190113,-0.3683715400993824
1773522028320118300,8.8621181640625,-0.27563991877958177,0.18671762661486863,-0.16366028389334678
1773522028330156300,8.87215625,-0.17370353900194166,-0.039708617793023586,-0.002163315513730049
1773522028340195000,8.882195068359374,-0.0938737770922482,-0.19790245297402143,0.1340133336484432
1773522028350233300,8.8922333984375,0.013550970968604087,-0.24970219831615684,0.20408581778407095
1773522028360272400,8.9022724609375,0.1783705078996718,-0.2376286064237356,0.13122925588786602
1773522028370310400,8.912310302734374,0.34662732580304145,-0.19482289939820766,-0.03290390621423721
1773522028380348200,8.92234814453125,0.4681073410928249,-0.1285404551953077,-0.18785130681991577
1773522028390387200,8.93238720703125,0.4852291562855243,-0.11480886696279048,-0.2565437347739935
1773522028400425200,8.94242529296875,0.35598362156078217,-0.1651706884562969,-0.175004684728384
1773522028410463200,8.952463134765624,0.22695815932750701,-0.23105361194759605,-0.050933483901619905
1773522028420502300,8.962502197265625,0.17119009487628936,-0.1984302762404084,-0.02583820561170578
1773522028430540300,8.972540283203125,0.1612597986228764,-0.14114128583222627,-0.028802316114306448
1773522028440579000,8.9825791015625,0.1377560273081064,-0.12347908015251159,0.014798925203084946
1773522028450617300,8.992617431640625,0.12336933616772293,-0.1790060293242335,0.07974398332238197
1773522028460655000,9.002655029296875,0.16641528168991207,-0.29715748471319675,0.11578560304045676
1773522028470694400,9.0126943359375,0.2888515747912228,-0.4232075843974948,0.17789456095099448
1773522028480732200,9.022732177734374,0.3667110595412552,-0.5086532864928245,0.250464707121253
1773522028490770400,9.0327705078125,0.34167408730983734,-0.5122086408868431,0.23610475785732268
1773522028500809200,9.042809326171875,0.22203224723264572,-0.4233630672201514,0.1646001950919628
1773522028510847200,9.05284716796875,0.03164192345440388,-0.235208978061378,0.09267126943469046
1773522028520886300,9.06288623046875,-0.14520385909602046,-0.016088088230788708,0.056443771755695336
1773522028530924300,9.07292431640625,-0.2634134744130075,0.1726891012623906,0.04163958585560321
1773522028540962300,9.08296240234375,-0.30934871163591743,0.24491204143017528,0.02856441570520401
1773522028551001300,9.09300146484375,-0.2908997394926846,0.16110504645258186,-0.01361526837646961
1773522028561039000,9.1030390625,-0.1765126781385392,0.0033238837257027623,-0.09809972422420978
1773522028571077400,9.113077392578125,-0.0004909983873367309,-0.1065580482289195,-0.10624152962565421
1773522028581116200,9.1231162109375,0.09751644444353878,-0.18354367275387048,-0.09149871852397919
1773522028591154400,9.133154541015625,0.10593991633057594,-0.19809242258816956,-0.12353577877581119
1773522028601193200,9.143193115234375,0.04413564045503735,-0.15383330188393593,-0.019424831438064574
1773522028611231200,9.153231201171875,-0.005292845711112022,-0.04786357493698597,-0.15794073720276355
1773522028621269200,9.163269287109374,-0.0564934561163187,0.15914163742512463,-0.0491039303869009
1773522028631308300,9.173308349609375,-0.17068850202970207,0.25290333244502544,-0.02222001511454582
1773522028641346300,9.18334619140625,-0.15140169082283972,0.41840222994238135,-0.15336334628462792
1773522028651385300,9.19338525390625,-0.2086287219107151,0.4886813425660133,0.03842413094043731
1773522028661423000,9.203423095703124,-0.17659224618077277,0.37832740918546914,-0.09430617716014385
1773522028671461400,9.21346142578125,-0.07519625689014792,0.34532588781565426,-0.1623907023489475
1773522028681500200,9.223500244140626,-0.013128873099014162,0.24938275710344313,-0.08451835811734199
1773522028691538400,9.233538330078124,0.07905081342644989,0.13797756110429762,-0.037463761475682256
1773522028701576200,9.243576171875,0.1821463731765747,0.08364391337037086,0.001945288848876953
1773522028711615200,9.253615234375,0.20319559094607828,0.06796469820141791,0.07445289117693901
1773522028721653200,9.2636533203125,0.2047558260001242,0.13339403270632028,0.07725216650664805
1773522028731692300,9.2736923828125,0.19898761786222458,0.25659546496123076,0.05361293224394321
1773522028741730300,9.283730224609375,0.15108261493630706,0.3300798033669591,0.08291969074904919
1773522028751768300,9.293768310546875,0.09671031569242478,0.33848172100931406,0.110255441442132
1773522028761807000,9.30380712890625,0.04996441967375576,0.2950193036407232,0.10900164198875427
1773522028771845400,9.313845458984375,0.010900164198875427,0.2756929641410708,0.13721359099447727
1773522028781883100,9.323883056640625,0.012754852154850959,0.2543514854267239,0.14922726939320563
1773522028791922400,9.33392236328125,0.022308277919888497,0.18060206634402273,0.17268121021687982
1773522028801960200,9.343960205078124,0.03868716579079628,0.12811316969394684,0.19771336014270782
1773522028811999200,9.353999267578125,0.10982464880943298,0.15916531056165695,0.2221919678390026
1773522028822037200,9.364037353515625,0.14785145099535585,0.22957360252290962,0.2396288403302431
1773522028832075300,9.3740751953125,0.13005619352050124,0.22733634499013422,0.15229133313894272
1773522028842114300,9.3841142578125,0.024955723688751458,0.18768705616891382,0.07907002958357334
1773522028852152300,9.39415234375,-0.15545242751836777,0.19609014285504817,0.15787936240434647
1773522028862191000,9.404191162109376,-0.31004911499023435,0.2185173709794879,0.23506313984990118
1773522028872229400,9.4142294921875,-0.3224797036267817,0.2826487746283412,0.23683716378509997
1773522028882267100,9.42426708984375,-0.23901027004048228,0.32799422926455735,0.1848392655223608
1773522028892306400,9.434306396484375,-0.18748875711783766,0.30552520782500503,0.07592880894839764
1773522028902344200,9.44434423828125,-0.20374372634813187,0.2591787594527006,-0.05585632725656032
1773522028912382500,9.454382568359375,-0.23993454527854918,0.24913112042993305,-0.22709961362481115
1773522028922421200,9.464421142578125,-0.2141780266009271,0.289510477091372,-0.29804011276662346
1773522028932459300,9.474459228515625,-0.13289222066402434,0.36387685902863737,-0.24970950483977794
1773522028942498300,9.484498291015624,-0.052956514161825174,0.35117022992968555,-0.09048691113293171
1773522028952536300,9.494536376953125,0.03149009389355779,0.2024050250902772,0.006430909830331802
1773522028962574300,9.50457421875,0.09290054814592004,0.05904226381629705,-0.05263093546926975
1773522028972613400,9.51461328125,0.05702127938270569,0.029794542022049425,-0.12263444602191448
1773522028982651100,9.524651123046874,-0.010214666152745485,0.0914955036535859,-0.042782910671830175
1773522028992689400,9.534689453125,-0.1642944901436567,0.2444347793072462,0.01966506993472576
1773522029002728200,9.544728271484376,0.12725523769035935,0.2319672196611762,-0.24777707547247407
1773522029012766500,9.554766357421874,0.06599792817309498,0.1098240642875433,-0.41833062601089477
1773522029022805200,9.56480517578125,0.26733400885760783,0.028230361445248126,-0.3938251303076744
1773522029032843300,9.57484326171875,0.2757528776347637,-0.218496620452404,-0.2983224368393421
1773522029042881300,9.58488134765625,0.19791443567276,-0.6286316650480032,-0.24125673379302023
1773522029052920300,9.59492041015625,0.2145359001278877,-1.0223743777692318,-0.24505378798842428
1773522029062958300,9.604958251953125,0.2493150986947119,-1.1349407265022395,-0.22390695506334304
1773522029072997400,9.614997314453126,0.2578385968901217,-1.0447320477887987,-0.11850012269616127
1773522029083035100,9.62503515625,0.21193010154366493,-0.8851379904210567,-0.07058510983288288
1773522029093073400,9.635073486328125,0.10519815805256366,-0.7118959314510226,-0.10379998169243335
1773522029103112200,9.6451123046875,0.015542875438183544,-0.5285451509207487,-0.1683084019601345
1773522029113150500,9.655150390625,0.055128743634372944,-0.3766013160452246,-0.38565994403064247
1773522029123188200,9.665188232421874,0.08497530810460448,-0.15841683028191328,-0.21315233681499957
1773522029133227300,9.675227294921875,0.015988865640014407,-0.06576455780863762,-0.13034136713743208
1773522029143265300,9.685265380859375,-0.05966273380219936,0.03782382695972919,0.04539513899683952
1773522029153304300,9.69530419921875,-0.20588965233564377,0.21073358523547647,0.2642150000542402
1773522029163342300,9.70534228515625,-0.42981312014237044,0.5406786563068628,0.3612561551362276
1773522029173380400,9.71538037109375,-0.6506675557672977,0.8177481694981455,0.13883914636969566
1773522029183419400,9.72541943359375,-0.7148683713905513,0.8780228977188468,-0.11262392413914203
1773522029193457400,9.73545751953125,-0.6060116908304393,0.7395406019628048,-0.10502280148565768
1773522029203495400,9.745495361328125,-0.27911738563179966,0.47356852910816666,0.07287877372801303
1773522029213534500,9.755534423828125,0.038370208796113726,0.15439531968086956,0.021543138766288755
1773522029223572500,9.765572509765626,0.291876183309406,-0.1174701951265335,-0.06335691214501857
1773522029233611300,9.775611328125,0.4085299474865198,-0.27065000153779983,0.00892448021173477
1773522029243649500,9.7856494140625,0.3744407770104706,-0.2666930806055665,0.011219897672533988
1773522029253687300,9.795687255859375,0.20320435877442358,-0.1175505668863654,-0.051853521355986594
1773522029263726600,9.8057265625,0.06825403653681278,-0.021592823126912117,-0.01822422347664833
1773522029273764400,9.815764404296875,-0.0007065408341586589,-0.03639087154716253,-0.07105974160730838
1773522029283803400,9.825803466796875,0.017708236778527498,-0.15410364325791595,-0.1594283454120159
1773522029293841400,9.83584130859375,0.11088789412677287,-0.3791486624404788,-0.005514964029192924
1773522029303879400,9.84587939453125,0.31823096014112234,-0.5889879291847347,0.1807867752611637
1773522029313918500,9.85591845703125,0.6467682102411985,-0.658865475270152,0.0229746328741312
1773522029323956500,9.86595654296875,0.9389300786241889,-0.6082850425899028,-0.3532259934157133
1773522029333994500,9.875994384765624,0.9732103877581656,-0.7042965623632073,-0.3337275122195482
1773522029344033500,9.886033447265625,0.8059329362809657,-0.8574994573891163,-0.1091179618448019
1773522029354071300,9.8960712890625,0.6671179014392197,-0.9068342739224433,-0.1344663381129503
1773522029364110600,9.906110595703124,0.7543021177649497,-0.8910328936785459,-0.3091699940681457
1773522029374148400,9.9161484375,0.8812281235009432,-0.8553910869330167,-0.3264654122620821
1773522029384186600,9.9261865234375,0.790641259124875,-0.7115493099704384,-0.17322189296483992
1773522029394225400,9.936225341796876,0.5118465295761824,-0.44179625727236266,0.3012859628200531
1773522029404263400,9.946263427734374,0.17587401490882038,-0.14051526288837193,0.8105325390309095
1773522029414301400,9.956301513671875,0.010876929453760386,-0.0017529811471700667,0.6837514947235583
1773522029424340500,9.966340576171875,0.0723890905149281,0.06345335825681686,0.31507191158831116
1773522029434378500,9.97637841796875,0.06033727206289768,0.07927724259346723,0.14006079711914063
1773522029444417500,9.98641748046875,-0.14810264927744865,-0.010168342792987823,0.07699906852841377
1773522029454455300,9.996455322265625,-0.3934023748509586,-0.10564239468872547,-0.04992167651057243
1773522029464493600,10.00649365234375,-0.5558335553407668,-0.020540391464531422,-0.4120107753396034
1773522029474532400,10.016532470703124,-0.7472321793787181,0.38769174211919305,-0.8858078525066375
1773522029484570600,10.026570556640625,-0.9920305313013493,0.6695362146273255,-0.7069634434849024
1773522029494609400,10.036609375,-1.2028076634176075,0.4944356683090329,0.1241319911032915
1773522029504647400,10.0466474609375,-1.3219966451607643,0.21047493429929018,0.7259457918524742
1773522029514685400,10.056685546875,-0.932466581698507,0.20827625521123408,0.4715063358813524
1773522029524724500,10.066724365234375,-0.3430091353058815,0.21871172450780868,-0.0650374125778675
1773522029534762500,10.076762451171875,0.05783069606944918,0.24667028327435253,-0.6082172380506992
1773522029544800500,10.086800537109376,0.021384879464656115,0.3600754209190607,-0.6684136403381824
1773522029554839300,10.09683935546875,-0.3397809670396149,0.49522594190388913,-0.5717050782114267
1773522029564877600,10.106877685546875,-0.6704341863803565,0.6240083891615271,-0.280593887925148
1773522029574916400,10.116916259765626,-0.730782125967741,0.5866691308483482,-0.10767886895239352
1773522029584954600,10.12695458984375,-0.5064611832760274,0.49240328569859265,-0.09837737212181091
1773522029594992400,10.136992431640625,-0.12041107088401913,0.40368367649912834,-0.2127069311350584
1773522029605031400,10.147031494140625,0.17704247416630386,0.3426569608673453,-0.22295359986126423
1773522029615069400,10.1570693359375,0.2704115166068077,0.343694487221539,-0.2972819878757
1773522029625107500,10.167107421875,0.2598356159262359,0.33426965627223254,-0.4098591502636671
1773522029635146500,10.177146484375,0.17681261093318462,0.179435945174098,-0.24117197811901567
1773522029645184500,10.1871845703125,0.1353067344598472,-0.0459492657482624,0.01764203967452049
1773522029655223300,10.197223388671874,0.16303294577524066,-0.21856588629633186,0.3334036870926618
1773522029665261600,10.207261474609375,0.20994506520628928,-0.33475597848445177,0.4441875363230705
1773522029675299300,10.21729931640625,0.32758316424563527,-0.37911417564898725,0.27925007210075853
1773522029685338600,10.227338623046874,0.43335751475095746,-0.39227965443134305,0.032525136029720306
1773522029695376400,10.23737646484375,0.5195815077424049,-0.4659694522812962,-0.3022755583792925
1773522029705415400,10.24741552734375,0.5788238241754472,-0.6013119887068867,-0.4920528648257255
1773522029715453400,10.257453369140626,0.5537829064212739,-0.758579941214621,-0.4946785371541977
1773522029725491500,10.267491455078124,0.49408159417435527,-0.7857058485493064,-0.042457916501164435
1773522029735530500,10.277530517578125,0.2016431008070707,-0.6522358279973268,0.8996101678878068
1773522029745568500,10.287568603515625,-0.15873057240620256,-0.13757950169742106,1.4456810386270285
1773522029755606500,10.2976064453125,-0.4409202050901949,0.8043003666430711,1.418432381695509
1773522029765645600,10.3076455078125,-0.5793250516958535,1.4762664387658238,1.0426508576005697
1773522029775683300,10.317683349609375,-0.5830874729692935,1.2756339763060212,0.5248047953486442
1773522029785722400,10.327722412109376,-0.31660277441740037,0.4691489591002464,0.03536240528225899
1773522029795760400,10.337760498046874,0.18038754681050775,-0.16975275554955005,-0.32475451669096944
1773522029805798700,10.347798583984375,0.6433510952740907,-0.4344938253045082,-0.38235388822257516
1773522029815837400,10.35783740234375,0.7960650377392768,-0.5368129207894206,-0.21752806768119334
1773522029825875500,10.36787548828125,0.6950614087671041,-0.5459504592299461,-0.07540916898846625
1773522029835913500,10.37791357421875,0.41391412474289535,-0.5228250197082758,-0.05135726227164268
1773522029845952500,10.387952392578125,0.09693696405515075,-0.486270482032001,-0.10767302373349666
1773522029855990500,10.397990478515625,-0.10525076502263546,-0.3496913895487785,-0.2417845570594072
1773522029866029600,10.408029541015624,-0.10367840113937854,-0.0966410498484969,-0.30960429383218285
1773522029876067300,10.4180673828125,0.007401362297683954,0.07233867550194263,-0.20851181753277778
1773522029886105300,10.428105224609375,0.09104001497104763,0.1028302598774433,0.0368821621954441
1773522029896144400,10.438144287109376,0.14156842520311474,0.11844751572608947,0.2014735894590616
1773522029906182400,10.448182373046874,0.18315058178305624,0.22728023088872432,0.20733342140316963
1773522029916220400,10.458220458984375,0.1585297891370952,0.3540335104063153,0.16056290239989757
1773522029926259500,10.468259521484375,0.04810965865254402,0.4102709459349513,0.08576923496127128
1773522029936297500,10.47829736328125,-0.09073650197982787,0.41532618349790573,0.030476386806368827
1773522029946336500,10.48833642578125,-0.19489304202497004,0.3743722418189048,-0.0018476736932992934
1773522029956374500,10.49837451171875,-0.23224793629869817,0.29724340943098065,-0.012965864557027817
1773522029966412300,10.508412353515626,-0.20629399535283446,0.20882336769998072,0.011136895564198493
1773522029976451300,10.518451416015624,-0.14691943084225056,0.12026420975923538,-0.021324527579545973
1773522029986489300,10.5284892578125,-0.054375879440456625,0.06893763488680124,-0.10610942767858504
1773522029996528400,10.5385283203125,0.034099107348173854,0.04856880059689283,-0.18758944101333616
1773522030006566400,10.54856640625,0.04945990421772003,0.03135229285806417,-0.20198679967820643
1773522030016604400,10.5586044921875,0.005511310767382383,-0.033906361255049706,-0.14758943905830382
1773522030026643500,10.5686435546875,-0.06934227016493677,-0.12189765617996454,-0.11320084724426269
1773522030036681500,10.578681396484376,-0.11096212840676307,-0.11763123090714216,-0.0998503672838211
1773522030046719200,10.58871923828125,-0.10777692249938844,-0.042967619588971134,-0.09590776713788508
1773522030056758500,10.598758544921875,-0.08691387495175003,0.023567922592163084,-0.09840601369440555
1773522030066796300,10.60879638671875,-0.057895724129676814,0.05835311250835657,-0.12141162622869014
1773522030076835300,10.61883544921875,-0.058306058496236796,0.09510492632240057,-0.12915361865758895
1773522030086873600,10.62887353515625,-0.09928922626972198,0.11677227599024773,-0.14166414066255092
1773522030096911400,10.638911376953125,-0.14252572592794893,0.10584054760932922,-0.1824205139428377
1773522030106950400,10.648950439453126,-0.17695815688371658,0.059579439432919025,-0.2164841115862131
1773522030116988400,10.658988525390624,-0.1812578999042511,0.042940147060155864,-0.19830022011995313
1773522030127027500,10.66902734375,-0.18385200805068014,0.05456891779452562,-0.17751754433214664
1773522030137065500,10.6790654296875,-0.1537124519832432,0.09651771572977304,-0.15086919138133525
1773522030147103200,10.689103271484376,-0.13084756309390067,0.16946575530171393,-0.1509802505403757
1773522030157142500,10.699142578125,-0.1332429337978363,0.21707564773857593,-0.1415384684562683
1773522030167180300,10.70918017578125,-0.16098098168149588,0.16903934658318756,-0.07985562700331211
1773522030177222400,10.719222412109374,-0.1671655155353248,0.10398235252201557,-0.008875964894890785
1773522030187261700,10.72926171875,-0.12363690106272697,0.0743131904453039,0.017139935371279714
1773522030197299500,10.739299560546876,-0.01782207241654396,0.030365619908273217,0.0004991816937923431
1773522030207338500,10.74933837890625,0.04381035402342677,-0.06725187375694514,-0.02709258958697319
1773522030217376500,10.75937646484375,0.04644903196394443,-0.14799334368407727,-0.05122399128079414
1773522030227414500,10.76941455078125,0.03228270557597279,-0.17122370488494634,-0.08807868094742298
1773522030237453600,10.77945361328125,-0.004487228416651487,-0.13492577231824399,-0.147555536788702
1773522030247491600,10.78949169921875,-0.03255100112333894,-0.11844546989947556,-0.15236030672192571
1773522030257529600,10.799529541015625,-0.037745647156983614,-0.11605945154577493,-0.1398778417676687
1773522030267568600,10.809568603515626,-0.0437403575271368,-0.09084434626847505,-0.1001332758784294
1773522030277606400,10.8196064453125,-0.04408990161716938,-0.04202186317145824,-0.056796822977066036
1773522030287645700,10.829645751953125,-0.07678279542922974,0.02252805815041065,-0.041346740388870235
1773522030297683500,10.839683349609375,-0.1190863981515169,0.07149287232756614,-0.012300678646564483
1773522030307721700,10.8497216796875,-0.1510484934709966,0.10890373457223176,0.02052197902500629
1773522030317760500,10.859760498046874,-0.1450948457635939,0.10938567287027835,0.02790215240418911
1773522030327798500,10.869798583984375,-0.09709653853103518,0.08106237244457005,-0.0003425298273563385
1773522030337836500,10.87983642578125,-0.02040375947281718,0.0786836606144905,-0.022239888858795166
1773522030347875600,10.88987548828125,0.04554112333878874,0.059554012730717656,-0.032788170880079265
1773522030357913600,10.89991357421875,0.10633081534430384,0.005820668977499008,-0.023112580040097235
1773522030367952600,10.90995263671875,0.14764453024640678,-0.03590542611777782,-0.0044447044491767885
1773522030377990400,10.919990478515626,0.17004165549352765,-0.07476034969091415,-0.012759528329968451
1773522030388028400,10.9300283203125,0.13379530698359013,-0.0760062580987811,-0.04541676630675792
1773522030398067500,10.9400673828125,0.07050795294344425,-0.08144260393381118,-0.08088555457293987
1773522030408105700,10.950105712890625,0.003323737595230341,-0.06810965963006019,-0.12527473139762876
1773522030418143500,10.9601435546875,-0.046872664203494785,-0.035733576682209965,-0.1595206998705864
1773522030428182500,10.9701826171875,-0.0749726772673428,-0.001799158376455307,-0.19678397033810616
1773522030438220500,10.980220458984375,-0.07336334237456321,-0.01750526155233383,-0.19827508567869662
1773522030448259600,10.990259521484376,-0.020024404766410587,-0.07024228774458169,-0.1583656846165657
1773522030458297600,11.000297607421874,0.027814620251208542,-0.1130868654757738,-0.10404489636421203
1773522030468335400,11.01033544921875,0.03353285176753998,-0.10559037224054336,-0.06712181763648986
1773522030478374400,11.02037451171875,-0.010568740287423134,-0.04799801497161388,-0.07258125208616256
1773522030488412400,11.030412353515626,-0.06405731549933552,0.05104191271215677,-0.09844634570479392
1773522030498450400,11.040450439453124,-0.14968670359849928,0.06979658980369567,-0.11945990763902664
1773522030508489700,11.05048974609375,-0.1545528483301401,0.03880114755928516,-0.16198504415750503
1773522030518527500,11.060527587890626,-0.07106485617384314,0.013174538871645927,-0.2021756002485752
1773522030528566500,11.07056640625,-0.007869272070378065,-0.03914513869136572,-0.23498306035101413
1773522030538604500,11.0806044921875,0.021357699196785686,-0.051123161254823205,-0.17229367220401762
1773522030548642300,11.090642333984375,-0.026757658544182775,0.01856441521644592,-0.05311491959393024
1773522030558681600,11.100681640625,-0.12386588751301168,0.16107640487998723,-0.01920797381699085
1773522030568719400,11.11071923828125,-0.22099472087845204,0.24359540587365625,-0.09692366618216038
1773522030578757600,11.120757568359375,-0.32831498565152284,0.19099632684737441,-0.15153087016046046
1773522030588796700,11.130796630859376,-0.369326210475713,0.04493891966193914,-0.16291092683076858
1773522030598834400,11.14083447265625,-0.2821329340606928,-0.0726537328004837,-0.11698971813321113
1773522030608873700,11.150873779296875,-0.08925926903411746,-0.15424743564277887,-0.05337912348806858
1773522030618911500,11.160911376953125,0.13900865771770476,-0.1985679311454296,0.04581774832308292
1773522030628949500,11.170949462890626,0.34657881048619743,-0.1776516921058297,0.11728197907805442
1773522030638988500,11.180988525390624,0.44333997958302496,-0.1302104342341423,0.2519914782971144
1773522030649026300,11.1910263671875,0.44575756211876866,-0.0588157615840435,0.3218026811480522
1773522030659064600,11.201064697265625,0.3469815460681915,-0.032556115689873696,0.3675426880598068
1773522030669103400,11.211103271484374,0.18073299924731254,-0.03822451671510935,0.4448118057012558
1773522030679141600,11.2211416015625,0.08100771964788436,0.017365268559753892,0.47837212999761103
1773522030689179400,11.231179443359375,0.09501286412477493,0.10821750587373971,0.48485915392935275
1773522030699218400,11.241218505859376,0.19871420774832366,0.1629077119603753,0.5443640668213368
1773522030709256400,11.25125634765625,0.33528643209934234,0.19052111055105925,0.6076210257232189
1773522030719295500,11.26129541015625,0.4709443180844187,0.19070698851197956,0.6187146666675806
1773522030729333500,11.27133349609375,0.5849186339192092,0.12361936540603637,0.58078153411448
1773522030739371500,11.28137158203125,0.623352993992716,-0.006411620607972145,0.5246960742771625
1773522030749410300,11.291410400390625,0.5956839196920395,-0.12991028224378823,0.4655237543404102
1773522030759448600,11.301448486328125,0.4889182200618088,-0.22092998507916925,0.36041152100563045
1773522030769486300,11.311486328125,0.3691274730332196,-0.2558957922592759,0.26670623234808444
1773522030779525600,11.321525634765624,0.30680326493680476,-0.27057167560458184,0.22449498408436774
1773522030789563400,11.3315634765625,0.28216858989596366,-0.28190058660954237,0.21253975787460802
1773522030799602400,11.3416025390625,0.32290392038822174,-0.3128717711955309,0.242922621178627
1773522030809640400,11.351640380859376,0.4049035736829042,-0.3577797111973166,0.28305472508072854
1773522030819678500,11.361678466796874,0.4849339727312326,-0.36278497213870287,0.2830254989862442
1773522030829717500,11.371717529296875,0.5254126981139182,-0.352972895437479,0.2645592834472656
1773522030839755500,11.381755615234376,0.4751449846446514,-0.29164836590290066,0.269687293985486
1773522030849793500,11.39179345703125,0.3569371228933334,-0.1832575492888689,0.26981062810420986
1773522030859832600,11.40183251953125,0.20651216814815998,-0.08236585625857114,0.2447825698316097
1773522030869870300,11.411870361328125,0.09983940749838947,-0.013467092077434063,0.2432441082179546
1773522030879909600,11.42190966796875,0.0634387452095747,0.006136310797929764,0.24901918448805807
1773522030889947400,11.431947509765624,0.0729062462568283,0.019097499179840088,0.17170096700787543
1773522030899985700,11.441985595703125,0.10990078278556466,0.04460077374875545,0.07618658310174942
1773522030910024400,11.4520244140625,0.12184373403564094,0.13986995072215794,-0.15256547390520572
1773522030920062500,11.4620625,0.0682987524613738,0.25471388899832964,-0.3479097668290138
1773522030930100500,11.4721005859375,-0.05812120344862341,0.3166945443540811,-0.5628893190711737
1773522030940139500,11.482139404296875,-0.18816110342144965,0.2929340217992663,-0.7372761641621589
1773522030950177500,11.492177490234376,-0.33659693017601966,0.16412731688320636,-0.7864625121355057
1773522030960215600,11.502215576171874,-0.484175117187947,0.0338651524618268,-0.9622042789667844
1773522030970254300,11.51225439453125,-0.590640080305934,-0.12051847678124904,-0.9682873982727527
1773522030980292600,11.522292724609375,-0.6863863732717931,-0.22524521792978047,-0.9731400990009307
1773522030990331400,11.532331298828124,-0.738580670889467,-0.31131489714235067,-0.8095008578956127
1773522031000369700,11.54236962890625,-0.7094339252516627,-0.26938568069040775,-0.6191542271286249
1773522031010407400,11.552407470703125,-0.5972720656663179,-0.12726356712728737,-0.4411585438907146
1773522031020446500,11.562446533203126,-0.47175358864068984,0.06060527534931898,-0.32037937034666536
1773522031030484500,11.572484375,-0.36200843480825423,0.24850685105174777,-0.23313830926716325
1773522031040522500,11.5825224609375,-0.30911680257618424,0.3596037117540836,-0.279859143909812
1773522031050561500,11.5925615234375,-0.29616993498057126,0.4580284301489591,-0.13473755626976489
1773522031060599600,11.602599609375,-0.35371786858588455,0.47207741376757617,0.007999766582250595
1773522031070638300,11.612638427734375,-0.37789573976993557,0.43319267957806584,-0.17591420078873635
1773522031080676600,11.622676513671875,-0.4116197301954031,0.37532881189137696,-0.24536124650239943
1773522031090714400,11.63271435546875,-0.4290371673338115,0.19335165780186653,-0.31487785032093524
1773522031100753700,11.642753662109374,-0.34296237355470655,-0.07584229970872401,-0.46659342939853665
1773522031110791400,11.65279150390625,-0.15874913097620008,-0.3808358848750591,-0.4660018932461738
1773522031120829700,11.66282958984375,0.058606502747535705,-0.6523252598464488,-0.412556134262681
1773522031130868500,11.672868408203126,0.3117863140463829,-0.7565890596583486,-0.4995335759699344
1773522031140906500,11.682906494140624,0.4630319375246763,-0.6753381789043545,-0.44143560726642606
1773522031150944500,11.692944580078125,0.4756088027641177,-0.498566484503448,-0.39711189689338205
1773522031160983600,11.702983642578126,0.3666320029556751,-0.23725100528299808,-0.38969197602570055
1773522031171021300,11.713021240234376,0.08888006045818328,-0.03731324708908796,-0.28926585468053817
1773522031181060000,11.72306005859375,-0.21794190917909145,0.07893938894122839,-0.12053425887227058
1773522031191098000,11.73309814453125,-0.3846224176764488,0.20724866572916506,-0.04506254604160785
1773522031201136000,11.74313623046875,-0.4212205022335052,0.33926702616810794,0.050963294517993925
1773522031211175200,11.753175048828124,-0.33024010849520563,0.35156624350994825,0.0783048904299736
1773522031221213200,11.763213134765625,-0.15078151309788226,0.3188789026558399,0.13221592883765695
1773522031231251200,11.773251220703125,0.05033434896469116,0.3000567132860422,0.10445932238399983
1773522031241290000,11.7832900390625,0.1940717887699604,0.26665917833596464,0.065678048568964
1773522031251328300,11.793328369140625,0.25360300514698025,0.20649200214296579,0.037404140242934224
1773522031261366000,11.803365966796875,0.21977087817192076,0.11591916629225014,0.01940846482515335
1773522031271405300,11.8134052734375,0.10410159498751163,0.04357552235424518,0.029413726010918614
1773522031281443000,11.823443115234374,0.028104981499910354,-0.005004384158551692,0.05704758286774158
1773522031291482000,11.833482177734375,-0.03553250115215778,-0.026731939581036566,0.06628244420289993
1773522031301520100,11.84352001953125,-0.05342457006499171,-0.061893269333243364,0.011243278548121452
1773522031311558000,11.853557861328126,-0.04057750958204269,-0.09794541044533252,-0.07430617618262768
1773522031321597200,11.86359716796875,-0.06132613696977496,-0.104401162455976,-0.1658726992458105
1773522031331635200,11.87363525390625,-0.1092651152305305,-0.10472148045152425,-0.24787469062805173
1773522031341673200,11.883673095703125,-0.15799670517370104,-0.05564736068099737,-0.24028116675913333
1773522031351712300,11.893712158203124,-0.17630334623679517,0.05382160655856132,-0.1450198808312416
1773522031361750000,11.90375,-0.16923676885142921,0.15521744971871376,-0.03944353711605072
1773522031371788000,11.9137880859375,-0.16448445975780487,0.23586598066538572,0.03371872972846031
1773522031381827000,11.9238271484375,-0.1498211436331272,0.2804094712689519,0.08992343203127384
1773522031391865000,11.933864990234374,-0.13186273148581384,0.2649298703253269,0.11878887650966644
1773522031401904000,11.943904052734375,-0.047744624732434744,0.18672464087754487,0.09182254365086555
1773522031411942000,11.95394189453125,0.055365913391113276,0.07462064895927906,0.016260229927301407
1773522031421980200,11.963980224609376,0.1437555599838495,-0.05858458317667246,-0.04639291786253452
1773522031432019200,11.974019287109375,0.2150461877375841,-0.16874094815850257,-0.15128361740112303
1773522031442057200,11.98405712890625,0.27351079779639836,-0.21221651726961135,-0.23144202674329278
1773522031452095000,11.994094970703125,0.2906513176895678,-0.20385551615953446,-0.2133855610489845
1773522031462134000,12.004134033203124,0.236945300334692,-0.14806290178894996,-0.11940788519084453
1773522031472172000,12.014172119140625,0.1326912912644446,-0.0023728666111826895,0.030659926679730415
1773522031482210000,12.0242099609375,0.009715922850370406,0.18126842129826545,0.1873620619982481
1773522031492249000,12.0342490234375,-0.0923386764794588,0.3779705585718155,0.3251882319331169
1773522031502287000,12.044287109375,-0.16101999851763246,0.5476467417538166,0.4155570696443319
1773522031512326100,12.054326171875,-0.16559548973962665,0.6009492928743362,0.4689923072338104
1773522031522364200,12.0643642578125,-0.150600165181607,0.560402762952447,0.4889426238507032
1773522031532402000,12.07440185546875,-0.09428104271888732,0.46308775936514135,0.4484983852595091
1773522031542441200,12.084441162109375,-0.023545126238465306,0.3402846787780523,0.35460488055348394
1773522031552479000,12.09447900390625,0.046362376593798396,0.22482173182070253,0.23356208763718603
1773522031562517200,12.104517333984376,0.1024764780037105,0.08534721015691757,0.08497311614751815
1773522031572556000,12.11455615234375,0.09144859577193856,-0.0296060337126255,-0.035793782436847686
1773522031582594000,12.124593994140625,0.06214592892006039,-0.08959960690438747,-0.1213303776860237
1773522031592632000,12.134632080078125,0.04446633371412754,-0.10467238061279058,-0.18727789084613322
1773522031602671000,12.144671142578124,0.06403320397138595,-0.08724836760312318,-0.20440847386717795
1773522031612709000,12.154709228515625,0.06092413204014301,-0.038997546914219854,-0.15890402927696703
1773522031622748200,12.164748046875,0.047199119678884745,0.01987549781501293,-0.09850596693754196
1773522031632786000,12.174785888671876,0.005668254894763231,0.10366904878914356,-0.036703883019089695
1773522031642824200,12.18482421875,-0.06741817023456097,0.15489976207166908,0.07278992640078068
1773522031652863000,12.194863037109375,-0.16416823341548442,0.16285218238085508,0.18339082027971743
1773522031662901200,12.2049013671875,-0.22523542718812822,0.1712228281021118,0.23814064759910106
1773522031672939000,12.21493896484375,-0.21795301509499548,0.1847603550672531,0.23789690197110175
1773522031682978000,12.22497802734375,-0.16285320529416203,0.1704930525228381,0.18979484210312364
1773522031693016000,12.23501611328125,-0.09031374652311205,0.12938158219456672,0.14363281038701534
1773522031703054000,12.24505419921875,0.0032961189359426496,0.040997780820727345,0.06845745015442371
1773522031713093000,12.255093017578124,0.06823606248870491,-0.08511953888088464,0.016084288838505743
1773522031723131100,12.265131103515625,0.09003229923322796,-0.20874737985432146,-0.06814765355288982
1773522031733170000,12.275169921875,0.09173018919229507,-0.2929319759726524,-0.1578109733432531
1773522031743208200,12.285208251953126,0.09114990508630871,-0.3555152733966708,-0.2608142517000437
1773522031753246000,12.295245849609374,0.07725172811523079,-0.39083880797326565,-0.3073836951732635
1773522031763285200,12.30528515625,0.08102876243591309,-0.42737668677568436,-0.31347382874190804
1773522031773323000,12.315322998046875,0.07545841495767236,-0.46510962058156724,-0.30067046127021313
1773522031783361300,12.325361328125,0.10081263644471763,-0.5091209040045738,-0.2702688932657242
1773522031793400000,12.335400146484375,0.20646029183045028,-0.5353548309355974,-0.23724808267354963
1773522031803438000,12.34543798828125,0.33723756616711614,-0.5555117760404944,-0.2296294243633747
1773522031813476000,12.35547607421875,0.43777723088935017,-0.5387774988606572,-0.19199965867102145
1773522031823515100,12.36551513671875,0.4498480463027954,-0.5001400174304843,-0.16219138038456438
1773522031833553200,12.37555322265625,0.33529943771138787,-0.4172527676463127,-0.1435819569826126
1773522031843591200,12.385591064453125,0.1324376087643206,-0.28332828132510185,-0.1410942318201065
1773522031853630000,12.3956298828125,-0.1127951890528202,-0.13754413812309502,-0.11801321596205235
1773522031863668200,12.405668212890625,-0.3209615541487932,0.04139408666193485,-0.07715162874162197
1773522031873707000,12.41570703125,-0.43269744340702887,0.2121156872436404,-0.08245616489052772
1773522031883745300,12.425745361328126,-0.45847266678512094,0.338910760076344,-0.08262859884798526
1773522031893783000,12.435782958984374,-0.4345926095038652,0.4013458812013268,-0.0642272652387619
1773522031903822000,12.445822021484375,-0.3695644031457603,0.39121348650455473,-0.058442252096533774
1773522031913860000,12.455860107421875,-0.32391865038871764,0.3454854622915387,-0.07054711591005325
1773522031923898000,12.465898193359376,-0.25371158008798955,0.2660527368754148,-0.08790916959941386
1773522031933937200,12.475937255859375,-0.220012870234251,0.17423136226832867,-0.08299977024793624
1773522031943975200,12.48597509765625,-0.17399989160001278,0.0972080360814929,-0.08539455642998219
1773522031954013200,12.49601318359375,-0.09847557179927825,0.05172200393080711,-0.0887619870364666
1773522031964052200,12.50605224609375,-0.00180208098590374,0.05183978509157896,-0.16317337715923785
1773522031974090000,12.516090087890625,0.10574410149753093,0.041213177137076853,-0.2610176653176546
1773522031984128300,12.526128173828125,0.17308043866753578,0.00916764131784439,-0.3522147705465555
1773522031994167000,12.5361669921875,0.1411361712656915,-0.01414601425230503,-0.3754769881904125
