time,seconds_elapsed,z,y,x
1773522019546601500,0.0886015625,-9.138740217530726,-3.3855519541084766,1.091717159390822
1773522019556639500,0.098639404296875,-9.102650082495808,-3.433545000644028,1.2340652637295424
1773522019566677500,0.108677490234375,-9.070022070613502,-3.462729886335134,1.3836873776592313
1773522019576715500,0.118715576171875,-9.053807433393597,-3.4614272793039675,1.489120513511449
1773522019586754600,0.128754638671875,-9.059176851472259,-3.424770450296998,1.540339244095236
1773522019596792600,0.13879248046875,-9.080202688366175,-3.355070598866045,1.5696508249059318
1773522019606830600,0.14883056640625,-9.097249100235103,-3.2684710505604744,1.6515246598638593
1773522019616869400,0.158869384765625,-9.097715548703073,-3.1795076957330104,1.814577333252877
1773522019626907600,0.16890771484375,-9.081434275987744,-3.0947730645164846,2.0298568913549184
1773522019636945400,0.1789453125,-9.059065792313218,-3.0184903275638817,2.2343732095107436
1773522019646984700,0.188984619140625,-9.042298197385668,-2.9453052643656727,2.3942449147760865
1773522019657022500,0.1990224609375,-9.023126463925838,-2.8727140754073854,2.549722476735711
1773522019667060700,0.209060791015625,-8.991424334716797,-2.803439755912125,2.7322867830634117
1773522019677098500,0.219098388671875,-8.955317248547077,-2.7365523315533995,2.912723721973598
1773522019687137500,0.229137451171875,-8.935611262080073,-2.6675188350766894,3.03472863792032
1773522019697175600,0.239175537109375,-8.946661063882708,-2.5985192408695816,3.0619167968362566
1773522019707213600,0.249213623046875,-8.987640724524855,-2.540257606036961,2.989948123690486
1773522019717252600,0.259252685546875,-9.049971800753474,-2.5000223340213297,2.8316581346586345
1773522019727290600,0.26929052734375,-9.122830700737238,-2.478222297884524,2.6082103215396404
1773522019737328600,0.27932861328125,-9.189922707757352,-2.472509180934727,2.3669401437431574
1773522019747366400,0.289366455078125,-9.2369270355165,-2.4828128405451775,2.164533657348156
1773522019757405400,0.299405517578125,-9.269327668383717,-2.5022026006698606,1.9972318020820616
1773522019767443700,0.309443603515625,-9.292544877842069,-2.5229347153142094,1.8584397097244858
1773522019777481500,0.3194814453125,-9.309425870016216,-2.5401690509706736,1.7471454267539084
1773522019787520800,0.329520751953125,-9.32124198001623,-2.555465112040937,1.6596460069991648
1773522019797558500,0.33955859375,-9.34140681616664,-2.5511335125774144,1.54926489335075
1773522019807596500,0.349596435546875,-9.371818905565142,-2.5112775952681896,1.4257912200257181
1773522019817635600,0.359635498046875,-9.399119000422955,-2.4486716476209462,1.353127258092165
1773522019827673300,0.36967333984375,-9.4198087372303,-2.3695865665987133,1.3500554494313894
1773522019837711600,0.379711669921875,-9.43566038635671,-2.271309878372401,1.407071468117088
1773522019847749400,0.389749267578125,-9.447755897819995,-2.1533726502560078,1.50774075056836
1773522019857788700,0.39978857421875,-9.456430787184834,-2.0217349596977234,1.630611051172763
1773522019867826400,0.409826416015625,-9.461514374059439,-1.8925655589491128,1.7516640732221305
1773522019877864700,0.41986474609375,-9.461858072930573,-1.7827777350187302,1.8615401599578558
1773522019887903500,0.429903564453125,-9.457359007945657,-1.7065138488970697,1.953601773061603
1773522019897941500,0.43994140625,-9.449199666887521,-1.6718417639665304,2.021869107471406
1773522019907979500,0.4499794921875,-9.439228307971359,-1.6788072190649805,2.062269214659929
1773522019918017500,0.460017578125,-9.42885362895131,-1.719402264303714,2.076235926822573
1773522019928056600,0.470056640625,-9.420083462518454,-1.780788460897654,2.0642687179140746
1773522019938094600,0.480094482421875,-9.417022905904053,-1.8536039601311087,2.0135088370136915
1773522019948132600,0.490132568359375,-9.420605440565943,-1.9339103996418416,1.9190011459320782
1773522019958171600,0.500171630859375,-9.42771848744154,-2.020507025337964,1.7905477844983337
1773522019968209400,0.51020947265625,-9.434127185440063,-2.1111663704283536,1.6463913886286317
1773522019978247700,0.52024755859375,-9.437930669376254,-2.200620139121264,1.5010411067992449
1773522019988286500,0.530286376953125,-9.439552717620133,-2.281394488404691,1.3639904512815177
1773522019998324700,0.54032470703125,-9.439725736099481,-2.3494727299831806,1.2417498268827796
1773522020008362500,0.550362548828125,-9.439666114866734,-2.4055077748075124,1.129875771262869
1773522020018400500,0.560400390625,-9.439896416491269,-2.4524814151674508,1.021798112251237
1773522020028439600,0.570439453125,-9.439580190148948,-2.493781393805146,0.9196534965503961
1773522020038477300,0.580477294921875,-9.438229360061884,-2.530464526297152,0.8288274896562099
1773522020048515600,0.590515625,-9.436161906138063,-2.5603262883365154,0.7576003555927425
1773522020058554600,0.6005546875,-9.434771913084386,-2.576955351576209,0.7174724894743413
1773522020068592600,0.610592529296875,-9.434957206523418,-2.5761206543177364,0.7180339227493852
1773522020078630400,0.62063037109375,-9.436455920648575,-2.560362236432731,0.7538084159638733
1773522020088669400,0.63066943359375,-9.43952232248187,-2.5354291629672048,0.7983717803116888
1773522020098707500,0.64070751953125,-9.443647293457389,-2.5100544832140206,0.8291797371599823
1773522020108745500,0.650745361328125,-9.446327910843491,-2.495543727302551,0.8423380555491894
1773522020118784500,0.660784423828125,-9.444375023210048,-2.4999258879095314,0.8511934160474687
1773522020128822500,0.670822509765625,-9.436503851443529,-2.523039929254353,0.8700847981959581
1773522020138860500,0.680860595703125,-9.424501863482593,-2.5574784976899623,0.899137143548578
1773522020148898600,0.690898681640625,-9.41164121286571,-2.595124045473337,0.9255924581453203
1773522020158937300,0.700937255859375,-9.399930901327728,-2.6329768062666057,0.9376152696985751
1773522020168976000,0.710975830078125,-9.390181660729645,-2.670605110654235,0.9288372122202068
1773522020179014000,0.721013916015625,-9.383024190190435,-2.7063535926446316,0.8971605827786028
1773522020189053000,0.731052978515625,-9.3786846996814,-2.7386449199184772,0.8429040919341146
1773522020199091000,0.741091064453125,-9.37601927986443,-2.7678032098636027,0.7745376079987734
1773522020209129000,0.75112890625,-9.373440953809022,-2.7947642820253966,0.7058896037083119
1773522020219168000,0.76116796875,-9.370258816641568,-2.8196365652143953,0.6467479711707681
1773522020229205800,0.771205810546875,-9.366584512043,-2.842429411780834,0.5983933247812092
1773522020239244000,0.781244140625,-9.362822529160976,-2.863759200057387,0.5539198672065511
1773522020249282800,0.79128271484375,-9.358707495057581,-2.8857950907766816,0.5071127059873193
1773522020259321000,0.801321044921875,-9.353609879657625,-2.911191690100729,0.45313214600738133
1773522020269358800,0.81135888671875,-9.346791431814431,-2.9422566904500127,0.3885804345872253
1773522020279396900,0.82139697265625,-9.337684580773114,-2.979563215537369,0.3165910839796066
1773522020289436000,0.831435791015625,-9.326407399955391,-3.0212790814995762,0.24573782472983002
1773522020299473700,0.8414736328125,-9.314273894569277,-3.062857877078652,0.18328135028956458
1773522020309512000,0.851511962890625,-9.303028277933597,-3.0996631746456025,0.1270252374599222
1773522020319551000,0.861551025390625,-9.293900384104251,-3.128795161105692,0.06666414156344252
1773522020329589000,0.871589111328125,-9.2863314101547,-3.151891959054768,-0.0036777503665260153
1773522020339626800,0.881626708984375,-9.278547916671632,-3.1737016398027538,-0.08093354016682133
1773522020349665800,0.891665771484375,-9.269483151206373,-3.1973528567641973,-0.15493603896144775
1773522020359703800,0.901703857421875,-9.26065044093132,-3.2195807629242537,-0.21222650894066317
1773522020369741800,0.911741943359375,-9.254989930951595,-3.2338392976403236,-0.24046751964408902
1773522020379780900,0.92178076171875,-9.254986423820256,-3.233978413850069,-0.2387454998907633
1773522020389819000,0.93181884765625,-9.261611394917965,-3.2162200543195008,-0.22106404152130707
1773522020399857000,0.94185693359375,-9.273471344059706,-3.1827152596026655,-0.20842218475425614
1773522020409896000,0.95189599609375,-9.286956264054774,-3.142902304652333,-0.21210891044298186
1773522020419933700,0.96193359375,-9.297923063749074,-3.108800713086128,-0.23318585646962744
1773522020429972000,0.971971923828125,-9.303331644794344,-3.089743838177621,-0.2681160991460085
1773522020440009700,0.982009765625,-9.301667510974406,-3.090745708696544,-0.3108990828830749
1773522020450049000,0.992049072265625,-9.292346140399575,-3.1139246319711207,-0.35519765881486237
1773522020460086800,1.002086669921875,-9.276621917045116,-3.1553274864614007,-0.39822099064644423
1773522020470125000,1.012125,-9.25712226680517,-3.206990161420405,-0.43735641166139394
1773522020480163800,1.022163818359375,-9.23741335772872,-3.2586025674968955,-0.471262224927172
1773522020490201900,1.032201904296875,-9.220473328843712,-3.3014284405276175,-0.5038153449423611
1773522020500240000,1.042239990234375,-9.207589297351241,-3.3316458841368553,-0.5392718582488596
1773522020510279000,1.05227880859375,-9.197498111447691,-3.3529818098932505,-0.5778583401441574
1773522020520317000,1.06231689453125,-9.188234608539938,-3.3710508428081867,-0.6186624250236898
1773522020530355000,1.07235498046875,-9.178747818270326,-3.3888661932229995,-0.6607255700536072
1773522020540393700,1.082393798828125,-9.168850693634152,-3.407368941380083,-0.701709979936108
1773522020550432000,1.092431884765625,-9.158587073773145,-3.4271968006610867,-0.7382330995608121
1773522020560469800,1.1024697265625,-9.148231099453568,-3.448289857572317,-0.7678180904854088
1773522020570509000,1.112509033203125,-9.138089644667506,-3.4702325170502064,-0.7894243576157838
1773522020580546800,1.122546875,-9.12903364703059,-3.4915082370519634,-0.8003107855502516
1773522020590584800,1.132584716796875,-9.121659318870305,-3.51099473554939,-0.7991423993580042
1773522020600623900,1.142623779296875,-9.116108699005842,-3.528082063950598,-0.7871344931129366
1773522020610662000,1.152661865234375,-9.112154992944001,-3.542694526670873,-0.7670270131729543
1773522020620700000,1.162699951171875,-9.109003250914812,-3.5560189954072237,-0.742408558614552
1773522020630737700,1.172737548828125,-9.10619111610353,-3.5685666345521807,-0.7162390752218664
1773522020640777000,1.18277685546875,-9.103885761770606,-3.5796669974982738,-0.6896571385707706
1773522020650814700,1.192814697265625,-9.102339116850494,-3.5881191840231415,-0.6657405486714094
1773522020660853000,1.20285302734375,-9.101239631175995,-3.594103519129753,-0.6482634172350168
1773522020670891800,1.212891845703125,-9.099609399625658,-3.5995933487176894,-0.6406391329016536
1773522020680929800,1.2229296875,-9.096773299416899,-3.605841595457494,-0.6457608598295599
1773522020690967800,1.2329677734375,-9.092557143026589,-3.613087328802049,-0.6643672144915909
1773522020701006800,1.2430068359375,-9.086482791548967,-3.622728725111484,-0.6942980231791734
1773522020711044900,1.253044921875,-9.078024175283312,-3.6364492074280976,-0.7321870973948389
1773522020721083000,1.263082763671875,-9.067355481752752,-3.655109776495397,-0.7704683127332478
1773522020731121700,1.27312158203125,-9.05600289761126,-3.6771444981709123,-0.79862590120323
1773522020741160000,1.283159912109375,-9.046101096799969,-3.6983234797999263,-0.8129206032112241
1773522020751197700,1.29319775390625,-9.039128335177898,-3.7148163494393227,-0.8152780530575663
1773522020761237000,1.303237060546875,-9.035994128805399,-3.7240953421771525,-0.8076600523345172
1773522020771274800,1.313274658203125,-9.036429597613214,-3.726240537512302,-0.7927545980170368
1773522020781313000,1.32331298828125,-9.039760203340649,-3.7222917998865244,-0.7730855825595557
1773522020791351800,1.333351806640625,-9.045288611373305,-3.713789344479143,-0.7489381795790045
1773522020801389800,1.343389892578125,-9.052015873801707,-3.7026083175122735,-0.7225525692176074
1773522020811427800,1.353427734375,-9.058983374726772,-3.690378073753416,-0.6973601141635328
1773522020821467000,1.363466796875,-9.065088705864548,-3.6793680194392797,-0.6758712628677487
1773522020831505000,1.3735048828125,-9.069769557157159,-3.6706633194580673,-0.6602239041417837
1773522020841543000,1.38354296875,-9.073392423829436,-3.6631674107447263,-0.6520245963994413
1773522020851581700,1.393581787109375,-9.076018096157908,-3.656896075390279,-0.6506879409682005
1773522020861620000,1.403619873046875,-9.077628453963994,-3.652416884149611,-0.6533744035732001
1773522020871657700,1.41365771484375,-9.07797273735702,-3.6507241087570783,-0.658035746447742
1773522020881697000,1.423697021484375,-9.076911830127239,-3.6527974078997967,-0.6611537323378026
1773522020891734800,1.43373486328125,-9.075458124187588,-3.6569340693131087,-0.6582335340421647
1773522020901773000,1.44377294921875,-9.07485957377255,-3.659814885446429,-0.650431993445754
1773522020911811800,1.453811767578125,-9.076246644216775,-3.6578240038901564,-0.6422264020930976
1773522020921849900,1.463849853515625,-9.080204441931842,-3.6489912936151025,-0.6365007909879088
1773522020931887900,1.473887939453125,-9.08638576091528,-3.63390829077363,-0.6345775678403676
1773522020941926000,1.48392578125,-9.093405284288526,-3.6158521173402667,-0.6371626158975064
1773522020951965000,1.49396484375,-9.099701169562339,-3.5986136900305747,-0.6448308124378324
1773522020962002700,1.504002685546875,-9.104200819069147,-3.5849396772041913,-0.657359600751847
1773522020972041000,1.514041015625,-9.10712284399569,-3.5746450776830314,-0.672766428720206
1773522020982080000,1.524080078125,-9.109652654734253,-3.5654242448732254,-0.6872826645243912
1773522020992117800,1.53411767578125,-9.1133509247303,-3.55412397544086,-0.6967229122385382
1773522021002155800,1.54415576171875,-9.119350457406043,-3.538483338716626,-0.697827366349101
1773522021012194800,1.55419482421875,-9.127887399604916,-3.517735149720311,-0.6910838834382593
1773522021022232800,1.56423291015625,-9.138414054316282,-3.492570313325524,-0.679502385911718
1773522021032270800,1.574270751953125,-9.149930304586887,-3.4653123040437697,-0.6639053691335022
1773522021042310000,1.584309814453125,-9.161741153889894,-3.437580247509479,-0.6449192213736474
1773522021052348000,1.594347900390625,-9.173597011378407,-3.40979032330811,-0.6235637871991843
1773522021062386000,1.604385986328125,-9.185337133532762,-3.381907167865336,-0.6022233679307625
1773522021072425000,1.614425048828125,-9.196254833388329,-3.355485317146778,-0.5830962042650207
1773522021082462700,1.624462646484375,-9.205475666198135,-3.3330811776369806,-0.5658350171342492
1773522021092501000,1.6345009765625,-9.21208368616104,-3.3175811184272166,-0.5491342038325965
1773522021102539800,1.644539794921875,-9.215845669043064,-3.31004926161766,-0.5311759378157556
1773522021112577800,1.654577880859375,-9.217371855697035,-3.309065219016373,-0.5104132088374346
1773522021122615800,1.66461572265625,-9.217691589170693,-3.311499460425973,-0.48837841409668326
1773522021132654800,1.67465478515625,-9.218374895259737,-3.3128391845971343,-0.4658815913347527
1773522021142692900,1.68469287109375,-9.221080647087097,-3.309092983806133,-0.438140036319755
1773522021152731000,1.69473095703125,-9.226959183731674,-3.2976597356438635,-0.39880909273270515
1773522021162770000,1.70477001953125,-9.23640505746901,-3.2774873007088896,-0.34246472623087465
1773522021172807700,1.7148076171875,-9.249692409065366,-3.246856600123644,-0.26738977589914575
1773522021182846000,1.724845947265625,-9.266703165099024,-3.2046067734152075,-0.17056719547128305
1773522021192884700,1.734884765625,-9.286210414123534,-3.1518758847028017,-0.04858524484161753
1773522021202922800,1.7449228515625,-9.305871392405033,-3.0921234267905353,0.0995691574559547
1773522021212960800,1.754960693359375,-9.32226840045452,-3.0316587289556858,0.2733903132218867
1773522021222999800,1.764999755859375,-9.33224794267714,-2.976609334167838,0.4683210934413597
1773522021233037800,1.775037841796875,-9.333909153887628,-2.9299755932867524,0.6810053378205746
1773522021243075800,1.785075927734375,-9.325617710882424,-2.8896988202169536,0.9235179168935864
1773522021253114600,1.795114501953125,-9.303037045761942,-2.8521710535943505,1.2202494312796741
1773522021263153000,1.80515283203125,-9.2560835714072,-2.814664914281666,1.6040448235474527
1773522021273190700,1.815190673828125,-9.177854084300995,-2.7651746149256824,2.071519127433747
1773522021283230000,1.82522998046875,-9.075437665921449,-2.684790287873149,2.5687963027790186
1773522021293267700,1.835267822265625,-8.957822509366274,-2.5693027909964323,3.0539293052136895
1773522021303306000,1.845305908203125,-8.824212495821714,-2.4295972370557486,3.521464983898401
1773522021313344800,1.8553447265625,-8.672255509203671,-2.2772332770720123,3.971973832197487
1773522021323382800,1.8653828125,-8.517938807716964,-2.12246970860064,4.371524646675587
1773522021333420800,1.8754208984375,-8.358581189453602,-1.9907292883202432,4.726680731371045
1773522021343459800,1.8854599609375,-8.169970004177094,-1.8935175989769397,5.082967865923047
1773522021353497900,1.895497802734375,-7.978741329878568,-1.8084720021151006,5.4073558873891825
1773522021363536000,1.905535888671875,-7.799596476605534,-1.7188031293667851,5.690553235810995
1773522021373574700,1.91557470703125,-7.622381130090355,-1.6187043402798473,5.953946398088336
1773522021383613000,1.925613037109375,-7.441461083838343,-1.5075651017405092,6.206632872912287
1773522021393650700,1.935650634765625,-7.245664955493807,-1.3915037504985928,6.460220095968246
1773522021403690000,1.94568994140625,-7.024654306393861,-1.2799736129455268,6.7220742121100425
1773522021413727700,1.955727783203125,-6.783806153401732,-1.1786872215092181,6.982911844685673
1773522021423766000,1.96576611328125,-6.538125173425674,-1.0901251409590245,7.227374096521735
1773522021433804800,1.9758046875,-6.3215527990341185,-1.0161712122801692,7.42803870768547
1773522021443842800,1.9858427734375,-6.211697755086422,-0.9569526420488953,7.527910702279209
1773522021453880800,1.995880859375,-6.232282862475514,-0.8885079052455723,7.519281405621767
1773522021463919900,2.005919921875,-6.317644101157784,-0.7956638365272433,7.458195361018181
1773522021473958000,2.0159580078125,-6.407565779623389,-0.6919522637706249,7.391528301411867
1773522021483995600,2.02599560546875,-6.49221682420969,-0.5946716008443385,7.32583622431755
1773522021494034700,2.03603466796875,-6.570873012295365,-0.5172824370197951,7.261297408911585
1773522021504073000,2.046072998046875,-6.652279960393905,-0.4568523355742916,7.190885902079939
1773522021514110700,2.05611083984375,-6.744273768958449,-0.40228834968321026,7.1079755636811255
1773522021524150000,2.06614990234375,-6.842791426333784,-0.3499464602883905,7.015990522944927
1773522021534187800,2.076187744140625,-6.95065383515954,-0.3016004173303954,6.911427155664563
1773522021544225800,2.086225830078125,-7.063842407444119,-0.2614756930171512,6.797362969589233
1773522021554264800,2.096264892578125,-7.1741083702802655,-0.2340108543179929,6.681900022631884
1773522021564302600,2.106302490234375,-7.276870825618505,-0.21250549027882515,6.570569060912728
1773522021574340900,2.1163408203125,-7.372309221678972,-0.17996395110357552,6.464290706408024
1773522021584379600,2.126379638671875,-7.465735693395137,-0.12617508690399118,6.3574570561081165
1773522021594418000,2.13641796875,-7.555648604032397,-0.04488950929595157,6.25144349001944
1773522021604455700,2.14645556640625,-7.63613609919846,0.06602663367777131,6.152679164406657
1773522021614494700,2.15649462890625,-7.703049242520332,0.20075983343282713,6.065732117837667
1773522021624532700,2.16653271484375,-7.757650601279735,0.35543501123469323,5.988564707005024
1773522021634570800,2.17657080078125,-7.805107933503389,0.5304063051501289,5.913488715493679
1773522021644609800,2.18660986328125,-7.846250091230869,0.7227856473211198,5.838178915226459
1773522021654647800,2.196647705078125,-7.883228115016221,0.9362037224002182,5.757483330267667
1773522021664685800,2.206685791015625,-7.9153487618982785,1.1879547430049626,5.666251153725385
1773522021674724900,2.216724853515625,-7.93177674960792,1.4926618393801152,5.570391901904344
1773522021684762600,2.2267626953125,-7.9194059283345934,1.8479652235917745,5.480730920201539
1773522021694801000,2.23680078125,-7.874668960985541,2.236458345221728,5.399835428756475
1773522021704839700,2.246839599609375,-7.795656799069047,2.649405670759082,5.327172928127646
1773522021714878000,2.2568779296875,-7.6782281049966805,3.079745883515477,5.265961795839667
1773522021724915700,2.266915771484375,-7.5255673540234564,3.527410448299348,5.205150476524233
1773522021734954800,2.276954833984375,-7.344115977373718,3.9770661869004367,5.139774625772238
1773522021744992800,2.28699267578125,-7.143350243923067,4.414155289395153,5.065388370090723
1773522021755030800,2.29703076171875,-6.927083574479818,4.833525195325911,4.9822623431146145
1773522021765069800,2.30706982421875,-6.693038671761751,5.229605703344941,4.90151532022953
1773522021775107800,2.31710791015625,-6.449315840116143,5.605483089029788,4.811992577953636
1773522021785145900,2.327145751953125,-6.203751764518022,5.953581656429171,4.715794887958467
1773522021795185000,2.337184814453125,-5.95759381467998,6.257675077885389,4.638853102575243
1773522021805222700,2.34722265625,-5.69777967993319,6.525575488454103,4.595928153084218
1773522021815261000,2.357260986328125,-5.396717004474997,6.770187377893924,4.605474564586579
1773522021825299700,2.3672998046875,-5.032637024089694,6.994509343498945,4.681856670260429
1773522021835338000,2.377337890625,-4.602504316604137,7.192447744569182,4.822451720386743
1773522021845375700,2.387375732421875,-4.126055263623595,7.354497670656442,5.0057379112482066
1773522021855414800,2.397414794921875,-3.64025824432224,7.469455006179213,5.208275915068388
1773522021865452800,2.407452880859375,-3.1833143945395945,7.529985754987597,5.416292058038711
1773522021875490800,2.41749072265625,-2.7787326001569626,7.5349091828644275,5.627982505607605
1773522021885529900,2.42752978515625,-2.432960576009005,7.485962488865852,5.849058036637306
1773522021895568000,2.43756787109375,-2.1393545001670717,7.384612822934985,6.087778529950976
1773522021905606000,2.44760595703125,-1.8877740868888795,7.239846040081978,6.339663040742278
1773522021915645000,2.45764501953125,-1.66852284867689,7.064517530226707,6.593861089172959
1773522021925682700,2.4676826171875,-1.472576936598122,6.869252732279897,6.842167741477489
1773522021935720700,2.477720703125,-1.2860181538067756,6.658128686422109,7.084197797730565
1773522021945759700,2.487759765625,-1.108947257263586,6.430572561201453,7.320406015962362
1773522021955797800,2.4977978515625,-0.971439944019541,6.190311268186569,7.543656552943587
1773522021965835800,2.507835693359375,-0.9013896717157215,5.945510578176379,7.746535333025455
1773522021975874800,2.517874755859375,-0.8808798215199262,5.734262613677978,7.906495008835196
1773522021985912800,2.527912841796875,-0.9152242088660597,5.572215610200167,8.01767867103815
1773522021995950600,2.53795068359375,-0.997712814721465,5.439589346995949,8.09850752698779
1773522022005990000,2.547989990234375,-1.1187024892110378,5.320671875670552,8.161454689288139
1773522022016027600,2.558027587890625,-1.2664390085898338,5.20372015146017,8.215097432148456
1773522022026066000,2.56806591796875,-1.4231890747033058,5.080400645783543,8.266465215814113
1773522022036104700,2.578104736328125,-1.5594523792356252,4.9338352890759705,8.330411326023937
1773522022046142700,2.588142822265625,-1.6679209372609853,4.761540740089118,8.409289047905803
1773522022056180700,2.5981806640625,-1.7661736600898206,4.568642963534593,8.495793611404299
1773522022066219800,2.6082197265625,-1.8646013010941445,4.365772951281071,8.5810057970047
1773522022076257800,2.6182578125,-1.9603576770626008,4.1543762259617445,8.664210149914025
1773522022086295800,2.6282958984375,-2.053448925475031,3.9319375898852944,8.746062503692507
1773522022096334600,2.63833447265625,-2.1527435585722325,3.698476624535024,8.823682334467769
1773522022106372900,2.648372802734375,-2.2678208672128615,3.4636879177123308,8.889895220565796
1773522022116410600,2.65841064453125,-2.3924917874984444,3.2343823184758422,8.943440348270535
1773522022126450000,2.668449951171875,-2.5099089372634884,3.008791648109257,8.989878274318576
1773522022136487700,2.67848779296875,-2.6189021036848423,2.7759692729234695,9.033589405751227
1773522022146526000,2.68852587890625,-2.7410864678516984,2.529268594510853,9.06970935140252
1773522022156564700,2.698564697265625,-2.896075954033434,2.277283692084998,9.088295393928885
1773522022166606000,2.708606201171875,-3.0906112686619163,2.024970142226666,9.083941290372609
1773522022176644400,2.718644287109375,-3.3079248168095945,1.77877273716107,9.058916739231348
1773522022186683100,2.72868310546875,-3.530178451707959,1.5555273147463797,9.016016339659691
1773522022196721400,2.738721435546875,-3.73167249943316,1.3585033981725572,8.96657572466433
1773522022206759200,2.74875927734375,-3.8856586537912485,1.1890161616913975,8.925148904776572
1773522022216798200,2.758798095703125,-3.9923058416083452,1.056100706282258,8.894747336772083
1773522022226836200,2.768836181640625,-4.066049707733095,0.9591226795643567,8.87230052716434
1773522022236874200,2.778874267578125,-4.125832853044569,0.8937554505102336,8.85150206928551
1773522022246913300,2.788913330078125,-4.208663988727331,0.8416916474044323,8.81754427010417
1773522022256951300,2.798951416015625,-4.32453902361691,0.7777057166408747,8.767207583051919
1773522022266989300,2.8089892578125,-4.481858998572826,0.7006724535819142,8.694388430556655
1773522022277028400,2.8190283203125,-4.686004145328701,0.6095418377179652,8.593032334885
1773522022287066000,2.829066162109375,-4.895820031197369,0.5017263367738575,8.4823104449749
1773522022297104400,2.8391044921875,-5.0820326308995485,0.3869627702575177,8.378160919192434
1773522022307143200,2.84914306640625,-5.2211301359444855,0.27946961486926303,8.296510809987783
1773522022317181400,2.859181396484375,-5.302291000327467,0.20051804229989648,8.247174824410676
1773522022327220200,2.86922021484375,-5.351182164746523,0.1644314143963158,8.216337787598372
1773522022337258200,2.87925830078125,-5.39152645009458,0.17007113731633872,8.189805754503608
1773522022347296300,2.889296142578125,-5.427368747848272,0.21068390087485311,8.165150036674737
1773522022357335300,2.899335205078125,-5.450670128458738,0.2778853596188128,8.147598597893118
1773522022367373300,2.909373291015625,-5.461075787138938,0.35073465152401473,8.137814285981655
1773522022377411300,2.919411376953125,-5.461970690152048,0.390349928477779,8.135409562927483
1773522022387450000,2.9294501953125,-5.477444153615832,0.3794781135905534,8.125514191856979
1773522022397488400,2.93948828125,-5.5345186244905,0.34075211362671104,8.088471870663762
1773522022407526100,2.949526123046875,-5.6149049973696465,0.30876634517069906,8.034169787111878
1773522022417565400,2.9595654296875,-5.692747530984878,0.30733989256415517,7.9792580472290515
1773522022427603200,2.969603271484375,-5.742341290715337,0.327113464374654,7.9428522703737015
1773522022437641200,2.97964111328125,-5.740791138663887,0.32967177055533975,7.943867000374198
1773522022447680300,2.98968017578125,-5.693553586670756,0.2576440606987104,7.980441704055666
1773522022457718000,2.999718017578125,-5.627926391506195,0.10861594887310638,8.030257582104205
1773522022467756300,3.00975634765625,-5.547917619767785,-0.10154425692120567,8.085832754331827
1773522022477795300,3.01979541015625,-5.4517474023014305,-0.34683187193181364,8.144233505374192
1773522022487833300,3.029833251953125,-5.34068648969531,-0.6046897945769131,8.202547747176885
1773522022497871000,3.03987109375,-5.23305730510354,-0.8558142807811498,8.249428740817308
1773522022507910100,3.04991015625,-5.144112362715601,-1.0702576803199946,8.280280975198746
1773522022517948200,3.0599482421875,-5.084433846822381,-1.2365284389726816,8.293968139767646
1773522022527986200,3.069986083984375,-5.074150353217124,-1.3448540813960135,8.283401737567782
1773522022538025200,3.080025146484375,-5.1293403255194425,-1.4089358006842434,8.238637882211805
1773522022548063200,3.090063232421875,-5.249680523124337,-1.4527635442338882,8.154798154008388
1773522022558101200,3.100101318359375,-5.40702563252151,-1.4935380376927554,8.043868174305558
1773522022568140300,3.110140380859375,-5.5620922755926845,-1.5309437853708863,7.93030492348969
1773522022578178000,3.120177978515625,-5.693288213732838,-1.5620592007331549,7.830505994132161
1773522022588216300,3.13021630859375,-5.784888054543734,-1.5870786373078822,7.758004821544885
1773522022598255000,3.140255126953125,-5.840622801247239,-1.6125089927710592,7.710857285922765
1773522022608293400,3.15029345703125,-5.86141541390717,-1.658883644324541,7.685199113053083
1773522022618332200,3.160332275390625,-5.866109709203243,-1.745052399997413,7.662502128076553
1773522022628370200,3.1703701171875,-5.883628414759039,-1.8703567958809435,7.61938720897138
1773522022638408200,3.180408203125,-5.906593110761046,-2.004203540790826,7.56741093801856
1773522022648447200,3.190447265625,-5.924834285372495,-2.1064672528266906,7.525258726465702
1773522022658485200,3.2004853515625,-5.938447215661406,-2.1649355161473154,7.497885566371679
1773522022668523300,3.210523193359375,-5.943479364609718,-2.196262966825068,7.484775909429788
1773522022678562000,3.22056201171875,-5.941258181428909,-2.218454924888909,7.479993351328373
1773522022688600300,3.230600341796875,-5.937046701213717,-2.2308815680027005,7.479640884628892
1773522022698638000,3.24063818359375,-5.928912494596839,-2.206237394481152,7.493390593039989
1773522022708677400,3.250677490234375,-5.929349716970324,-2.134155324088782,7.513892113798856
1773522022718715100,3.260715087890625,-5.951911677390337,-2.0312790331125257,7.524562560895085
1773522022728753400,3.27075341796875,-6.0153334714651105,-1.9052353631690144,7.50707775760889
1773522022738792200,3.280792236328125,-6.122130881407856,-1.744174886510521,7.459742590460181
1773522022748830200,3.290830322265625,-6.280065188869834,-1.5414045352391899,7.3726008981019255
1773522022758868200,3.3008681640625,-6.490238217613101,-1.301469113177806,7.235563248196244
1773522022768907300,3.3109072265625,-6.719674749752879,-1.0244826020948588,7.068719658091664
1773522022778945300,3.3209453125,-6.9464148824155325,-0.7082520950559527,6.885933817967772
1773522022788983300,3.3309833984375,-7.167009936451912,-0.3632293549053371,6.683743020150065
1773522022799022000,3.34102197265625,-7.351513686409592,-0.02960501308260718,6.4903580446004865
1773522022809060400,3.351060302734375,-7.463704479828476,0.2765391143753193,6.355078636538982
1773522022819098000,3.36109814453125,-7.5114564110845325,0.5490516401156783,6.280680690419674
1773522022829137400,3.371137451171875,-7.506116803622246,0.7918427438691258,6.261116742771864
1773522022839175200,3.381175048828125,-7.439961200669408,1.0003635484259574,6.31004239398241
1773522022849214200,3.391214111328125,-7.310310153883695,1.1704958048123866,6.4311500688284635
1773522022859252200,3.401252197265625,-7.1272793990880245,1.3180816636741162,6.605674276563525
1773522022869290200,3.411290283203125,-6.925466786932945,1.4588231365337967,6.788234491237998
1773522022879329300,3.421329345703125,-6.734960581690073,1.6060583553269505,6.944872913670539
1773522022889367300,3.4313671875,-6.57248687723279,1.7622556098632514,7.0616750002771616
1773522022899405300,3.4414052734375,-6.435508848559856,1.9274002870954572,7.144210075622796
1773522022909444400,3.4514443359375,-6.314073256933689,2.103285261789709,7.202711364430189
1773522022919482000,3.461482177734375,-6.211942085236311,2.282981757596135,7.236722355103493
1773522022929520000,3.47152001953125,-6.145804017940163,2.468978960981965,7.232124505919217
1773522022939559200,3.48155908203125,-6.123790923574567,2.669819805495441,7.179249824821949
1773522022949597400,3.491597412109375,-6.126200907325744,2.8705925532087684,7.099277293440699
1773522022959635200,3.50163525390625,-6.144249774235487,3.0735236479997634,6.998001861789822
1773522022969674200,3.51167431640625,-6.181055948585271,3.2999905166789887,6.861122032794356
1773522022979712300,3.521712158203125,-6.228315712410211,3.5661975673332806,6.6828668218374245
1773522022989750300,3.531750244140625,-6.253524387946724,3.856024855288863,6.49575961138308
1773522022999789300,3.541789306640625,-6.231404910597205,4.116951919713616,6.355366805830598
1773522023009827000,3.5518271484375,-6.224501122558117,4.320554630155861,6.225654384246468
1773522023019865300,3.561865234375,-6.280364464077353,4.42795205181837,6.092670978167653
1773522023029904400,3.571904296875,-6.4056982321858404,4.449343214893341,5.944808567386866
1773522023039942100,3.581942138671875,-6.562022181841731,4.410343622152507,5.801648050686716
1773522023049981400,3.5919814453125,-6.713026397779584,4.33418918775469,5.685109583452344
1773522023060019200,3.602019287109375,-6.838405174073577,4.247098641061783,5.60078119494915
1773522023070057200,3.61205712890625,-6.926760918396711,4.169060292613506,5.550612850201129
1773522023080096300,3.62209619140625,-6.977646471503377,4.114579637624323,5.527483319026231
1773522023090134000,3.632134033203125,-7.005420613613724,4.095272295086086,5.506650958877802
1773522023100172300,3.64217236328125,-7.024540324625373,4.1163931167870755,5.466399612510204
1773522023110211000,3.652211181640625,-7.0387903837740415,4.179893821316957,5.39947302518487
1773522023120249300,3.662249267578125,-7.035544533720612,4.28250020931065,5.322752189075946
1773522023130287000,3.672287109375,-7.011540557798742,4.411904003337026,5.248217464834451
1773522023140326100,3.682326171875,-6.97967359341681,4.549170493562519,5.17296728579998
1773522023150364200,3.6923642578125,-6.951936276185513,4.681313357163965,5.091784794107079
1773522023160402200,3.702402099609375,-6.932623088428378,4.805898937253653,5.001244691482186
1773522023170438000,3.71243798828125,-6.914680604502558,4.925080320212245,4.9092929684937
1773522023180475600,3.7224755859375,-6.886190423077345,5.038837632295489,4.833308922226727
1773522023190514000,3.732513916015625,-6.84348992999196,5.144851782906055,4.782000759793818
1773522023200552700,3.742552734375,-6.7878861161917445,5.243621953737735,4.753884380117058
1773522023210590700,3.7525908203125,-6.7164470198780295,5.337115645471215,4.751307515366375
1773522023220629800,3.762629638671875,-6.6318228632986544,5.41672226614952,4.780003740757704
1773522023230667800,3.772667724609375,-6.551165272262692,5.463707304686308,4.837409051021933
1773522023240705800,3.782705810546875,-6.501041935700178,5.47073325780034,4.896724286560714
1773522023250744800,3.792744873046875,-6.4902212664783,5.443015814313292,4.941759652334452
1773522023260782600,3.802782470703125,-6.497770366683602,5.396086889877915,4.983132696208357
1773522023270820900,3.81282080078125,-6.5114633764714,5.346347584196925,5.018744107815623
1773522023280859600,3.822859619140625,-6.530103779533505,5.303748213398456,5.039679928338527
1773522023290898000,3.83289794921875,-6.546335952410102,5.270123007172346,5.053877380517124
1773522023300935700,3.842935791015625,-6.562187017014622,5.243429061514139,5.0610810282856225
1773522023310974700,3.852974609375,-6.579568359926342,5.2224558315902945,5.060200153797864
1773522023321012700,3.8630126953125,-6.601032588237524,5.209582321491837,5.04549358305335
1773522023331050800,3.87305078125,-6.614798078739643,5.211340563336014,5.025611070975661
1773522023341089800,3.88308984375,-6.60930181941092,5.238797310060263,5.004250303038955
1773522023351127800,3.8931279296875,-6.5741966037601225,5.304869910904765,4.980830849006772
1773522023361166600,3.90316650390625,-6.496182805231213,5.406000965648889,4.974449623537064
1773522023371204900,3.913204833984375,-6.379023575749993,5.532175276234746,4.987332485985756
1773522023381243000,3.923242919921875,-6.248425018981099,5.664553702157735,5.004037537071109
1773522023391282000,3.933281982421875,-6.139981595396995,5.784977486392855,5.0005041022479535
1773522023401319700,3.943319580078125,-6.077690266656875,5.879570079278945,4.966157596009969
1773522023411357700,3.953357666015625,-6.080879418087005,5.9362219408273695,4.894340314033627
1773522023421396700,3.963396728515625,-6.160221834871172,5.94959404809773,4.777486497239768
1773522023431434800,3.973434814453125,-6.310474940180778,5.918796174252033,4.616939376930892
1773522023441472800,3.98347265625,-6.515649137723446,5.844975151237845,4.421875362253189
1773522023451511800,3.99351171875,-6.72314096455872,5.743091232299804,4.241069005508721
1773522023461549800,4.0035498046875,-6.907697321486473,5.636632845053076,4.0844186003774405
1773522023471587600,4.013587646484375,-7.095334108772874,5.5390597750514745,3.891714008307457
1773522023481626600,4.023626708984375,-7.2753610055774445,5.4655029559314245,3.6561975717321036
1773522023491664600,4.03366455078125,-7.427328513589501,5.429899143108726,3.3943151062786576
1773522023501703000,4.043702880859375,-7.5452634036183355,5.432032648006081,3.1196804190188643
1773522023511741700,4.05374169921875,-7.637533106514811,5.453574033206701,2.845522993882
1773522023521779700,4.06377978515625,-7.710639843779802,5.477798958402872,2.5903938020810484
1773522023531818800,4.07381884765625,-7.775574380505084,5.493181820973754,2.352824963020533
1773522023541856800,4.083856689453125,-7.8341054799288505,5.506362205064296,2.1159278857417405
1773522023551894800,4.093894775390625,-7.873542587304115,5.5310933262169355,1.8933369817130266
1773522023561933800,4.103933837890625,-7.881807142302393,5.576667328912019,1.7170583315260708
1773522023571971600,4.1139716796875,-7.856378102013468,5.651749750164151,1.5828554666548966
1773522023582009900,4.124009765625,-7.8054586466372005,5.7550990654796355,1.4574059632122516
1773522023592048600,4.134048583984375,-7.7465575448572634,5.868206389221549,1.3135444586358964
1773522023602086700,4.144086669921875,-7.69081870650053,5.961532323172688,1.2173040254775433
1773522023612124700,4.154124755859375,-7.634771240586042,6.0281900304287666,1.241607203541696
1773522023622163700,4.164163818359375,-7.570382062783837,6.07624415950179,1.392468357747048
1773522023632201700,4.17420166015625,-7.520465062448382,6.090972357556224,1.585261504883319
1773522023642239700,4.18423974609375,-7.500937355157732,6.07093027100265,1.7464629974476993
1773522023652278800,4.19427880859375,-7.496454656785726,6.036074646198749,1.881319065530598
1773522023662316800,4.20431689453125,-7.487023980617523,6.008225685286521,2.004017662829906
1773522023672355600,4.21435546875,-7.478825476592779,5.977627717927098,2.122623145596683
1773522023682393900,4.224393798828125,-7.4575588166803115,5.953022853502631,2.262016710978746
1773522023692431600,4.234431640625,-7.425179811123013,5.927247776255011,2.429985505720973
1773522023702470700,4.244470703125,-7.375711139076948,5.898055584040284,2.6423879009515043
1773522023712508700,4.2545087890625,-7.277330259823799,5.887369354853034,2.9239921349629756
1773522023722546700,4.264546630859375,-7.100122512093186,5.917504380875825,3.277466550181806
1773522023732585700,4.274585693359375,-6.855472044208645,5.969721474847197,3.679037764571607
1773522023742623700,4.284623779296875,-6.568654751724004,6.024206513750553,4.090487983419001
1773522023752661800,4.294661865234375,-6.253470611932873,6.078806703466177,4.4847064969584345
1773522023762700800,4.30470068359375,-5.924742515435814,6.123136259058118,4.855410279397666
1773522023772738800,4.31473876953125,-5.5957934696644545,6.148054427215457,5.201816363665461
1773522023782776800,4.32477685546875,-5.272946247899532,6.156718795186281,5.51916849514544
1773522023792815600,4.334815673828125,-4.967746911028027,6.1550078996151685,5.797219712850451
1773522023802854000,4.34485400390625,-4.6830628311797975,6.154906777328253,6.029629707843065
1773522023812892700,4.354892578125,-4.428127700646221,6.168720783147215,6.205558521679043
1773522023822930700,4.3649306640625,-4.2166538184374565,6.183790341985225,6.336477980965376
1773522023832968700,4.37496875,-4.029749437078833,6.197157773080468,6.444124116691946
1773522023843007700,4.3850078125,-3.8399887895062563,6.2179457095652815,6.539267329198122
1773522023853045800,4.395045654296875,-3.6554759794592857,6.246217279803752,6.617601445722579
1773522023863083800,4.405083740234375,-3.4921181856438515,6.277401522618532,6.676055972778797
1773522023873122800,4.415122802734375,-3.369231810687482,6.303212840223312,6.714771780142188
1773522023883160800,4.425160888671875,-3.2920740444660184,6.317043212655186,6.7400003294229505
1773522023893198800,4.43519873046875,-3.251538912720978,6.3155766472339625,6.76101973657608
1773522023903238000,4.44523779296875,-3.212640734528005,6.301002762958407,6.79313629180491
1773522023913275600,4.455275634765625,-3.158719759248197,6.27594957024455,6.841442349812388
1773522023923314000,4.46531396484375,-3.102252606616914,6.244776433345675,6.895590119585394
1773522023933352700,4.475352783203125,-3.058768561938405,6.214885152950883,6.941867302113771
1773522023943390700,4.485390625,-3.0249273748740553,6.195808112037182,6.9736763988286254
1773522023953429800,4.4954296875,-2.9921640461742878,6.188022280466556,6.9946928833723065
1773522023963467800,4.5054677734375,-2.953458760204911,6.191694831499457,7.007879697203636
1773522023973505800,4.515505859375,-2.889319465510547,6.205872994455695,7.022060782769322
1773522023983544800,4.525544921875,-2.8005688766509294,6.222932850328087,7.042891389352083
1773522023993582800,4.535582763671875,-2.7186177386730908,6.248968624338508,7.051943879857659
1773522024003620900,4.545620849609375,-2.6943589112073183,6.273949336338043,7.0390604328870765
1773522024013659600,4.55565966796875,-2.739648544003069,6.291681976905465,7.005672542548179
1773522024023698000,4.565697998046875,-2.8127231325641273,6.307625980490446,6.962244319710135
1773522024033735700,4.575735595703125,-2.8782167644768952,6.318866920951009,6.925184462860226
1773522024043774700,4.585774658203125,-2.939485764431953,6.3431181496322155,6.877111629086732
1773522024053812700,4.595812744140625,-3.0128871007293463,6.385764866703749,6.805504774990678
1773522024063850800,4.605850830078125,-3.1181738138481974,6.445809293299913,6.7006655133783815
1773522024073889800,4.615889892578125,-3.250007757630944,6.529377218824624,6.5555357424318785
1773522024083927600,4.625927490234375,-3.411083285728097,6.645776569849252,6.353624930599332
1773522024093966800,4.635966796875,-3.6114623579487204,6.794432176834344,6.0797536289274685
1773522024104004900,4.6460048828125,-3.8021325215816497,6.950930898535251,5.779163247156143
1773522024114043000,4.65604296875,-3.948215647730231,7.094443297412991,5.500077425706386
1773522024124082000,4.66608203125,-4.043505282969773,7.214743163007498,5.269527379366755
1773522024134119700,4.67611962890625,-4.140741083841026,7.318678753778338,5.045947756561636
1773522024144157700,4.68615771484375,-4.2737820653259755,7.41744658652246,4.784000993700325
1773522024154196700,4.69619677734375,-4.433514654381573,7.512065482893585,4.481428790462017
1773522024164234800,4.70623486328125,-4.62684526939541,7.565253467723727,4.1868402794539925
1773522024174272800,4.716272705078125,-4.854060910615325,7.538677010965347,3.972005688640475
1773522024184311800,4.726311767578125,-5.038397487312555,7.528154447907209,3.7565710861071944
1773522024194349800,4.736349853515625,-5.177800697305798,7.508308176186681,3.6036198277547955
1773522024204388900,4.746388916015625,-5.279543746468424,7.4817884180516,3.5099347051024434
1773522024214427000,4.756427001953125,-5.3341415980964895,7.46959236882329,3.452898520411551
1773522024224464600,4.766464599609375,-5.338213377580046,7.477128025025129,3.4302228704839943
1773522024234503700,4.776503662109375,-5.28048365766704,7.510313670790195,3.4470378116846083
1773522024244541700,4.786541748046875,-5.17380665923357,7.5538704884439705,3.5129981843262907
1773522024254579700,4.796579833984375,-5.040900410044193,7.608410472404956,3.5877296001836654
1773522024264618800,4.80661865234375,-4.892515144433081,7.681849218103289,3.6363261655703183
1773522024274656800,4.81665673828125,-4.729446396692097,7.7753318039208645,3.6533445203885435
1773522024284694800,4.82669482421875,-4.551586322532594,7.881784930470586,3.6511540246069427
1773522024294733800,4.83673388671875,-4.369318661063909,7.9930200305998325,3.6319527727916836
1773522024304771600,4.846771484375,-4.196144406633079,8.097659970247745,3.6042575411364433
1773522024314809900,4.856809814453125,-4.042408135382831,8.192674003416299,3.565025308683514
1773522024324848600,4.8668486328125,-3.9149113440215584,8.271129115971922,3.5259424215734003
1773522024334887000,4.876886962890625,-3.820709211757779,8.33040372723937,3.489545412546396
1773522024344925700,4.88692578125,-3.7638326015427706,8.369367956405878,3.4579794769376515
1773522024354963700,4.896963623046875,-3.738426649868488,8.392201719504595,3.4300855078399177
1773522024365001700,4.907001708984375,-3.732283324807882,8.408173780140281,3.3975080571010707
1773522024375040800,4.917040771484375,-3.725722943378985,8.42225725055039,3.3697108263760804
1773522024385078800,4.927078857421875,-3.709023445251584,8.436157181087136,3.353321709372103
1773522024395116800,4.93711669921875,-3.6898648635342717,8.448502283397316,3.343362333154678
1773522024405155600,4.947155517578125,-3.6818934462636705,8.457195292940735,3.330147462272644
1773522024415193900,4.95719384765625,-3.6920027523458003,8.46115718230903,3.3088235192149877
1773522024425231600,4.967231689453125,-3.712740419948101,8.459886431720852,3.288810658755898
1773522024435271000,4.97727099609375,-3.7324768015533683,8.453145725288987,3.2838010139003395
1773522024445308700,4.98730859375,-3.7453053034663197,8.441060735219716,3.300237769438326
1773522024455347000,4.997346923828125,-3.7563168190851806,8.42350462026298,3.3324227137282487
1773522024465385700,5.0073857421875,-3.7704634178593754,8.402873920166492,3.368338661240041
1773522024475423700,5.017423828125,-3.784343182390928,8.38187847841084,3.404883554305136
1773522024485462800,5.027462890625,-3.791946643131971,8.35821177161932,3.4542475969329476
1773522024495500800,5.037500732421875,-3.796874454922974,8.325864914765953,3.526202826075256
1773522024505538800,5.047538818359375,-3.800837805595994,8.285209079250693,3.616535715690255
1773522024515577900,5.057577880859375,-3.792946175563335,8.248625023218988,3.7073075812444087
1773522024525615600,5.06761572265625,-3.7674601443901654,8.222336735752224,3.7907556797817348
1773522024535654000,5.07765380859375,-3.721440151493251,8.205174588549136,3.8725159713625907
1773522024545692700,5.087692626953125,-3.660018591324985,8.192372390121221,3.9572324824005363
1773522024555731000,5.09773095703125,-3.5992350367993113,8.17922766186595,4.0393236133709545
1773522024565768700,5.107768798828125,-3.540933362217247,8.164611107492446,4.119622892488539
1773522024575807700,5.117807861328125,-3.4812466630175707,8.148494669950008,4.201588351252675
1773522024585845800,5.127845703125,-3.4217309364706274,8.130136006438732,4.285212683139741
1773522024595884800,5.137884765625,-3.365756243531406,8.10645527112186,4.373494777704775
1773522024605922800,5.1479228515625,-3.318529797454178,8.076080006602407,4.464826907490194
1773522024615960800,5.1579609375,-3.281457373383641,8.039039438974857,4.558099942210316
1773522024625999600,5.16799951171875,-3.2615424203410743,7.992915401181578,4.652529745750129
1773522024636038000,5.178037841796875,-3.2552234464526175,7.933076726290583,4.758172724960744
1773522024646075600,5.18807568359375,-3.2532223357632755,7.863432696700095,4.873742054902017
1773522024656115000,5.198114990234375,-3.249576964998245,7.791689064481854,4.990012518849968
1773522024666152700,5.208152587890625,-3.252630215089023,7.722274751994013,5.0948266460210085
1773522024676191000,5.21819091796875,-3.2594773045048115,7.661576245403289,5.181355174916982
1773522024686229800,5.228229736328125,-3.2833854188367724,7.601136682009696,5.254757680258154
1773522024696267800,5.238267822265625,-3.312789207975566,7.532875631210207,5.334003650930524
1773522024706306800,5.248306884765625,-3.3324811659172173,7.455228912428021,5.429964025038481
1773522024716344800,5.2583447265625,-3.342697147244215,7.377924138951301,5.52838114464879
1773522024726382800,5.2683828125,-3.367216086950898,7.305586632493138,5.6089785299301145
1773522024736422000,5.278421875,-3.4306367119818924,7.232822425055503,5.664573575901985
1773522024746459600,5.288459716796875,-3.519017883007228,7.156981294390559,5.706532310709357
1773522024756498000,5.298497802734375,-3.604394611519575,7.0763003224790095,5.7536675713717935
1773522024766536700,5.30853662109375,-3.6791929551333187,6.985417690026759,5.817032666823268
1773522024776575000,5.318574951171875,-3.7565719628900287,6.880699424445629,5.891904075673223
1773522024786612700,5.32861279296875,-3.8334222705975174,6.754321700242161,5.987853928387165
1773522024796651800,5.33865185546875,-3.9002112030178306,6.611757980391383,6.102737029629945
1773522024806689800,5.348689697265625,-3.9416885840490457,6.465989327019453,6.230927356213331
1773522024816727600,5.3587275390625,-3.950015098367631,6.327942792332172,6.365919179505109
1773522024826766800,5.368766845703125,-3.924530236238241,6.201732241389155,6.504380724734068
1773522024836804900,5.378804931640625,-3.8709234414741394,6.086620007565617,6.643748863413929
1773522024846843600,5.38884375,-3.8053997066840526,5.983277121990919,6.774193690925836
1773522024856882000,5.3988818359375,-3.7610613832637667,5.876051842024922,6.89179364991188
1773522024866919700,5.408919677734375,-3.7401691096216436,5.753747066348791,7.005420029091835
1773522024876958700,5.418958740234375,-3.724405431039631,5.621376239210367,7.120345215910673
1773522024886996700,5.428996826171875,-3.6908491983965037,5.492576256296038,7.237377604141831
1773522024897034800,5.43903466796875,-3.626604397501051,5.36491492202282,7.36449708662331
1773522024907073800,5.44907373046875,-3.543988658134639,5.238109327796101,7.494848390632868
1773522024917111600,5.459111572265625,-3.4403216551721094,5.134518020418286,7.613888611555099
1773522024927149800,5.46914990234375,-3.3448119474411007,5.0766626282989975,7.6948104064852
1773522024937188900,5.47918896484375,-3.2114009635999796,5.057203310069442,7.764146393039822
1773522024947227000,5.489226806640625,-3.1033474161162973,5.061307238256931,7.805304332858324
1773522024957266000,5.499265869140625,-3.023741379959881,5.070749020341038,7.830382660013437
1773522024967303700,5.5093037109375,-2.9603233852773903,5.060380771061777,7.86126061335802
1773522024977341700,5.519341796875,-2.903020366343856,5.021607096031308,7.907358347666263
1773522024987380700,5.529380615234375,-2.8561133614793417,4.956285021293163,7.965439949756861
1773522024997418800,5.539418701171875,-2.8228736474394798,4.872798052050173,8.02854960914254
1773522025007456800,5.549456787109375,-2.8345266758322714,4.76990320250392,8.086028569164872
1773522025017495600,5.55949560546875,-2.899166613525152,4.664837146398424,8.124315337461233
1773522025027533800,5.569533935546875,-3.0106188635364175,4.560221464408934,8.143153308922052
1773522025037571600,5.579571533203125,-3.1511712435647845,4.426068137767911,8.163972225067019
1773522025047611000,5.58961083984375,-3.3152991449698805,4.259099167717993,8.1877488219738
1773522025057648600,5.599648681640625,-3.4518037109121678,4.05194051835984,8.236335450488328
1773522025067687000,5.60968701171875,-3.5183217174366113,3.8101948320060965,8.323113570231198
1773522025077725700,5.6197255859375,-3.496847259992361,3.54514308886677,8.448336279180646
1773522025087763700,5.629763671875,-3.4177889208465815,3.2813670647516844,8.586136145630478
1773522025097802800,5.639802734375,-3.293380450889468,3.0408743010684844,8.722219855812192
1773522025107840800,5.6498408203125,-3.147322166921198,2.816696127848327,8.85047798693478
1773522025117878800,5.659878662109375,-3.0062787885054942,2.630010357676446,8.956322041675447
1773522025127917800,5.669917724609375,-2.8810411742478608,2.4785429081410166,9.040286857563256
1773522025137955600,5.67995556640625,-2.773084365136921,2.32397939228639,9.114795862841605
1773522025147993900,5.689993896484375,-2.6801620435506104,2.1213735839270056,9.191676273426413
1773522025158032600,5.70003271484375,-2.580103001952171,1.8570904870726168,9.277104732125997
1773522025168071000,5.71007080078125,-2.4506219049058853,1.5584002398341894,9.366761037653685
1773522025178108700,5.720108642578125,-2.3103766911305486,1.251389177365601,9.448097843125462
1773522025188147700,5.730147705078125,-2.17898976046294,0.9562193593382835,9.513570139989257
1773522025198185700,5.740185791015625,-2.065288124089688,0.7049957236085087,9.560749239793418
1773522025208224800,5.750224853515625,-1.978565533926338,0.537438980265893,9.589933833223581
1773522025218262800,5.7602626953125,-1.8815576965920626,0.4599488402849063,9.613457332152128
1773522025228300800,5.77030078125,-1.7794237484157085,0.4442711594859138,9.633622168302535
1773522025238339800,5.78033984375,-1.68137721568346,0.47198480358067896,9.649899933886527
1773522025248377900,5.7903779296875,-1.6086821279592811,0.5085240340899676,9.660430680251121
1773522025258415600,5.80041552734375,-1.5915502297639845,0.5411855463830754,9.66149451009035
1773522025268455000,5.810454833984375,-1.632674851834774,0.5714020766768604,9.652888594308495
1773522025278492700,5.82049267578125,-1.7080812443442641,0.6001341040339321,9.638084408408403
1773522025288531000,5.830531005859375,-1.796883563391119,0.6253661604460329,9.62031786557138
1773522025298569700,5.84056982421875,-1.890926705700904,0.6446698497224599,9.601000001639127
1773522025308607700,5.850607666015625,-1.9854700526177882,0.654772433802858,9.581209259498118
1773522025318646800,5.860646728515625,-2.06839836506471,0.6569629295844585,9.563499999806284
1773522025328684800,5.870684814453125,-2.128007468983531,0.6558100332222878,9.550492049673199
1773522025338722800,5.880722900390625,-2.1572100364618003,0.654108782262355,9.544053541058302
1773522025348761900,5.890761962890625,-2.1569714054003355,0.6555225945830345,9.544010870960355
1773522025358799600,5.900799560546875,-2.1352292369306087,0.6637924833435564,9.54832756511569
1773522025368838000,5.910837890625,-2.1030548140347003,0.6837865660369395,9.554055295112729
1773522025378876700,5.920876708984375,-2.0709744991630314,0.7169812718912959,9.558629763421417
1773522025388915000,5.9309150390625,-2.0413056293472644,0.758520685308054,9.561803717282414
1773522025398952700,5.94095263671875,-2.009034321948141,0.805357693676278,9.564809328839182
1773522025408991700,5.95099169921875,-1.9772037440538406,0.8574014038421213,9.566918283817172
1773522025419029800,5.96102978515625,-1.9470710561186073,0.9160989458739757,9.567657704007624
1773522025429068800,5.97106884765625,-1.9132694704122841,0.9813719207733869,9.5680049100101
1773522025439106800,5.98110693359375,-1.8907893430568277,1.0486249635741114,9.565337152105569
1773522025449144800,5.991144775390625,-1.8866661256469786,1.1107676776237785,9.559135374855995
1773522025459183600,6.00118359375,-1.8908980641283093,1.1657456876758485,9.551750525301694
1773522025469222000,6.011221923828125,-1.9066836622811854,1.2184026343692094,9.542035186973214
1773522025479259600,6.021259765625,-1.9302030695565044,1.2720173932440577,9.530302663603424
1773522025489299000,6.031298828125,-1.958078041692823,1.3259708094887435,9.51725379693806
1773522025499336700,6.041336669921875,-1.991454533854872,1.3828908204540609,9.502215217760204
1773522025509375000,6.051375,-2.0193219072066246,1.4477157593250274,9.486666350972651
1773522025519413800,6.061413818359375,-2.0483606624253095,1.5234852860584853,9.46855844735205
1773522025529451800,6.07145166015625,-2.083788095767796,1.6084895279966294,9.446744090428949
1773522025539490800,6.08149072265625,-2.1239714914657175,1.6950117732822894,9.422636069610714
1773522025549528800,6.09152880859375,-2.157007645757496,1.7756931835852563,9.40024595862627
1773522025559566800,6.10156689453125,-2.181907255344838,1.8480445724382994,9.38053354241848
1773522025569606000,6.11160595703125,-2.1997212905853987,1.9105825694158671,9.363827906811236
1773522025579643600,6.1216435546875,-2.2145324907481667,1.9625320984922348,9.349581939315796
1773522025589682000,6.131681884765625,-2.2283272073447704,2.0050670257523655,9.337270739275217
1773522025599720700,6.141720703125,-2.241007825219631,2.0401227031730116,9.326636532536149
1773522025609759000,6.151759033203125,-2.2550603159695863,2.0714336411073804,9.316342517536878
1773522025619797800,6.1617978515625,-2.2717506078772245,2.0978584144353865,9.306369405055046
1773522025629835800,6.171835693359375,-2.2909600429989396,2.1167361333847046,9.297382381001114
1773522025639873800,6.181873779296875,-2.3104269600130616,2.129293271010369,9.289695333629846
1773522025649912800,6.191912841796875,-2.3304614477820693,2.1388944814398885,9.282481748989223
1773522025659950800,6.201950927734375,-2.349949115323275,2.1470048687897623,9.275693696284293
1773522025669988900,6.21198876953125,-2.369077448032796,2.1543520166821777,9.269121916678547
1773522025680027600,6.222027587890625,-2.3875081538669765,2.161253758894652,9.262784530350565
1773522025690066000,6.23206591796875,-2.4065398943342267,2.1692532332159575,9.2559871252954
1773522025700103700,6.242103759765625,-2.4271571504272518,2.1784775731571018,9.24843334891498
1773522025710143000,6.25214306640625,-2.44968082466349,2.1896265975505114,9.239858997315167
1773522025720180700,6.2621806640625,-2.4733000390514728,2.2011106991171836,9.230832810294627
1773522025730219000,6.272218994140625,-2.4981989179864525,2.212851990315318,9.22131679393053
1773522025740257800,6.2822578125,-2.5244176473483444,2.2254354314260185,9.211142605918646
1773522025750295800,6.2922958984375,-2.552745331688225,2.240547514231503,9.199664934092759
1773522025760334800,6.3023349609375,-2.581910343635082,2.2579886245064436,9.187253196287154
1773522025770372900,6.312372802734375,-2.612665839643776,2.2776721068806944,9.173689365836978
1773522025780411000,6.322410888671875,-2.644306886315346,2.299870202424377,9.159073980507253
1773522025790450000,6.332449951171875,-2.6785890951454636,2.326052545298636,9.14248466475606
1773522025800487700,6.34248779296875,-2.720338571116328,2.356678569708764,9.122292356076835
1773522025810526000,6.35252587890625,-2.7678388656988737,2.390137333326787,9.09926979240775
1773522025820564700,6.362564697265625,-2.8142969577521084,2.4256065599843857,9.075600747528672
1773522025830603000,6.37260302734375,-2.8582433592453595,2.4608690120235086,9.052344959625602
1773522025840641800,6.382641845703125,-2.8968004689157008,2.4949738184601067,9.030727002057432
1773522025850679800,6.3926796875,-2.9213682162001726,2.5261010703906415,9.014145869612694
1773522025860717800,6.4027177734375,-2.939640954993665,2.5584993651703,8.999054683464765
1773522025870756900,6.4127568359375,-2.9602804229184985,2.5944910082668065,8.981967355063556
1773522025880795000,6.422794921875,-2.983430996881425,2.6338044892624017,8.96284472144246
1773522025890833000,6.4328330078125,-3.002224836939573,2.6740163804024455,8.94464446336329
1773522025900871700,6.44287158203125,-3.016884061411023,2.7147090407967567,8.927438477018475
1773522025910910000,6.452909912109375,-3.027456893351674,2.756141413642466,8.9111484364748
1773522025920947700,6.46294775390625,-3.0338503937810657,2.7949074898883697,8.896888440454006
1773522025930987000,6.472987060546875,-3.0332731784150004,2.830275448128581,8.885897675362228
1773522025941024800,6.483024658203125,-3.0255124812856313,2.864604418709874,8.87753901233971
1773522025951063800,6.493063720703125,-3.009311872591078,2.8966148832157255,8.872658254560827
1773522025961101800,6.503101806640625,-2.9829248009249567,2.9267101617500186,8.871690870833396
1773522025971139800,6.513139892578125,-2.946770368482172,2.9553955734863875,8.874263351669907
1773522025981179000,6.523178955078125,-2.901957121026516,2.98401902590245,8.879451567962764
1773522025991217000,6.533216796875,-2.851129435586929,3.0131250011384485,8.886085891410708
1773522026001255000,6.5432548828125,-2.7962098046585915,3.0398242074936626,8.894440462779999
1773522026011294000,6.5532939453125,-2.7477447566971183,3.058494713433087,8.903139902064204
1773522026021331700,6.563331787109375,-2.7114395176067947,3.0635505355179307,8.91252732361257
1773522026031369700,6.57336962890625,-2.6684292279198765,3.0541289194390178,8.928726763263343
1773522026041408800,6.58340869140625,-2.6077017874956128,3.0427599686846136,8.950524169051647
1773522026051446800,6.59344677734375,-2.5460791517972945,3.034689182692766,8.970981850668787
1773522026061485800,6.60348583984375,-2.491743458236754,3.0258301689326763,8.989213088408112
1773522026071523800,6.61352392578125,-2.4414479799777267,3.0154549053907393,9.006482787638902
1773522026081561900,6.623561767578125,-2.392928717610985,3.006684154435992,9.022423868614435
1773522026091601000,6.633600830078125,-2.344064879590273,3.000872837808728,9.037173693978787
1773522026101639000,6.643638916015625,-2.2925775611981747,2.9970678925678134,9.051632427442073
1773522026111676700,6.6536767578125,-2.239251336941123,2.994839695124328,9.065708883589506
1773522026121715700,6.6637158203125,-2.1858630072332916,2.9945825054928656,9.078814448878168
1773522026131753700,6.673753662109375,-2.132901086243987,2.99638400195688,9.090809422576427
1773522026141792800,6.683792724609375,-2.0801935784071683,2.9999720895767212,9.101832336372137
1773522026151830800,6.693830810546875,-2.025462601918727,3.0048744746655225,9.112552467828989
1773522026161868800,6.703868896484375,-1.9697681872256099,3.0121555715844033,9.122352561831473
1773522026171907000,6.713906982421875,-1.9158502806857227,3.0228619667768477,9.130290369093418
1773522026181944800,6.72394482421875,-1.8670979402154684,3.036030075907707,9.136019268134236
1773522026191983000,6.733983154296875,-1.8247316475205122,3.050203854949772,9.139857238861918
1773522026202022000,6.74402197265625,-1.7899704230017959,3.062849109250307,9.142502784934639
1773522026212060000,6.754059814453125,-1.7624005712918935,3.072006521435082,9.144785927435755
1773522026222098000,6.764097900390625,-1.7408438423916697,3.0768451936379075,9.147288850167394
1773522026232137000,6.774136962890625,-1.7239726409591734,3.0790085091516373,9.149754363498092
1773522026242175000,6.784175048828125,-1.7111730728797614,3.080827249011397,9.151544754046201
1773522026252214000,6.794214111328125,-1.7010107214361427,3.083369919231534,9.152584033966065
1773522026262251800,6.804251708984375,-1.6927075879931448,3.0873543126925824,9.15277926427722
1773522026272290000,6.8142900390625,-1.6860231417931615,3.09276756991297,9.152185974559186
1773522026282328800,6.824328857421875,-1.6804637541003524,3.0989135253220796,9.151127989938855
1773522026292367000,6.8343671875,-1.6728203997403381,3.1025209021642803,9.151306269115208
1773522026302404900,6.84440478515625,-1.6556762265853582,3.0998622043490407,9.155326026150584
1773522026312444000,6.85444384765625,-1.6380248345606028,3.099220399314165,9.158716837632655
1773522026322482000,6.86448193359375,-1.6233973204016685,3.1003339135140178,9.160943866032362
1773522026332519700,6.874519775390625,-1.6086321513377129,3.1005624615728853,9.163470754161477
1773522026342559000,6.88455908203125,-1.588723043514043,3.099380558311939,9.16734438072443
1773522026352596700,6.8945966796875,-1.5628595573306083,3.096846363659203,9.172644240698217
1773522026362635800,6.9046357421875,-1.5339846143715083,3.0927085332021114,9.178912653443216
1773522026372674000,6.914674072265625,-1.5056871790394186,3.087042470264435,9.185502553227543
1773522026382711800,6.9247119140625,-1.4781966761760412,3.0783970992550254,9.192866944515705
1773522026392751000,6.934751220703125,-1.4438282503671944,3.0660055274546143,9.202464793944358
1773522026402788900,6.944788818359375,-1.410432907374203,3.0589246292829513,9.20999694301486
1773522026412827000,6.954826904296875,-1.3804555561311542,3.0558398150101302,9.215562760448455
1773522026422866000,6.964865966796875,-1.3508682271189987,3.0552085313692685,9.220154179891944
1773522026432903700,6.974903564453125,-1.3197494507558643,3.05519654867053,9.224663766270876
1773522026442943000,6.98494287109375,-1.2850685979969798,3.051619274705648,9.230742793923616
1773522026452980700,6.994980712890625,-1.242306583982706,3.0440257508367297,9.239100287902355
1773522026463019000,7.00501904296875,-1.2024580462623387,3.039778907047212,9.245768513619899
1773522026473058000,7.01505810546875,-1.1638850083705037,3.037411885654926,9.251479877004027
1773522026483095800,7.025095703125,-1.126353515420854,3.0346403751149773,9.25703283495605
1773522026493133800,7.0351337890625,-1.0914607734769581,3.0301284506484865,9.262689837804436
1773522026503172900,7.0451728515625,-1.0569780005734413,3.025951457224786,9.26805399518609
1773522026513211000,7.0552109375,-1.022759504629299,3.0229464301899074,9.272872793644666
1773522026523249000,7.065248779296875,-0.988182404505834,3.0198160232096907,9.277638985133171
1773522026533287700,7.07528759765625,-0.9527789365608245,3.0161873113185167,9.282522080999613
1773522026543326000,7.085325927734375,-0.9174751295980066,3.011913287261128,9.287464798098801
1773522026553364700,7.09536474609375,-0.8846202501572668,3.0069533267661925,9.292259046638012
1773522026563403000,7.105403076171875,-0.8537773681260645,3.0025372638896104,9.29657164914012
1773522026573440800,7.115440673828125,-0.8256635457325726,2.999100859700143,9.300218481209873
1773522026583479800,7.125479736328125,-0.8021387316297739,2.9964822016343473,9.303119463348388
1773522026593517800,7.135517822265625,-0.7845479106858372,2.9946444648131725,9.305212051713466
1773522026603555800,7.145555908203125,-0.7721125728089362,2.993776449806988,9.306531902140378
1773522026613595000,7.155594970703125,-0.7641061572901904,2.993011895175278,9.307437911069393
1773522026623633000,7.1656328125,-0.760813910811767,2.99200125682801,9.308032369831205
1773522026633671000,7.1756708984375,-0.7615153370793908,2.9908810206264254,9.308335152170061
1773522026643710000,7.1857099609375,-0.7651504056461155,2.990652180306613,9.3081118648082
1773522026653747700,7.195747802734375,-0.7752212794139981,2.9919051029771566,9.306875601011514
1773522026663787000,7.205787109375,-0.7929922061651945,2.9917183482334018,9.305438846206664
1773522026673824800,7.21582470703125,-0.8141552595727145,2.9882807750001548,9.304715792629123
1773522026683863000,7.225863037109375,-0.8411341596521437,2.983732902437448,9.303774127864838
1773522026693901800,7.23590185546875,-0.8733162543978542,2.9803289392128587,9.301898981642722
1773522026703939800,7.24593994140625,-0.9096723468925804,2.979861613962054,9.29856486878395
1773522026713977900,7.255977783203125,-0.9493089954279362,2.983324906158447,9.29349121878147
1773522026724017000,7.266016845703125,-0.9920360842593013,2.9907074176251887,9.286652897194028
1773522026734055000,7.276054931640625,-1.0378216838784515,3.0007793143063783,9.278395940980314
1773522026744094000,7.286093994140625,-1.0865729283701628,3.0122672152653336,9.269087429887056
1773522026754131700,7.296131591796875,-1.1385509528886526,3.0233377675950526,9.259239405089616
1773522026764170000,7.306169921875,-1.1927268527776003,3.032859336917102,9.249300194877385
1773522026774208800,7.316208740234375,-1.2479989504054187,3.0407685026064515,9.23940599285066
1773522026784247000,7.3262470703125,-1.3013717902831732,3.0476313741132617,9.229776579239964
1773522026794284800,7.336284912109375,-1.350694039595872,3.0543682811528443,9.22045754675269
1773522026804323800,7.34632373046875,-1.3947785343855619,3.0614255061879754,9.211548264110087
1773522026814361900,7.35636181640625,-1.4334019872903823,3.0685604726344344,9.203243961623311
1773522026824400000,7.36639990234375,-1.4675534093476832,3.0756621213331816,9.19548618710339
1773522026834439000,7.37643896484375,-1.4982522067330777,3.0825127178803085,9.188238115671277
1773522026844477000,7.386476806640625,-1.5259877703987061,3.0887840532347557,9.181566967344283
1773522026854515700,7.396515625,-1.5503730007231236,3.0944302424281833,9.175577956062554
1773522026864554000,7.406553955078125,-1.5702622348025441,3.0995813415810463,9.170455206221341
1773522026874591700,7.416591796875,-1.5845488265693186,3.1045307806819675,9.166322636461258
1773522026884631000,7.426631103515625,-1.5921329980880021,3.109742377850413,9.1632427906245
1773522026894668800,7.436668701171875,-1.593557039541751,3.1151427755892276,9.161160139131546
1773522026904707000,7.44670703125,-1.5917302625060081,3.1206554015308616,9.159600050207972
1773522026914745900,7.456745849609375,-1.5893027430981397,3.125978934641182,9.158207134544849
1773522026924783900,7.466783935546875,-1.5881481662355363,3.1297792037069794,9.157109402436017
1773522026934823000,7.476822998046875,-1.588766736525297,3.130632897926867,9.156709589463471
1773522026944861000,7.48686083984375,-1.5916282634362577,3.128648153850436,9.156891960293054
1773522026954899000,7.49689892578125,-1.5970624173142014,3.1239249247208236,9.157557146203517
1773522026964938000,7.50693798828125,-1.6050570693299173,3.116945148836076,9.158537389412523
1773522026974975700,7.516975830078125,-1.6154831862762569,3.1076962589755652,9.1598478874892
1773522026985014000,7.527013916015625,-1.6282997054904698,3.095633772999048,9.161663997000455
1773522026995052800,7.537052734375,-1.641397087472677,3.0808596899762746,9.16430545141995
1773522027005091000,7.547091064453125,-1.6528323814615606,3.06379369662404,9.167971572712064
1773522027015129900,7.5571298828125,-1.6618744967035948,3.04611424754858,9.172227476590871
1773522027025168000,7.56716796875,-1.6686460366651414,3.030864363707602,9.176049080705642
1773522027035206000,7.577205810546875,-1.670304909788072,3.019707886660099,9.179423525574803
1773522027045245000,7.587244873046875,-1.6634917226418853,3.0132185246407985,9.182793294268846
1773522027055283000,7.597282958984375,-1.645505984096229,3.011122429144382,9.18672011232376
1773522027065321000,7.607321044921875,-1.6042913456544279,3.012262246829271,9.193635006278752
1773522027075359700,7.61735986328125,-1.5493823822505772,3.007445494197309,9.20462343328297
1773522027085398000,7.62739794921875,-1.4882185962356627,2.992652414213121,9.219524065294861
1773522027095435800,7.637435791015625,-1.4103683177053927,2.9799174358025193,9.235871973505615
1773522027105475000,7.64747509765625,-1.3052660212427376,2.9803102345123884,9.251185277971624
1773522027115512800,7.657512939453125,-1.1687631358008832,2.990784574514627,9.266044993451237
1773522027125551900,7.6675517578125,-1.0073887708876281,3.0043329151347278,9.280599588504433
1773522027135590000,7.67758984375,-0.8367107902519404,3.026180589805543,9.29045345852077
1773522027145628000,7.6876279296875,-0.6656778586987405,3.052879796160757,9.295547566789388
1773522027155667000,7.6976669921875,-0.5100375073928386,3.077254066699743,9.29735257038474
1773522027165705000,7.707705078125,-0.37939419816676523,3.09444573225826,9.297895006698369
1773522027175743700,7.71774365234375,-0.28724832257935773,3.104571112692356,9.297822525984047
1773522027185782800,7.72778271484375,-0.24333050785977392,3.103921416611969,9.299293767580389
1773522027195820800,7.73782080078125,-0.2535153999287635,3.0884058675721286,9.304185046753286
1773522027205859800,7.74785986328125,-0.30308764194715765,3.0698674635797736,9.308836087429523
1773522027215897900,7.75789794921875,-0.3669287208799273,3.0619191349238157,9.309156989946962
1773522027225935600,7.767935546875,-0.42497879532109945,3.059779492546618,9.307392318361996
1773522027235975000,7.777974853515625,-0.4663380298653617,3.05712693221122,9.306283480337262
1773522027246012700,7.7880126953125,-0.49020822333972897,3.0537706075206397,9.30615780813098
1773522027256051000,7.798051025390625,-0.4991674826039001,3.053935734954476,9.305627062255143
1773522027266089700,7.80808984375,-0.4993762665163725,3.0596760321721432,9.303730288723111
1773522027276127700,7.818127685546875,-0.4960429573751986,3.0705674285426734,9.300319603496789
1773522027286165800,7.828165771484375,-0.4950170483935624,3.0865564403131605,9.29507878023386
1773522027296204800,7.838204833984375,-0.49746330903451885,3.1080227144509553,9.287793883922696
1773522027306242800,7.848242919921875,-0.503025473206304,3.1339719792217013,9.278770619511604
1773522027316281900,7.85828173828125,-0.5080933145225047,3.163447080031037,9.268486541384458
1773522027326319600,7.868319580078125,-0.5099501944355667,3.1953868173882363,9.257420372968912
1773522027336358000,7.87835791015625,-0.5093631517952307,3.231196966437995,9.245015649425984
1773522027346396700,7.888396728515625,-0.5150013768779114,3.279322407181561,9.227741274020076
1773522027356435000,7.89843505859375,-0.5274929019214585,3.3314667281776664,9.20833806989193
1773522027366472700,7.90847265625,-0.5393103636283427,3.37788068882823,9.190726425355672
1773522027376511700,7.91851171875,-0.5467034695543348,3.418060431264341,9.17542013515234
1773522027386549800,7.9285498046875,-0.5540339951055124,3.4578102578505874,9.160074097460507
1773522027396588800,7.9385888671875,-0.5667332811482251,3.501726264205575,9.142598062002659
1773522027406626800,7.948626708984375,-0.581786911764741,3.545699553705752,9.124687142258882
1773522027416664800,7.958664794921875,-0.5994331526903435,3.5851617955222723,9.10811127051115
1773522027426703600,7.96870361328125,-0.6191544463243335,3.617626141275465,9.093943628948926
1773522027436742000,7.978741943359375,-0.6391209103584289,3.643101358793676,9.082385293102265
1773522027446779600,7.988779541015625,-0.6572794481877238,3.6640436090573667,9.072660017901658
1773522027456819000,7.99881884765625,-0.6760233846895396,3.676493340785801,9.066243136596679
1773522027466856700,8.008856689453125,-0.6955241309080272,3.6796684636905788,9.06348127066791
1773522027476895700,8.018895751953124,-0.7159207299876957,3.677545480187237,9.06275412543714
1773522027486933800,8.028933837890625,-0.7369482473820448,3.675195702190697,9.062021134987473
1773522027496971800,8.0389716796875,-0.7571187095556408,3.675356445710361,9.06029328828156
1773522027507010800,8.0490107421875,-0.7756009263813495,3.678832305127382,9.057318656384945
1773522027517048800,8.059048828125,-0.791633485032618,3.6854286346524954,9.053249799510835
1773522027527086800,8.0690869140625,-0.8058402895614505,3.694566173093021,9.048270257532597
1773522027537126000,8.0791259765625,-0.818270293676108,3.705172322781384,9.042814330214261
1773522027547163600,8.08916357421875,-0.8293639346204698,3.7163647479251023,9.037209934335946
1773522027557203000,8.099202880859375,-0.8385889321487396,3.727533499932289,9.03175751414895
1773522027567240700,8.10924072265625,-0.8467205084171145,3.738742583949864,9.026365299716591
1773522027577279000,8.119279052734376,-0.8546445794146508,3.750403503388166,9.020778439494967
1773522027587317800,8.12931787109375,-0.8635177678305656,3.7624250728324053,9.014925037291645
1773522027597355800,8.139355712890625,-0.8737680167533457,3.7746556088522074,9.008824382328987
1773522027607393800,8.149393798828125,-0.8848119733370841,3.7874011086568236,9.002394641542434
1773522027617432800,8.159432861328124,-0.8958068300820886,3.800483293069899,8.995790128710865
1773522027627470800,8.169470947265625,-0.9065077453818172,3.813523099645972,8.98919847536087
1773522027637508900,8.1795087890625,-0.9164051622789353,3.8258182253345843,8.982966887494921
1773522027647547600,8.189547607421876,-0.9255674698345363,3.837130477465689,8.977200579053163
1773522027657586000,8.1995859375,-0.9338545289255679,3.8469413851231335,8.972142711141705
1773522027667624700,8.209624755859375,-0.9404455977536738,3.855174375939369,8.96791895596683
1773522027677663000,8.2196630859375,-0.944516500454396,3.862088100850582,8.964515869525075
1773522027687700700,8.22970068359375,-0.946878041953966,3.8681244584053753,8.961663402703405
1773522027697739800,8.23973974609375,-0.9483870582774281,3.8739199929416177,8.959000320973992
1773522027707777800,8.24977783203125,-0.9496079053092747,3.8811046437487002,8.955760900661348
1773522027717816800,8.25981689453125,-0.9504381455883383,3.8907150603979823,8.951502658694983
1773522027727854800,8.269854736328124,-0.9515130813434719,3.9025247406572103,8.94624663786292
1773522027737892900,8.279892822265625,-0.9534019638299941,3.9157898804217575,8.940246520665287
1773522027747931600,8.289931640625,-0.9566701718457042,3.9298724740490316,8.933715657591819
1773522027757970000,8.299969970703126,-0.961950450336188,3.9443715395227072,8.926755755451321
1773522027768007700,8.310007568359374,-0.9689440355505794,3.959271294751763,8.919399547469615
1773522027778046700,8.320046630859375,-0.976674191411212,3.974025504030287,8.911993070605396
1773522027788084700,8.330084716796875,-0.9841220962643623,3.9880645507767793,8.90490048199594
1773522027798123000,8.340123046875,-0.9896073227424174,4.002296489746868,8.897904924020171
1773522027808161800,8.350161865234375,-0.9936895505547523,4.017780766865611,8.890467467495798
1773522027818199800,8.36019970703125,-0.9978210243362933,4.033348338353633,8.882951100516319
1773522027828238800,8.37023876953125,-1.0037929383527486,4.04854561522454,8.875361668300629
1773522027838276900,8.38027685546875,-1.0126092820148915,4.065115641753375,8.866783809569478
1773522027848315000,8.39031494140625,-1.0250442545656113,4.0818578099787235,8.857657084783911
1773522027858354000,8.40035400390625,-1.0410105430476366,4.097985061176121,8.848345066559315
1773522027868391700,8.4103916015625,-1.059034056320414,4.112758851937949,8.83934518302381
1773522027878430000,8.420429931640625,-1.0774754296790807,4.126500084781647,8.830708287581801
1773522027888468700,8.43046875,-1.0953782391816378,4.139875991444289,8.82224265705347
1773522027898506800,8.4405068359375,-1.1132051339037716,4.155372543522716,8.812720795470476
1773522027908545800,8.4505458984375,-1.1339542727481573,4.171184737421572,8.802599798950553
1773522027918583800,8.460583740234375,-1.1594538940552621,4.186459755703806,8.792018199181555
1773522027928621800,8.470621826171875,-1.1854760048665105,4.202572978375851,8.780855000132322
1773522027938660900,8.480660888671874,-1.2076382253792137,4.221030426086485,8.768973423680663
1773522027948699000,8.490698974609375,-1.2267933730304241,4.242738984547556,8.75582927994728
1773522027958737000,8.50073681640625,-1.2479850680105387,4.267165277534723,8.740950859767198
1773522027968775700,8.510775634765626,-1.2764235192485154,4.2934488888263695,8.72395588582456
1773522027978814000,8.52081396484375,-1.3125627541221678,4.320738754551113,8.705099794185161
1773522027988852700,8.530852783203125,-1.3525889134317635,4.3497775097697975,8.684486629745363
1773522027998890800,8.540890869140625,-1.3919701989665627,4.37951856803894,8.663291866025329
1773522028008928800,8.5509287109375,-1.4279368537522852,4.408649677716196,8.642637785053253
1773522028018967800,8.5609677734375,-1.4569098502583802,4.437336550757289,8.623100140890479
1773522028029005800,8.571005859375,-1.4765399950101972,4.464156168621778,8.60590058428645
1773522028039043800,8.5810439453125,-1.4872478515073657,4.487458133754134,8.591925834947824
1773522028049083000,8.591082763671874,-1.4902983251191675,4.5058772952809925,8.58175106241405
1773522028059121000,8.601120849609375,-1.4875900890737772,4.5189305458605284,8.57535639294088
1773522028069159700,8.61115966796875,-1.480821471721679,4.5281417340591545,8.571667475295067
1773522028079198000,8.621197998046876,-1.4701993938118219,4.534655353736877,8.570053025835753
1773522028089235700,8.631235595703124,-1.4593793091118334,4.537463396894932,8.570415429407358
1773522028099274800,8.641274658203125,-1.4492470605455339,4.5395612459570165,8.571022747650742
1773522028109312800,8.651312744140625,-1.4393983050957322,4.542683177369833,8.571029177391528
1773522028119350800,8.661350830078124,-1.4286189907975495,4.547886006709933,8.570073484101892
1773522028129389800,8.671389892578125,-1.4162167514726518,4.55571480063945,8.567973881474137
1773522028139427800,8.681427734375,-1.4025759102635085,4.567012439723313,8.56420196171999
1773522028149467000,8.691466796875,-1.3911185505732893,4.581008524110913,8.558594058710336
1773522028159505000,8.7015048828125,-1.3853725542671977,4.5960400890260935,8.55146347617805
1773522028169542400,8.71154248046875,-1.386141346682608,4.610261214341223,8.543680567216873
1773522028179581400,8.72158154296875,-1.392102008652687,4.6224242380827665,8.536137312230467
1773522028189619200,8.731619140625,-1.4006703689031301,4.632344743594527,8.529354520222544
1773522028199658500,8.741658447265625,-1.4093288916550575,4.640218253448605,8.523647833013534
1773522028209696300,8.7516962890625,-1.415993610241264,4.6460932829618455,8.519339906686543
1773522028219734300,8.761734375,-1.4187195280738174,4.650041436065733,8.516733523580431
1773522028229773300,8.771773193359374,-1.419249981688708,4.65380429573059,8.514588912767172
1773522028239811000,8.78181103515625,-1.4180261389821767,4.656744440835714,8.513183722144365
1773522028249849300,8.791849365234375,-1.415369779254496,4.659859357985854,8.511922323906422
1773522028259888000,8.80188818359375,-1.411246269583702,4.662517179018259,8.511152508577704
1773522028269926400,8.811926513671875,-1.4054158098645508,4.664038981758058,8.511282856959104
1773522028279965400,8.82196533203125,-1.3955879510723053,4.667169973260164,8.511183488237858
1773522028290003200,8.832003173828125,-1.3862629272356628,4.669215799874067,8.511584470254183
1773522028300041200,8.842041259765624,-1.3822228580646216,4.671946393881738,8.510742758733034
1773522028310080300,8.852080322265625,-1.385572606883943,4.676660270661116,8.507609721404313
1773522028320118300,8.8621181640625,-1.3950640733286737,4.681741227187216,8.503262047588825
1773522028330156300,8.87215625,-1.4072180369809268,4.685507301722467,8.499185007408261
1773522028340195000,8.882195068359374,-1.4191121806532143,4.687629700703918,8.496037357032298
1773522028350233300,8.8922333984375,-1.4285244443818925,4.6881031634345645,8.494199035689235
1773522028360272400,8.9022724609375,-1.4339794949173927,4.687551374770701,8.493582365095614
1773522028370310400,8.912310302734374,-1.4344921206146477,4.686344921590387,8.494162210810185
1773522028380348200,8.92234814453125,-1.429079740177095,4.685155127283931,8.495731067562103
1773522028390387200,8.93238720703125,-1.4180704165153204,4.684142735370993,8.498134037050605
1773522028400425200,8.94242529296875,-1.4031481571935116,4.6831794432967895,8.501141402173042
1773522028410463200,8.952463134765624,-1.3870986474074423,4.682024135781824,8.50441063310206
1773522028420502300,8.962502197265625,-1.3706849804840981,4.680525421656668,8.50789672165215
1773522028430540300,8.972540283203125,-1.3546196886070072,4.67845270703584,8.511607851129769
1773522028440579000,8.9825791015625,-1.340094465778768,4.676203174543381,8.515143624040483
1773522028450617300,8.992617431640625,-1.3284012515060604,4.673819786538183,8.5182825065881
1773522028460655000,9.002655029296875,-1.3190733050599694,4.67151326316148,8.520997026243805
1773522028470694400,9.0126943359375,-1.309978436717391,4.669174298819899,8.523681150761247
1773522028480732200,9.022732177734374,-1.2989534770950675,4.666782435247302,8.52667740996778
1773522028490770400,9.0327705078125,-1.2855876534350215,4.66420323240906,8.530114983201026
1773522028500809200,9.042809326171875,-1.2709919957190752,4.661399865426123,8.533835465028881
1773522028510847200,9.05284716796875,-1.2558271598130464,4.65819726999253,8.537827165013551
1773522028520886300,9.06288623046875,-1.2414872304238378,4.655152787730097,8.541582718154787
1773522028530924300,9.07292431640625,-1.2298198812447487,4.652225794367492,8.544865393087267
1773522028540962300,9.08296240234375,-1.2211446996189652,4.6497333930298685,8.547464177408814
1773522028551001300,9.09300146484375,-1.2138560039155184,4.648098485304415,8.54939368416667
1773522028561039000,9.1030390625,-1.2064381288744508,4.647112981398403,8.55097773848772
1773522028571077400,9.113077392578125,-1.1985551205396652,4.646562946300208,8.552386436241864
1773522028581116200,9.1231162109375,-1.188972687875852,4.645587379266321,8.554252814635634
1773522028591154400,9.133154541015625,-1.1777938528660683,4.644274543102085,8.556512576261163
1773522028601193200,9.143193115234375,-1.1655196238350123,4.6420630045324565,8.55939134656787
1773522028611231200,9.153231201171875,-1.1530520641889423,4.639194171097874,8.562636027577518
1773522028621269200,9.163269287109374,-1.1415054187800735,4.636893200679123,8.565428873166441
1773522028631308300,9.173308349609375,-1.1323557515103368,4.633512326069176,8.56847189412415
1773522028641346300,9.18334619140625,-1.126952723423019,4.631118708930909,8.570478557771445
1773522028651385300,9.19338525390625,-1.1250913865305483,4.62982253164053,8.571424314188956
1773522028661423000,9.203423095703124,-1.1258531646832823,4.628247829669713,8.572174255773424
1773522028671461400,9.21346142578125,-1.1268422487858683,4.627729943275451,8.572322139811515
1773522028681500200,9.223500244140626,-1.1271096675503998,4.6280546451851725,8.572112296453119
1773522028691538400,9.233538330078124,-1.1274117192368953,4.627830188779533,8.572194129517674
1773522028701576200,9.243576171875,-1.1268087849076838,4.627246835933626,8.572588681793212
1773522028711615200,9.253615234375,-1.1245146095559,4.62601729413867,8.573553142911194
1773522028721653200,9.2636533203125,-1.1208373092826456,4.624332994313538,8.57494255144298
1773522028731692300,9.2736923828125,-1.1170138054717331,4.622488243229687,8.576436589393019
1773522028741730300,9.283730224609375,-1.1145992916759102,4.620530387160182,8.577804955136775
1773522028751768300,9.293768310546875,-1.113797546838969,4.618413541136682,8.579050571283698
1773522028761807000,9.30380712890625,-1.1149351725667715,4.616086851754784,8.580154148611426
1773522028771845400,9.313845458984375,-1.1179190106831491,4.613566101105511,8.581122116860747
1773522028781883100,9.323883056640625,-1.1232157288517803,4.610965563218295,8.581827634781598
1773522028791922400,9.33392236328125,-1.1305238599080591,4.608549441987276,8.582166072955728
1773522028801960200,9.343960205078124,-1.1395707243904472,4.606121338057518,8.58227304046154
1773522028811999200,9.353999267578125,-1.1502549077510833,4.603350412039458,8.582334999781846
1773522028822037200,9.364037353515625,-1.1617960732672363,4.6008772999241945,8.5821052826792
1773522028832075300,9.3740751953125,-1.1727308703880757,4.598476084001362,8.581905376192926
1773522028842114300,9.3841142578125,-1.1824025887705385,4.595628001093864,8.582102944591641
1773522028852152300,9.39415234375,-1.1927824554223567,4.592013609988987,8.582602710807324
1773522028862191000,9.404191162109376,-1.2080245943482963,4.587692824180424,8.582781574505567
1773522028872229400,9.4142294921875,-1.2288137729421258,4.582968133746087,8.582355458047985
1773522028882267100,9.42426708984375,-1.253175768521428,4.578473160414397,8.58123025341034
1773522028892306400,9.434306396484375,-1.2795580178819597,4.574306396123767,8.579558520805834
1773522028902344200,9.44434423828125,-1.308044546045363,4.570823522444069,8.577118726438284
1773522028912382500,9.454382568359375,-1.3391910871982573,4.568151965147257,8.573735513740777
1773522028922421200,9.464421142578125,-1.372578977537155,4.566079835048318,8.569557351273298
1773522028932459300,9.474459228515625,-1.407477272439003,4.564437620799243,8.564771870562433
1773522028942498300,9.484498291015624,-1.4441675653241575,4.563377298091352,8.559227095916867
1773522028952536300,9.494536376953125,-1.4828249204985797,4.562954104243219,8.552839440706371
1773522028962574300,9.50457421875,-1.5210415461681783,4.562514836043119,8.546360015559197
1773522028972613400,9.51461328125,-1.5569884733401238,4.56108714132756,8.54064748313129
1773522028982651100,9.524651123046874,-1.5927034914523361,4.557895067287982,8.535764971786737
1773522028992689400,9.534689453125,-1.6316561763115227,4.554293827925622,8.530328333690761
1773522029002728200,9.544728271484376,-1.669868856458366,4.55269457603544,8.523782857570051
1773522029012766500,9.554766357421874,-1.708719249986857,4.553182651813328,8.51581933134496
1773522029022805200,9.56480517578125,-1.7432098408706485,4.554870166508853,8.507923609659075
1773522029032843300,9.57484326171875,-1.7709318144023418,4.557089303863048,8.501006962138414
1773522029042881300,9.58488134765625,-1.7929015080176294,4.559761153420806,8.494967681974172
1773522029052920300,9.59492041015625,-1.810869710906595,4.561752619498968,8.49008575515151
1773522029062958300,9.604958251953125,-1.8239516030587255,4.561641560339927,8.48734376296699
1773522029072997400,9.614997314453126,-1.8312780004240572,4.5588206577003,8.487281803646683
1773522029083035100,9.62503515625,-1.8334036142759025,4.5544016722142695,8.489196697357297
1773522029093073400,9.635073486328125,-1.8330635686665773,4.549801192681491,8.491735860446095
1773522029103112200,9.6451123046875,-1.8306471551746129,4.5457168459773065,8.494445119404793
1773522029113150500,9.655150390625,-1.8229468099303543,4.54251162019521,8.497812550011277
1773522029123188200,9.665188232421874,-1.8122418760426342,4.536664063210785,8.503226391753554
1773522029133227300,9.675227294921875,-1.7996695408478378,4.531399859072268,8.508701608294247
1773522029143265300,9.685265380859375,-1.7870146419361232,4.526123087713122,8.514175071269273
1773522029153304300,9.69530419921875,-1.77411482835263,4.519460707214474,8.52041016626656
1773522029163342300,9.70534228515625,-1.7629769098751247,4.511536636216938,8.52691940203011
1773522029173380400,9.71538037109375,-1.7559540255010126,4.504262845821678,8.532211078697442
1773522029183419400,9.72541943359375,-1.7544515119835733,4.498755188316107,8.53542419552505
1773522029193457400,9.73545751953125,-1.7612552006490527,4.4943335724815725,8.536353000807761
1773522029203495400,9.745495361328125,-1.7749581473089753,4.489761149999499,8.535922208175062
1773522029213534500,9.755534423828125,-1.7897288693308828,4.485867357431352,8.534885850864649
1773522029223572500,9.765572509765626,-1.8012709846951067,4.482848594132066,8.534042970299721
1773522029233611300,9.775611328125,-1.8103347272470591,4.479207607281208,8.534035956037044
1773522029243649500,9.7856494140625,-1.8179941559590398,4.474202638600766,8.53503198133707
1773522029253687300,9.795687255859375,-1.8258746800757943,4.4685631714090706,8.536305654534697
1773522029263726600,9.8057265625,-1.8354739908091722,4.462836902716756,8.537242643123864
1773522029273764400,9.815764404296875,-1.8464197477154434,4.457433582368493,8.537704415416718
1773522029283803400,9.825803466796875,-1.857053223802149,4.451994606184959,8.538235745814442
1773522029293841400,9.83584130859375,-1.8662867699630556,4.4459994574233885,8.539347506448626
1773522029303879400,9.84587939453125,-1.8749106597930192,4.440359990231692,8.540391462543607
1773522029313918500,9.85591845703125,-1.8799315566949546,4.436616419789194,8.541234343108535
1773522029323956500,9.86595654296875,-1.8765593037828803,4.4357165483400225,8.542444303420185
1773522029333994500,9.875994384765624,-1.8662473147355019,4.4364080377355215,8.544342245995997
1773522029344033500,9.886033447265625,-1.8548921002455054,4.437429489737749,8.546284612235427
1773522029354071300,9.8960712890625,-1.8449150422409175,4.438880273067951,8.547690387380122
1773522029364110600,9.906110595703124,-1.8330397493995725,4.441634247951209,8.548815007495879
1773522029374148400,9.9161484375,-1.8155653213769196,4.444897925922274,8.55084739010632
1773522029384186600,9.9261865234375,-1.7893221882261334,4.446353969949484,8.55562118037939
1773522029394225400,9.936225341796876,-1.7562329885728656,4.444003899691999,8.563694596719742
1773522029404263400,9.946263427734374,-1.7244734300881623,4.440052239456772,8.572193544995784
1773522029414301400,9.956301513671875,-1.6963943136818707,4.438657277967035,8.578516318276524
1773522029424340500,9.966340576171875,-1.6669271039180458,4.440039672236145,8.583575355231762
1773522029434378500,9.97637841796875,-1.6342257345385849,4.442771435287595,8.588450267791748
1773522029444417500,9.98641748046875,-1.6011613770656288,4.445426918232441,8.593303553041816
1773522029454455300,9.996455322265625,-1.5690947984583674,4.448125363536179,8.597820153683424
1773522029464493600,10.00649365234375,-1.5374470297850666,4.450561650772393,8.602275379526615
1773522029474532400,10.016532470703124,-1.5058612204320727,4.451438433606922,8.607406897196173
1773522029484570600,10.026570556640625,-1.4775884811498223,4.448518454506993,8.613814426150917
1773522029494609400,10.036609375,-1.459844296275079,4.440762725813687,8.62084037926495
1773522029504647400,10.0466474609375,-1.4543796011283994,4.432031430086493,8.626254221007228
1773522029514685400,10.056685546875,-1.4550015324190257,4.4273467794016,8.628554314643145
1773522029524724500,10.066724365234375,-1.452941238888353,4.428134422647953,8.628498200541735
1773522029534762500,10.076762451171875,-1.446467658960074,4.430552589705586,8.628345055806637
1773522029544800500,10.086800537109376,-1.4389021921418605,4.431768979758024,8.628983938232064
1773522029554839300,10.09683935546875,-1.431628840138018,4.431293178939819,8.630439397737383
1773522029564877600,10.106877685546875,-1.4274853105925023,4.4295524727523325,8.632017606839536
1773522029574916400,10.116916259765626,-1.4301345099270344,4.427986246348917,8.63238351754248
1773522029584954600,10.12695458984375,-1.438378606659174,4.428279384076595,8.630862007063627
1773522029594992400,10.136992431640625,-1.4471929044947027,4.43006042227447,8.628476573231815
1773522029605031400,10.147031494140625,-1.452403332619369,4.43287723326087,8.626151929676531
1773522029615069400,10.1570693359375,-1.4540449623465537,4.437077023038268,8.623716811484098
1773522029625107500,10.167107421875,-1.4545425366051494,4.443210411226749,8.620475637605786
1773522029635146500,10.177146484375,-1.4560649238668382,4.4500522399455305,8.616687935760616
1773522029645184500,10.1871845703125,-1.4598990952022373,4.45591937841326,8.61300720142126
1773522029655223300,10.197223388671874,-1.4645809694081544,4.460792537407577,8.60968887065351
1773522029665261600,10.207261474609375,-1.4689958632409572,4.4655020302727815,8.606493289482593
1773522029675299300,10.21729931640625,-1.4735076415769754,4.472300896632671,8.60219003933072
1773522029685338600,10.227338623046874,-1.4772294385790825,4.482623553204536,8.596177647173404
1773522029695376400,10.23737646484375,-1.4795065897308288,4.497505480515956,8.588008953765033
1773522029705415400,10.24741552734375,-1.479343361993134,4.516580475603043,8.57802122823596
1773522029715453400,10.257453369140626,-1.47719670535326,4.5375288633465765,8.567329153829812
1773522029725491500,10.267491455078124,-1.473460003042966,4.5534313658773895,8.559532216343284
1773522029735530500,10.277530517578125,-1.4657815773695706,4.555532722070813,8.559730953785776
1773522029745568500,10.287568603515625,-1.448376853582263,4.542312590491772,8.569714587661624
1773522029755606500,10.2976064453125,-1.4222175993226467,4.525941009144485,8.582747672235966
1773522029765645600,10.3076455078125,-1.4020266058176756,4.518815102787316,8.589822140666842
1773522029775683300,10.317683349609375,-1.4045489639021456,4.522673824042082,8.587377085602283
1773522029785722400,10.327722412109376,-1.4268249469876289,4.532487654308975,8.578526255148649
1773522029795760400,10.337760498046874,-1.4499129771083592,4.543659913447499,8.568739020627737
1773522029805798700,10.347798583984375,-1.45947444004938,4.553867419207096,8.561694947335123
1773522029815837400,10.35783740234375,-1.4540215814709663,4.562214099530875,8.558178463646769
1773522029825875500,10.36787548828125,-1.442800514754653,4.56850881576091,8.556718912488222
1773522029835913500,10.37791357421875,-1.4329459140859544,4.573215093755722,8.555859665310383
1773522029845952500,10.387952392578125,-1.4261677982531487,4.576913948273658,8.555016200223564
1773522029855990500,10.397990478515625,-1.4219506189495323,4.580395360648632,8.553854170706868
1773522029866029600,10.408029541015624,-1.4196324051350355,4.584123149000108,8.552242059335113
1773522029876067300,10.4180673828125,-1.4190823700368405,4.587525358659029,8.550508367410302
1773522029886105300,10.428105224609375,-1.4198220824882388,4.589505134299397,8.549321787974238
1773522029896144400,10.438144287109376,-1.419323777577281,4.59019866952151,8.549033034160733
1773522029906182400,10.448182373046874,-1.4149668975420295,4.590751627229154,8.549459150618315
1773522029916220400,10.458220458984375,-1.4083033479996026,4.592088136529922,8.549843181499838
1773522029926259500,10.468259521484375,-1.402928230832517,4.59405943660289,8.549667824932932
1773522029936297500,10.47829736328125,-1.400402073355764,4.596636009092629,8.548696349552273
1773522029946336500,10.48833642578125,-1.4006927268654108,4.599880982363223,8.546903036394715
1773522029956374500,10.49837451171875,-1.4043379514999688,4.603687096647918,8.544253983190655
1773522029966412300,10.508412353515626,-1.4112887935511766,4.607412254650891,8.541100487595797
1773522029976451300,10.518451416015624,-1.4200849712081254,4.61082761605233,8.537798523440957
1773522029986489300,10.5284892578125,-1.4286824114225805,4.613821829432249,8.534748488220572
1773522029996528400,10.5385283203125,-1.435605342553556,4.6162341512709855,8.532281221324205
1773522030006566400,10.54856640625,-1.4412394029177724,4.617738418354094,8.530516549739241
1773522030016604400,10.5586044921875,-1.4459227384284137,4.618354212164879,8.529391345101594
1773522030026643500,10.5686435546875,-1.4502271576240657,4.618058151827753,8.528818513649702
1773522030036681500,10.578681396484376,-1.4543966983936727,4.617084338359534,8.528637311863898
1773522030046719200,10.58871923828125,-1.458479437662661,4.615892498226463,8.528584704893827
1773522030056758500,10.598758544921875,-1.4622845290340483,4.615048740878701,8.52839122814834
1773522030066796300,10.60879638671875,-1.465415374405682,4.614679907566309,8.528052205452322
1773522030076835300,10.61883544921875,-1.4679970614619553,4.615037927223741,8.527415076592565
1773522030086873600,10.62887353515625,-1.4707085123777388,4.615666580516099,8.526607267341017
1773522030096911400,10.638911376953125,-1.4740094536192714,4.6167225193098185,8.52546452704668
1773522030106950400,10.648950439453126,-1.4778841030955314,4.617792778889835,8.52421423472464
1773522030116988400,10.658988525390624,-1.482412978696823,4.618421139921248,8.523089030086993
1773522030127027500,10.66902734375,-1.4864026328548787,4.618763085226714,8.522208155599236
1773522030137065500,10.6790654296875,-1.4900570637091994,4.618713108605146,8.521597914746403
1773522030147103200,10.689103271484376,-1.4940671761333941,4.6180397393882275,8.521258892050385
1773522030157142500,10.699142578125,-1.4987044805452228,4.617116779324412,8.520945003795623
1773522030167180300,10.70918017578125,-1.5041861268267034,4.616222168572246,8.52046511132419
1773522030177222400,10.719222412109374,-1.5107207892924546,4.615288394853472,8.51981336941719
1773522030187261700,10.72926171875,-1.5177382668390869,4.6148803985744715,8.51878753350079
1773522030197299500,10.739299560546876,-1.5252406052932141,4.614834513606131,8.517471774727106
1773522030207338500,10.74933837890625,-1.531806978071481,4.615038511745632,8.516184657526015
1773522030217376500,10.75937646484375,-1.5366897816769778,4.61527436632812,8.515175772744417
1773522030227414500,10.76941455078125,-1.5395821421176195,4.615609589631855,8.514470254823564
1773522030237453600,10.77945361328125,-1.5417178389720618,4.616422075058519,8.513643740871547
1773522030247491600,10.78949169921875,-1.5438813006162642,4.617599886666238,8.51261439782381
1773522030257529600,10.799529541015625,-1.546018897166848,4.618655533199012,8.511654028359056
1773522030267568600,10.809568603515626,-1.547805488322675,4.619327148850262,8.510963708007335
1773522030277606400,10.8196064453125,-1.5488023904055357,4.619436162182688,8.510722884988784
1773522030287645700,10.829645751953125,-1.5491795531548558,4.619380048081278,8.510686060109734
1773522030297683500,10.839683349609375,-1.5501213640496134,4.619646005541086,8.510369833767413
1773522030307721700,10.8497216796875,-1.5531735912270843,4.620093164786696,8.509569038778542
1773522030317760500,10.859760498046874,-1.558229997833818,4.620958549444377,8.50817612311542
1773522030327798500,10.869798583984375,-1.5641797000184654,4.6220472214639186,8.506491531029344
1773522030337836500,10.87983642578125,-1.5697947634212672,4.623079487121105,8.504895786270499
1773522030347875600,10.88987548828125,-1.5752864927053452,4.624103569471836,8.503325175952911
1773522030357913600,10.89991357421875,-1.5801120131656528,4.624565634025633,8.502178928527236
1773522030367952600,10.90995263671875,-1.5835672681860624,4.624691890753805,8.501465811821818
1773522030377990400,10.919990478515626,-1.5848651990421116,4.624641037349402,8.501251292288304
1773522030388028400,10.9300283203125,-1.5842326002269982,4.624241224376857,8.501587392374873
1773522030398067500,10.9400673828125,-1.582595646674931,4.623692066061497,8.50219061896503
1773522030408105700,10.950105712890625,-1.58065313430503,4.623078025816381,8.502885030969978
1773522030418143500,10.9601435546875,-1.579089099858701,4.622275477261841,8.503612176200747
1773522030428182500,10.9701826171875,-1.5783736450657249,4.6214118461698295,8.504215402790903
1773522030438220500,10.980220458984375,-1.578636095394194,4.620507590806484,8.504658470383285
1773522030448259600,10.990259521484376,-1.5788530991457401,4.619524424988031,8.505150637814403
1773522030458297600,11.000297607421874,-1.577760627733916,4.618524892556667,8.505895903223752
1773522030468335400,11.01033544921875,-1.574650532889366,4.617314055462181,8.50713099797666
1773522030478374400,11.02037451171875,-1.5705023271687328,4.6158355073422195,8.50869985472858
1773522030488412400,11.030412353515626,-1.5668427817478776,4.614359881831705,8.510175772500038
1773522030498450400,11.040450439453124,-1.5644119013391433,4.613411202804744,8.511136726486683
1773522030508489700,11.05048974609375,-1.5643340137973427,4.612833402916789,8.511464058744908
1773522030518527500,11.060527587890626,-1.564623790524155,4.6125724138930435,8.51155115250647
1773522030528566500,11.07056640625,-1.563325275146216,4.612668567743897,8.511737614989281
1773522030538604500,11.0806044921875,-1.5594826282434164,4.613125371600687,8.512197049194574
1773522030548642300,11.090642333984375,-1.553415729419887,4.613916521978378,8.51287684815228
1773522030558681600,11.100681640625,-1.5477356379568576,4.614607426851988,8.513535604321957
1773522030568719400,11.11071923828125,-1.544279798414558,4.614837728476524,8.514038293147086
1773522030578757600,11.120757568359375,-1.5429032493643462,4.614765540023148,8.51432821600437
1773522030588796700,11.130796630859376,-1.5437901152014732,4.614178387784958,8.514486036914587
1773522030598834400,11.14083447265625,-1.5473361172452569,4.612957906079292,8.514502403527498
1773522030608873700,11.150873779296875,-1.552265098080039,4.6110532415017484,8.514636843562126
1773522030618911500,11.160911376953125,-1.5563763327911495,4.608537459288537,8.515248837980627
1773522030628949500,11.170949462890626,-1.557296662506461,4.606176575376093,8.516358845049142
1773522030638988500,11.180988525390624,-1.5542494037650525,4.604225441308319,8.517969202855229
1773522030649026300,11.1910263671875,-1.5484373564854264,4.603010512560606,8.519684774601458
1773522030659064600,11.201064697265625,-1.5410900624625383,4.6023391891703005,8.52137988808155
1773522030669103400,11.211103271484374,-1.5345039620704948,4.601872156180441,8.522820150017738
1773522030679141600,11.2211416015625,-1.5309958078190684,4.6009000962778925,8.523975749793648
1773522030689179400,11.231179443359375,-1.530785964460671,4.599680783616006,8.524671330842375
1773522030699218400,11.241218505859376,-1.5339306922271847,4.5982615644678475,8.524871237328648
1773522030709256400,11.25125634765625,-1.5400184877082705,4.596984091877937,8.524462656527756
1773522030719295500,11.26129541015625,-1.5481854275509714,4.596498354187608,8.523243343865872
1773522030729333500,11.27133349609375,-1.5574132746234535,4.5968493595823645,8.521375796428321
1773522030739371500,11.28137158203125,-1.5663694651477038,4.597742216768861,8.519250474837422
1773522030749410300,11.291410400390625,-1.5746129773579538,4.598687680925429,8.51722101483643
1773522030759448600,11.301448486328125,-1.5823197523429988,4.600074166847765,8.515043086275458
1773522030769486300,11.311486328125,-1.5919656786970793,4.601670788389444,8.512381758111715
1773522030779525600,11.321525634765624,-1.6058074493058025,4.603478130072355,8.508804484146832
1773522030789563400,11.3315634765625,-1.6241183281525968,4.605379872040451,8.504299573943019
1773522030799602400,11.3416025390625,-1.6458504136197267,4.607620636704564,8.49890619046688
1773522030809640400,11.351640380859376,-1.66844379209131,4.610031497238576,8.493190735429526
1773522030819678500,11.361678466796874,-1.689815812074393,4.612941831727325,8.487384094977378
1773522030829717500,11.371717529296875,-1.7084475934386252,4.616148226553201,8.481908878436684
1773522030839755500,11.381755615234376,-1.724917958985269,4.619167866635323,8.476929920980334
1773522030849793500,11.39179345703125,-1.7400379328362643,4.621957789614797,8.472317458748817
1773522030859832600,11.40183251953125,-1.7545133251734077,4.624914593593776,8.467717271476983
1773522030869870300,11.411870361328125,-1.769496082510799,4.628439845110476,8.462670509481429
1773522030879909600,11.42190966796875,-1.7860672780834137,4.6326294057548045,8.456896602255105
1773522030889947400,11.431947509765624,-1.804064122544974,4.637475092220306,8.450418346151709
1773522030899985700,11.441985595703125,-1.8216050399325787,4.642796871764958,8.443729077646136
1773522030910024400,11.4520244140625,-1.836690673122555,4.648084164518117,8.437550681272148
1773522030920062500,11.4620625,-1.848387832918018,4.653099362331629,8.432229193988443
1773522030930100500,11.4721005859375,-1.8576888913571834,4.658156937982142,8.427392275351286
1773522030940139500,11.482139404296875,-1.8666626175381242,4.66366196513921,8.4223642180562
1773522030950177500,11.492177490234376,-1.8780396054685116,4.669167284557223,8.416783203053473
1773522030960215600,11.502215576171874,-1.8943148868344724,4.674332119974494,8.41026578398347
1773522030970254300,11.51225439453125,-1.9147426117047666,4.67847988730371,8.403331016284227
1773522030980292600,11.522292724609375,-1.9387056710943578,4.680854215219616,8.396511399397253
1773522030990331400,11.532331298828124,-1.9655203205227851,4.681630460289121,8.389842004635929
1773522031000369700,11.54236962890625,-1.9943679370835423,4.680701655006408,8.383549041971564
1773522031010407400,11.552407470703125,-2.024378898335248,4.678940198291838,8.377338496893644
1773522031020446500,11.562446533203126,-2.053680396143347,4.67692125968486,8.371331365433335
1773522031030484500,11.572484375,-2.0806759550966323,4.675168570798635,8.365642798402906
1773522031040522500,11.5825224609375,-2.1028915862970052,4.674804121400416,8.360289746937156
1773522031050561500,11.5925615234375,-2.1186815683640536,4.676187976974249,8.355529400667548
1773522031060599600,11.602599609375,-2.128021789769828,4.678597960725426,8.351803073620795
1773522031070638300,11.612638427734375,-2.1337714393377305,4.681570254534483,8.348671205335854
1773522031080676600,11.622676513671875,-2.1388034421555697,4.685115379795432,8.345394960144162
1773522031090714400,11.63271435546875,-2.1439815754458307,4.6887245102033015,8.342036881887912
1773522031100753700,11.642753662109374,-2.149401116276532,4.691863100489973,8.338878125596047
1773522031110791400,11.65279150390625,-2.152852571904659,4.693990175646543,8.336790213406086
1773522031120829700,11.66282958984375,-2.151288099066913,4.694485850208998,8.33691471656859
1773522031130868500,11.672868408203126,-2.141405002956092,4.694152964992821,8.339646187359094
1773522031140906500,11.682906494140624,-2.121016587182879,4.693107839854061,8.345442890939117
1773522031150944500,11.692944580078125,-2.090647460143268,4.690813883697986,8.354391921070217
1773522031160983600,11.702983642578126,-2.052449100782722,4.688371166720986,8.365226618817449
1773522031171021300,11.713021240234376,-2.0097779799222946,4.686852871112525,8.376430149877072
1773522031181060000,11.72306005859375,-1.9679642065435647,4.685222639562189,8.387263678580522
1773522031191098000,11.73309814453125,-1.9311691381096838,4.6832075003474944,8.396935762289166
1773522031201136000,11.74313623046875,-1.8999581534184515,4.681673130387067,8.4049080563426
1773522031211175200,11.753175048828124,-1.872425272718072,4.680596441066265,8.411683834087848
1773522031221213200,11.763213134765625,-1.8476283928528427,4.6797652509391305,8.417628421705961
1773522031231251200,11.773251220703125,-1.8251861132897436,4.679284189423918,8.422789165470004
1773522031241290000,11.7832900390625,-1.8046213180363178,4.678863333663344,8.427453065627812
1773522031251328300,11.793328369140625,-1.784395837739855,4.678277934990823,8.4320842325598
1773522031261366000,11.803365966796875,-1.762983631876856,4.677422194944322,8.437061436450481
1773522031271405300,11.8134052734375,-1.7409873425155877,4.676443705300986,8.442169573244453
1773522031281443000,11.823443115234374,-1.7203564962886273,4.675343342843652,8.447007076403498
1773522031291482000,11.833482177734375,-1.7011610896922646,4.674176344890892,8.451538874614238
1773522031301520100,11.84352001953125,-1.6825211250215768,4.673125082272291,8.455849723550676
1773522031311558000,11.853557861328126,-1.6634959604255855,4.671618769362569,8.460445819169282
1773522031321597200,11.86359716796875,-1.642596818651259,4.6695448856979604,8.46567144486308
1773522031331635200,11.87363525390625,-1.6199467415563762,4.666872743879258,8.471507895931602
1773522031341673200,11.883673095703125,-1.5969528194598852,4.66358714633733,8.47768044708669
1773522031351712300,11.893712158203124,-1.5758036484472453,4.6600616025596855,8.483574181300401
1773522031361750000,11.90375,-1.5572819033287464,4.656081008490919,8.489180915266274
1773522031371788000,11.9137880859375,-1.5410848017655312,4.651896708543599,8.494427583748102
1773522031381827000,11.9238271484375,-1.5268682064950465,4.64745609574765,8.499424661383033
1773522031391865000,11.933864990234374,-1.5151985192283988,4.643033603130281,8.503927233499288
1773522031401904000,11.943904052734375,-1.5065413116507231,4.638937858249247,8.507699153253435
1773522031411942000,11.95394189453125,-1.5011645870484411,4.634923654171824,8.510839204844832
1773522031421980200,11.963980224609376,-1.497677037193626,4.63091120366007,8.513636726608873
1773522031432019200,11.974019287109375,-1.495195887902379,4.627043714576959,8.51617530517578
1773522031442057200,11.98405712890625,-1.4927575548395513,4.6232335086390375,8.518671213644742
1773522031452095000,11.994094970703125,-1.4895476528823375,4.6192119980379935,8.521414374873041
1773522031462134000,12.004134033203124,-1.485371243980527,4.6150446492254735,8.524402450773119
1773522031472172000,12.014172119140625,-1.481375013951212,4.6107615650787945,8.527413323026895
1773522031482210000,12.0242099609375,-1.4782595122791826,4.606835623806715,8.530075820234417
1773522031492249000,12.0342490234375,-1.4776592082984745,4.603165995383263,8.532160809814929
1773522031502287000,12.044287109375,-1.4803544387318193,4.6003357403934,8.533220548000932
1773522031512326100,12.054326171875,-1.4861046728216112,4.598508232705295,8.5332053504318
1773522031522364200,12.0643642578125,-1.4939165156163274,4.597455216521024,8.532408062574268
1773522031532402000,12.07440185546875,-1.5025018270015715,4.597356724582612,8.530954941156507
1773522031542441200,12.084441162109375,-1.5114374131292103,4.597905882897972,8.529080379456282
1773522031552479000,12.09447900390625,-1.520293212018907,4.598896647500991,8.526972593522071
1773522031562517200,12.104517333984376,-1.5288221170417964,4.599956385686993,8.524876498025655
1773522031572556000,12.11455615234375,-1.5367982104875146,4.6008848987087605,8.522938807961344
1773522031582594000,12.124593994140625,-1.5449047984451054,4.601322705604136,8.521236680218577
1773522031592632000,12.134632080078125,-1.5531126548200844,4.601132735989988,8.519847856208681
1773522031602671000,12.144671142578124,-1.5616061962686478,4.600617772205173,8.518573013967275
1773522031612709000,12.154709228515625,-1.5697200907498596,4.600101054854691,8.517361300089954
1773522031622748200,12.164748046875,-1.5781417360059915,4.599885658538342,8.515919284588097
1773522031632786000,12.174785888671876,-1.5882356983885169,4.5997395280659195,8.514121295255421
1773522031642824200,12.18482421875,-1.6008913279525934,4.599984734998643,8.511620126089452
1773522031652863000,12.194863037109375,-1.6168182342723012,4.600262382896244,8.508459031710029
1773522031662901200,12.2049013671875,-1.635358391830325,4.6008697011396285,8.504585405147076
1773522031672939000,12.21493896484375,-1.6561084805227815,4.601847314000129,8.500040747454761
1773522031682978000,12.22497802734375,-1.678587584964931,4.603246367143094,8.494873573949933
1773522031693016000,12.23501611328125,-1.701596120108664,4.605151908503473,8.489259825721383
1773522031703054000,12.24505419921875,-1.7235301578886806,4.607644017580151,8.483481242319941
1773522031713093000,12.255093017578124,-1.7431294691108166,4.610459659522771,8.47794406645894
1773522031723131100,12.265131103515625,-1.7605862153463065,4.613479591865837,8.472692721801996
1773522031733170000,12.275169921875,-1.7760512032426892,4.61656089900732,8.467786245059967
1773522031743208200,12.285208251953126,-1.7899857667014,4.619587845613062,8.463198332747817
1773522031753246000,12.295245849609374,-1.8028725746728478,4.622739295381307,8.458741353338956
1773522031763285200,12.30528515625,-1.8153288822725415,4.625609297859668,8.454507661291956
1773522031773323000,12.315322998046875,-1.8275649712502955,4.628326447863876,8.450383274838329
1773522031783361300,12.325361328125,-1.839451808398962,4.631038044910133,8.446317340573668
1773522031793400000,12.335400146484375,-1.8497803101897239,4.633928213393688,8.442475862714648
1773522031803438000,12.34543798828125,-1.8566576486133037,4.636877418588101,8.439346917039156
1773522031813476000,12.35547607421875,-1.8585861324578523,4.6400446504473685,8.437180678915977
1773522031823515100,12.36551513671875,-1.8550946370802819,4.642857077519595,8.436402680280803
1773522031833553200,12.37555322265625,-1.8463398143470287,4.644813764545321,8.437245560845732
1773522031843591200,12.385591064453125,-1.833517888305336,4.645713343733549,8.439546239003539
1773522031853630000,12.3956298828125,-1.8188763456210493,4.645825864197313,8.442652388325333
1773522031863668200,12.405668212890625,-1.803892565370351,4.645704868166148,8.445933894214033
1773522031873707000,12.41570703125,-1.7901691604442893,4.645718896691501,8.448843059659003
1773522031883745300,12.425745361328126,-1.7780106667473912,4.6462660091802475,8.451111589112877
1773522031893783000,12.435782958984374,-1.7670253084830938,4.647726144860685,8.452611472281813
1773522031903822000,12.445822021484375,-1.7573842044346033,4.6499271620363,8.453411098226905
1773522031913860000,12.455860107421875,-1.7497589702531695,4.6525598486274475,8.453544953739643
1773522031923898000,12.465898193359376,-1.74335173355937,4.655228483314812,8.453398823267221
1773522031933937200,12.475937255859375,-1.7357509031668303,4.658015775945782,8.453428049361705
1773522031943975200,12.48597509765625,-1.7271460102982819,4.660669213064015,8.453727909091114
1773522031954013200,12.49601318359375,-1.719321892543882,4.662610702520609,8.454252225226163
1773522031964052200,12.50605224609375,-1.7136431162551045,4.663540384586155,8.45489227669537
1773522031974090000,12.516090087890625,-1.708961826571077,4.663393085069954,8.455921619743108
1773522031984128300,12.526128173828125,-1.702526678957045,4.662368710458279,8.457784491005539
1773522031994167000,12.5361669921875,-1.6922797179698943,4.660543833118677,8.460846801185607
1773522032004205300,12.546205322265624,-1.6794507776655256,4.658386070562899,8.46458949484527
1773522032014244000,12.556244140625,-1.6664793601505457,4.656174239732325,8.468370182427764
1773522032024282000,12.5662822265625,-1.6557161202043293,4.653575163149833,8.471907124382257
1773522032034320100,12.576320068359376,-1.6474262846343217,4.650647293004393,8.475131931647658
1773522032044359200,12.586359130859375,-1.6413422885455191,4.647359065113961,8.478114746850729
1773522032054397200,12.596397216796875,-1.6369009450972078,4.643634199371934,8.481014559945464
1773522032064435000,12.60643505859375,-1.6335031193524598,4.6398847837105395,8.483720896294713
1773522032074474000,12.616473876953124,-1.632106842688471,4.636467084221541,8.485859077367186
1773522032084512300,12.62651220703125,-1.6329253194645046,4.6335672711268066,8.487284141734241
1773522032094550000,12.636550048828125,-1.636331913037598,4.631768989533185,8.487610889470577
1773522032104589300,12.64658935546875,-1.643318118663132,4.630601114797592,8.48689777276516
1773522032114627000,12.656626953125,-1.6531692122004926,4.6304792419835925,8.485051268115638
1773522032124665000,12.6666650390625,-1.6642910563260316,4.630378996479511,8.482930622699856
1773522032134704000,12.6767041015625,-1.6749731938600538,4.628573408362269,8.481814185890554
1773522032144742000,12.686741943359374,-1.684441863951087,4.623200775413215,8.48286807885766
1773522032154780200,12.6967802734375,-1.6918692374728619,4.613359764878451,8.48674755063951
1773522032164819200,12.706819091796875,-1.695225123772025,4.6003889318853615,8.493116501149535
1773522032174854000,12.71685400390625,-1.6932168526895344,4.586479356737435,8.501035603711008
1773522032184892700,12.726892578125,-1.6849496673427522,4.573970880559086,8.509413555955886
1773522032194930700,12.7369306640625,-1.6726042727716266,4.565713632084429,8.516281103637814
1773522032204968700,12.74696875,-1.6623377303011715,4.5637315183565015,8.519353935211896
1773522032215007700,12.7570078125,-1.6603734444908798,4.568433996959031,8.517214585095644
1773522032225045800,12.767045654296876,-1.6705942481234668,4.5784044790923595,8.509858961635828
1773522032235083800,12.777083740234374,-1.6941120479635894,4.590919385011494,8.49845961574316
1773522032245122600,12.78712255859375,-1.7298101149410008,4.603920613142848,8.484223585119842
1773522032255160800,12.797160888671876,-1.7741222810067236,4.614942357894778,8.469072777739166
1773522032265198600,12.807198486328126,-1.8224227860562503,4.622625605873763,8.4546128752321
1773522032275238000,12.81723779296875,-1.8697753427311776,4.626586910720169,8.44209767705202
1773522032285275600,12.827275634765625,-1.909827659395337,4.6264209065034985,8.433218205025792
1773522032295314000,12.83731396484375,-1.938036831922084,4.622550494810938,8.428905018001794
1773522032305352700,12.847352783203124,-1.952968881985545,4.616841761775315,8.428587038093804
1773522032315390700,12.857390625,-1.9553378030739723,4.61224449711293,8.4305539542526
1773522032325428700,12.8674287109375,-1.9466963775873183,4.610375488370657,8.4335747633785
1773522032335467800,12.8774677734375,-1.930977853321284,4.611131859695911,8.436775605246424
1773522032345505800,12.887505859375,-1.9128340016044676,4.613140861430764,8.439808689332008
1773522032355544800,12.897544921875,-1.8956858829267322,4.614523255699873,8.442921852916479
1773522032365582600,12.90758251953125,-1.8800879163004456,4.615109531155229,8.446088207992911
1773522032375620900,12.917620849609374,-1.8629697543695567,4.615234911100566,8.449812781473995
1773522032385659600,12.92765966796875,-1.8407063385047018,4.6143087361663575,8.455196228078007
1773522032395698000,12.937697998046875,-1.811162264112383,4.6123508800968525,8.462640698865055
1773522032405735700,12.947735595703126,-1.7722649627022444,4.609047746898233,8.472670509970188
1773522032415774700,12.957774658203125,-1.7241965128429233,4.604087786403298,8.485276309043169
1773522032425812700,12.967812744140625,-1.669679325235635,4.5983673629298805,8.499269763082266
1773522032435850800,12.977850830078125,-1.6140148672893642,4.593178269854188,8.512816642397642
1773522032445889800,12.987889892578124,-1.5636068685665725,4.5892719100654125,8.52432470936179
