time,seconds_elapsed,z,y,x
1773522019546601500,0.0886015625,-0.2675631046295166,1.241603970527649,0.5969332456588745
1773522019556639500,0.098639404296875,-0.19193200767040253,1.6454867124557495,0.48094215989112854
1773522019566677500,0.108677490234375,0.07389378547668457,1.5062144994735718,0.15986865758895874
1773522019576715500,0.118715576171875,0.14264382421970367,0.8893163204193115,-0.22855471074581146
1773522019586754600,0.128754638671875,-0.0465567484498024,0.32249146699905396,-0.5847342014312744
1773522019596792600,0.13879248046875,-0.12323927879333496,0.37501832842826843,-0.9113909006118774
1773522019606830600,0.14883056640625,0.12183337658643723,1.4346991777420044,-0.9754836559295654
1773522019616869400,0.158869384765625,0.5704098343849182,2.3656885623931885,-1.094383716583252
1773522019626907600,0.16890771484375,1.2260332107543945,2.866072654724121,-1.1455609798431396
1773522019636945400,0.1789453125,1.9040793180465698,2.62801194190979,-1.276452898979187
1773522019646984700,0.188984619140625,2.1817455291748047,2.30110502243042,-1.3864152431488037
1773522019657022500,0.1990224609375,1.8327600955963135,2.4976494312286377,-1.3069531917572021
1773522019667060700,0.209060791015625,1.1895017623901367,2.456220865249634,-1.1057004928588867
1773522019677098500,0.219098388671875,0.6680508255958557,2.0119435787200928,-0.9654114842414856
1773522019687137500,0.229137451171875,0.40860068798065186,0.9921524524688721,-0.9245388507843018
1773522019697175600,0.239175537109375,0.2954608201980591,-0.18176254630088806,-0.8345447778701782
1773522019707213600,0.249213623046875,0.22664283215999603,-1.2374175786972046,-0.623565673828125
1773522019717252600,0.259252685546875,0.1413513720035553,-2.128002166748047,-0.3800904452800751
1773522019727290600,0.26929052734375,0.003062749281525612,-2.6677584648132324,-0.14838308095932007
1773522019737328600,0.27932861328125,-0.1751551777124405,-2.4980194568634033,0.07795604318380356
1773522019747366400,0.289366455078125,-0.3001250922679901,-2.045579195022583,0.2463379055261612
1773522019757405400,0.299405517578125,-0.36433523893356323,-1.7368096113204956,0.3090636134147644
1773522019767443700,0.309443603515625,-0.41590121388435364,-1.4676158428192139,0.2854388356208801
1773522019777481500,0.3194814453125,-0.46896231174468994,-1.1275073289871216,0.2764890193939209
1773522019787520800,0.329520751953125,-0.5246977210044861,-1.1036367416381836,0.2051430344581604
1773522019797558500,0.33955859375,-0.6311311721801758,-1.552525281906128,-0.1328139752149582
1773522019807596500,0.349596435546875,-0.8497952222824097,-1.362432837486267,-0.44651973247528076
1773522019817635600,0.359635498046875,-1.0494086742401123,-0.6671976447105408,-0.5961225032806396
1773522019827673300,0.36967333984375,-1.1816837787628174,0.014639786444604397,-0.7645357251167297
1773522019837711600,0.379711669921875,-1.236835241317749,0.5735334157943726,-0.9554782509803772
1773522019847749400,0.389749267578125,-1.254772424697876,0.9423974752426147,-1.1392604112625122
1773522019857788700,0.39978857421875,-1.181179404258728,1.0715945959091187,-1.2033826112747192
1773522019867826400,0.409826416015625,-0.9684224724769592,1.0317312479019165,-1.1075048446655273
1773522019877864700,0.41986474609375,-0.6957278251647949,0.9476267695426941,-0.8652970790863037
1773522019887903500,0.429903564453125,-0.4067130386829376,0.7818745374679565,-0.5071754455566406
1773522019897941500,0.43994140625,-0.1767008751630783,0.5465547442436218,-0.09742973744869232
1773522019907979500,0.4499794921875,-0.03611530736088753,0.2712489068508148,0.2832540273666382
1773522019918017500,0.460017578125,-0.0037746792659163475,0.024386649951338768,0.5664466023445129
1773522019928056600,0.470056640625,-0.013550053350627422,-0.3032556176185608,0.7239113450050354
1773522019938094600,0.480094482421875,0.001674705184996128,-0.7746191620826721,0.8124963641166687
1773522019948132600,0.490132568359375,0.057599227875471115,-1.1956202983856201,0.8741239309310913
1773522019958171600,0.500171630859375,0.1065201684832573,-1.4550812244415283,0.9205172657966614
1773522019968209400,0.51020947265625,0.0959729552268982,-1.525917410850525,0.949406623840332
1773522019978247700,0.52024755859375,-0.02505333349108696,-1.516426920890808,0.9152377247810364
1773522019988286500,0.530286376953125,-0.22948262095451355,-1.4275305271148682,0.8208677172660828
1773522019998324700,0.54032470703125,-0.4559653103351593,-1.3272963762283325,0.7108427286148071
1773522020008362500,0.550362548828125,-0.6253049969673157,-1.317275047302246,0.610475480556488
1773522020018400500,0.560400390625,-0.7025800943374634,-1.3030924797058105,0.5370955467224121
1773522020028439600,0.570439453125,-0.6830248832702637,-1.2097296714782715,0.47896677255630493
1773522020038477300,0.580477294921875,-0.6225979924201965,-1.045451045036316,0.4138042628765106
1773522020048515600,0.590515625,-0.5555066466331482,-0.7608441114425659,0.30847057700157166
1773522020058554600,0.6005546875,-0.49087220430374146,-0.35276076197624207,0.12029162794351578
1773522020068592600,0.610592529296875,-0.39837154746055603,0.11960000544786453,-0.06687892228364944
1773522020078630400,0.62063037109375,-0.2988974153995514,0.4055883586406708,-0.20369136333465576
1773522020088669400,0.63066943359375,-0.24102477729320526,0.358465313911438,-0.26705172657966614
1773522020098707500,0.64070751953125,-0.2502928674221039,0.15501390397548676,-0.2109687179327011
1773522020108745500,0.650745361328125,-0.3237215578556061,-0.0055065033957362175,-0.03455638885498047
1773522020118784500,0.660784423828125,-0.4468775689601898,0.010624529793858528,0.19489172101020813
1773522020128822500,0.670822509765625,-0.5461902618408203,0.12609802186489105,0.37264880537986755
1773522020138860500,0.680860595703125,-0.5545645952224731,0.1712750792503357,0.4455967843532562
1773522020148898600,0.690898681640625,-0.47197678685188293,0.0939120501279831,0.4474068880081177
1773522020158937300,0.700937255859375,-0.38885393738746643,-0.08357618749141693,0.4386565387248993
1773522020168976000,0.710975830078125,-0.34686464071273804,-0.30926334857940674,0.4289810359477997
1773522020179014000,0.721013916015625,-0.3577934503555298,-0.5654836297035217,0.3980731964111328
1773522020189053000,0.731052978515625,-0.39550602436065674,-0.791885495185852,0.35831183195114136
1773522020199091000,0.741091064453125,-0.4447113871574402,-0.8844359517097473,0.33522993326187134
1773522020209129000,0.75112890625,-0.5101861953735352,-0.842508852481842,0.31406912207603455
1773522020219168000,0.76116796875,-0.6006569862365723,-0.7427902221679688,0.29546481370925903
1773522020229205800,0.771205810546875,-0.6903789639472961,-0.687879741191864,0.27663692831993103
1773522020239244000,0.781244140625,-0.749871015548706,-0.7037441730499268,0.27006399631500244
1773522020249282800,0.79128271484375,-0.7471370100975037,-0.7592917084693909,0.28709906339645386
1773522020259321000,0.801321044921875,-0.6815638542175293,-0.840802788734436,0.32913467288017273
1773522020269358800,0.81135888671875,-0.6054890751838684,-0.9319872856140137,0.3902142643928528
1773522020279396900,0.82139697265625,-0.5544620752334595,-0.9545729756355286,0.44756197929382324
1773522020289436000,0.831435791015625,-0.5587383508682251,-0.9012911915779114,0.4698275029659271
1773522020299473700,0.8414736328125,-0.5813616514205933,-0.8101456165313721,0.4401457905769348
1773522020309512000,0.851511962890625,-0.5867236852645874,-0.8005249500274658,0.36206647753715515
1773522020319551000,0.861551025390625,-0.561430037021637,-0.8844273090362549,0.2765584886074066
1773522020329589000,0.871589111328125,-0.5152790546417236,-0.9822592735290527,0.23053985834121704
1773522020339626800,0.881626708984375,-0.4706021249294281,-0.9954917430877686,0.2389165610074997
1773522020349665800,0.891665771484375,-0.4832119047641754,-0.8997411727905273,0.2522551119327545
1773522020359703800,0.901703857421875,-0.5666791200637817,-0.6772010326385498,0.19741687178611755
1773522020369741800,0.911741943359375,-0.6852779388427734,-0.36443281173706055,0.07241924107074738
1773522020379780900,0.92178076171875,-0.7430386543273926,-0.11657451838254929,-0.11199800670146942
1773522020389819000,0.93181884765625,-0.7051680088043213,-0.040804192423820496,-0.3062772750854492
1773522020399857000,0.94185693359375,-0.6081530451774597,-0.1559363752603531,-0.4307984411716461
1773522020409896000,0.95189599609375,-0.5066514611244202,-0.30767109990119934,-0.42924854159355164
1773522020419933700,0.96193359375,-0.42581599950790405,-0.4504666030406952,-0.30994001030921936
1773522020429972000,0.971971923828125,-0.3440244197845459,-0.5429219007492065,-0.11344578117132187
1773522020440009700,0.982009765625,-0.25576886534690857,-0.5597538948059082,0.12182825803756714
1773522020450049000,0.992049072265625,-0.1806512176990509,-0.5306002497673035,0.3521301746368408
1773522020460086800,1.002086669921875,-0.13097606599330902,-0.4921215772628784,0.513442873954773
1773522020470125000,1.012125,-0.11855988949537277,-0.4312259256839752,0.5705012083053589
1773522020480163800,1.022163818359375,-0.12420579046010971,-0.39027929306030273,0.516839861869812
1773522020490201900,1.032201904296875,-0.1307462602853775,-0.4108954966068268,0.3866627514362335
1773522020500240000,1.042239990234375,-0.1437307596206665,-0.4523926079273224,0.2570669651031494
1773522020510279000,1.05227880859375,-0.18313650786876678,-0.49936747550964355,0.1921844780445099
1773522020520317000,1.06231689453125,-0.2759849727153778,-0.5510022044181824,0.1721721589565277
1773522020530355000,1.07235498046875,-0.3760383427143097,-0.595666229724884,0.16739346086978912
1773522020540393700,1.082393798828125,-0.43289467692375183,-0.5900728106498718,0.17400316894054413
1773522020550432000,1.092431884765625,-0.4311963617801666,-0.5212337970733643,0.18730485439300537
1773522020560469800,1.1024697265625,-0.3907591998577118,-0.4289904534816742,0.2018965780735016
1773522020570509000,1.112509033203125,-0.34188565611839294,-0.3135349452495575,0.20925462245941162
1773522020580546800,1.122546875,-0.29324570298194885,-0.16588981449604034,0.19719423353672028
1773522020590584800,1.132584716796875,-0.24730409681797028,-0.017593344673514366,0.17845219373703003
1773522020600623900,1.142623779296875,-0.2026308923959732,0.10371550917625427,0.1542467176914215
1773522020610662000,1.152661865234375,-0.1692655086517334,0.18622265756130219,0.1356211006641388
1773522020620700000,1.162699951171875,-0.17122533917427063,0.2144995629787445,0.12634877860546112
1773522020630737700,1.172737548828125,-0.20451955497264862,0.21165139973163605,0.11689361184835434
1773522020640777000,1.18277685546875,-0.2587398886680603,0.183465838432312,0.09053417295217514
1773522020650814700,1.192814697265625,-0.305367648601532,0.11291211098432541,0.05250908061861992
1773522020660853000,1.20285302734375,-0.337603360414505,0.009982803836464882,0.03729124739766121
1773522020670891800,1.212891845703125,-0.34196585416793823,-0.11730574071407318,0.0383223220705986
1773522020680929800,1.2229296875,-0.32134073972702026,-0.2587243914604187,0.04921891540288925
1773522020690967800,1.2329677734375,-0.2826085388660431,-0.38386809825897217,0.06863425672054291
1773522020701006800,1.2430068359375,-0.2263769805431366,-0.46967169642448425,0.10653476417064667
1773522020711044900,1.253044921875,-0.18420261144638062,-0.513222336769104,0.16227391362190247
1773522020721083000,1.263082763671875,-0.17945632338523865,-0.4545347988605499,0.21494272351264954
1773522020731121700,1.27312158203125,-0.21484044194221497,-0.31925392150878906,0.22933019697666168
1773522020741160000,1.283159912109375,-0.26085135340690613,-0.19474849104881287,0.19018599390983582
1773522020751197700,1.29319775390625,-0.28806960582733154,-0.08314388990402222,0.11816965043544769
1773522020761237000,1.303237060546875,-0.2827717661857605,0.015621835365891457,0.03581937775015831
1773522020771274800,1.313274658203125,-0.27103522419929504,0.08337772637605667,-0.03564094007015228
1773522020781313000,1.32331298828125,-0.2653485834598541,0.13295486569404602,-0.09458815306425095
1773522020791351800,1.333351806640625,-0.2563672661781311,0.1798475831747055,-0.13318583369255066
1773522020801389800,1.343389892578125,-0.23404493927955627,0.1933348923921585,-0.152361661195755
1773522020811427800,1.353427734375,-0.20550312101840973,0.1763146072626114,-0.14597755670547485
1773522020821467000,1.363466796875,-0.18614140152931213,0.1343328058719635,-0.11972518265247345
1773522020831505000,1.3735048828125,-0.1774618774652481,0.061823610216379166,-0.09956968575716019
1773522020841543000,1.38354296875,-0.1651087999343872,-0.01645042560994625,-0.09090668708086014
1773522020851581700,1.393581787109375,-0.1406250298023224,-0.07143546640872955,-0.06989523023366928
1773522020861620000,1.403619873046875,-0.10762633383274078,-0.08642107248306274,-0.0432116873562336
1773522020871657700,1.41365771484375,-0.083795927464962,-0.08707508444786072,-0.004480235278606415
1773522020881697000,1.423697021484375,-0.07025401294231415,-0.033218514174222946,0.033897511661052704
1773522020891734800,1.43373486328125,-0.07126382738351822,0.03734997659921646,0.039378900080919266
1773522020901773000,1.44377294921875,-0.07783997058868408,0.06588494777679443,0.005219596438109875
1773522020911811800,1.453811767578125,-0.07608895748853683,0.050998784601688385,-0.062443241477012634
1773522020921849900,1.463849853515625,-0.06360459327697754,0.017465855926275253,-0.14130716025829315
1773522020931887900,1.473887939453125,-0.03340325877070427,-0.01442489493638277,-0.19258998334407806
1773522020941926000,1.48392578125,0.006249879486858845,-0.053523559123277664,-0.2010820060968399
1773522020951965000,1.49396484375,0.03836355730891228,-0.09627170115709305,-0.1704944223165512
1773522020962002700,1.504002685546875,0.05892369523644447,-0.13518022000789642,-0.12383849918842316
1773522020972041000,1.514041015625,0.05898868665099144,-0.15096203982830048,-0.09742306172847748
1773522020982080000,1.524080078125,0.04695706069469452,-0.12134873867034912,-0.10184763371944427
1773522020992117800,1.53411767578125,0.031347792595624924,-0.04938945919275284,-0.14140553772449493
1773522021002155800,1.54415576171875,0.0027478374540805817,0.03855744004249573,-0.1981135606765747
1773522021012194800,1.55419482421875,-0.032946791499853134,0.09402834624052048,-0.25691330432891846
1773522021022232800,1.56423291015625,-0.07457013428211212,0.11971133202314377,-0.2955288887023926
1773522021032270800,1.574270751953125,-0.10996514558792114,0.15288446843624115,-0.30974963307380676
1773522021042310000,1.584309814453125,-0.12082258611917496,0.17446646094322205,-0.3111019730567932
1773522021052348000,1.594347900390625,-0.09799957275390625,0.20214879512786865,-0.31038522720336914
1773522021062386000,1.604385986328125,-0.04942137748003006,0.20452353358268738,-0.30458778142929077
1773522021072425000,1.614425048828125,0.010876557789742947,0.20023736357688904,-0.27008530497550964
1773522021082462700,1.624462646484375,0.06124918535351753,0.20244671404361725,-0.20508764684200287
1773522021092501000,1.6345009765625,0.08366208523511887,0.21185709536075592,-0.11776331067085266
1773522021102539800,1.644539794921875,0.07523398101329803,0.23501460254192352,-0.036789897829294205
1773522021112577800,1.654577880859375,0.049023959785699844,0.25448372960090637,0.016900846734642982
1773522021122615800,1.66461572265625,0.012864092364907265,0.2405170351266861,0.031427592039108276
1773522021132654800,1.67465478515625,-0.028876658529043198,0.24490875005722046,-0.008074654266238213
1773522021142692900,1.68469287109375,-0.07239324599504471,0.3243148624897003,-0.08072275668382645
1773522021152731000,1.69473095703125,-0.09803105890750885,0.47285276651382446,-0.1750822365283966
1773522021162770000,1.70477001953125,-0.09841934591531754,0.6725943684577942,-0.27324050664901733
1773522021172807700,1.7148076171875,-0.05445927381515503,0.8970288634300232,-0.3950209319591522
1773522021182846000,1.724845947265625,0.04302200675010681,1.1888127326965332,-0.5147718787193298
1773522021192884700,1.734884765625,0.205630362033844,1.5167865753173828,-0.6120922565460205
1773522021202922800,1.7449228515625,0.3418307900428772,1.8415852785110474,-0.6606783866882324
1773522021212960800,1.754960693359375,0.4146871566772461,2.11861515045166,-0.6399912238121033
1773522021222999800,1.764999755859375,0.43327096104621887,2.3077003955841064,-0.5662994384765625
1773522021233037800,1.775037841796875,0.43690773844718933,2.523566246032715,-0.4863470196723938
1773522021243075800,1.785075927734375,0.41398003697395325,2.953557252883911,-0.45267215371131897
1773522021253114600,1.795114501953125,0.3477998673915863,3.6926190853118896,-0.43737590312957764
1773522021263153000,1.80515283203125,0.42054757475852966,4.790798664093018,-0.500178873538971
1773522021273190700,1.815190673828125,0.6277003288269043,5.545566558837891,-0.8158390522003174
1773522021283230000,1.82522998046875,0.7559267282485962,5.664684772491455,-1.2974810600280762
1773522021293267700,1.835267822265625,0.6017643213272095,5.44192361831665,-1.6569722890853882
1773522021303306000,1.845305908203125,0.25333598256111145,5.28583288192749,-1.7643955945968628
1773522021313344800,1.8553447265625,-0.09026844054460526,4.943346977233887,-1.7648860216140747
1773522021323382800,1.8653828125,-0.5802618861198425,4.123761177062988,-1.4492982625961304
1773522021333420800,1.8754208984375,-1.1044915914535522,3.967846155166626,-0.7139115929603577
1773522021343459800,1.8854599609375,-1.4341187477111816,3.932725667953491,-0.16085393726825714
1773522021353497900,1.895497802734375,-1.6544380187988281,3.35341215133667,0.05105597898364067
1773522021363536000,1.905535888671875,-1.8435264825820923,3.0553934574127197,0.14023645222187042
1773522021373574700,1.91557470703125,-2.004166603088379,2.9232912063598633,0.17725104093551636
1773522021383613000,1.925613037109375,-2.07230806350708,2.9364800453186035,0.1835443675518036
1773522021393650700,1.935650634765625,-1.971967339515686,3.159529447555542,0.17348693311214447
1773522021403690000,1.94568994140625,-1.7260587215423584,3.436591386795044,0.13904772698879242
1773522021413727700,1.955727783203125,-1.4938414096832275,3.486812114715576,0.14350523054599762
1773522021423766000,1.96576611328125,-1.3165234327316284,3.3064215183258057,0.20918942987918854
1773522021433804800,1.9758046875,-1.1435718536376953,2.3596198558807373,0.3173351585865021
1773522021443842800,1.9858427734375,-1.0372593402862549,0.4414663314819336,0.3486936390399933
1773522021453880800,1.995880859375,-1.0821545124053955,-0.9061785936355591,-0.010326774790883064
1773522021463919900,2.005919921875,-0.9061105251312256,-1.1859780550003052,-0.5245432257652283
1773522021473958000,2.0159580078125,-0.6490640640258789,-1.1068235635757446,-0.8759832382202148
1773522021483995600,2.02599560546875,-0.39133426547050476,-1.0239803791046143,-0.910703182220459
1773522021494034700,2.03603466796875,-0.15384799242019653,-1.0055171251296997,-0.8500499129295349
1773522021504073000,2.046072998046875,-0.05149392783641815,-1.151038408279419,-0.7707891464233398
1773522021514110700,2.05611083984375,-0.0678877905011177,-1.3005112409591675,-0.727803111076355
1773522021524150000,2.06614990234375,-0.0942395031452179,-1.4246175289154053,-0.6423547863960266
1773522021534187800,2.076187744140625,-0.18667760491371155,-1.594800353050232,-0.4634443521499634
1773522021544225800,2.086225830078125,-0.34447336196899414,-1.6525541543960571,-0.14450843632221222
1773522021554264800,2.096264892578125,-0.5384901762008667,-1.6016141176223755,0.19907723367214203
1773522021564302600,2.106302490234375,-0.8169229030609131,-1.506009817123413,0.4120006859302521
1773522021574340900,2.1163408203125,-1.1486330032348633,-1.4520759582519531,0.4397595524787903
1773522021584379600,2.126379638671875,-1.4665547609329224,-1.4626693725585938,0.36279284954071045
1773522021594418000,2.13641796875,-1.8501313924789429,-1.3814311027526855,0.2566908299922943
1773522021604455700,2.14645556640625,-2.2490854263305664,-1.191694736480713,0.19591110944747925
1773522021614494700,2.15649462890625,-2.6413493156433105,-0.9850925803184509,0.2034325897693634
1773522021624532700,2.16653271484375,-3.008894443511963,-0.8192710876464844,0.20957304537296295
1773522021634570800,2.17657080078125,-3.2838492393493652,-0.7397582530975342,0.1286555379629135
1773522021644609800,2.18660986328125,-3.3900763988494873,-0.6613382697105408,-0.021338218823075294
1773522021654647800,2.196647705078125,-3.5384581089019775,-0.6584156155586243,-0.31034862995147705
1773522021664685800,2.206685791015625,-3.7645747661590576,-0.6394875049591064,-0.7832844853401184
1773522021674724900,2.216724853515625,-4.002799034118652,-0.43674084544181824,-1.3705490827560425
1773522021684762600,2.2267626953125,-4.0436320304870605,-0.11917434632778168,-1.9130494594573975
1773522021694801000,2.23680078125,-3.9605507850646973,0.1365630179643631,-2.3695223331451416
1773522021704839700,2.246839599609375,-3.809795618057251,0.47784313559532166,-2.7743799686431885
1773522021714878000,2.2568779296875,-3.6798033714294434,0.7073690891265869,-3.188798427581787
1773522021724915700,2.266915771484375,-3.4298503398895264,0.7748613357543945,-3.6219677925109863
1773522021734954800,2.276954833984375,-2.9491019248962402,0.6741494536399841,-3.963395595550537
1773522021744992800,2.28699267578125,-2.494204521179199,0.41177964210510254,-4.219249725341797
1773522021755030800,2.29703076171875,-2.0620124340057373,0.24894607067108154,-4.391252040863037
1773522021765069800,2.30706982421875,-1.772857427597046,0.17368914186954498,-4.427609443664551
1773522021775107800,2.31710791015625,-1.72957181930542,-0.008236447349190712,-4.3674139976501465
1773522021785145900,2.327145751953125,-1.443867802619934,-0.05473337322473526,-4.149212837219238
1773522021795185000,2.337184814453125,-1.0344367027282715,0.03178740292787552,-3.927534341812134
1773522021805222700,2.34722265625,-0.6388328075408936,0.3791981041431427,-3.9340012073516846
1773522021815261000,2.357260986328125,-0.20818296074867249,1.0206360816955566,-4.161715030670166
1773522021825299700,2.3672998046875,0.23857323825359344,1.8640834093093872,-4.425851345062256
1773522021835338000,2.377337890625,0.6340949535369873,2.620551824569702,-4.604626178741455
1773522021845375700,2.387375732421875,0.9445135593414307,3.059849739074707,-4.535921573638916
1773522021855414800,2.397414794921875,1.218873381614685,3.154139280319214,-4.173191547393799
1773522021865452800,2.407452880859375,1.5272938013076782,2.9428884983062744,-3.612485647201538
1773522021875490800,2.41749072265625,1.8980343341827393,2.54030179977417,-3.0580337047576904
1773522021885529900,2.42752978515625,2.385713577270508,2.0567057132720947,-2.6203551292419434
1773522021895568000,2.43756787109375,2.8784968852996826,1.5796982049942017,-2.3449270725250244
1773522021905606000,2.44760595703125,3.198864221572876,1.1979625225067139,-2.1734561920166016
1773522021915645000,2.45764501953125,3.333883047103882,0.93820720911026,-2.0235517024993896
1773522021925682700,2.4676826171875,3.3689258098602295,0.829497218132019,-1.9097872972488403
1773522021935720700,2.477720703125,3.426145553588867,0.8293018341064453,-1.8779184818267822
1773522021945759700,2.487759765625,3.4750008583068848,0.6278502345085144,-1.855607509613037
1773522021955797800,2.4977978515625,3.4612812995910645,-0.021135108545422554,-1.6843634843826294
1773522021965835800,2.507835693359375,3.1595585346221924,-0.1461838334798813,-0.9959947466850281
1773522021975874800,2.517874755859375,2.335775375366211,-0.21365180611610413,-0.15335215628147125
1773522021985912800,2.527912841796875,1.755617618560791,-0.5440039038658142,0.2701985836029053
1773522021995950600,2.53795068359375,1.4557204246520996,-1.033956527709961,0.3831040859222412
1773522022005990000,2.547989990234375,1.3881442546844482,-1.3267098665237427,0.48713913559913635
1773522022016027600,2.558027587890625,1.3500422239303589,-1.700923204421997,0.3406045436859131
1773522022026066000,2.56806591796875,1.6336172819137573,-1.9139089584350586,-0.14590464532375336
1773522022036104700,2.578104736328125,2.0311837196350098,-1.832977294921875,-0.6648300886154175
1773522022046142700,2.588142822265625,2.3773059844970703,-1.711113691329956,-0.9429395198822021
1773522022056180700,2.5981806640625,2.560612201690674,-1.737144947052002,-1.0837069749832153
1773522022066219800,2.6082197265625,2.646655321121216,-1.7120217084884644,-1.1308097839355469
1773522022076257800,2.6182578125,2.744619846343994,-1.623162031173706,-1.1647635698318481
1773522022086295800,2.6282958984375,2.8992860317230225,-1.6292668581008911,-1.2286993265151978
1773522022096334600,2.63833447265625,2.9805312156677246,-1.72926926612854,-1.281982183456421
1773522022106372900,2.648372802734375,2.9571197032928467,-1.9211117029190063,-1.374541163444519
1773522022116410600,2.65841064453125,2.9162917137145996,-1.910857081413269,-1.4788762331008911
1773522022126450000,2.668449951171875,2.9483206272125244,-1.7544394731521606,-1.5621203184127808
1773522022136487700,2.67848779296875,3.0864667892456055,-1.6782242059707642,-1.4938806295394897
1773522022146526000,2.68852587890625,3.1631598472595215,-1.8706855773925781,-1.3589683771133423
1773522022156564700,2.698564697265625,3.110527992248535,-2.1876535415649414,-1.0497643947601318
1773522022166606000,2.708606201171875,2.978281021118164,-2.4566650390625,-0.6445931792259216
1773522022176644400,2.718644287109375,2.7396624088287354,-2.4892356395721436,-0.3330826759338379
1773522022186683100,2.72868310546875,2.40771746635437,-2.4787051677703857,-0.26410868763923645
1773522022196721400,2.738721435546875,2.0798275470733643,-1.9987847805023193,-0.042539723217487335
1773522022206759200,2.74875927734375,1.6118477582931519,-1.417452335357666,0.18724340200424194
1773522022216798200,2.758798095703125,1.1361647844314575,-0.9354637265205383,0.3239963948726654
1773522022226836200,2.768836181640625,0.7599291205406189,-0.6710379123687744,0.29739513993263245
1773522022236874200,2.778874267578125,0.5172967314720154,-0.691592276096344,0.1668095886707306
1773522022246913300,2.788913330078125,0.591590404510498,-1.1721203327178955,0.07989387214183807
1773522022256951300,2.798951416015625,0.6467673778533936,-1.4320402145385742,0.34428292512893677
1773522022266989300,2.8089892578125,0.6888107061386108,-2.094081163406372,0.5005614757537842
1773522022277028400,2.8190283203125,0.7664405703544617,-2.441206693649292,0.7301902174949646
1773522022287066000,2.829066162109375,0.7509580254554749,-2.3091251850128174,1.0120189189910889
1773522022297104400,2.8391044921875,0.6407701373100281,-1.9315452575683594,1.1761163473129272
1773522022307143200,2.84914306640625,0.3476365804672241,-1.2779147624969482,1.3202718496322632
1773522022317181400,2.859181396484375,-0.12064856290817261,-0.6676148772239685,1.2722450494766235
1773522022327220200,2.86922021484375,-0.560917854309082,-0.4878675043582916,1.1312029361724854
1773522022337258200,2.87925830078125,-1.0355263948440552,-0.44703036546707153,1.1182645559310913
1773522022347296300,2.889296142578125,-1.3920930624008179,-0.36304226517677307,1.0756916999816895
1773522022357335300,2.899335205078125,-1.5632017850875854,-0.17085516452789307,0.9393861293792725
1773522022367373300,2.909373291015625,-1.3298572301864624,-0.005517865531146526,0.8039092421531677
1773522022377411300,2.919411376953125,-0.6711333394050598,0.026201456785202026,0.7694575190544128
1773522022387450000,2.9294501953125,-0.18256498873233795,-0.3968733847141266,0.8376387357711792
1773522022397488400,2.93948828125,-0.06901343166828156,-0.8886000514030457,0.8509302139282227
1773522022407526100,2.949526123046875,-0.327671617269516,-1.0062637329101562,0.803531289100647
1773522022417565400,2.9595654296875,-0.7298928499221802,-0.8256123065948486,0.7755553126335144
1773522022427603200,2.969603271484375,-0.9677863717079163,-0.2909238338470459,0.9670696258544922
1773522022437641200,2.97964111328125,-0.7333891987800598,0.43048977851867676,1.531479835510254
1773522022447680300,2.98968017578125,-0.17997072637081146,0.831472635269165,2.2280001640319824
1773522022457718000,2.999718017578125,0.41532352566719055,0.9229123592376709,2.6547703742980957
1773522022467756300,3.00975634765625,1.0064579248428345,1.061213493347168,2.730092763900757
1773522022477795300,3.01979541015625,1.4499415159225464,1.1604176759719849,2.476247787475586
1773522022487833300,3.029833251953125,1.8456902503967285,1.2156068086624146,2.034954309463501
1773522022497871000,3.03987109375,1.9402804374694824,1.0615777969360352,1.426360845565796
1773522022507910100,3.04991015625,1.791685938835144,0.8005583882331848,0.8731845021247864
1773522022517948200,3.0599482421875,1.4537709951400757,0.41587474942207336,0.31319451332092285
1773522022527986200,3.069986083984375,1.054986596107483,-0.24145229160785675,-0.12338388711214066
1773522022538025200,3.080025146484375,0.8942984342575073,-1.0083504915237427,-0.4684472680091858
1773522022548063200,3.090063232421875,0.9453712105751038,-1.6726539134979248,-0.7057607769966125
1773522022558101200,3.100101318359375,1.0673505067825317,-1.8445870876312256,-0.8390330672264099
1773522022568140300,3.110140380859375,1.122030258178711,-1.6518833637237549,-0.9836283326148987
1773522022578178000,3.120177978515625,1.1137418746948242,-1.2291319370269775,-1.044845461845398
1773522022588216300,3.13021630859375,1.0810052156448364,-0.7056596875190735,-1.0583921670913696
1773522022598255000,3.140255126953125,1.1895039081573486,-0.28824418783187866,-1.037445068359375
1773522022608293400,3.15029345703125,1.456445336341858,0.11364518105983734,-0.82224440574646
1773522022618332200,3.160332275390625,1.653502345085144,-0.050976406782865524,-0.31039485335350037
1773522022628370200,3.1703701171875,1.5387978553771973,-0.3865858316421509,0.34115999937057495
1773522022638408200,3.180408203125,1.0837767124176025,-0.4707631468772888,0.7005968689918518
1773522022648447200,3.190447265625,0.5457345843315125,-0.382538765668869,0.6370647549629211
1773522022658485200,3.2004853515625,0.15747614204883575,-0.2773231565952301,0.4790034592151642
1773522022668523300,3.210523193359375,-0.06434173882007599,-0.15297351777553558,0.4979931116104126
1773522022678562000,3.22056201171875,-0.21160617470741272,-0.12078090757131577,0.5931641459465027
1773522022688600300,3.230600341796875,-0.5083938837051392,-0.101907879114151,0.6259862780570984
1773522022698638000,3.24063818359375,-1.0492281913757324,-0.04656427353620529,0.501020610332489
1773522022708677400,3.250677490234375,-1.4622442722320557,-0.19982598721981049,0.2985308766365051
1773522022718715100,3.260715087890625,-1.6880017518997192,-0.5890275239944458,0.2523204982280731
1773522022728753400,3.27075341796875,-2.046977996826172,-1.2136421203613281,0.21165509521961212
1773522022738792200,3.280792236328125,-2.492605686187744,-1.6994383335113525,0.07952502369880676
1773522022748830200,3.290830322265625,-3.010002374649048,-2.5762674808502197,0.008565896190702915
1773522022758868200,3.3008681640625,-3.432159900665283,-3.0792860984802246,-0.12836845219135284
1773522022768907300,3.3109072265625,-3.770444869995117,-3.187696933746338,-0.435542494058609
1773522022778945300,3.3209453125,-4.16247034072876,-3.237342119216919,-0.6739030480384827
1773522022788983300,3.3309833984375,-4.250171661376953,-3.081463098526001,-0.8573538064956665
1773522022799022000,3.34102197265625,-3.4585766792297363,-2.3233559131622314,-1.3100674152374268
1773522022809060400,3.351060302734375,-2.5187389850616455,-1.24448823928833,-1.7206159830093384
1773522022819098000,3.36109814453125,-2.0081470012664795,-0.5277538895606995,-1.7067629098892212
1773522022829137400,3.371137451171875,-1.7259610891342163,0.3813773989677429,-1.6105490922927856
1773522022839175200,3.381175048828125,-1.3496140241622925,1.3046244382858276,-1.3481440544128418
1773522022849214200,3.391214111328125,-1.1150323152542114,2.3098442554473877,-1.1526392698287964
1773522022859252200,3.401252197265625,-1.0193452835083008,2.789066791534424,-1.0175973176956177
1773522022869290200,3.411290283203125,-1.1520103216171265,2.753173828125,-0.9272791743278503
1773522022879329300,3.421329345703125,-1.302681565284729,2.3382768630981445,-0.897834062576294
1773522022889367300,3.4313671875,-1.387851595878601,1.8548129796981812,-0.9376105070114136
1773522022899405300,3.4414052734375,-1.4597046375274658,1.4969065189361572,-1.0302884578704834
1773522022909444400,3.4514443359375,-1.6590774059295654,1.304141879081726,-0.9351110458374023
1773522022919482000,3.461482177734375,-1.8698458671569824,1.009564757347107,-0.7041800618171692
1773522022929520000,3.47152001953125,-2.1914405822753906,0.387970507144928,-0.5713274478912354
1773522022939559200,3.48155908203125,-2.511589765548706,-0.0541059635579586,-0.37397873401641846
1773522022949597400,3.491597412109375,-2.731255292892456,-0.16537337005138397,-0.05951347574591637
1773522022959635200,3.50163525390625,-3.071492910385132,-0.33872997760772705,0.08562348037958145
1773522022969674200,3.51167431640625,-3.5241150856018066,-0.68757164478302,-0.03343925625085831
1773522022979712300,3.521712158203125,-3.936889171600342,-0.856658399105072,-0.3640315532684326
1773522022989750300,3.531750244140625,-3.4683761596679688,-0.4831406772136688,-0.8678869605064392
1773522022999789300,3.541789306640625,-2.4096741676330566,-0.46125155687332153,-1.3936328887939453
1773522023009827000,3.5518271484375,-1.5490021705627441,-0.9933921694755554,-0.9831690192222595
1773522023019865300,3.561865234375,-0.9888335466384888,-1.5384604930877686,0.01551301684230566
1773522023029904400,3.571904296875,-0.6809777021408081,-1.8684908151626587,0.8328217267990112
1773522023039942100,3.581942138671875,-0.4612541198730469,-1.7052916288375854,1.3546475172042847
1773522023049981400,3.5919814453125,-0.37043124437332153,-1.2479315996170044,1.5965498685836792
1773522023060019200,3.602019287109375,-0.40030637383461,-0.7375848889350891,1.569358229637146
1773522023070057200,3.61205712890625,-0.4211874306201935,-0.22114388644695282,1.3324240446090698
1773522023080096300,3.62209619140625,-0.5152303576469421,0.07965219020843506,0.9561960101127625
1773522023090134000,3.632134033203125,-0.6652153134346008,-0.012745387852191925,0.5210514664649963
1773522023100172300,3.64217236328125,-0.8186531662940979,-0.28146374225616455,0.04079766198992729
1773522023110211000,3.652211181640625,-0.9874534010887146,-0.4876827001571655,-0.4362216293811798
1773522023120249300,3.662249267578125,-1.2577881813049316,-0.3195241689682007,-0.7391469478607178
1773522023130287000,3.672287109375,-1.6357711553573608,-0.01204861979931593,-0.720161497592926
1773522023140326100,3.682326171875,-1.9065368175506592,0.13837416470050812,-0.5238306522369385
1773522023150364200,3.6923642578125,-2.0031726360321045,0.12239173799753189,-0.36653128266334534
1773522023160402200,3.702402099609375,-2.000422239303589,0.03478014096617699,-0.30204206705093384
1773522023170438000,3.71243798828125,-1.9091458320617676,0.10550224781036377,-0.32879963517189026
1773522023180475600,3.7224755859375,-1.6532580852508545,0.28669703006744385,-0.4302673935890198
1773522023190514000,3.732513916015625,-1.3091728687286377,0.41035905480384827,-0.5716471672058105
1773522023200552700,3.742552734375,-0.9621609449386597,0.49974045157432556,-0.7287620902061462
1773522023210590700,3.7525908203125,-0.6383628845214844,0.7038967609405518,-0.8767867088317871
1773522023220629800,3.762629638671875,-0.16565631330013275,0.8273256421089172,-0.8766217231750488
1773522023230667800,3.772667724609375,0.3325393795967102,0.7110278010368347,-0.6562049388885498
1773522023240705800,3.782705810546875,0.6844536662101746,0.20334933698177338,-0.32704734802246094
1773522023250744800,3.792744873046875,0.8560928106307983,-0.09414225816726685,-0.02552824839949608
1773522023260782600,3.802782470703125,0.8079450726509094,-0.02459244430065155,0.1618994027376175
1773522023270820900,3.81282080078125,0.6098437309265137,-0.08139048516750336,0.2489011436700821
1773522023280859600,3.822859619140625,0.42192238569259644,-0.08785974979400635,0.2565362751483917
1773522023290898000,3.83289794921875,0.2900274693965912,-0.06766340136528015,0.2270907759666443
1773522023300935700,3.842935791015625,0.19703051447868347,-0.10580433160066605,0.2149154245853424
1773522023310974700,3.852974609375,0.08487256616353989,-0.16620536148548126,0.20403428375720978
1773522023321012700,3.8630126953125,0.01275305449962616,-0.3209431767463684,0.09305885434150696
1773522023331050800,3.87305078125,0.21401265263557434,-0.44568324089050293,-0.3342418670654297
1773522023341089800,3.88308984375,0.3666093349456787,-0.6762036085128784,-0.9716882109642029
1773522023351127800,3.8931279296875,0.33323168754577637,-0.5450029969215393,-1.5435307025909424
1773522023361166600,3.90316650390625,0.18738076090812683,-0.06286590546369553,-1.9231512546539307
1773522023371204900,3.913204833984375,-0.06805339455604553,0.3300566077232361,-2.0398223400115967
1773522023381243000,3.923242919921875,-0.3044062554836273,0.4544812738895416,-1.8099541664123535
1773522023391282000,3.933281982421875,-0.5041347742080688,0.18028433620929718,-1.3761074542999268
1773522023401319700,3.943319580078125,-0.517185389995575,-0.35052087903022766,-0.8502565622329712
1773522023411357700,3.953357666015625,-0.30410856008529663,-1.2334182262420654,-0.33062753081321716
1773522023421396700,3.963396728515625,0.05428430065512657,-2.2981984615325928,0.09660600870847702
1773522023431434800,3.973434814453125,0.4916483163833618,-3.337716579437256,0.48010680079460144
1773522023441472800,3.98347265625,0.8407743573188782,-3.859064817428589,0.8520793914794922
1773522023451511800,3.99351171875,1.0083739757537842,-3.1747260093688965,0.9604908227920532
1773522023461549800,4.0035498046875,0.9617646336555481,-3.209739923477173,0.9278640151023865
1773522023471587600,4.013587646484375,0.7124317288398743,-3.5964467525482178,0.8651193976402283
1773522023481626600,4.023626708984375,0.24415992200374603,-3.6443424224853516,0.6334561109542847
1773522023491664600,4.03366455078125,-0.11448292434215546,-3.541003465652466,0.24947038292884827
1773522023501703000,4.043702880859375,-0.11209776997566223,-3.580136775970459,-0.16112610697746277
1773522023511741700,4.05374169921875,0.22218859195709229,-3.6596944332122803,-0.4200138747692108
1773522023521779700,4.06377978515625,0.7798616886138916,-3.6889615058898926,-0.5327410101890564
1773522023531818800,4.07381884765625,1.340613842010498,-3.972365617752075,-0.5524334907531738
1773522023541856800,4.083856689453125,1.6809208393096924,-4.177595138549805,-0.6708580255508423
1773522023551894800,4.093894775390625,1.812507152557373,-3.850464344024658,-0.8616817593574524
1773522023561933800,4.103933837890625,1.7045822143554688,-3.101968288421631,-1.1121571063995361
1773522023571971600,4.1139716796875,1.4641406536102295,-2.6066439151763916,-1.4587880373001099
1773522023582009900,4.124009765625,1.297959804534912,-2.673184871673584,-1.6823105812072754
1773522023592048600,4.134048583984375,1.503751516342163,-2.974273681640625,-1.663597822189331
1773522023602086700,4.144086669921875,1.9159520864486694,-1.9993435144424438,-1.291745901107788
1773522023612124700,4.154124755859375,1.8659533262252808,-0.2841789424419403,-1.086743712425232
1773522023622163700,4.164163818359375,1.3841097354888916,1.4890496730804443,-0.6824499368667603
1773522023632201700,4.17420166015625,0.31115758419036865,2.1014297008514404,-0.024240879341959953
1773522023642239700,4.18423974609375,-0.08401528745889664,1.99416184425354,0.46943187713623047
1773522023652278800,4.19427880859375,-0.3631148338317871,2.0020999908447266,0.5069409012794495
1773522023662316800,4.20431689453125,-0.7587951421737671,2.1794018745422363,0.5681205987930298
1773522023672355600,4.21435546875,-1.2025680541992188,2.643235683441162,0.7404580116271973
1773522023682393900,4.224393798828125,-1.5827782154083252,3.321272134780884,0.7708905339241028
1773522023692431600,4.234431640625,-1.4855363368988037,3.6875057220458984,0.8814393877983093
1773522023702470700,4.244470703125,-1.203083872795105,4.220282077789307,0.8051837086677551
1773522023712508700,4.2545087890625,-0.9955700039863586,5.210646629333496,0.25617754459381104
1773522023722546700,4.264546630859375,-0.5951817035675049,5.880438804626465,-0.36310452222824097
1773522023732585700,4.274585693359375,-0.15350759029388428,6.130960941314697,-0.725420355796814
1773522023742623700,4.284623779296875,-0.14877939224243164,6.312429428100586,-0.7566778659820557
1773522023752661800,4.294661865234375,-0.1567624807357788,6.262439250946045,-0.6969775557518005
1773522023762700800,4.30470068359375,-0.04736647009849548,6.071264743804932,-0.5623309016227722
1773522023772738800,4.31473876953125,0.11102503538131714,5.8219428062438965,-0.3656977117061615
1773522023782776800,4.32477685546875,0.210150346159935,5.413990497589111,-0.2671380341053009
1773522023792815600,4.334815673828125,0.29812654852867126,4.776554584503174,-0.24945810437202454
1773522023802854000,4.34485400390625,0.1918884962797165,4.096535682678223,-0.41330981254577637
1773522023812892700,4.354892578125,0.1232130378484726,3.1985976696014404,-0.5574568510055542
1773522023822930700,4.3649306640625,0.2730916142463684,2.3196187019348145,-0.702359139919281
1773522023832968700,4.37496875,0.3949147164821625,1.9283720254898071,-1.049335241317749
1773522023843007700,4.3850078125,0.41377317905426025,1.5820599794387817,-1.3466464281082153
1773522023853045800,4.395045654296875,0.32521748542785645,1.342111349105835,-1.4224543571472168
1773522023863083800,4.405083740234375,0.2229325920343399,0.9543963670730591,-1.3102705478668213
1773522023873122800,4.415122802734375,0.2128187119960785,0.5003684163093567,-1.0169994831085205
1773522023883160800,4.425160888671875,0.24613535404205322,0.16878890991210938,-0.6958422660827637
1773522023893198800,4.43519873046875,0.3289695084095001,0.08205161988735199,-0.3959900438785553
1773522023903238000,4.44523779296875,0.37113118171691895,0.5449394583702087,-0.17767038941383362
1773522023913275600,4.455275634765625,0.5084069967269897,0.6796168088912964,-0.17620377242565155
1773522023923314000,4.46531396484375,0.5578590035438538,0.5752483606338501,-0.1914977878332138
1773522023933352700,4.475352783203125,0.4775627851486206,0.3017888367176056,-0.25369566679000854
1773522023943390700,4.485390625,0.30935072898864746,0.20939524471759796,-0.30048951506614685
1773522023953429800,4.4954296875,0.16833607852458954,0.19987763464450836,-0.2966335415840149
1773522023963467800,4.5054677734375,-0.008046833798289299,0.3830581605434418,-0.32773497700691223
1773522023973505800,4.515505859375,-0.08155327290296555,0.8410390019416809,-0.32994434237480164
1773522023983544800,4.525544921875,-0.20314304530620575,1.1271100044250488,-0.2580956518650055
1773522023993582800,4.535582763671875,-0.344919890165329,0.7218647599220276,-0.14720691740512848
1773522024003620900,4.545620849609375,-0.3333894908428192,-0.1023673266172409,0.10257679969072342
1773522024013659600,4.55565966796875,-0.349132239818573,-0.722684383392334,0.31348690390586853
1773522024023698000,4.565697998046875,-0.3502388298511505,-0.7054255604743958,0.3171427845954895
1773522024033735700,4.575735595703125,-0.23975813388824463,-0.6816099882125854,0.42035973072052
1773522024043774700,4.585774658203125,-0.6890288591384888,-0.5481410026550293,0.33564022183418274
1773522024053812700,4.595812744140625,-0.9501467347145081,-0.7976051568984985,0.5213118195533752
1773522024063850800,4.605850830078125,-1.3879592418670654,-1.1311960220336914,0.7275980114936829
1773522024073889800,4.615889892578125,-1.8229421377182007,-1.4472850561141968,0.6679024696350098
1773522024083927600,4.625927490234375,-2.490722179412842,-2.2082407474517822,0.6807050108909607
1773522024093966800,4.635966796875,-2.9496405124664307,-2.687150239944458,0.6242251992225647
1773522024104004900,4.6460048828125,-2.9065983295440674,-2.4674506187438965,0.3982415795326233
1773522024114043000,4.65604296875,-2.434981107711792,-2.0183558464050293,0.039605122059583664
1773522024124082000,4.66608203125,-1.8990707397460938,-1.9120429754257202,-0.21483676135540009
1773522024134119700,4.67611962890625,-1.8220001459121704,-2.5047335624694824,-0.1811017096042633
1773522024144157700,4.68615771484375,-1.9097334146499634,-3.3287408351898193,-0.14197106659412384
1773522024154196700,4.69619677734375,-1.743363618850708,-4.219625473022461,-0.26182395219802856
1773522024164234800,4.70623486328125,-0.7682952284812927,-3.5452194213867188,1.2006007432937622
1773522024174272800,4.716272705078125,0.0011274535208940506,-4.4743332862854,0.4348321259021759
1773522024184311800,4.726311767578125,0.6357656121253967,-5.059325695037842,-0.4627533257007599
1773522024194349800,4.736349853515625,1.0698238611221313,-3.6712310314178467,0.006254892796278
1773522024204388900,4.746388916015625,0.9658756852149963,-2.9210870265960693,-0.3604135513305664
1773522024214427000,4.756427001953125,0.48087915778160095,-1.2660410404205322,-0.11884143203496933
1773522024224464600,4.766464599609375,-0.20055073499679565,0.08419305831193924,-0.3152725398540497
1773522024234503700,4.776503662109375,-0.42827871441841125,1.4643312692642212,-0.4914659559726715
1773522024244541700,4.786541748046875,-0.47428300976753235,2.2188830375671387,-0.5968760251998901
1773522024254579700,4.796579833984375,-0.612648069858551,2.209153175354004,-0.8069770336151123
1773522024264618800,4.80661865234375,-0.8284841775894165,1.944350242614746,-1.0932438373565674
1773522024274656800,4.81665673828125,-1.0657517910003662,1.862967848777771,-1.318690538406372
1773522024284694800,4.82669482421875,-1.2479817867279053,1.9226588010787964,-1.4118953943252563
1773522024294733800,4.83673388671875,-1.4122236967086792,2.0523672103881836,-1.3195571899414062
1773522024304771600,4.846771484375,-1.5010489225387573,2.087664842605591,-1.0982131958007812
1773522024314809900,4.856809814453125,-1.4434391260147095,1.944420337677002,-0.8831332921981812
1773522024324848600,4.8668486328125,-1.2624199390411377,1.7004647254943848,-0.6287186741828918
1773522024334887000,4.876886962890625,-0.950827419757843,1.1739755868911743,-0.4099167585372925
1773522024344925700,4.88692578125,-0.5585658550262451,0.48431989550590515,-0.2638041079044342
1773522024354963700,4.896963623046875,-0.2749626636505127,-0.17064598202705383,-0.22163882851600647
1773522024365001700,4.907001708984375,-0.15262016654014587,-0.5246859788894653,-0.24777445197105408
1773522024375040800,4.917040771484375,-0.13569551706314087,-0.30872786045074463,-0.24924293160438538
1773522024385078800,4.927078857421875,-0.16246753931045532,0.06599203497171402,-0.21793392300605774
1773522024395116800,4.93711669921875,-0.18606901168823242,0.1677439659833908,-0.1272338479757309
1773522024405155600,4.947155517578125,-0.17584866285324097,-0.06318528950214386,-0.007041582837700844
1773522024415193900,4.95719384765625,-0.12364032864570618,-0.37033405900001526,0.06043945625424385
1773522024425231600,4.967231689453125,0.06344489753246307,-0.5056309103965759,0.058978185057640076
1773522024435271000,4.97727099609375,0.28118202090263367,-0.5171799659729004,-0.002933653537184
1773522024445308700,4.98730859375,0.5069258809089661,-0.40613049268722534,-0.05193724110722542
1773522024455347000,4.997346923828125,0.6217134594917297,-0.47636762261390686,-0.0277410876005888
1773522024465385700,5.0073857421875,0.5268861651420593,-0.21539731323719025,0.08811575919389725
1773522024475423700,5.017423828125,0.37499168515205383,0.2178734391927719,0.22708694636821747
1773522024485462800,5.027462890625,0.32909920811653137,0.8332420587539673,0.403326153755188
1773522024495500800,5.037500732421875,0.4529993236064911,1.2222812175750732,0.5783634781837463
1773522024505538800,5.047538818359375,0.5296534299850464,1.292624592781067,0.5739464163780212
1773522024515577900,5.057577880859375,0.5064964294433594,1.1998906135559082,0.3356530964374542
1773522024525615600,5.06761572265625,0.5510544776916504,0.9353971481323242,0.005904660560190678
1773522024535654000,5.07765380859375,0.5762016773223877,0.922044038772583,-0.24086624383926392
1773522024545692700,5.087692626953125,0.5322768688201904,1.1321144104003906,-0.21937088668346405
1773522024555731000,5.09773095703125,0.44480398297309875,1.1885930299758911,-0.11893321573734283
1773522024565768700,5.107768798828125,0.4173765480518341,1.3203377723693848,-0.053669288754463196
1773522024575807700,5.117807861328125,0.4290153682231903,1.359826922416687,-0.03751375153660774
1773522024585845800,5.127845703125,0.5027757883071899,1.2923201322555542,-0.03417806327342987
1773522024595884800,5.137884765625,0.5968844890594482,1.230116367340088,0.02100076712667942
1773522024605922800,5.1479228515625,0.6449894309043884,1.2480754852294922,0.1577109545469284
1773522024615960800,5.1579609375,0.6316068172454834,1.2276899814605713,0.34081366658210754
1773522024625999600,5.16799951171875,0.763418972492218,1.1631897687911987,0.5268120169639587
1773522024636038000,5.178037841796875,0.9257029294967651,1.1607040166854858,0.6698277592658997
1773522024646075600,5.18807568359375,1.0050464868545532,1.194899559020996,0.6972975134849548
1773522024656115000,5.198114990234375,0.9718573689460754,1.066308856010437,0.7135611176490784
1773522024666152700,5.208152587890625,0.8392503261566162,1.0598710775375366,0.6604864001274109
1773522024676191000,5.21819091796875,0.6090102195739746,0.9308315515518188,0.8320701122283936
1773522024686229800,5.228229736328125,0.5377065539360046,0.9192572236061096,1.0524003505706787
1773522024696267800,5.238267822265625,0.678153932094574,1.141513705253601,1.138193130493164
1773522024706306800,5.248306884765625,0.8123452067375183,1.1989887952804565,1.0498621463775635
1773522024716344800,5.2583447265625,0.8523717522621155,0.8985360264778137,0.808024525642395
1773522024726382800,5.2683828125,0.9307246804237366,-0.02746122144162655,0.5626116991043091
1773522024736422000,5.278421875,0.9892124533653259,-0.7617892622947693,0.526826798915863
1773522024746459600,5.288459716796875,1.0455670356750488,-0.9933712482452393,0.480819970369339
1773522024756498000,5.298497802734375,1.191003680229187,-0.7894231677055359,0.46961578726768494
1773522024766536700,5.30853662109375,1.282416820526123,-0.6344269514083862,0.5401445031166077
1773522024776575000,5.318574951171875,1.5102803707122803,-0.48529815673828125,0.7127634286880493
1773522024786612700,5.32861279296875,1.7047628164291382,-0.2727951407432556,0.8670236468315125
1773522024796651800,5.33865185546875,1.8388487100601196,0.047159936279058456,0.8829496502876282
1773522024806689800,5.348689697265625,1.9193239212036133,0.19272316992282867,0.5915899276733398
1773522024816727600,5.3587275390625,1.9268330335617065,0.3700675964355469,0.21480216085910797
1773522024826766800,5.368766845703125,1.932495355606079,0.5065984129905701,-0.12197942286729813
1773522024836804900,5.378804931640625,1.8184763193130493,0.6653918027877808,-0.36180269718170166
1773522024846843600,5.38884375,1.6948637962341309,0.5621516704559326,-0.3442443013191223
1773522024856882000,5.3988818359375,1.6727739572525024,0.39695975184440613,-0.0414588488638401
1773522024866919700,5.408919677734375,1.6900237798690796,0.44231125712394714,0.2976153492927551
1773522024876958700,5.418958740234375,1.6256884336471558,0.6239713430404663,0.4269413650035858
1773522024886996700,5.428996826171875,1.4612220525741577,1.0847593545913696,0.5128726959228516
1773522024897034800,5.43903466796875,1.4394466876983643,1.4783567190170288,0.6350167393684387
1773522024907073800,5.44907373046875,1.4165557622909546,1.5552875995635986,0.5319810509681702
1773522024917111600,5.459111572265625,0.9950023889541626,1.7490421533584595,0.0630473867058754
1773522024927149800,5.46914990234375,0.7672630548477173,1.040870189666748,-0.41973647475242615
1773522024937188900,5.47918896484375,0.4278985559940338,1.2273975610733032,-1.0045278072357178
1773522024947227000,5.489226806640625,0.35330790281295776,0.2903853952884674,-1.234285831451416
1773522024957266000,5.499265869140625,0.47220125794410706,0.05096959322690964,-1.3477540016174316
1773522024967303700,5.5093037109375,0.7094947695732117,0.06660830229520798,-1.065968632698059
1773522024977341700,5.519341796875,0.9020330309867859,0.2227582186460495,-0.5716038942337036
1773522024987380700,5.529380615234375,1.0253522396087646,0.3879013657569885,-0.2783019244670868
1773522024997418800,5.539418701171875,1.1374255418777466,0.18033245205879211,0.08471649140119553
1773522025007456800,5.549456787109375,1.1984881162643433,-0.21773011982440948,0.34914371371269226
1773522025017495600,5.55949560546875,0.979500949382782,-0.708709180355072,0.7873708009719849
1773522025027533800,5.569533935546875,1.025871753692627,-0.9250859618186951,1.052234411239624
1773522025037571600,5.579571533203125,1.4186038970947266,-1.4173952341079712,0.9957121014595032
1773522025047611000,5.58961083984375,1.8313149213790894,-1.371614933013916,1.0921682119369507
1773522025057648600,5.599648681640625,2.2491791248321533,-0.6769388914108276,1.2260128259658813
1773522025067687000,5.60968701171875,2.62860369682312,0.2092459499835968,0.988032877445221
1773522025077725700,5.6197255859375,2.910554885864258,0.9713441133499146,0.7352643013000488
1773522025087763700,5.629763671875,2.8039469718933105,1.2859928607940674,0.26023387908935547
1773522025097802800,5.639802734375,2.710101842880249,1.6105129718780518,-0.0666440948843956
1773522025107840800,5.6498408203125,2.474709987640381,1.4921648502349854,-0.4329724907875061
1773522025117878800,5.659878662109375,2.0530333518981934,1.3071433305740356,-0.6052612066268921
1773522025127917800,5.669917724609375,1.6902596950531006,1.2366324663162231,-0.3015928566455841
1773522025137955600,5.67995556640625,1.763980507850647,1.121066927909851,0.22901587188243866
1773522025147993900,5.689993896484375,2.3594651222229004,1.1498850584030151,0.7419857382774353
1773522025158032600,5.70003271484375,2.7843081951141357,1.4341175556182861,1.0570299625396729
1773522025168071000,5.71007080078125,2.9379889965057373,1.7242666482925415,1.2457536458969116
1773522025178108700,5.720108642578125,2.9274096488952637,1.579840064048767,1.2102206945419312
1773522025188147700,5.730147705078125,2.730116367340088,1.4583615064620972,1.0124226808547974
1773522025198185700,5.740185791015625,1.997949481010437,1.0429294109344482,1.1010055541992188
1773522025208224800,5.750224853515625,1.0035096406936646,0.9731281995773315,1.1357489824295044
1773522025218262800,5.7602626953125,0.2396576851606369,1.101402759552002,0.9417849183082581
1773522025228300800,5.77030078125,-0.31147605180740356,1.1110891103744507,1.0992469787597656
1773522025238339800,5.78033984375,-0.5398865938186646,0.9908731579780579,0.9214267134666443
1773522025248377900,5.7903779296875,-0.40196144580841064,0.52521812915802,0.2658430337905884
1773522025258415600,5.80041552734375,-0.27029022574424744,-0.17177052795886993,-0.3312528431415558
1773522025268455000,5.810454833984375,-0.20054808259010315,-0.7011204957962036,-0.5824697017669678
1773522025278492700,5.82049267578125,-0.19045443832874298,-0.8979557752609253,-0.5606861114501953
1773522025288531000,5.830531005859375,-0.15606141090393066,-0.986280620098114,-0.4040190279483795
1773522025298569700,5.84056982421875,-0.12137693911790848,-0.998022198677063,-0.1724388152360916
1773522025308607700,5.850607666015625,-0.0771026760339737,-0.9475982785224915,0.10900343209505081
1773522025318646800,5.860646728515625,-0.08712282031774521,-0.7284680604934692,0.4134688079357147
1773522025328684800,5.870684814453125,-0.12937447428703308,-0.4262136220932007,0.6706281304359436
1773522025338722800,5.880722900390625,-0.1637529581785202,-0.08449332416057587,0.7744277715682983
1773522025348761900,5.890761962890625,-0.19841362535953522,0.17809568345546722,0.6809985041618347
1773522025358799600,5.900799560546875,-0.2274777740240097,0.33539608120918274,0.4242705702781677
1773522025368838000,5.910837890625,-0.30202892422676086,0.3565250635147095,0.0736374706029892
1773522025378876700,5.920876708984375,-0.34255024790763855,0.2943620979785919,-0.25014007091522217
1773522025388915000,5.9309150390625,-0.37323975563049316,0.2988276779651642,-0.4402916431427002
1773522025398952700,5.94095263671875,-0.40232548117637634,0.3004327714443207,-0.4893329441547394
1773522025408991700,5.95099169921875,-0.4879382848739624,0.27330100536346436,-0.43063127994537354
1773522025419029800,5.96102978515625,-0.5785627365112305,0.27012836933135986,-0.29943597316741943
1773522025429068800,5.97106884765625,-0.686309278011322,0.34548094868659973,-0.13146747648715973
1773522025439106800,5.98110693359375,-0.7017595767974854,0.11090438812971115,0.0932186171412468
1773522025449144800,5.991144775390625,-0.6688560247421265,0.045691926032304764,0.3061498999595642
1773522025459183600,6.00118359375,-0.635498046875,-0.05597371608018875,0.44723376631736755
1773522025469222000,6.011221923828125,-0.6471491456031799,-0.1551057994365692,0.47048190236091614
1773522025479259600,6.021259765625,-0.6474708914756775,-0.20792773365974426,0.4139381945133209
1773522025489299000,6.031298828125,-0.6296664476394653,-0.3103122413158417,0.3206465542316437
1773522025499336700,6.041336669921875,-0.6701459288597107,-0.30260905623435974,0.1888515055179596
1773522025509375000,6.051375,-0.7551648020744324,-0.2649086117744446,0.07413412630558014
1773522025519413800,6.061413818359375,-0.8399769067764282,-0.33938419818878174,-0.07107579708099365
1773522025529451800,6.07145166015625,-0.8833815455436707,-0.4594619870185852,-0.19108162820339203
1773522025539490800,6.08149072265625,-0.846596360206604,-0.42890751361846924,-0.19249017536640167
1773522025549528800,6.09152880859375,-0.7964161038398743,-0.3235756754875183,-0.0796213448047638
1773522025559566800,6.10156689453125,-0.7459439039230347,-0.19980846345424652,0.10191622376441956
1773522025569606000,6.11160595703125,-0.6759173274040222,-0.10687622427940369,0.2947622835636139
1773522025579643600,6.1216435546875,-0.6116861701011658,-0.053421519696712494,0.4655041992664337
1773522025589682000,6.131681884765625,-0.5521227717399597,-0.016820009797811508,0.602667510509491
1773522025599720700,6.141720703125,-0.5034811496734619,0.029167989268898964,0.6660128831863403
1773522025609759000,6.151759033203125,-0.48391035199165344,-0.012305688112974167,0.6944975256919861
1773522025619797800,6.1617978515625,-0.4103035032749176,-0.03905101493000984,0.6798394918441772
1773522025629835800,6.171835693359375,-0.3150147795677185,-0.07050535082817078,0.6195593476295471
1773522025639873800,6.181873779296875,-0.25390857458114624,-0.08110419660806656,0.5682437419891357
1773522025649912800,6.191912841796875,-0.22454966604709625,-0.09324483573436737,0.5187365412712097
1773522025659950800,6.201950927734375,-0.21132946014404297,-0.08959976583719254,0.5068002343177795
1773522025669988900,6.21198876953125,-0.20371031761169434,-0.07767485082149506,0.5211974382400513
1773522025680027600,6.222027587890625,-0.2225220799446106,-0.0713421180844307,0.552147626876831
1773522025690066000,6.23206591796875,-0.24641340970993042,-0.07210217416286469,0.5985094904899597
1773522025700103700,6.242103759765625,-0.2759326696395874,-0.07820294797420502,0.6429650783538818
1773522025710143000,6.25214306640625,-0.3031892776489258,-0.08834293484687805,0.6821010708808899
1773522025720180700,6.2621806640625,-0.31531330943107605,-0.0940927043557167,0.7102344036102295
1773522025730219000,6.272218994140625,-0.32510310411453247,-0.09815526753664017,0.7253942489624023
1773522025740257800,6.2822578125,-0.34234651923179626,-0.12199322134256363,0.7194998860359192
1773522025750295800,6.2922958984375,-0.37116363644599915,-0.14104928076267242,0.6962251663208008
1773522025760334800,6.3023349609375,-0.3888702094554901,-0.1621854603290558,0.6695889830589294
1773522025770372900,6.312372802734375,-0.40755796432495117,-0.17617204785346985,0.6470547914505005
1773522025780411000,6.322410888671875,-0.44802308082580566,-0.19362135231494904,0.6368879079818726
1773522025790450000,6.332449951171875,-0.48828214406967163,-0.2429317981004715,0.6207638382911682
1773522025800487700,6.34248779296875,-0.5293047428131104,-0.35569748282432556,0.5820004343986511
1773522025810526000,6.35252587890625,-0.5386958718299866,-0.37682825326919556,0.5412842631340027
1773522025820564700,6.362564697265625,-0.5522944927215576,-0.3583725392818451,0.5035076141357422
1773522025830603000,6.37260302734375,-0.5286094546318054,-0.3510240614414215,0.45856061577796936
1773522025840641800,6.382641845703125,-0.5035821199417114,-0.24960239231586456,0.4153790771961212
1773522025850679800,6.3926796875,-0.4614766538143158,-0.0991574078798294,0.3702777326107025
1773522025860717800,6.4027177734375,-0.48219314217567444,-0.12248057126998901,0.3166848123073578
1773522025870756900,6.4127568359375,-0.49298185110092163,-0.1893174797296524,0.2208128124475479
1773522025880795000,6.422794921875,-0.4859689474105835,-0.21340949833393097,0.1085115596652031
1773522025890833000,6.4328330078125,-0.4565167725086212,-0.17132125794887543,0.028826765716075897
1773522025900871700,6.44287158203125,-0.440766304731369,-0.16342657804489136,-0.05695658177137375
1773522025910910000,6.452909912109375,-0.4122160077095032,-0.13540896773338318,-0.13291093707084656
1773522025920947700,6.46294775390625,-0.34505695104599,-0.09868664294481277,-0.19089888036251068
1773522025930987000,6.472987060546875,-0.31517115235328674,-0.020992830395698547,-0.21785315871238708
1773522025941024800,6.483024658203125,-0.2900373041629791,0.05089520663022995,-0.24981561303138733
1773522025951063800,6.493063720703125,-0.24299150705337524,0.148465096950531,-0.28942862153053284
1773522025961101800,6.503101806640625,-0.22064705193042755,0.24085521697998047,-0.33304160833358765
1773522025971139800,6.513139892578125,-0.199478879570961,0.3439609110355377,-0.363816499710083
1773522025981179000,6.523178955078125,-0.18845579028129578,0.3998475968837738,-0.40924549102783203
1773522025991217000,6.533216796875,-0.17869150638580322,0.45367202162742615,-0.4605511724948883
1773522026001255000,6.5432548828125,-0.10794515907764435,0.4318258464336395,-0.5040009021759033
1773522026011294000,6.5532939453125,0.031533464789390564,0.27582278847694397,-0.5584878325462341
1773522026021331700,6.563331787109375,0.22841350734233856,0.15932439267635345,-0.6341484785079956
1773522026031369700,6.57336962890625,0.3606643080711365,0.3573249876499176,-0.7218006253242493
1773522026041408800,6.58340869140625,0.3348692059516907,0.4452391266822815,-0.7969992756843567
1773522026051446800,6.59344677734375,0.3292433023452759,0.3564451038837433,-0.8540471196174622
1773522026061485800,6.60348583984375,0.3473072648048401,0.27966323494911194,-0.8550886511802673
1773522026071523800,6.61352392578125,0.3415921926498413,0.2642669379711151,-0.8445499539375305
1773522026081561900,6.623561767578125,0.3062177002429962,0.24469856917858124,-0.8545591831207275
1773522026091601000,6.633600830078125,0.2714606523513794,0.2676861882209778,-0.8595172166824341
1773522026101639000,6.643638916015625,0.252585232257843,0.2965327501296997,-0.8565648198127747
1773522026111676700,6.6536767578125,0.2271232306957245,0.3076867163181305,-0.8559247851371765
1773522026121715700,6.6637158203125,0.19912195205688477,0.298907607793808,-0.8615861535072327
1773522026131753700,6.673753662109375,0.17170818150043488,0.29491424560546875,-0.8602773547172546
1773522026141792800,6.683792724609375,0.1481035053730011,0.3014081120491028,-0.855453610420227
1773522026151830800,6.693830810546875,0.1192244291305542,0.34015074372291565,-0.8177267909049988
1773522026161868800,6.703868896484375,0.06647279858589172,0.3526654541492462,-0.7703970670700073
1773522026171907000,6.713906982421875,0.01659422367811203,0.3268927037715912,-0.7164227366447449
1773522026181944800,6.72394482421875,-0.018079865723848343,0.2810943126678467,-0.6580108404159546
1773522026191983000,6.733983154296875,-0.034261032938957214,0.22069135308265686,-0.604605495929718
1773522026202022000,6.74402197265625,-0.013149889186024666,0.15576189756393433,-0.5492117404937744
1773522026212060000,6.754059814453125,0.023398905992507935,0.09469888359308243,-0.5023096203804016
1773522026222098000,6.764097900390625,0.054149895906448364,0.051483768969774246,-0.4638165831565857
1773522026232137000,6.774136962890625,0.06380090862512589,0.013690939173102379,-0.43200716376304626
1773522026242175000,6.784175048828125,0.054249487817287445,-0.0159646924585104,-0.4119921624660492
1773522026252214000,6.794214111328125,0.0373498797416687,-0.03151595592498779,-0.39111804962158203
1773522026262251800,6.804251708984375,0.016597997397184372,-0.04312280938029289,-0.36781007051467896
1773522026272290000,6.8142900390625,-0.0016120029613375664,-0.05107562616467476,-0.34362149238586426
1773522026282328800,6.824328857421875,-0.00858975201845169,-0.05325861647725105,-0.32057130336761475
1773522026292367000,6.8343671875,0.0667782872915268,0.048037197440862656,-0.2769925594329834
1773522026302404900,6.84440478515625,0.07933509349822998,0.10721103847026825,-0.2956528067588806
1773522026312444000,6.85444384765625,0.044739603996276855,0.07669813185930252,-0.2918705642223358
1773522026322482000,6.86448193359375,0.04043246805667877,0.053022898733615875,-0.28831684589385986
1773522026332519700,6.874519775390625,0.05307014286518097,0.08955543488264084,-0.27147549390792847
1773522026342559000,6.88455908203125,0.0636809766292572,0.17057865858078003,-0.24804925918579102
1773522026352596700,6.8945966796875,0.07550874352455139,0.22528262436389923,-0.23752360045909882
1773522026362635800,6.9046357421875,0.0932171642780304,0.23581889271736145,-0.24553225934505463
1773522026372674000,6.914674072265625,0.11465319991111755,0.20667734742164612,-0.25980591773986816
1773522026382711800,6.9247119140625,0.17119982838630676,0.24808017909526825,-0.23471149802207947
1773522026392751000,6.934751220703125,0.14954057335853577,0.30180421471595764,-0.25312235951423645
1773522026402788900,6.944788818359375,0.09182056039571762,0.2421664595603943,-0.28593331575393677
1773522026412827000,6.954826904296875,0.06383474171161652,0.2156185656785965,-0.3118409812450409
1773522026422866000,6.964865966796875,0.045294344425201416,0.21223582327365875,-0.3400997817516327
1773522026432903700,6.974903564453125,0.056869059801101685,0.23259423673152924,-0.3538673520088196
1773522026442943000,6.98494287109375,0.1432870328426361,0.31874245405197144,-0.3541472554206848
1773522026452980700,6.994980712890625,0.11233963072299957,0.3274007737636566,-0.38368669152259827
1773522026463019000,7.00501904296875,0.0882585346698761,0.2802361845970154,-0.4077877700328827
1773522026473058000,7.01505810546875,0.07567724585533142,0.2760787308216095,-0.4352220594882965
1773522026483095800,7.025095703125,0.09928563237190247,0.23816753923892975,-0.46390485763549805
1773522026493133800,7.0351337890625,0.10827168077230453,0.21331048011779785,-0.46617749333381653
1773522026503172900,7.0451728515625,0.08758184313774109,0.2298942506313324,-0.4366433024406433
1773522026513211000,7.0552109375,0.07473765313625336,0.24007631838321686,-0.3878243565559387
1773522026523249000,7.065248779296875,0.07238207757472992,0.2664458751678467,-0.33725467324256897
1773522026533287700,7.07528759765625,0.06941855698823929,0.2979728877544403,-0.27632206678390503
1773522026543326000,7.085325927734375,0.0727967768907547,0.29498961567878723,-0.2207922339439392
1773522026553364700,7.09536474609375,0.0680268406867981,0.2836647927761078,-0.16986459493637085
1773522026563403000,7.105403076171875,0.054313164204359055,0.28336837887763977,-0.11483782529830933
1773522026573440800,7.115440673828125,0.03797084465622902,0.2604074478149414,-0.06613396108150482
1773522026583479800,7.125479736328125,0.02671659365296364,0.2138625532388687,-0.02123412862420082
1773522026593517800,7.135517822265625,0.011328363791108131,0.16528606414794922,0.025917507708072662
1773522026603555800,7.145555908203125,0.0023122308775782585,0.1332612782716751,0.06822607666254044
1773522026613595000,7.155594970703125,-0.0002995124086737633,0.0940994918346405,0.09958560764789581
1773522026623633000,7.1656328125,0.0021644439548254013,0.0507083460688591,0.12406405806541443
1773522026633671000,7.1756708984375,-0.0009060055017471313,0.021602751687169075,0.13956503570079803
1773522026643710000,7.1857099609375,-0.019654126837849617,-0.01651880145072937,0.13795197010040283
1773522026653747700,7.195747802734375,-0.029148437082767487,-0.10980924963951111,0.15783658623695374
1773522026663787000,7.205787109375,-0.001102956011891365,-0.13966968655586243,0.23349645733833313
1773522026673824800,7.21582470703125,0.017898879945278168,-0.14914236962795258,0.32370346784591675
1773522026683863000,7.225863037109375,0.013512387871742249,-0.19655008614063263,0.3821593225002289
1773522026693901800,7.23590185546875,-0.0173118244856596,-0.23316970467567444,0.4252451956272125
1773522026703939800,7.24593994140625,-0.0570930577814579,-0.2649281620979309,0.4479305148124695
1773522026713977900,7.255977783203125,-0.10782936960458755,-0.29061374068260193,0.46570512652397156
1773522026724017000,7.266016845703125,-0.14677783846855164,-0.3230784833431244,0.4738330841064453
1773522026734055000,7.276054931640625,-0.1721370816230774,-0.3513686954975128,0.4862489700317383
1773522026744094000,7.286093994140625,-0.18057183921337128,-0.38258227705955505,0.4912099242210388
1773522026754131700,7.296131591796875,-0.17230108380317688,-0.41539686918258667,0.48781901597976685
1773522026764170000,7.306169921875,-0.15625235438346863,-0.4358270466327667,0.4852410852909088
1773522026774208800,7.316208740234375,-0.14060287177562714,-0.43323957920074463,0.4764999449253082
1773522026784247000,7.3262470703125,-0.13677166402339935,-0.40636590123176575,0.45400023460388184
1773522026794284800,7.336284912109375,-0.13571032881736755,-0.36654722690582275,0.4210624396800995
1773522026804323800,7.34632373046875,-0.1344706267118454,-0.32347217202186584,0.3735559284687042
1773522026814361900,7.35636181640625,-0.12656636536121368,-0.28343918919563293,0.3245903253555298
1773522026824400000,7.36639990234375,-0.11903893947601318,-0.26153016090393066,0.27147412300109863
1773522026834439000,7.37643896484375,-0.1085038036108017,-0.2409496009349823,0.21970480680465698
1773522026844477000,7.386476806640625,-0.09339249134063721,-0.22307473421096802,0.1808205246925354
1773522026854515700,7.396515625,-0.0843549519777298,-0.1910645216703415,0.16044320166110992
1773522026864554000,7.406553955078125,-0.07896658778190613,-0.13887189328670502,0.14184075593948364
1773522026874591700,7.416591796875,-0.07741592079401016,-0.07888559252023697,0.12641507387161255
1773522026884631000,7.426631103515625,-0.07804975658655167,-0.006161857396364212,0.11207076162099838
1773522026894668800,7.436668701171875,-0.07510505616664886,0.04335588961839676,0.09968200325965881
1773522026904707000,7.44670703125,-0.07809020578861237,0.0577864944934845,0.09177641570568085
1773522026914745900,7.456745849609375,-0.06783625483512878,0.05121319741010666,0.0861450657248497
1773522026924783900,7.466783935546875,-0.04186590760946274,0.0347716398537159,0.08980131894350052
1773522026934823000,7.476822998046875,-0.011249013245105743,0.01868985965847969,0.10258185863494873
1773522026944861000,7.48686083984375,0.019539259374141693,-0.009549500420689583,0.10521199554204941
1773522026954899000,7.49689892578125,0.04750727862119675,-0.040569718927145004,0.09492307901382446
1773522026964938000,7.50693798828125,0.07658793032169342,-0.07399558275938034,0.06728985160589218
1773522026974975700,7.516975830078125,0.10821123421192169,-0.11441642791032791,0.04274522513151169
1773522026985014000,7.527013916015625,0.14022216200828552,-0.1343912035226822,0.0324140228331089
1773522026995052800,7.537052734375,0.17049308121204376,-0.1259291023015976,0.030147526413202286
1773522027005091000,7.547091064453125,0.18738524615764618,-0.09911878407001495,0.03217898681759834
1773522027015129900,7.5571298828125,0.18032485246658325,-0.078584223985672,0.024479050189256668
1773522027025168000,7.56716796875,0.1465570330619812,-0.050573088228702545,0.005263010039925575
1773522027035206000,7.577205810546875,0.09436091035604477,0.026536433026194572,0.01285709347575903
1773522027045245000,7.587244873046875,0.035429418087005615,0.14196795225143433,0.05993326008319855
1773522027055283000,7.597282958984375,-0.03081376478075981,0.35302823781967163,0.154715433716774
1773522027065321000,7.607321044921875,-0.05464239791035652,0.6386530995368958,0.2187519520521164
1773522027075359700,7.61735986328125,0.09334883093833923,0.658267617225647,0.16258646547794342
1773522027085398000,7.62739794921875,0.15286889672279358,0.7693336606025696,0.11620671302080154
1773522027095435800,7.637435791015625,0.07105950266122818,0.9842475056648254,0.04790693148970604
1773522027105475000,7.64747509765625,-0.08418254554271698,1.2976034879684448,-0.011112713254988194
1773522027115512800,7.657512939453125,-0.11046065390110016,1.6288059949874878,-0.025024767965078354
1773522027125551900,7.6675517578125,-0.18764464557170868,1.8151530027389526,-0.0031823208555579185
1773522027135590000,7.67758984375,-0.2774519622325897,1.8492673635482788,0.06883125752210617
1773522027145628000,7.6876279296875,-0.3013136088848114,1.8729017972946167,0.14250494539737701
1773522027155667000,7.6976669921875,-0.2290593981742859,1.5630135536193848,0.07397080957889557
1773522027165705000,7.707705078125,-0.14092901349067688,1.2046093940734863,-0.032205697149038315
1773522027175743700,7.71774365234375,-0.06305673718452454,0.7080576419830322,-0.10102830082178116
1773522027185782800,7.72778271484375,0.08321738243103027,0.14542651176452637,-0.11208201944828033
1773522027195820800,7.73782080078125,0.2344871312379837,-0.40965110063552856,-0.12786096334457397
1773522027205859800,7.74785986328125,0.1466081440448761,-0.6830464005470276,-0.0663003921508789
1773522027215897900,7.75789794921875,0.03302378952503204,-0.6604405641555786,0.07012713700532913
1773522027225935600,7.767935546875,0.008824445307254791,-0.4730652868747711,0.20199142396450043
1773522027235975000,7.777974853515625,0.024733975529670715,-0.2593424618244171,0.25991323590278625
1773522027246012700,7.7880126953125,0.014574548229575157,-0.0893092155456543,0.23585078120231628
1773522027256051000,7.798051025390625,-0.040514614433050156,0.018065450713038445,0.17073354125022888
1773522027266089700,7.80808984375,-0.09485029429197311,0.06820637732744217,0.12109141796827316
1773522027276127700,7.818127685546875,-0.14891940355300903,0.0647609606385231,0.10186410695314407
1773522027286165800,7.828165771484375,-0.2064490020275116,0.029995789751410484,0.10721413046121597
1773522027296204800,7.838204833984375,-0.26322099566459656,-0.0033651816193014383,0.13236865401268005
1773522027306242800,7.848242919921875,-0.3085953891277313,-0.01133735477924347,0.16512127220630646
1773522027316281900,7.85828173828125,-0.33918845653533936,0.030148746445775032,0.19888953864574432
1773522027326319600,7.868319580078125,-0.3697894811630249,0.06981466710567474,0.20435434579849243
1773522027336358000,7.87835791015625,-0.43856215476989746,0.0663687139749527,0.1598334014415741
1773522027346396700,7.888396728515625,-0.5791571140289307,-0.11375977843999863,0.0032296632416546345
1773522027356435000,7.89843505859375,-0.5307045578956604,-0.17180773615837097,-0.07267504185438156
1773522027366472700,7.90847265625,-0.4647181034088135,-0.13204221427440643,-0.08775092661380768
1773522027376511700,7.91851171875,-0.40270501375198364,-0.08609850704669952,-0.06292100995779037
1773522027386549800,7.9285498046875,-0.4557482600212097,-0.15524880588054657,-0.07148813456296921
1773522027396588800,7.9385888671875,-0.4870273768901825,-0.17254559695720673,-0.061091791838407516
1773522027406626800,7.948626708984375,-0.4595020115375519,-0.2015540897846222,-0.05328793078660965
1773522027416664800,7.958664794921875,-0.3936249017715454,-0.22781330347061157,-0.05104409530758858
1773522027426703600,7.96870361328125,-0.3079816401004791,-0.23773224651813507,-0.039480917155742645
1773522027436742000,7.978741943359375,-0.2577050030231476,-0.2184542417526245,-0.027313590049743652
1773522027446779600,7.988779541015625,-0.19183304905891418,-0.20491819083690643,-0.009690656326711178
1773522027456819000,7.99881884765625,-0.08438427746295929,-0.20268584787845612,0.02882116287946701
1773522027466856700,8.008856689453125,-0.0009359885007143021,-0.1844349354505539,0.0708642229437828
1773522027476895700,8.018895751953124,0.025427602231502533,-0.1910542994737625,0.10350513458251953
1773522027486933800,8.028933837890625,0.004840835928916931,-0.1783616691827774,0.12177974730730057
1773522027496971800,8.0389716796875,-0.03263992816209793,-0.15824903547763824,0.13597379624843597
1773522027507010800,8.0490107421875,-0.06840964406728745,-0.13024510443210602,0.14885923266410828
1773522027517048800,8.059048828125,-0.10192392766475677,-0.10319351404905319,0.1510840356349945
1773522027527086800,8.0690869140625,-0.12553711235523224,-0.08022907376289368,0.16225998103618622
1773522027537126000,8.0791259765625,-0.13707998394966125,-0.06172987073659897,0.16235516965389252
1773522027547163600,8.08916357421875,-0.13900518417358398,-0.04597834125161171,0.16652408242225647
1773522027557203000,8.099202880859375,-0.13677513599395752,-0.024293189868330956,0.16805759072303772
1773522027567240700,8.10924072265625,-0.14097094535827637,-0.018496818840503693,0.16597473621368408
1773522027577279000,8.119279052734376,-0.1464080661535263,-0.02724992111325264,0.15434914827346802
1773522027587317800,8.12931787109375,-0.14853620529174805,-0.04630110785365105,0.13984423875808716
1773522027597355800,8.139355712890625,-0.14871826767921448,-0.06333442777395248,0.12784326076507568
1773522027607393800,8.149393798828125,-0.15623050928115845,-0.06986796110868454,0.1259167343378067
1773522027617432800,8.159432861328124,-0.15914872288703918,-0.06913816183805466,0.12684273719787598
1773522027627470800,8.169470947265625,-0.15320374071598053,-0.05965650826692581,0.12300965189933777
1773522027637508900,8.1795087890625,-0.14514249563217163,-0.05152818560600281,0.1310187131166458
1773522027647547600,8.189547607421876,-0.13297584652900696,-0.03656548261642456,0.14208415150642395
1773522027657586000,8.1995859375,-0.11638838052749634,-0.018253406509757042,0.15668775141239166
1773522027667624700,8.209624755859375,-0.09850019216537476,0.011251755058765411,0.16152937710285187
1773522027677663000,8.2196630859375,-0.08803445845842361,0.03289588540792465,0.15605083107948303
1773522027687700700,8.22970068359375,-0.08049691468477249,0.04447877034544945,0.14810821413993835
1773522027697739800,8.23973974609375,-0.08348017930984497,0.04068252444267273,0.12901103496551514
1773522027707777800,8.24977783203125,-0.10351114720106125,0.03581373021006584,0.10858220607042313
1773522027717816800,8.25981689453125,-0.13028869032859802,0.030398814007639885,0.09192341566085815
1773522027727854800,8.269854736328124,-0.14884985983371735,0.02128174901008606,0.07837299257516861
1773522027737892900,8.279892822265625,-0.1585487574338913,0.0024297568015754223,0.0712200254201889
1773522027747931600,8.289931640625,-0.16759337484836578,-0.014525525271892548,0.07339050620794296
1773522027757970000,8.299969970703126,-0.1738557666540146,-0.032176677137613297,0.08511260151863098
1773522027768007700,8.310007568359374,-0.17800390720367432,-0.04295635595917702,0.09391674399375916
1773522027778046700,8.320046630859375,-0.17008088529109955,-0.04923875629901886,0.09435967355966568
1773522027788084700,8.330084716796875,-0.1627204418182373,-0.03637728467583656,0.08132855594158173
1773522027798123000,8.340123046875,-0.17312394082546234,-0.027473358437418938,0.05642600357532501
1773522027808161800,8.350161865234375,-0.1792643964290619,-0.03216851130127907,0.019682101905345917
1773522027818199800,8.36019970703125,-0.16892243921756744,-0.061526671051979065,-0.012634254060685635
1773522027828238800,8.37023876953125,-0.17685972154140472,-0.08422771841287613,-0.016210081055760384
1773522027838276900,8.38027685546875,-0.1900024265050888,-0.12418126314878464,-0.007648550905287266
1773522027848315000,8.39031494140625,-0.18820931017398834,-0.15715332329273224,0.005168444477021694
1773522027858354000,8.40035400390625,-0.17635546624660492,-0.18597646057605743,0.018023556098341942
1773522027868391700,8.4103916015625,-0.1595115065574646,-0.20441991090774536,0.010737679898738861
1773522027878430000,8.420429931640625,-0.1501898467540741,-0.20665767788887024,-0.006723049096763134
1773522027888468700,8.43046875,-0.15068866312503815,-0.2182360291481018,-0.034618329256772995
1773522027898506800,8.4405068359375,-0.17699342966079712,-0.22734235227108002,-0.0543983057141304
1773522027908545800,8.4505458984375,-0.16267094016075134,-0.2998863160610199,-0.07173121720552444
1773522027918583800,8.460583740234375,-0.16527995467185974,-0.33924663066864014,-0.07204394787549973
1773522027928621800,8.470621826171875,-0.18591466546058655,-0.30619147419929504,-0.05464844033122063
1773522027938660900,8.480660888671874,-0.22436797618865967,-0.24294236302375793,-0.035106413066387177
1773522027948699000,8.490698974609375,-0.2620392143726349,-0.2284473031759262,-0.025099318474531174
1773522027958737000,8.50073681640625,-0.2859371602535248,-0.29255321621894836,-0.028659014031291008
1773522027968775700,8.510775634765626,-0.3033877909183502,-0.39198046922683716,-0.044584453105926514
1773522027978814000,8.52081396484375,-0.31090402603149414,-0.4689614474773407,-0.05138394609093666
1773522027988852700,8.530852783203125,-0.3333163857460022,-0.49215972423553467,-0.056162454187870026
1773522027998890800,8.540890869140625,-0.32730916142463684,-0.47324132919311523,-0.07120312750339508
1773522028008928800,8.5509287109375,-0.3194025158882141,-0.42615318298339844,-0.08481613546609879
1773522028018967800,8.5609677734375,-0.30719590187072754,-0.3328946828842163,-0.10020742565393448
1773522028029005800,8.571005859375,-0.27177825570106506,-0.23949259519577026,-0.12358785420656204
1773522028039043800,8.5810439453125,-0.2162657082080841,-0.15821771323680878,-0.15751251578330994
1773522028049083000,8.591082763671874,-0.15113116800785065,-0.09501343220472336,-0.18919028341770172
1773522028059121000,8.601120849609375,-0.08388751745223999,-0.053521737456321716,-0.20683279633522034
1773522028069159700,8.61115966796875,-0.0672353059053421,0.0021108987275511026,-0.20718884468078613
1773522028079198000,8.621197998046876,-0.013845850713551044,0.029711367562413216,-0.1797305941581726
1773522028089235700,8.631235595703124,0.0005296263843774796,0.04334861412644386,-0.14328017830848694
1773522028099274800,8.641274658203125,-0.006686430890113115,0.05037057027220726,-0.11953195929527283
1773522028109312800,8.651312744140625,-0.02932729572057724,0.05971720069646835,-0.11026255786418915
1773522028119350800,8.661350830078124,-0.05543460696935654,0.07448159158229828,-0.10980230569839478
1773522028129389800,8.671389892578125,-0.09222697466611862,0.09363771229982376,-0.12015081942081451
1773522028139427800,8.681427734375,-0.13060429692268372,0.09409647434949875,-0.11630097776651382
1773522028149467000,8.691466796875,-0.15806283056735992,0.06006394699215889,-0.0873609408736229
1773522028159505000,8.7015048828125,-0.17032615840435028,0.011832411400973797,-0.03340033441781998
1773522028169542400,8.71154248046875,-0.1578894555568695,-0.03454999998211861,0.015436982735991478
1773522028179581400,8.72158154296875,-0.13229840993881226,-0.07371710240840912,0.03140314668416977
1773522028189619200,8.731619140625,-0.10859787464141846,-0.09200955927371979,0.024207819253206253
1773522028199658500,8.741658447265625,-0.0804230123758316,-0.08598940074443817,0.020417142659425735
1773522028209696300,8.7516962890625,-0.061183538287878036,-0.035698533058166504,0.032632261514663696
1773522028219734300,8.761734375,-0.05174641311168671,0.015386933460831642,0.05229960009455681
1773522028229773300,8.771773193359374,-0.04936394840478897,0.03144579380750656,0.0624140165746212
1773522028239811000,8.78181103515625,-0.04520566388964653,0.0638950765132904,0.0731084868311882
1773522028249849300,8.791849365234375,-0.0493474118411541,0.08070601522922516,0.07892589271068573
1773522028259888000,8.80188818359375,-0.03516973555088043,0.10109873116016388,0.08036411553621292
1773522028269926400,8.811926513671875,-0.036277879029512405,0.12257473170757294,0.08166000992059708
1773522028279965400,8.82196533203125,-0.04789173603057861,0.174028679728508,0.08359671384096146
1773522028290003200,8.832003173828125,-0.035277143120765686,0.13268549740314484,0.09205837547779083
1773522028300041200,8.842041259765624,-0.06410657614469528,0.0745159462094307,0.12389916926622391
1773522028310080300,8.852080322265625,-0.09196776896715164,0.02202504128217697,0.1869867891073227
1773522028320118300,8.8621181640625,-0.09447916597127914,0.00379339512437582,0.2509205937385559
1773522028330156300,8.87215625,-0.08044510334730148,0.004371567629277706,0.2747635841369629
1773522028340195000,8.882195068359374,-0.05436776950955391,0.006303060334175825,0.24549221992492676
1773522028350233300,8.8922333984375,-0.028934048488736153,0.009272485040128231,0.18093985319137573
1773522028360272400,8.9022724609375,-0.00923879723995924,0.02472175657749176,0.11550968140363693
1773522028370310400,8.912310302734374,0.003596840426325798,0.06272027641534805,0.06455035507678986
1773522028380348200,8.92234814453125,0.005977879278361797,0.11824949085712433,0.0377308689057827
1773522028390387200,8.93238720703125,0.0085779232904315,0.16431018710136414,0.010828947648406029
1773522028400425200,8.94242529296875,0.016821332275867462,0.1746206283569336,-0.01799999177455902
1773522028410463200,8.952463134765624,0.021876279264688492,0.1689710021018982,-0.041667237877845764
1773522028420502300,8.962502197265625,0.027164850383996964,0.168721541762352,-0.042310815304517746
1773522028430540300,8.972540283203125,0.030732952058315277,0.16807891428470612,-0.02867356687784195
1773522028440579000,8.9825791015625,0.03154570236802101,0.14144401252269745,-0.02597295492887497
1773522028450617300,8.992617431640625,0.03256675973534584,0.1018793061375618,-0.028735719621181488
1773522028460655000,9.002655029296875,0.031062055379152298,0.08621964603662491,-0.033135801553726196
1773522028470694400,9.0126943359375,0.03444693237543106,0.09277208894491196,-0.0404437817633152
1773522028480732200,9.022732177734374,0.03655970096588135,0.11801973730325699,-0.051495254039764404
1773522028490770400,9.0327705078125,0.04049772024154663,0.13342240452766418,-0.061545487493276596
1773522028500809200,9.042809326171875,0.04435356706380844,0.14152587950229645,-0.06438925862312317
1773522028510847200,9.05284716796875,0.0463876910507679,0.14063557982444763,-0.06504812836647034
1773522028520886300,9.06288623046875,0.04202166572213173,0.12489842623472214,-0.05522080883383751
1773522028530924300,9.07292431640625,0.03860269859433174,0.09336899220943451,-0.04107143357396126
1773522028540962300,9.08296240234375,0.032933689653873444,0.06450219452381134,-0.04618734493851662
1773522028551001300,9.09300146484375,0.024456581100821495,0.04673464596271515,-0.06540710479021072
1773522028561039000,9.1030390625,0.018671836704015732,0.04399389773607254,-0.07860852032899857
1773522028571077400,9.113077392578125,0.018030282109975815,0.056357890367507935,-0.07980295270681381
1773522028581116200,9.1231162109375,0.02325308695435524,0.07803273946046829,-0.08337350934743881
1773522028591154400,9.133154541015625,0.030692361295223236,0.08750294148921967,-0.09248790889978409
1773522028601193200,9.143193115234375,0.04733838513493538,0.09644662588834763,-0.09279659390449524
1773522028611231200,9.153231201171875,0.04071350395679474,0.09398400038480759,-0.08360230177640915
1773522028621269200,9.163269287109374,0.04104561731219292,0.089204341173172,-0.06295942515134811
1773522028631308300,9.173308349609375,0.04327601194381714,0.07133559882640839,-0.02693910337984562
1773522028641346300,9.18334619140625,0.012193809263408184,0.04277026653289795,0.0016475638840347528
1773522028651385300,9.19338525390625,0.017578188329935074,0.010953746736049652,0.015187075361609459
1773522028661423000,9.203423095703124,0.0105620501562953,-0.0063059329986572266,0.016397466883063316
1773522028671461400,9.21346142578125,-0.00444699265062809,-0.002105595078319311,0.009346481412649155
1773522028681500200,9.223500244140626,-0.0007351730018854141,0.0001502777449786663,0.0021246622782200575
1773522028691538400,9.233538330078124,0.0027104243636131287,0.0034531301353126764,0.008391346782445908
1773522028701576200,9.243576171875,0.011959212832152843,0.013999693095684052,-0.00552156800404191
1773522028711615200,9.253615234375,0.02172582596540451,0.02205628715455532,-0.028344590216875076
1773522028721653200,9.2636533203125,0.0258389413356781,0.025668511167168617,-0.036206647753715515
1773522028731692300,9.2736923828125,0.025559842586517334,0.025791281834244728,-0.027483729645609856
1773522028741730300,9.283730224609375,0.027289405465126038,0.007938516326248646,-0.0198217760771513
1773522028751768300,9.293768310546875,0.025277920067310333,-0.004572215490043163,-0.0027365318965166807
1773522028761807000,9.30380712890625,0.026363685727119446,-0.0179232619702816,0.014573657885193825
1773522028771845400,9.313845458984375,0.025432109832763672,-0.029974598437547684,0.034968942403793335
1773522028781883100,9.323883056640625,0.022041041404008865,-0.044496286660432816,0.05415273457765579
1773522028791922400,9.33392236328125,0.021279912441968918,-0.06101853400468826,0.06422800570726395
1773522028801960200,9.343960205078124,0.02262810245156288,-0.07406757771968842,0.07876534759998322
1773522028811999200,9.353999267578125,0.019216060638427734,-0.08589121699333191,0.08963743597269058
1773522028822037200,9.364037353515625,0.015990527346730232,-0.08862024545669556,0.08732379972934723
1773522028832075300,9.3740751953125,0.01465069130063057,-0.06657806038856506,0.09519849717617035
1773522028842114300,9.3841142578125,0.021186500787734985,-0.04802151024341583,0.11024026572704315
1773522028852152300,9.39415234375,0.029915008693933487,-0.078174889087677,0.11775889992713928
1773522028862191000,9.404191162109376,0.03336186334490776,-0.13954707980155945,0.13668525218963623
1773522028872229400,9.4142294921875,0.02902304008603096,-0.17525766789913177,0.17483529448509216
1773522028882267100,9.42426708984375,0.0159766785800457,-0.17653466761112213,0.22643719613552094
1773522028892306400,9.434306396484375,0.007098766043782234,-0.17824095487594604,0.2590111196041107
1773522028902344200,9.44434423828125,-0.005534040741622448,-0.20351149141788483,0.26563411951065063
1773522028912382500,9.454382568359375,-0.01646392047405243,-0.22764772176742554,0.2770233750343323
1773522028922421200,9.464421142578125,-0.030498337000608444,-0.23373234272003174,0.3101530075073242
1773522028932459300,9.474459228515625,-0.038749609142541885,-0.22907474637031555,0.34663885831832886
1773522028942498300,9.484498291015624,-0.0548066645860672,-0.2469569891691208,0.36349987983703613
1773522028952536300,9.494536376953125,-0.06029490754008293,-0.26027917861938477,0.36623361706733704
1773522028962574300,9.50457421875,-0.057945121079683304,-0.22933226823806763,0.37418872117996216
1773522028972613400,9.51461328125,-0.045854102820158005,-0.2003948986530304,0.3853604197502136
1773522028982651100,9.524651123046874,-0.014937177300453186,-0.24804896116256714,0.36801284551620483
1773522028992689400,9.534689453125,-0.03203067556023598,-0.2633461654186249,0.3321906626224518
1773522029002728200,9.544728271484376,-0.05771972984075546,-0.29707643389701843,0.31356096267700195
1773522029012766500,9.554766357421874,-0.07606012374162674,-0.27428191900253296,0.30166250467300415
1773522029022805200,9.56480517578125,-0.07892441749572754,-0.21512864530086517,0.2825465798377991
1773522029032843300,9.57484326171875,-0.08104828745126724,-0.15928003191947937,0.23156224191188812
1773522029042881300,9.58488134765625,-0.0639859139919281,-0.15199947357177734,0.15128445625305176
1773522029052920300,9.59492041015625,-0.02997681125998497,-0.13568176329135895,0.09040725976228714
1773522029062958300,9.604958251953125,0.004954456351697445,-0.09038672596216202,0.060524698346853256
1773522029072997400,9.614997314453126,0.035859640687704086,-0.0227658674120903,0.0488845556974411
1773522029083035100,9.62503515625,0.05024508759379387,0.0025274157524108887,0.017973195761442184
1773522029093073400,9.635073486328125,0.062494564801454544,-0.005894565023481846,-0.031544290482997894
1773522029103112200,9.6451123046875,0.037330567836761475,0.023732658475637436,-0.07400751858949661
1773522029113150500,9.655150390625,0.08567945659160614,0.050680652260780334,-0.09911100566387177
1773522029123188200,9.665188232421874,0.09183681011199951,0.08412577956914902,-0.11450697481632233
1773522029133227300,9.675227294921875,0.07871568202972412,0.09359464794397354,-0.10009820759296417
1773522029143265300,9.685265380859375,0.07981833070516586,0.1152559146285057,-0.06176099553704262
1773522029153304300,9.69530419921875,0.09127525240182877,0.1425360143184662,-0.014403063803911209
1773522029163342300,9.70534228515625,0.08982158452272415,0.11888980120420456,0.0243565384298563
1773522029173380400,9.71538037109375,0.06333059072494507,0.08609350025653839,0.05804445967078209
1773522029183419400,9.72541943359375,0.032323021441698074,0.02793344110250473,0.1033642366528511
1773522029193457400,9.73545751953125,0.024207569658756256,-0.057672273367643356,0.13742953538894653
1773522029203495400,9.745495361328125,0.021997075527906418,-0.10398926585912704,0.14753690361976624
1773522029213534500,9.755534423828125,0.009654120542109013,-0.08156811445951462,0.13802754878997803
1773522029223572500,9.765572509765626,0.0045870766043663025,-0.03861931338906288,0.14465320110321045
1773522029233611300,9.775611328125,0.017527909949421883,-0.008139703422784805,0.1673121601343155
1773522029243649500,9.7856494140625,0.020755011588335037,0.019385848194360733,0.1962316781282425
1773522029253687300,9.795687255859375,0.02443896234035492,0.010433632880449295,0.21709540486335754
1773522029263726600,9.8057265625,0.014023021794855595,-0.002078254474326968,0.22766858339309692
1773522029273764400,9.815764404296875,0.012837649323046207,-0.01196710392832756,0.2255937159061432
1773522029283803400,9.825803466796875,0.02348867990076542,-0.010156333446502686,0.1984894722700119
1773522029293841400,9.83584130859375,0.03931078314781189,-0.03170903027057648,0.1420205980539322
1773522029303879400,9.84587939453125,0.04467673599720001,-0.060806818306446075,0.060734961181879044
1773522029313918500,9.85591845703125,0.025990668684244156,-0.01660154014825821,-0.00030362745746970177
1773522029323956500,9.86595654296875,0.0052162157371640205,0.07805280387401581,-0.03386528789997101
1773522029333994500,9.875994384765624,0.006783750839531422,0.09470049291849136,-0.08037260174751282
1773522029344033500,9.886033447265625,0.020368993282318115,0.04031944274902344,-0.15713514387607574
1773522029354071300,9.8960712890625,0.02407051995396614,0.00024073407985270023,-0.22587639093399048
1773522029364110600,9.906110595703124,0.02092607691884041,0.018727602437138557,-0.2773166000843048
1773522029374148400,9.9161484375,0.033419497311115265,0.08921721577644348,-0.308007150888443
1773522029384186600,9.9261865234375,0.06905273348093033,0.19454044103622437,-0.32101619243621826
1773522029394225400,9.936225341796876,0.12182646244764328,0.20673079788684845,-0.36033111810684204
1773522029404263400,9.946263427734374,0.12668000161647797,0.10715457797050476,-0.4519391655921936
1773522029414301400,9.956301513671875,0.09579186141490936,0.06763859838247299,-0.4925318658351898
1773522029424340500,9.966340576171875,0.054825834929943085,0.14127375185489655,-0.43268999457359314
1773522029434378500,9.97637841796875,0.036777060478925705,0.1949223279953003,-0.371393620967865
1773522029444417500,9.98641748046875,0.03985759988427162,0.18415828049182892,-0.37429624795913696
1773522029454455300,9.996455322265625,0.04123339056968689,0.1574758142232895,-0.407202810049057
1773522029464493600,10.00649365234375,0.04880093038082123,0.16235888004302979,-0.3988243639469147
1773522029474532400,10.016532470703124,0.05277516692876816,0.21631638705730438,-0.273459792137146
1773522029484570600,10.026570556640625,0.08535744249820709,0.22698697447776794,-0.11369423568248749
1773522029494609400,10.036609375,0.11799793690443039,0.09149625897407532,-0.07127539813518524
1773522029504647400,10.0466474609375,0.10842407494783401,-0.053576599806547165,-0.12416510283946991
1773522029514685400,10.056685546875,0.04542619362473488,-0.08347990363836288,-0.14837536215782166
1773522029524724500,10.066724365234375,-0.015161731280386448,0.013739414513111115,-0.08156799525022507
1773522029534762500,10.076762451171875,-0.028776343911886215,0.10455693304538727,0.03378043696284294
1773522029544800500,10.086800537109376,-0.02578658238053322,0.1545901894569397,0.12917321920394897
1773522029554839300,10.09683935546875,-0.014402899891138077,0.16886687278747559,0.18068301677703857
1773522029564877600,10.106877685546875,-0.009918730705976486,0.11497166752815247,0.20001433789730072
1773522029574916400,10.116916259765626,-0.02335251495242119,0.03423847630620003,0.2042013555765152
1773522029584954600,10.12695458984375,-0.051675476133823395,0.0017564321169629693,0.22190366685390472
1773522029594992400,10.136992431640625,-0.06761156767606735,0.038673967123031616,0.24480631947517395
1773522029605031400,10.147031494140625,-0.07553666830062866,0.08770862221717834,0.23578964173793793
1773522029615069400,10.1570693359375,-0.09663369506597519,0.10032881051301956,0.2078472226858139
1773522029625107500,10.167107421875,-0.11222417652606964,0.09461996704339981,0.19298426806926727
1773522029635146500,10.177146484375,-0.10763822495937347,0.06631482392549515,0.18611569702625275
1773522029645184500,10.1871845703125,-0.09054890275001526,0.036144234240055084,0.18156768381595612
1773522029655223300,10.197223388671874,-0.08093249797821045,0.04153420403599739,0.17581285536289215
1773522029665261600,10.207261474609375,-0.09164855629205704,0.032932013273239136,0.1683664470911026
1773522029675299300,10.21729931640625,-0.12476523220539093,0.029457390308380127,0.15134938061237335
1773522029685338600,10.227338623046874,-0.16506633162498474,0.024586379528045654,0.12172695994377136
1773522029695376400,10.23737646484375,-0.21141572296619415,0.02286384627223015,0.07076551020145416
1773522029705415400,10.24741552734375,-0.2452542781829834,0.030627582222223282,0.028063442558050156
1773522029715453400,10.257453369140626,-0.2351989895105362,0.03608813136816025,0.0027144113555550575
1773522029725491500,10.267491455078124,-0.1219514012336731,0.0566120445728302,-0.0010957340709865093
1773522029735530500,10.277530517578125,0.07983098924160004,0.12410347163677216,-0.020150650292634964
1773522029745568500,10.287568603515625,0.21933935582637787,0.23143881559371948,-0.07696467638015747
1773522029755606500,10.2976064453125,0.1690301150083542,0.26478901505470276,-0.09766329079866409
1773522029765645600,10.3076455078125,0.02180996537208557,0.09713274985551834,-0.05227860435843468
1773522029775683300,10.317683349609375,-0.09829966723918915,-0.1615310162305832,0.034618478268384933
1773522029785722400,10.327722412109376,-0.1407090723514557,-0.26895177364349365,0.07094401866197586
1773522029795760400,10.337760498046874,-0.1305062472820282,-0.199668288230896,0.016815541312098503
1773522029805798700,10.347798583984375,-0.09624852240085602,-0.052005600184202194,-0.07797358185052872
1773522029815837400,10.35783740234375,-0.060711294412612915,0.04506955295801163,-0.1382627636194229
1773522029825875500,10.36787548828125,-0.04129989445209503,0.06000819429755211,-0.13137035071849823
1773522029835913500,10.37791357421875,-0.029174523428082466,0.03853459656238556,-0.11099664866924286
1773522029845952500,10.387952392578125,-0.019766533747315407,0.00124714698176831,-0.11685023456811905
1773522029855990500,10.397990478515625,-0.01918383315205574,-0.02958320453763008,-0.12641391158103943
1773522029866029600,10.408029541015624,-0.024682629853487015,-0.042151641100645065,-0.10934382677078247
1773522029876067300,10.4180673828125,-0.017940571531653404,-0.051057517528533936,-0.08499135076999664
1773522029886105300,10.428105224609375,0.0009262412786483765,-0.05787857994437218,-0.09076651930809021
1773522029896144400,10.438144287109376,0.01592303439974785,-0.0406777523458004,-0.12472981214523315
1773522029906182400,10.448182373046874,0.015794236212968826,-0.008314494043588638,-0.15699851512908936
1773522029916220400,10.458220458984375,0.008121935650706291,-0.012728683650493622,-0.1661938726902008
1773522029926259500,10.468259521484375,-0.002522817812860012,-0.03707476332783699,-0.15526269376277924
1773522029936297500,10.47829736328125,-0.00957886315882206,-0.061293553560972214,-0.13824854791164398
1773522029946336500,10.48833642578125,-0.02257879637181759,-0.08203185349702835,-0.1149783805012703
1773522029956374500,10.49837451171875,-0.030262814834713936,-0.11027280986309052,-0.08557255566120148
1773522029966412300,10.508412353515626,-0.030417896807193756,-0.1319219172000885,-0.07024742662906647
1773522029976451300,10.518451416015624,-0.025704899802803993,-0.14539112150669098,-0.06808094680309296
1773522029986489300,10.5284892578125,-0.019431255757808685,-0.13252361118793488,-0.0735894963145256
1773522029996528400,10.5385283203125,-0.013219697400927544,-0.10659294575452805,-0.06446604430675507
1773522030006566400,10.54856640625,-0.0022568516433238983,-0.089014932513237,-0.05595744028687477
1773522030016604400,10.5586044921875,0.007192310877144337,-0.0843954086303711,-0.05877320095896721
1773522030026643500,10.5686435546875,0.02096034586429596,-0.08255933970212936,-0.06099577248096466
1773522030036681500,10.578681396484376,0.022822163999080658,-0.08127809315919876,-0.05828361213207245
1773522030046719200,10.58871923828125,0.023405369371175766,-0.07761500030755997,-0.0552050955593586
1773522030056758500,10.598758544921875,0.01854722946882248,-0.07254887372255325,-0.057540953159332275
1773522030066796300,10.60879638671875,0.007899162359535694,-0.0594036802649498,-0.055353593081235886
1773522030076835300,10.61883544921875,0.0028498098254203796,-0.05176813155412674,-0.04062870889902115
1773522030086873600,10.62887353515625,-0.008197381161153316,-0.04328756779432297,-0.015712494030594826
1773522030096911400,10.638911376953125,-0.012477613985538483,-0.04492620751261711,-0.009045002982020378
1773522030106950400,10.648950439453126,-0.010015874169766903,-0.04970090091228485,0.0016211140900850296
1773522030116988400,10.658988525390624,-0.0058701313100755215,-0.04728701338171959,0.009531501680612564
1773522030127027500,10.66902734375,-0.005756224971264601,-0.03603000566363335,0.01330073457211256
1773522030137065500,10.6790654296875,-0.0021034330129623413,-0.023799173533916473,0.03438178449869156
1773522030147103200,10.689103271484376,-0.0008655814453959465,-0.014228392392396927,0.06389725208282471
1773522030157142500,10.699142578125,-0.0014669233933091164,-0.018968818709254265,0.0737307071685791
1773522030167180300,10.70918017578125,-0.0017755217850208282,-0.03326094150543213,0.06677242368459702
1773522030177222400,10.719222412109374,-0.0032674241811037064,-0.04498311132192612,0.06274998188018799
1773522030187261700,10.72926171875,-0.009546455927193165,-0.05119724199175835,0.06588803976774216
1773522030197299500,10.739299560546876,-0.01429833471775055,-0.04834259673953056,0.07245832681655884
1773522030207338500,10.74933837890625,-0.017317503690719604,-0.03115544281899929,0.0686430111527443
1773522030217376500,10.75937646484375,-0.011644970625638962,-0.010787056758999825,0.06169082596898079
1773522030227414500,10.76941455078125,-0.013469427824020386,0.0014617956476286054,0.05031400918960571
1773522030237453600,10.77945361328125,-0.02108287438750267,-0.0014663499314337969,0.03963366895914078
1773522030247491600,10.78949169921875,-0.019429875537753105,-0.005248658824712038,0.036297425627708435
1773522030257529600,10.799529541015625,-0.016656991094350815,-0.005845739971846342,0.03783034160733223
1773522030267568600,10.809568603515626,-0.010407625697553158,0.007259320933371782,0.03828005865216255
1773522030277606400,10.8196064453125,-0.007067222613841295,0.01409166119992733,0.03971443697810173
1773522030287645700,10.829645751953125,-0.01080184243619442,0.024313583970069885,0.048491038382053375
1773522030297683500,10.839683349609375,-0.016966527327895164,0.013006600551307201,0.0667070597410202
1773522030307721700,10.8497216796875,-0.021539974957704544,-0.0074749719351530075,0.07610002905130386
1773522030317760500,10.859760498046874,-0.02434774488210678,-0.03078322485089302,0.07437882572412491
1773522030327798500,10.869798583984375,-0.026258548721671104,-0.03082405775785446,0.07086656987667084
1773522030337836500,10.87983642578125,-0.025778379291296005,-0.027403496205806732,0.07024259120225906
1773522030347875600,10.88987548828125,-0.01983235590159893,-0.026541074737906456,0.0630958154797554
1773522030357913600,10.89991357421875,-0.015328950248658657,-0.02223900519311428,0.05789599195122719
1773522030367952600,10.90995263671875,-0.008192842826247215,-0.0008129924535751343,0.04713376611471176
1773522030377990400,10.919990478515626,-0.005536072887480259,0.020945565775036812,0.041378676891326904
1773522030388028400,10.9300283203125,0.0021486924961209297,0.031852368265390396,0.03227659687399864
1773522030398067500,10.9400673828125,0.002686118707060814,0.03411046043038368,0.02504052221775055
1773522030408105700,10.950105712890625,0.003920166753232479,0.03525642678141594,0.02326124534010887
1773522030418143500,10.9601435546875,0.003853854723274708,0.02990160509943962,0.032071251422166824
1773522030428182500,10.9701826171875,0.0036843661218881607,0.021361369639635086,0.037708673626184464
1773522030438220500,10.980220458984375,0.006523828953504562,0.015497621148824692,0.03697097674012184
1773522030448259600,10.990259521484376,0.005152846686542034,0.020842419937253,0.035095587372779846
1773522030458297600,11.000297607421874,0.005856453441083431,0.03841209039092064,0.027668830007314682
1773522030468335400,11.01033544921875,0.011739707551896572,0.0617632232606411,0.02307969518005848
1773522030478374400,11.02037451171875,0.013138399459421635,0.065157949924469,0.037134259939193726
1773522030488412400,11.030412353515626,0.007687951438128948,0.06249558925628662,0.04206483066082001
1773522030498450400,11.040450439453124,0.0011919699609279633,0.038994792848825455,0.044704288244247437
1773522030508489700,11.05048974609375,-0.002378116361796856,0.02020973712205887,0.049490392208099365
1773522030518527500,11.060527587890626,-0.008364103734493256,0.029588324949145317,0.04892819747328758
1773522030528566500,11.07056640625,-0.011678926646709442,0.04791025072336197,0.03637956455349922
1773522030538604500,11.0806044921875,-0.010885304771363735,0.0735679417848587,0.02264670841395855
1773522030548642300,11.090642333984375,-0.015198073349893093,0.09146669507026672,0.023080967366695404
1773522030558681600,11.100681640625,-0.012430516071617603,0.07888911664485931,0.044937532395124435
1773522030568719400,11.11071923828125,-0.012433036230504513,0.06406570225954056,0.06779779493808746
1773522030578757600,11.120757568359375,-0.011029018089175224,0.0465245246887207,0.07661046087741852
1773522030588796700,11.130796630859376,-0.005926200654357672,0.012012885883450508,0.0714886486530304
1773522030598834400,11.14083447265625,0.00784740224480629,-0.01927419751882553,0.06007061153650284
1773522030608873700,11.150873779296875,0.01734544336795807,-0.031503789126873016,0.04721842706203461
1773522030618911500,11.160911376953125,0.02721724659204483,-0.020721979439258575,0.023371683433651924
1773522030628949500,11.170949462890626,0.024037545546889305,0.013529105111956596,-0.003487418871372938
1773522030638988500,11.180988525390624,0.02483356185257435,0.038544174283742905,-0.026244129985570908
1773522030649026300,11.1910263671875,0.017785774543881416,0.058338385075330734,-0.04101854935288429
1773522030659064600,11.201064697265625,0.013431239873170853,0.06126786395907402,-0.050961196422576904
1773522030669103400,11.211103271484374,0.018462246283888817,0.025221621617674828,-0.06251007318496704
1773522030679141600,11.2211416015625,0.02619420364499092,-0.01996583119034767,-0.07584825158119202
1773522030689179400,11.231179443359375,0.02837526798248291,-0.057851243764162064,-0.07351542264223099
1773522030699218400,11.241218505859376,0.027979787439107895,-0.09090134501457214,-0.06161349266767502
1773522030709256400,11.25125634765625,0.02118861861526966,-0.11141131073236465,-0.052199963480234146
1773522030719295500,11.26129541015625,0.007427796721458435,-0.1263098269701004,-0.044729795306921005
1773522030729333500,11.27133349609375,-0.0026227738708257675,-0.1296411156654358,-0.03712340071797371
1773522030739371500,11.28137158203125,-0.001673889346420765,-0.12578725814819336,-0.042520828545093536
1773522030749410300,11.291410400390625,-0.0023464495316147804,-0.12113495916128159,-0.05426352843642235
1773522030759448600,11.301448486328125,-0.004331303294748068,-0.12751296162605286,-0.0648898035287857
1773522030769486300,11.311486328125,-0.009914030320942402,-0.16800127923488617,-0.05622786283493042
1773522030779525600,11.321525634765624,-0.013652043417096138,-0.2104419469833374,-0.04196557030081749
1773522030789563400,11.3315634765625,-0.018443895503878593,-0.25505849719047546,-0.031765490770339966
1773522030799602400,11.3416025390625,-0.01885162480175495,-0.28528937697410583,-0.03839116916060448
1773522030809640400,11.351640380859376,-0.017005503177642822,-0.2991085350513458,-0.06275323033332825
1773522030819678500,11.361678466796874,-0.02053871750831604,-0.28552985191345215,-0.09185252338647842
1773522030829717500,11.371717529296875,-0.0149352066218853,-0.2644859254360199,-0.11507485806941986
1773522030839755500,11.381755615234376,-0.007812848314642906,-0.2566128075122833,-0.12965726852416992
1773522030849793500,11.39179345703125,-0.0022491998970508575,-0.24807152152061462,-0.14204147458076477
1773522030859832600,11.40183251953125,-0.0045645516365766525,-0.25628283619880676,-0.1567317396402359
1773522030869870300,11.411870361328125,-0.01320849172770977,-0.270724892616272,-0.16024662554264069
1773522030879909600,11.42190966796875,-0.019876781851053238,-0.2930685579776764,-0.15749050676822662
1773522030889947400,11.431947509765624,-0.029444433748722076,-0.3023858666419983,-0.15810224413871765
1773522030899985700,11.441985595703125,-0.029300089925527573,-0.2841472327709198,-0.16078856587409973
1773522030910024400,11.4520244140625,-0.025630533695220947,-0.24580587446689606,-0.1578076034784317
1773522030920062500,11.4620625,-0.027986634522676468,-0.19719918072223663,-0.14444465935230255
1773522030930100500,11.4721005859375,-0.03376828879117966,-0.17661340534687042,-0.12791405618190765
1773522030940139500,11.482139404296875,-0.04577221721410751,-0.1677088588476181,-0.09787784516811371
1773522030950177500,11.492177490234376,-0.049877360463142395,-0.19411073625087738,-0.05525321885943413
1773522030960215600,11.502215576171874,-0.05824660882353783,-0.22081905603408813,0.0032681464217603207
1773522030970254300,11.51225439453125,-0.0527598038315773,-0.23122604191303253,0.05532768368721008
1773522030980292600,11.522292724609375,-0.040435224771499634,-0.25077125430107117,0.0940156951546669
1773522030990331400,11.532331298828124,-0.02217124216258526,-0.2688401937484741,0.1086365357041359
1773522031000369700,11.54236962890625,-0.007591234520077705,-0.2920991778373718,0.11183978617191315
1773522031010407400,11.552407470703125,-0.00495333643630147,-0.2925495207309723,0.1145775318145752
1773522031020446500,11.562446533203126,-0.0053339023143053055,-0.2709544599056244,0.12233904004096985
1773522031030484500,11.572484375,-0.012761573307216167,-0.23607558012008667,0.11309091746807098
1773522031040522500,11.5825224609375,-0.025698143988847733,-0.18591733276844025,0.07678031921386719
1773522031050561500,11.5925615234375,-0.031554847955703735,-0.13324151933193207,0.023820284754037857
1773522031060599600,11.602599609375,-0.028912724927067757,-0.08794540911912918,-0.013761176727712154
1773522031070638300,11.612638427734375,-0.03387504816055298,-0.07520990818738937,-0.024114228785037994
1773522031080676600,11.622676513671875,-0.03908818960189819,-0.06812110543251038,-0.01910429075360298
1773522031090714400,11.63271435546875,-0.0355871208012104,-0.07784324884414673,-0.01547465194016695
1773522031100753700,11.642753662109374,-0.027371801435947418,-0.07177310436964035,-0.028350504115223885
1773522031110791400,11.65279150390625,0.0005055228248238564,-0.05334721505641937,-0.058512959629297256
1773522031120829700,11.66282958984375,0.029971536248922348,0.0004449109546840191,-0.10769808292388916
1773522031130868500,11.672868408203126,0.04734841361641884,0.08450253307819366,-0.16542474925518036
1773522031140906500,11.682906494140624,0.07588258385658264,0.18733277916908264,-0.21611616015434265
1773522031150944500,11.692944580078125,0.0951642096042633,0.27338171005249023,-0.24898771941661835
1773522031160983600,11.702983642578126,0.08913932740688324,0.33938950300216675,-0.27408722043037415
1773522031171021300,11.713021240234376,0.08424784243106842,0.35776227712631226,-0.2804240584373474
1773522031181060000,11.72306005859375,0.0844971090555191,0.32762250304222107,-0.25920772552490234
1773522031191098000,11.73309814453125,0.07526376098394394,0.2731647491455078,-0.2268461138010025
1773522031201136000,11.74313623046875,0.060954589396715164,0.23030251264572144,-0.20460525155067444
1773522031211175200,11.753175048828124,0.052189283072948456,0.20699460804462433,-0.18196403980255127
1773522031221213200,11.763213134765625,0.04346556216478348,0.18959884345531464,-0.15945766866207123
1773522031231251200,11.773251220703125,0.030732471495866776,0.17637057602405548,-0.13428795337677002
1773522031241290000,11.7832900390625,0.030069343745708466,0.1757042407989502,-0.1135999858379364
1773522031251328300,11.793328369140625,0.032450802624225616,0.18424321711063385,-0.10367614775896072
1773522031261366000,11.803365966796875,0.03157861903309822,0.20469363033771515,-0.10116105526685715
1773522031271405300,11.8134052734375,0.031042873859405518,0.20356589555740356,-0.09254994988441467
1773522031281443000,11.823443115234374,0.03158349543809891,0.1860329806804657,-0.08615756034851074
1773522031291482000,11.833482177734375,0.029412265866994858,0.17547975480556488,-0.08431774377822876
1773522031301520100,11.84352001953125,0.0314629003405571,0.1708996444940567,-0.085335873067379
1773522031311558000,11.853557861328126,0.037765197455883026,0.1868332177400589,-0.08444562554359436
1773522031321597200,11.86359716796875,0.04688439145684242,0.2083214670419693,-0.08763289451599121
1773522031331635200,11.87363525390625,0.05441286414861679,0.21535862982273102,-0.10239746421575546
1773522031341673200,11.883673095703125,0.06066303700208664,0.20791243016719818,-0.10459910333156586
1773522031351712300,11.893712158203124,0.06366193294525146,0.18068799376487732,-0.09502772241830826
1773522031361750000,11.90375,0.06333036720752716,0.15778641402721405,-0.08026421815156937
1773522031371788000,11.9137880859375,0.06349791586399078,0.14428241550922394,-0.06337621808052063
1773522031381827000,11.9238271484375,0.06313572078943253,0.12397899478673935,-0.05398884415626526
1773522031391865000,11.933864990234374,0.05703192949295044,0.09416864812374115,-0.044278450310230255
1773522031401904000,11.943904052734375,0.05286061763763428,0.06872933357954025,-0.02535136230289936
1773522031411942000,11.95394189453125,0.04728032276034355,0.044663671404123306,-0.002391963265836239
1773522031421980200,11.963980224609376,0.046209998428821564,0.035158053040504456,0.002629959722980857
1773522031432019200,11.974019287109375,0.0427115261554718,0.03248581290245056,0.01013183407485485
1773522031442057200,11.98405712890625,0.041884347796440125,0.03775354474782944,0.013264243490993977
1773522031452095000,11.994094970703125,0.04568987712264061,0.052506592124700546,0.015856726095080376
1773522031462134000,12.004134033203124,0.046518921852111816,0.05733010917901993,0.014761101454496384
1773522031472172000,12.014172119140625,0.04554475098848343,0.05508151277899742,0.020282013341784477
1773522031482210000,12.0242099609375,0.041840292513370514,0.03835153579711914,0.023529205471277237
1773522031492249000,12.0342490234375,0.03391367197036743,0.006779671646654606,0.032689861953258514
1773522031502287000,12.044287109375,0.0204913392663002,-0.026117293164134026,0.04366607964038849
1773522031512326100,12.054326171875,0.005678409710526466,-0.05244789645075798,0.05578116700053215
1773522031522364200,12.0643642578125,-0.004393665585666895,-0.06605345755815506,0.05592045187950134
1773522031532402000,12.07440185546875,-0.01302269659936428,-0.07445419579744339,0.053671836853027344
1773522031542441200,12.084441162109375,-0.019324269145727158,-0.07658259570598602,0.05168325453996658
1773522031552479000,12.09447900390625,-0.024425216019153595,-0.07216361910104752,0.05831081047654152
1773522031562517200,12.104517333984376,-0.021607592701911926,-0.06120258569717407,0.060158245265483856
1773522031572556000,12.11455615234375,-0.021987393498420715,-0.05546346679329872,0.07008809596300125
1773522031582594000,12.124593994140625,-0.01323438249528408,-0.05361203849315643,0.0771220400929451
1773522031592632000,12.134632080078125,-0.012316692620515823,-0.04840555042028427,0.09031186997890472
1773522031602671000,12.144671142578124,-0.011550767347216606,-0.04075774922966957,0.10352887213230133
1773522031612709000,12.154709228515625,-0.016905343160033226,-0.031133173033595085,0.1117667406797409
1773522031622748200,12.164748046875,-0.02421065978705883,-0.03235982730984688,0.13643880188465118
1773522031632786000,12.174785888671876,-0.03349950537085533,-0.037905145436525345,0.16989119350910187
1773522031642824200,12.18482421875,-0.03997844457626343,-0.06474582105875015,0.18876661360263824
1773522031652863000,12.194863037109375,-0.044459111988544464,-0.09372563660144806,0.20952269434928894
1773522031662901200,12.2049013671875,-0.05304114893078804,-0.10687419772148132,0.22520792484283447
1773522031672939000,12.21493896484375,-0.059505145996809006,-0.1251494288444519,0.24182303249835968
1773522031682978000,12.22497802734375,-0.06896522641181946,-0.13695628941059113,0.2466135323047638
1773522031693016000,12.23501611328125,-0.07262956351041794,-0.136701762676239,0.23758237063884735
1773522031703054000,12.24505419921875,-0.07736945152282715,-0.12288103252649307,0.22539255023002625
1773522031713093000,12.255093017578124,-0.07584106177091599,-0.10616694390773773,0.20392704010009766
1773522031723131100,12.265131103515625,-0.07220451533794403,-0.0947268009185791,0.17949838936328888
1773522031733170000,12.275169921875,-0.06981267780065536,-0.08510986715555191,0.16178785264492035
1773522031743208200,12.285208251953126,-0.0699881762266159,-0.07300766557455063,0.15103426575660706
1773522031753246000,12.295245849609374,-0.06887363642454147,-0.06893764436244965,0.14828047156333923
1773522031763285200,12.30528515625,-0.06382668018341064,-0.06486593931913376,0.14267025887966156
1773522031773323000,12.315322998046875,-0.057917989790439606,-0.0744628980755806,0.12836426496505737
1773522031783361300,12.325361328125,-0.05456933379173279,-0.08007071912288666,0.0996926873922348
1773522031793400000,12.335400146484375,-0.04856171831488609,-0.07158926874399185,0.06208815053105354
1773522031803438000,12.34543798828125,-0.04134348779916763,-0.04060445353388786,0.02367737516760826
1773522031813476000,12.35547607421875,-0.036002788692712784,0.004575188271701336,-0.007339218631386757
1773522031823515100,12.36551513671875,-0.02148323506116867,0.056356895714998245,-0.03291861340403557
1773522031833553200,12.37555322265625,-0.005488974042236805,0.10187224298715591,-0.05407040938735008
1773522031843591200,12.385591064453125,0.011372564360499382,0.12847642600536346,-0.06968825310468674
1773522031853630000,12.3956298828125,0.018965009599924088,0.13160070776939392,-0.08477819710969925
1773522031863668200,12.405668212890625,0.023058820515871048,0.11781991273164749,-0.09796750545501709
1773522031873707000,12.41570703125,0.018084924668073654,0.0980834811925888,-0.09732779115438461
