time,seconds_elapsed,z,y,x
1773522019536562400,0.0785625,-0.31028810143470764,0.6770567893981934,0.4868023991584778
1773522019546601500,0.0886015625,-0.25570419430732727,1.2388598918914795,0.5940263271331787
1773522019556639500,0.098639404296875,-0.1800730973482132,1.64274263381958,0.4780352711677551
1773522019566677500,0.108677490234375,0.08574633300304413,1.5034724473953247,0.15695738792419434
1773522019576715500,0.118715576171875,0.15449637174606323,0.8865743279457092,-0.23146598041057587
1773522019586754600,0.128754638671875,-0.03470684587955475,0.3197503089904785,-0.5876472592353821
1773522019596792600,0.13879248046875,-0.11138937622308731,0.372277170419693,-0.9143039584159851
1773522019606830600,0.14883056640625,0.13369308412075043,1.4319548606872559,-0.9783899784088135
1773522019616869400,0.158869384765625,0.582269549369812,2.3629443645477295,-1.0972900390625
1773522019626907600,0.16890771484375,1.2378846406936646,2.8633310794830322,-1.1484730243682861
1773522019636945400,0.1789453125,1.9159307479858398,2.625270366668701,-1.2793649435043335
1773522019646984700,0.188984619140625,2.1935982704162598,2.298362970352173,-1.3893263339996338
1773522019657022500,0.1990224609375,1.844612956047058,2.4949073791503906,-1.3098642826080322
1773522019667060700,0.209060791015625,1.2013524770736694,2.453479528427124,-1.1086130142211914
1773522019677098500,0.219098388671875,0.6799015402793884,2.009202241897583,-0.9683240056037903
1773522019687137500,0.229137451171875,0.4204566776752472,0.989409327507019,-0.9274477362632751
1773522019697175600,0.239175537109375,0.3073168098926544,-0.1845056563615799,-0.8374536633491516
1773522019707213600,0.249213623046875,0.23849458992481232,-1.240159273147583,-0.6264774799346924
1773522019717252600,0.259252685546875,0.15320312976837158,-2.130743980407715,-0.38300225138664246
1773522019727290600,0.26929052734375,0.014914766885340214,-2.6705002784729004,-0.15129470825195312
1773522019737328600,0.27932861328125,-0.1633031666278839,-2.5007612705230713,0.0750444158911705
1773522019747366400,0.289366455078125,-0.28827041387557983,-2.0483219623565674,0.2434280961751938
1773522019757405400,0.299405517578125,-0.35248056054115295,-1.7395522594451904,0.306153804063797
1773522019767443700,0.309443603515625,-0.4040502607822418,-1.4703572988510132,0.28252649307250977
1773522019777481500,0.3194814453125,-0.4571113586425781,-1.130248785018921,0.27357667684555054
1773522019787520800,0.329520751953125,-0.5128406882286072,-1.1063802242279053,0.20223486423492432
1773522019797558500,0.33955859375,-0.6192741394042969,-1.5552687644958496,-0.13572214543819427
1773522019807596500,0.349596435546875,-0.837948203086853,-1.365173101425171,-0.4494347870349884
1773522019817635600,0.359635498046875,-1.0375616550445557,-0.6699378490447998,-0.5990375876426697
1773522019827673300,0.36967333984375,-1.1698267459869385,0.011896340176463127,-0.7674438953399658
1773522019837711600,0.379711669921875,-1.2249782085418701,0.5707899928092957,-0.9583864212036133
1773522019847749400,0.389749267578125,-1.242921233177185,0.9396559000015259,-1.1421725749969482
1773522019857788700,0.39978857421875,-1.169328212738037,1.0688530206680298,-1.2062947750091553
1773522019867826400,0.409826416015625,-0.9565731287002563,1.0289902687072754,-1.1104183197021484
1773522019877864700,0.41986474609375,-0.683878481388092,0.944885790348053,-0.86821049451828
1773522019887903500,0.429903564453125,-0.3948597013950348,0.7791322469711304,-0.510086178779602
1773522019897941500,0.43994140625,-0.16484753787517548,0.5438124537467957,-0.10034045577049255
1773522019907979500,0.4499794921875,-0.024267522618174553,0.2685084342956543,0.2803395092487335
1773522019918017500,0.460017578125,0.008073106408119202,0.021646173670887947,0.5635320544242859
1773522019928056600,0.470056640625,-0.001698830397799611,-0.30599719285964966,0.7209991812705994
1773522019938094600,0.480094482421875,0.013525928370654583,-0.777360737323761,0.8095842003822327
1773522019948132600,0.490132568359375,0.0694509819149971,-1.1983619928359985,0.8712121248245239
1773522019958171600,0.500171630859375,0.11837191879749298,-1.4578229188919067,0.917605459690094
1773522019968209400,0.51020947265625,0.10782100260257721,-1.5286579132080078,0.9464922547340393
1773522019978247700,0.52024755859375,-0.013205284252762794,-1.519167423248291,0.9123233556747437
1773522019988286500,0.530286376953125,-0.21763378381729126,-1.4302713871002197,0.8179539442062378
1773522019998324700,0.54032470703125,-0.444116473197937,-1.330037236213684,0.7079289555549622
1773522020008362500,0.550362548828125,-0.6134508848190308,-1.3200175762176514,0.6075652837753296
1773522020018400500,0.560400390625,-0.6907259821891785,-1.3058350086212158,0.5341853499412537
1773522020028439600,0.570439453125,-0.671178936958313,-1.2124695777893066,0.4760509729385376
1773522020038477300,0.580477294921875,-0.6107520461082458,-1.048190951347351,0.4108884632587433
1773522020048515600,0.590515625,-0.5436633229255676,-0.7635831236839294,0.30555298924446106
1773522020058554600,0.6005546875,-0.4790289103984833,-0.3554997742176056,0.11737403273582458
1773522020068592600,0.610592529296875,-0.38652533292770386,0.1168600395321846,-0.06979452818632126
1773522020078630400,0.62063037109375,-0.2870512008666992,0.40284839272499084,-0.20660696923732758
1773522020088669400,0.63066943359375,-0.229177787899971,0.35572507977485657,-0.2699667811393738
1773522020098707500,0.64070751953125,-0.23844586312770844,0.15227368474006653,-0.21388378739356995
1773522020108745500,0.650745361328125,-0.3118761479854584,-0.008246212266385555,-0.03747253865003586
1773522020118784500,0.660784423828125,-0.4350321590900421,0.00788482092320919,0.19197556376457214
1773522020128822500,0.670822509765625,-0.5343427658081055,0.1233576238155365,0.36973410844802856
1773522020138860500,0.680860595703125,-0.5427170991897583,0.16853468120098114,0.44268208742141724
1773522020148898600,0.690898681640625,-0.46013110876083374,0.09117225557565689,0.444490909576416
1773522020158937300,0.700937255859375,-0.37700825929641724,-0.08631598204374313,0.43574056029319763
1773522020168976000,0.710975830078125,-0.33501553535461426,-0.3120042383670807,0.42606741189956665
1773522020179014000,0.721013916015625,-0.345944344997406,-0.5682245492935181,0.3951595723628998
1773522020189053000,0.731052978515625,-0.38366377353668213,-0.7946241497993469,0.35539352893829346
1773522020199091000,0.741091064453125,-0.4328691363334656,-0.8871746063232422,0.33231163024902344
1773522020209129000,0.75112890625,-0.4983394742012024,-0.8452489972114563,0.3111538887023926
1773522020219168000,0.76116796875,-0.5888102650642395,-0.745530366897583,0.29254958033561707
1773522020229205800,0.771205810546875,-0.6785367131233215,-0.6906183958053589,0.27371862530708313
1773522020239244000,0.781244140625,-0.7380287647247314,-0.7064828276634216,0.26714569330215454
1773522020249282800,0.79128271484375,-0.7352942228317261,-0.7620305418968201,0.2841811180114746
1773522020259321000,0.801321044921875,-0.6697210669517517,-0.8435416221618652,0.3262167274951935
1773522020269358800,0.81135888671875,-0.5936455130577087,-0.9347264170646667,0.3872968554496765
1773522020279396900,0.82139697265625,-0.5426185131072998,-0.9573121070861816,0.444644570350647
1773522020289436000,0.831435791015625,-0.5468942523002625,-0.9040305018424988,0.4669104516506195
1773522020299473700,0.8414736328125,-0.5695175528526306,-0.8128849267959595,0.4372287392616272
1773522020309512000,0.851511962890625,-0.5748827457427979,-0.8032631874084473,0.35914725065231323
1773522020319551000,0.861551025390625,-0.5495890974998474,-0.8871655464172363,0.2736392617225647
1773522020329589000,0.871589111328125,-0.5034388899803162,-0.9849972724914551,0.22762010991573334
1773522020339626800,0.881626708984375,-0.458761990070343,-0.9982297420501709,0.235996812582016
1773522020349665800,0.891665771484375,-0.47137072682380676,-0.9024795293807983,0.24933606386184692
1773522020359703800,0.901703857421875,-0.5548379421234131,-0.6799393892288208,0.19449783861637115
1773522020369741800,0.911741943359375,-0.6734327673912048,-0.3671724200248718,0.06950291246175766
1773522020379780900,0.92178076171875,-0.731193482875824,-0.11931414157152176,-0.11491433531045914
1773522020389819000,0.93181884765625,-0.6933246850967407,-0.043543215841054916,-0.3091948628425598
1773522020399857000,0.94185693359375,-0.5963097214698792,-0.1586754024028778,-0.4337160289287567
1773522020409896000,0.95189599609375,-0.49480921030044556,-0.3104097843170166,-0.43216684460639954
1773522020419933700,0.96193359375,-0.41397374868392944,-0.45320528745651245,-0.31285831332206726
1773522020429972000,0.971971923828125,-0.33217954635620117,-0.545661449432373,-0.11636229604482651
1773522020440009700,0.982009765625,-0.24392397701740265,-0.5624934434890747,0.1189117431640625
1773522020450049000,0.992049072265625,-0.16880713403224945,-0.5333395600318909,0.3492131233215332
1773522020460086800,1.002086669921875,-0.11913198232650757,-0.49486085772514343,0.5105258226394653
1773522020470125000,1.012125,-0.1067163273692131,-0.4339650273323059,0.5675837993621826
1773522020480163800,1.022163818359375,-0.11236222833395004,-0.3930183947086334,0.5139224529266357
1773522020490201900,1.032201904296875,-0.11890321969985962,-0.41363444924354553,0.3837449848651886
1773522020500240000,1.042239990234375,-0.13188771903514862,-0.45513156056404114,0.2541491985321045
1773522020510279000,1.05227880859375,-0.17129558324813843,-0.502105712890625,0.18926526606082916
1773522020520317000,1.06231689453125,-0.26414403319358826,-0.5537404417991638,0.16925294697284698
1773522020530355000,1.07235498046875,-0.3641979396343231,-0.5984042882919312,0.16447389125823975
1773522020540393700,1.082393798828125,-0.42105427384376526,-0.592810869216919,0.17108359932899475
1773522020550432000,1.092431884765625,-0.419355183839798,-0.5239721536636353,0.18438582122325897
1773522020560469800,1.1024697265625,-0.37891802191734314,-0.4317287802696228,0.1989775449037552
1773522020570509000,1.112509033203125,-0.3300444781780243,-0.3162732720375061,0.20633558928966522
1773522020580546800,1.122546875,-0.2814045250415802,-0.16862815618515015,0.19427520036697388
1773522020590584800,1.132584716796875,-0.2354671210050583,-0.020330306142568588,0.17553028464317322
1773522020600623900,1.142623779296875,-0.19079391658306122,0.1009785458445549,0.1513248085975647
1773522020610662000,1.152661865234375,-0.15743009746074677,0.183486208319664,0.13269811868667603
1773522020620700000,1.162699951171875,-0.159389927983284,0.21176311373710632,0.12342579662799835
1773522020630737700,1.172737548828125,-0.19267651438713074,0.2089124619960785,0.11397583782672882
1773522020640777000,1.18277685546875,-0.2468968629837036,0.18072690069675446,0.08761639893054962
1773522020650814700,1.192814697265625,-0.2935309410095215,0.1101752370595932,0.04958699271082878
1773522020660853000,1.20285302734375,-0.3257666528224945,0.007245928514748812,0.03436915948987007
1773522020670891800,1.212891845703125,-0.3301278352737427,-0.12004304677248001,0.035401131957769394
1773522020680929800,1.2229296875,-0.3095027208328247,-0.26146170496940613,0.04629772529006004
1773522020690967800,1.2329677734375,-0.2707718312740326,-0.3866049647331238,0.06571216881275177
1773522020701006800,1.2430068359375,-0.2145402580499649,-0.47240856289863586,0.10361267626285553
1773522020711044900,1.253044921875,-0.17236430943012238,-0.5159597396850586,0.15935289859771729
1773522020721083000,1.263082763671875,-0.1676180213689804,-0.4572722017765045,0.21202170848846436
1773522020731121700,1.27312158203125,-0.20300450921058655,-0.3219905495643616,0.22640757262706757
1773522020741160000,1.283159912109375,-0.2490154206752777,-0.19748510420322418,0.1872633695602417
1773522020751197700,1.29319775390625,-0.27622947096824646,-0.08588188141584396,0.11524989455938339
1773522020761237000,1.303237060546875,-0.2709316313266754,0.012883841060101986,0.03289962559938431
1773522020771274800,1.313274658203125,-0.2591966688632965,0.08064024895429611,-0.03856177255511284
1773522020781313000,1.32331298828125,-0.2535100281238556,0.13021738827228546,-0.0975089818239212
1773522020791351800,1.333351806640625,-0.24452371895313263,0.17710846662521362,-0.13610324263572693
1773522020801389800,1.343389892578125,-0.2222013771533966,0.19059577584266663,-0.15527907013893127
1773522020811427800,1.353427734375,-0.19366614520549774,0.17357765138149261,-0.14889946579933167
1773522020821467000,1.363466796875,-0.17430442571640015,0.13159584999084473,-0.12264709174633026
1773522020831505000,1.3735048828125,-0.1656227856874466,0.05908595770597458,-0.10249015688896179
1773522020841543000,1.38354296875,-0.1532697081565857,-0.01918807625770569,-0.09382715821266174
1773522020851581700,1.393581787109375,-0.12878620624542236,-0.07417303323745728,-0.07281588017940521
1773522020861620000,1.403619873046875,-0.09578751027584076,-0.08915863931179047,-0.04613234102725983
1773522020871657700,1.41365771484375,-0.07196340709924698,-0.0898105800151825,-0.007405185606330633
1773522020881697000,1.423697021484375,-0.05842149630188942,-0.035954006016254425,0.030972562730312347
1773522020891734800,1.43373486328125,-0.059427108615636826,0.03461310267448425,0.03645681217312813
1773522020901773000,1.44377294921875,-0.06600324809551239,0.06314807385206223,0.0022975089959800243
1773522020911811800,1.453811767578125,-0.0642535537481308,0.0482623390853405,-0.0653662234544754
1773522020921849900,1.463849853515625,-0.0517691895365715,0.014729411341249943,-0.14423014223575592
1773522020931887900,1.473887939453125,-0.021566012874245644,-0.017161943018436432,-0.19551171362400055
1773522020941926000,1.48392578125,0.018087124451994896,-0.0562606081366539,-0.2040037363767624
1773522020951965000,1.49396484375,0.05019712448120117,-0.09900753945112228,-0.17341865599155426
1773522020962002700,1.504002685546875,0.07075726240873337,-0.13791605830192566,-0.1267627328634262
1773522020972041000,1.514041015625,0.0708233043551445,-0.15369822084903717,-0.10034658014774323
1773522020982080000,1.524080078125,0.05879167839884758,-0.12408492714166641,-0.10477115213871002
1773522020992117800,1.53411767578125,0.043186087161302567,-0.05212685093283653,-0.14432655274868011
1773522021002155800,1.54415576171875,0.014586132951080799,0.03582004830241203,-0.2010345757007599
1773522021012194800,1.55419482421875,-0.02110954560339451,0.09129130095243454,-0.25983503460884094
1773522021022232800,1.56423291015625,-0.06273289024829865,0.11697428673505783,-0.29845061898231506
1773522021032270800,1.574270751953125,-0.09812790155410767,0.1501474231481552,-0.31267136335372925
1773522021042310000,1.584309814453125,-0.10898534208536148,0.1717294156551361,-0.3140237033367157
1773522021052348000,1.594347900390625,-0.08616285026073456,0.19941191375255585,-0.3133073151111603
1773522021062386000,1.604385986328125,-0.037584658712148666,0.20178665220737457,-0.3075098693370819
1773522021072425000,1.614425048828125,0.022711437195539474,0.19750109314918518,-0.27300864458084106
1773522021082462700,1.624462646484375,0.07308406382799149,0.1997104436159134,-0.2080109864473343
1773522021092501000,1.6345009765625,0.09549722820520401,0.2091207355260849,-0.12068647146224976
1773522021102539800,1.644539794921875,0.08706912398338318,0.2322782427072525,-0.0397130586206913
1773522021112577800,1.654577880859375,0.060860153287649155,0.2517470121383667,0.013978400267660618
1773522021122615800,1.66461572265625,0.024700285866856575,0.23778033256530762,0.028505144640803337
1773522021132654800,1.67465478515625,-0.01703757233917713,0.24217109382152557,-0.010995126329362392
1773522021142692900,1.68469287109375,-0.06055415794253349,0.3215772211551666,-0.08364322781562805
1773522021152731000,1.69473095703125,-0.0861990675330162,0.470117449760437,-0.17800754308700562
1773522021162770000,1.70477001953125,-0.08658735454082489,0.6698590517044067,-0.27616581320762634
1773522021172807700,1.7148076171875,-0.042622294276952744,0.894291877746582,-0.39794284105300903
1773522021182846000,1.724845947265625,0.0548589862883091,1.1860758066177368,-0.5176937580108643
1773522021192884700,1.734884765625,0.2174665480852127,1.5140498876571655,-0.6150147318840027
1773522021202922800,1.7449228515625,0.3536669909954071,1.83884859085083,-0.6636008620262146
1773522021212960800,1.754960693359375,0.4265236258506775,2.1158783435821533,-0.6429134607315063
1773522021222999800,1.764999755859375,0.44510743021965027,2.3049635887145996,-0.5692216753959656
1773522021233037800,1.775037841796875,0.44874104857444763,2.5208303928375244,-0.4892714321613312
1773522021243075800,1.785075927734375,0.42581334710121155,2.9508213996887207,-0.45559656620025635
1773522021253114600,1.795114501953125,0.35962793231010437,3.689885139465332,-0.44030389189720154
1773522021263153000,1.80515283203125,0.43237563967704773,4.788064479827881,-0.5031068325042725
1773522021273190700,1.815190673828125,0.6395331025123596,5.542830944061279,-0.8187638521194458
1773522021283230000,1.82522998046875,0.7677595019340515,5.661949157714844,-1.3004058599472046
1773522021293267700,1.835267822265625,0.6135952472686768,5.439188480377197,-1.659898281097412
1773522021303306000,1.845305908203125,0.2651669383049011,5.283097743988037,-1.7673215866088867
1773522021313344800,1.8553447265625,-0.07843408733606339,4.940610885620117,-1.7678097486495972
1773522021323382800,1.8653828125,-0.5684275031089783,4.121025085449219,-1.4522219896316528
1773522021333420800,1.8754208984375,-1.092661738395691,3.965111494064331,-0.7168383002281189
1773522021343459800,1.8854599609375,-1.4222888946533203,3.9299910068511963,-0.16378067433834076
1773522021353497900,1.895497802734375,-1.6426023244857788,3.350675582885742,0.04813317582011223
1773522021363536000,1.905535888671875,-1.831690788269043,3.052656888961792,0.13731364905834198
1773522021373574700,1.91557470703125,-1.9923392534255981,2.9205574989318848,0.17432253062725067
1773522021383613000,1.925613037109375,-2.060480833053589,2.933746337890625,0.1806158572435379
1773522021393650700,1.935650634765625,-1.960136890411377,3.156794548034668,0.1705605536699295
1773522021403690000,1.94568994140625,-1.7142282724380493,3.43385648727417,0.13612134754657745
1773522021413727700,1.955727783203125,-1.4820072650909424,3.4840760231018066,0.14058135449886322
1773522021423766000,1.96576611328125,-1.3046892881393433,3.303685426712036,0.20626555383205414
1773522021433804800,1.9758046875,-1.1317390203475952,2.356884241104126,0.31441038846969604
1773522021443842800,1.9858427734375,-1.0254265069961548,0.43873074650764465,0.34576886892318726
1773522021453880800,1.995880859375,-1.0703190565109253,-0.9089150428771973,-0.013249758630990982
1773522021463919900,2.005919921875,-0.8942751288414001,-1.1887145042419434,-0.5274662375450134
1773522021473958000,2.0159580078125,-0.6372286677360535,-1.1095600128173828,-0.87890625
1773522021483995600,2.02599560546875,-0.3794988691806793,-1.0267168283462524,-0.9136261940002441
1773522021494034700,2.03603466796875,-0.14201653003692627,-1.0082522630691528,-0.852975606918335
1773522021504073000,2.046072998046875,-0.03966245800256729,-1.153773546218872,-0.7737148404121399
1773522021514110700,2.05611083984375,-0.056054748594760895,-1.3032468557357788,-0.7307277321815491
1773522021524150000,2.06614990234375,-0.08240646123886108,-1.4273531436920166,-0.6452794075012207
1773522021534187800,2.076187744140625,-0.17484743893146515,-1.5975350141525269,-0.46637091040611267
1773522021544225800,2.086225830078125,-0.33264321088790894,-1.655288815498352,-0.1474349945783615
1773522021554264800,2.096264892578125,-0.5266574025154114,-1.6043497323989868,0.196152463555336
1773522021564302600,2.106302490234375,-0.8050901293754578,-1.5087454319000244,0.40907591581344604
1773522021574340900,2.1163408203125,-1.1368036270141602,-1.454810380935669,0.436832457780838
1773522021584379600,2.126379638671875,-1.4547253847122192,-1.4654037952423096,0.3598657548427582
1773522021594418000,2.13641796875,-1.8383030891418457,-1.3841651678085327,0.25376302003860474
1773522021604455700,2.14645556640625,-2.2372570037841797,-1.19442880153656,0.19298329949378967
1773522021614494700,2.15649462890625,-2.6295244693756104,-0.9878255724906921,0.20050247013568878
1773522021624532700,2.16653271484375,-2.9970695972442627,-0.8220040798187256,0.20664292573928833
1773522021634570800,2.17657080078125,-3.272017240524292,-0.7424935698509216,0.1257302314043045
1773522021644609800,2.18660986328125,-3.378244400024414,-0.6640735864639282,-0.024263527244329453
1773522021654647800,2.196647705078125,-3.526628255844116,-0.6611502170562744,-0.31327536702156067
1773522021664685800,2.206685791015625,-3.7527449131011963,-0.6422221064567566,-0.7862111926078796
1773522021674724900,2.216724853515625,-3.9909660816192627,-0.4394764304161072,-1.373473882675171
1773522021684762600,2.2267626953125,-4.03179931640625,-0.12190992385149002,-1.9159742593765259
1773522021694801000,2.23680078125,-3.948723316192627,0.13382917642593384,-2.372450590133667
1773522021704839700,2.246839599609375,-3.7979681491851807,0.4751092791557312,-2.777308225631714
1773522021714878000,2.2568779296875,-3.667973041534424,0.7046343088150024,-3.1917247772216797
1773522021724915700,2.266915771484375,-3.418020009994507,0.7721265554428101,-3.624894142150879
1773522021734954800,2.276954833984375,-2.937270402908325,0.671414315700531,-3.9663212299346924
1773522021744992800,2.28699267578125,-2.482372999191284,0.4090445041656494,-4.222175598144531
1773522021755030800,2.29703076171875,-2.050182342529297,0.24621136486530304,-4.39417839050293
1773522021765069800,2.30706982421875,-1.761027216911316,0.17095443606376648,-4.430535793304443
1773522021775107800,2.31710791015625,-1.71774160861969,-0.010971158742904663,-4.370340347290039
1773522021785145900,2.327145751953125,-1.432037591934204,-0.05746808648109436,-4.152139186859131
1773522021795185000,2.337184814453125,-1.0226064920425415,0.02905268967151642,-3.9304609298706055
1773522021805222700,2.34722265625,-0.6270026564598083,0.376463383436203,-3.9369277954101562
1773522021815261000,2.357260986328125,-0.19635699689388275,1.0179027318954468,-4.164644241333008
1773522021825299700,2.3672998046875,0.2503992021083832,1.8613500595092773,-4.428780555725098
1773522021835338000,2.377337890625,0.6459209322929382,2.617818593978882,-4.607555389404297
1773522021845375700,2.387375732421875,0.9563395380973816,3.0571165084838867,-4.538850784301758
1773522021855414800,2.397414794921875,1.2307045459747314,3.1514041423797607,-4.176117420196533
1773522021865452800,2.407452880859375,1.5391249656677246,2.9401533603668213,-3.6154115200042725
1773522021875490800,2.41749072265625,1.909857988357544,2.537569284439087,-3.060964822769165
1773522021885529900,2.42752978515625,2.3975372314453125,2.0539731979370117,-2.623286247253418
1773522021895568000,2.43756787109375,2.890324115753174,1.5769644975662231,-2.347855567932129
1773522021905606000,2.44760595703125,3.210691452026367,1.1952288150787354,-2.176384687423706
1773522021915645000,2.45764501953125,3.3457119464874268,0.9354729056358337,-2.0264792442321777
1773522021925682700,2.4676826171875,3.3807547092437744,0.8267629146575928,-1.9127147197723389
1773522021935720700,2.477720703125,3.437969923019409,0.8265690207481384,-1.880849003791809
1773522021945759700,2.487759765625,3.4868252277374268,0.6251174211502075,-1.858538031578064
1773522021955797800,2.4977978515625,3.4731109142303467,-0.023869646713137627,-1.6872904300689697
1773522021965835800,2.507835693359375,3.1713881492614746,-0.14891837537288666,-0.9989216327667236
1773522021975874800,2.517874755859375,2.3476033210754395,-0.2163858264684677,-0.15628014504909515
1773522021985912800,2.527912841796875,1.767445683479309,-0.5467379093170166,0.26727059483528137
1773522021995950600,2.53795068359375,1.4675469398498535,-1.0366899967193604,0.38017502427101135
1773522022005990000,2.547989990234375,1.3999707698822021,-1.329443335533142,0.4842100739479065
1773522022016027600,2.558027587890625,1.3618718385696411,-1.7036577463150024,0.33767762780189514
1773522022026066000,2.56806591796875,1.6454468965530396,-1.916643500328064,-0.1488315612077713
1773522022036104700,2.578104736328125,2.0430102348327637,-1.8357107639312744,-0.667759120464325
1773522022046142700,2.588142822265625,2.389132499694824,-1.7138471603393555,-0.9458685517311096
1773522022056180700,2.5981806640625,2.5724377632141113,-1.7398780584335327,-1.0866367816925049
1773522022066219800,2.6082197265625,2.6584808826446533,-1.7147548198699951,-1.1337395906448364
1773522022076257800,2.6182578125,2.7564468383789062,-1.6258957386016846,-1.1676923036575317
1773522022086295800,2.6282958984375,2.9111130237579346,-1.6320005655288696,-1.2316280603408813
1773522022096334600,2.63833447265625,2.99235463142395,-1.7320016622543335,-1.284913420677185
1773522022106372900,2.648372802734375,2.9689431190490723,-1.9238440990447998,-1.3774724006652832
1773522022116410600,2.65841064453125,2.9281208515167236,-1.9135915040969849,-1.4818035364151
1773522022126450000,2.668449951171875,2.9601497650146484,-1.7571738958358765,-1.5650476217269897
1773522022136487700,2.67848779296875,3.0982933044433594,-1.6809576749801636,-1.496809720993042
1773522022146526000,2.68852587890625,3.1749863624572754,-1.8734190464019775,-1.3618974685668945
1773522022156564700,2.698564697265625,3.1223530769348145,-2.1903865337371826,-1.052694320678711
1773522022166606000,2.708606201171875,2.9901061058044434,-2.459398031234741,-0.6475231051445007
1773522022176644400,2.718644287109375,2.7514898777008057,-2.491969585418701,-0.33601102232933044
1773522022186683100,2.72868310546875,2.4195449352264404,-2.4814391136169434,-0.267037034034729
1773522022196721400,2.738721435546875,2.0916545391082764,-2.001518487930298,-0.045468416064977646
1773522022206759200,2.74875927734375,1.623674750328064,-1.4201860427856445,0.18431471288204193
1773522022216798200,2.758798095703125,1.1479923725128174,-0.9381975531578064,0.32106804847717285
1773522022226836200,2.768836181640625,0.771756649017334,-0.6737717390060425,0.2944667935371399
1773522022236874200,2.778874267578125,0.5291232466697693,-0.6943257451057434,0.16388054192066193
1773522022246913300,2.788913330078125,0.603416919708252,-1.174853801727295,0.07696482539176941
1773522022256951300,2.798951416015625,0.6585954427719116,-1.4347742795944214,0.34135493636131287
1773522022266989300,2.8089892578125,0.7006387710571289,-2.0968151092529297,0.4976334869861603
1773522022277028400,2.8190283203125,0.7782704830169678,-2.443941354751587,0.7272635102272034
1773522022287066000,2.829066162109375,0.762787938117981,-2.3118598461151123,1.0090922117233276
1773522022297104400,2.8391044921875,0.6525953412055969,-1.9342783689498901,1.1731864213943481
1773522022307143200,2.84914306640625,0.3594617545604706,-1.280647873878479,1.317341923713684
1773522022317181400,2.859181396484375,-0.10882075875997543,-0.6703488230705261,1.2693169116973877
1773522022327220200,2.86922021484375,-0.5490900278091431,-0.49060142040252686,1.1282747983932495
1773522022337258200,2.87925830078125,-1.0237020254135132,-0.44976314902305603,1.1153340339660645
1773522022347296300,2.889296142578125,-1.3802686929702759,-0.36577504873275757,1.0727611780166626
1773522022357335300,2.899335205078125,-1.5513755083084106,-0.1735885739326477,0.9364569187164307
1773522022367373300,2.909373291015625,-1.3180309534072876,-0.008251272141933441,0.8009800314903259
1773522022377411300,2.919411376953125,-0.659308671951294,0.02346857450902462,0.7665272355079651
1773522022387450000,2.9294501953125,-0.17074032127857208,-0.39960625767707825,0.8347084522247314
1773522022397488400,2.93948828125,-0.057191383093595505,-0.8913320302963257,0.8479981422424316
1773522022407526100,2.949526123046875,-0.31584957242012024,-1.008995771408081,0.800599217414856
1773522022417565400,2.9595654296875,-0.7180708050727844,-0.8283442854881287,0.7726232409477234
1773522022427603200,2.969603271484375,-0.9559643268585205,-0.2936558425426483,0.9641375541687012
1773522022437641200,2.97964111328125,-0.7215613722801208,0.42775586247444153,1.528551697731018
1773522022447680300,2.98968017578125,-0.16814292967319489,0.8287386894226074,2.225071907043457
1773522022457718000,2.999718017578125,0.42715001106262207,0.9201788902282715,2.651841402053833
1773522022467756300,3.00975634765625,1.0182844400405884,1.0584800243377686,2.727163791656494
1773522022477795300,3.01979541015625,1.4617664813995361,1.1576846837997437,2.4733176231384277
1773522022487833300,3.029833251953125,1.8575152158737183,1.2128738164901733,2.0320241451263428
1773522022497871000,3.03987109375,1.9521050453186035,1.0588449239730835,1.4234305620193481
1773522022507910100,3.04991015625,1.8035105466842651,0.7978255152702332,0.8702542185783386
1773522022517948200,3.0599482421875,1.465598225593567,0.4131409823894501,0.31026598811149597
1773522022527986200,3.069986083984375,1.0668138265609741,-0.24418604373931885,-0.12631240487098694
1773522022538025200,3.080025146484375,0.9061280488967896,-1.011085033416748,-0.47137418389320374
1773522022548063200,3.090063232421875,0.957200825214386,-1.6753884553909302,-0.7086876630783081
1773522022558101200,3.100101318359375,1.0791754722595215,-1.8473200798034668,-0.8419631719589233
1773522022568140300,3.110140380859375,1.1338552236557007,-1.654616355895996,-0.9865584373474121
1773522022578178000,3.120177978515625,1.1255626678466797,-1.2318634986877441,-1.0477783679962158
1773522022588216300,3.13021630859375,1.092826008796692,-0.7083912491798401,-1.0613250732421875
1773522022598255000,3.140255126953125,1.2013314962387085,-0.2909780442714691,-1.04037344455719
1773522022608293400,3.15029345703125,1.4682729244232178,0.11091133952140808,-0.8251727223396301
1773522022618332200,3.160332275390625,1.6653246879577637,-0.053708501160144806,-0.31332674622535706
1773522022628370200,3.1703701171875,1.550620198249817,-0.38931792974472046,0.33822810649871826
1773522022638408200,3.180408203125,1.0956050157546997,-0.4734972417354584,0.6976690888404846
1773522022648447200,3.190447265625,0.5575628876686096,-0.3852728605270386,0.634136974811554
1773522022658485200,3.2004853515625,0.16929714381694794,-0.28005480766296387,0.47607067227363586
1773522022668523300,3.210523193359375,-0.05252073332667351,-0.15570516884326935,0.4950603246688843
1773522022678562000,3.22056201171875,-0.19977863132953644,-0.12351474910974503,0.5902358293533325
1773522022688600300,3.230600341796875,-0.4965663552284241,-0.10464172065258026,0.6230579614639282
1773522022698638000,3.24063818359375,-1.0374032258987427,-0.04929724335670471,0.4980904757976532
1773522022708677400,3.250677490234375,-1.450419306755066,-0.2025589644908905,0.2956007719039917
1773522022718715100,3.260715087890625,-1.6761815547943115,-0.5917589068412781,0.24938718974590302
1773522022728753400,3.27075341796875,-2.0351576805114746,-1.2163735628128052,0.20872178673744202
1773522022738792200,3.280792236328125,-2.480780839920044,-1.7021713256835938,0.07659491151571274
1773522022748830200,3.290830322265625,-2.9981775283813477,-2.579000473022461,0.005635781679302454
1773522022758868200,3.3008681640625,-3.420341730117798,-3.082016706466675,-0.13130316138267517
1773522022768907300,3.3109072265625,-3.758626699447632,-3.190427541732788,-0.43847721815109253
1773522022778945300,3.3209453125,-4.150646686553955,-3.240074634552002,-0.6768338680267334
1773522022788983300,3.3309833984375,-4.238348007202148,-3.084195613861084,-0.8602846264839172
1773522022799022000,3.34102197265625,-3.4467532634735107,-2.3260884284973145,-1.312998652458191
1773522022809060400,3.351060302734375,-2.50691556930542,-1.2472206354141235,-1.7235472202301025
1773522022819098000,3.36109814453125,-1.9963222742080688,-0.5304867625236511,-1.709693193435669
1773522022829137400,3.371137451171875,-1.7141364812850952,0.37864452600479126,-1.6134793758392334
1773522022839175200,3.381175048828125,-1.3377854824066162,1.301890254020691,-1.3510717153549194
1773522022849214200,3.391214111328125,-1.1032037734985352,2.307110071182251,-1.155566930770874
1773522022859252200,3.401252197265625,-1.0075268745422363,2.7863359451293945,-1.0205318927764893
1773522022869290200,3.411290283203125,-1.140191912651062,2.7504429817199707,-0.9302136898040771
1773522022879329300,3.421329345703125,-1.2908605337142944,2.335545301437378,-0.9007668495178223
1773522022889367300,3.4313671875,-1.3760305643081665,1.852081298828125,-0.9405432939529419
1773522022899405300,3.4414052734375,-1.447879433631897,1.4941734075546265,-1.0332183837890625
1773522022909444400,3.4514443359375,-1.6472522020339966,1.3014087677001953,-0.9380409717559814
1773522022919482000,3.461482177734375,-1.8580254316329956,1.0068333148956299,-0.7071132063865662
1773522022929520000,3.47152001953125,-2.1796200275421143,0.38523903489112854,-0.5742605924606323
1773522022939559200,3.48155908203125,-2.499770164489746,-0.056837182492017746,-0.376912385225296
1773522022949597400,3.491597412109375,-2.719435691833496,-0.16810458898544312,-0.06244713068008423
1773522022959635200,3.50163525390625,-3.059669256210327,-0.34146252274513245,0.08269248157739639
1773522022969674200,3.51167431640625,-3.512291431427002,-0.690304160118103,-0.036370258778333664
1773522022979712300,3.521712158203125,-3.925065517425537,-0.859390914440155,-0.3669625520706177
1773522022989750300,3.531750244140625,-3.456552505493164,-0.4858732223510742,-0.8708179593086243
1773522022999789300,3.541789306640625,-2.3978471755981445,-0.46398523449897766,-1.396561622619629
1773522023009827000,3.5518271484375,-1.537175178527832,-0.9961258172988892,-0.9860976934432983
1773522023019865300,3.561865234375,-0.977010190486908,-1.541192889213562,0.0125818382948637
1773522023029904400,3.571904296875,-0.6691543459892273,-1.8712232112884521,0.8298905491828918
1773522023039942100,3.581942138671875,-0.44942787289619446,-1.7080249786376953,1.3517183065414429
1773522023049981400,3.5919814453125,-0.3586050271987915,-1.2506649494171143,1.5936206579208374
1773522023060019200,3.602019287109375,-0.3884824812412262,-0.7403175234794617,1.5664273500442505
1773522023070057200,3.61205712890625,-0.4093635380268097,-0.22387650609016418,1.3294931650161743
1773522023080096300,3.62209619140625,-0.5034103989601135,0.07692088186740875,0.9532625079154968
1773522023090134000,3.632134033203125,-0.6533953547477722,-0.015476694330573082,0.5181179642677307
1773522023100172300,3.64217236328125,-0.8068373799324036,-0.28419363498687744,0.03786136209964752
1773522023110211000,3.652211181640625,-0.9756376147270203,-0.4904125928878784,-0.4391579329967499
1773522023120249300,3.662249267578125,-1.245967149734497,-0.32225582003593445,-0.7420797348022461
1773522023130287000,3.672287109375,-1.6239501237869263,-0.014780277386307716,-0.7230942845344543
1773522023140326100,3.682326171875,-1.8947142362594604,0.13564197719097137,-0.5267623662948608
1773522023150364200,3.6923642578125,-1.9913501739501953,0.11965955793857574,-0.3694629967212677
1773522023160402200,3.702402099609375,-1.9886020421981812,0.032048746943473816,-0.30497536063194275
1773522023170438000,3.71243798828125,-1.8973256349563599,0.1027708500623703,-0.33173292875289917
1773522023180475600,3.7224755859375,-1.6414339542388916,0.2839643359184265,-0.4331980347633362
1773522023190514000,3.732513916015625,-1.2973487377166748,0.40762636065483093,-0.574577808380127
1773522023200552700,3.742552734375,-0.9503389000892639,0.49700844287872314,-0.7316941618919373
1773522023210590700,3.7525908203125,-0.6265408396720886,0.7011647820472717,-0.8797187805175781
1773522023220629800,3.762629638671875,-0.15383216738700867,0.8245929479598999,-0.8795523643493652
1773522023230667800,3.772667724609375,0.3443635106086731,0.7082951068878174,-0.6591355800628662
1773522023240705800,3.782705810546875,0.6962767839431763,0.2006169855594635,-0.32997870445251465
1773522023250744800,3.792744873046875,0.8679159283638,-0.09687461704015732,-0.02845960482954979
1773522023260782600,3.802782470703125,0.8197603821754456,-0.02732216753065586,0.15896275639533997
1773522023270820900,3.81282080078125,0.6216590404510498,-0.08412020653486252,0.24596449732780457
1773522023280859600,3.822859619140625,0.4337410628795624,-0.09059061855077744,0.25360190868377686
1773522023290898000,3.83289794921875,0.30184614658355713,-0.07039427012205124,0.22415640950202942
1773522023300935700,3.842935791015625,0.20885413885116577,-0.10853686183691025,0.21198442578315735
1773522023310974700,3.852974609375,0.09669618308544159,-0.16893789172172546,0.20110328495502472
1773522023321012700,3.8630126953125,0.024574585258960724,-0.3236750066280365,0.09012643247842789
1773522023331050800,3.87305078125,0.2258341908454895,-0.448415070772171,-0.33717429637908936
1773522023341089800,3.88308984375,0.3784290552139282,-0.6789348125457764,-0.9746218919754028
1773522023351127800,3.8931279296875,0.3450514078140259,-0.5477342009544373,-1.5464643239974976
1773522023361166600,3.90316650390625,0.19920125603675842,-0.06559738516807556,-1.9260843992233276
1773522023371204900,3.913204833984375,-0.056232910603284836,0.32732513546943665,-2.042755365371704
1773522023381243000,3.923242919921875,-0.2925836741924286,0.4517490863800049,-1.8128858804702759
1773522023391282000,3.933281982421875,-0.4923122227191925,0.17755214869976044,-1.3790391683578491
1773522023401319700,3.943319580078125,-0.5053648948669434,-0.3532523512840271,-0.8531897068023682
1773522023411357700,3.953357666015625,-0.29228806495666504,-1.2361496686935425,-0.33356064558029175
1773522023421396700,3.963396728515625,0.06610844284296036,-2.300931215286255,0.09367536008358002
1773522023431434800,3.973434814453125,0.5034724473953247,-3.340449333190918,0.47717615962028503
1773522023441472800,3.98347265625,0.8525979518890381,-3.861797332763672,0.8491483926773071
1773522023451511800,3.99351171875,1.0201976299285889,-3.1774585247039795,0.9575598239898682
1773522023461549800,4.0035498046875,0.9735845923423767,-3.2124712467193604,0.9249305129051208
1773522023471587600,4.013587646484375,0.7242516875267029,-3.5991780757904053,0.8621858954429626
1773522023481626600,4.023626708984375,0.2559817135334015,-3.6470744609832764,0.6305238604545593
1773522023491664600,4.03366455078125,-0.1026611328125,-3.5437355041503906,0.24653814733028412
1773522023501703000,4.043702880859375,-0.1002749353647232,-3.582869052886963,-0.1640576422214508
1773522023511741700,4.05374169921875,0.2340114265680313,-3.662426710128784,-0.42294541001319885
1773522023521779700,4.06377978515625,0.7916811108589172,-3.691692590713501,-0.5356748700141907
1773522023531818800,4.07381884765625,1.3524333238601685,-3.9750967025756836,-0.5553673505783081
1773522023541856800,4.083856689453125,1.6927392482757568,-4.180325984954834,-0.6737925410270691
1773522023551894800,4.093894775390625,1.8243255615234375,-3.8531951904296875,-0.8646162748336792
1773522023561933800,4.103933837890625,1.7163982391357422,-3.1046981811523438,-1.1150932312011719
1773522023571971600,4.1139716796875,1.475956678390503,-2.6093738079071045,-1.4617241621017456
1773522023582009900,4.124009765625,1.309781551361084,-2.675916910171509,-1.685242772102356
1773522023592048600,4.134048583984375,1.515573263168335,-2.97700572013855,-1.6665300130844116
1773522023602086700,4.144086669921875,1.927775502204895,-2.0020759105682373,-1.2946771383285522
1773522023612124700,4.154124755859375,1.8777767419815063,-0.28691139817237854,-1.089674949645996
1773522023622163700,4.164163818359375,1.3959312438964844,1.4863178730010986,-0.6853823661804199
1773522023632201700,4.17420166015625,0.3229791224002838,2.0986979007720947,-0.027173297479748726
1773522023642239700,4.18423974609375,-0.07219323515892029,1.9914298057556152,0.46649980545043945
1773522023652278800,4.19427880859375,-0.35129278898239136,1.9993679523468018,0.5040088295936584
1773522023662316800,4.20431689453125,-0.7469769716262817,2.176671266555786,0.5651859045028687
1773522023672355600,4.21435546875,-1.1907498836517334,2.640505075454712,0.7375233173370361
1773522023682393900,4.224393798828125,-1.5709569454193115,3.318540334701538,0.7679579257965088
1773522023692431600,4.234431640625,-1.47371506690979,3.6847739219665527,0.8785067796707153
1773522023702470700,4.244470703125,-1.1912604570388794,4.217549800872803,0.8022525310516357
1773522023712508700,4.2545087890625,-0.9837466478347778,5.207914352416992,0.25324636697769165
1773522023722546700,4.264546630859375,-0.5833619832992554,5.877707481384277,-0.36603817343711853
1773522023732585700,4.274585693359375,-0.14168788492679596,6.12822961807251,-0.7283540368080139
1773522023742623700,4.284623779296875,-0.13695812225341797,6.30969762802124,-0.7596104741096497
1773522023752661800,4.294661865234375,-0.14494121074676514,6.259707450866699,-0.6999101638793945
1773522023762700800,4.30470068359375,-0.03554467856884003,6.068532943725586,-0.5652631521224976
1773522023772738800,4.31473876953125,0.1228468269109726,5.819211006164551,-0.36862996220588684
1773522023782776800,4.32477685546875,0.22197474539279938,5.411257743835449,-0.270068496465683
1773522023792815600,4.334815673828125,0.30995094776153564,4.773821830749512,-0.2523885667324066
1773522023802854000,4.34485400390625,0.2037123739719391,4.0938029289245605,-0.4162406325340271
1773522023812892700,4.354892578125,0.1350369155406952,3.1958651542663574,-0.5603876709938049
1773522023822930700,4.3649306640625,0.28491029143333435,2.316887855529785,-0.7052934765815735
1773522023832968700,4.37496875,0.4067333936691284,1.9256411790847778,-1.0522695779800415
1773522023843007700,4.3850078125,0.4255960285663605,1.5793277025222778,-1.3495779037475586
1773522023853045800,4.395045654296875,0.33704033493995667,1.339379072189331,-1.42538583278656
1773522023863083800,4.405083740234375,0.23475152254104614,0.9516654014587402,-1.3132047653198242
1773522023873122800,4.415122802734375,0.22463764250278473,0.49763748049736023,-1.0199337005615234
1773522023883160800,4.425160888671875,0.2579527199268341,0.1660584807395935,-0.6987774968147278
1773522023893198800,4.43519873046875,0.340786874294281,0.07932119071483612,-0.3989252746105194
1773522023903238000,4.44523779296875,0.38295191526412964,0.5422078967094421,-0.18060334026813507
1773522023913275600,4.455275634765625,0.5202277302742004,0.6768852472305298,-0.179136723279953
1773522023923314000,4.46531396484375,0.5696797370910645,0.5725167989730835,-0.19443073868751526
1773522023933352700,4.475352783203125,0.4893835484981537,0.299057275056839,-0.2566286027431488
1773522023943390700,4.485390625,0.3211761713027954,0.2066621035337448,-0.3034192621707916
1773522023953429800,4.4954296875,0.1801615208387375,0.1971444934606552,-0.29956328868865967
1773522023963467800,4.5054677734375,0.003771568648517132,0.38032737374305725,-0.3306695222854614
1773522023973505800,4.515505859375,-0.06973487138748169,0.8383082151412964,-0.33287888765335083
1773522023983544800,4.525544921875,-0.19132281839847565,1.1243785619735718,-0.2610289454460144
1773522023993582800,4.535582763671875,-0.3330996632575989,0.7191333770751953,-0.15014022588729858
1773522024003620900,4.545620849609375,-0.3215700387954712,-0.10509845614433289,0.09964296966791153
1773522024013659600,4.55565966796875,-0.337312787771225,-0.7254155278205872,0.31055307388305664
1773522024023698000,4.565697998046875,-0.3384220004081726,-0.7081558108329773,0.31420719623565674
1773522024033735700,4.575735595703125,-0.22794128954410553,-0.684340238571167,0.41742414236068726
1773522024043774700,4.585774658203125,-0.6772115230560303,-0.5508714318275452,0.33270499110221863
1773522024053812700,4.595812744140625,-0.9383293986320496,-0.8003355860710144,0.5183765888214111
1773522024063850800,4.605850830078125,-1.3761399984359741,-1.1339271068572998,0.7246639728546143
1773522024073889800,4.615889892578125,-1.8111228942871094,-1.4500161409378052,0.6649684309959412
1773522024083927600,4.625927490234375,-2.4789037704467773,-2.2109715938568115,0.6777704954147339
1773522024093966800,4.635966796875,-2.937822103500366,-2.6898810863494873,0.6212906837463379
1773522024104004900,4.6460048828125,-2.8947763442993164,-2.4701826572418213,0.3953095078468323
1773522024114043000,4.65604296875,-2.423159122467041,-2.021087884902954,0.036673057824373245
1773522024124082000,4.66608203125,-1.8872525691986084,-1.91477370262146,-0.2177714705467224
1773522024134119700,4.67611962890625,-1.810181975364685,-2.5074641704559326,-0.18403641879558563
1773522024144157700,4.68615771484375,-1.8979097604751587,-3.3314733505249023,-0.1449020653963089
1773522024154196700,4.69619677734375,-1.7315399646759033,-4.222358226776123,-0.2647549510002136
1773522024164234800,4.70623486328125,-0.7564783692359924,-3.54794979095459,1.1976650953292847
1773522024174272800,4.716272705078125,0.012944294139742851,-4.4770636558532715,0.43189653754234314
1773522024184311800,4.726311767578125,0.6475923657417297,-5.06205940246582,-0.4656822085380554
1773522024194349800,4.736349853515625,1.0816506147384644,-3.673964500427246,0.003326021833345294
1773522024204388900,4.746388916015625,0.9776933193206787,-2.9238176345825195,-0.3633486330509186
1773522024214427000,4.756427001953125,0.4926967918872833,-1.2687715291976929,-0.12177649885416031
1773522024224464600,4.766464599609375,-0.18873102962970734,0.0814618393778801,-0.31820619106292725
1773522024234503700,4.776503662109375,-0.41645899415016174,1.4616000652313232,-0.4943996071815491
1773522024244541700,4.786541748046875,-0.46246564388275146,2.2161526679992676,-0.5998112559318542
1773522024254579700,4.796579833984375,-0.6008307337760925,2.206422805786133,-0.8099122643470764
1773522024264618800,4.80661865234375,-0.816663920879364,1.941618800163269,-1.096177101135254
1773522024274656800,4.81665673828125,-1.0539315938949585,1.860236406326294,-1.3216238021850586
1773522024284694800,4.82669482421875,-1.2361613512039185,1.9199273586273193,-1.4148285388946533
1773522024294733800,4.83673388671875,-1.4004032611846924,2.049635648727417,-1.3224903345108032
1773522024304771600,4.846771484375,-1.4892261028289795,2.084932565689087,-1.1011446714401245
1773522024314809900,4.856809814453125,-1.4316163063049316,1.941688060760498,-0.8860648274421692
1773522024324848600,4.8668486328125,-1.250601053237915,1.697733759880066,-0.63165283203125
1773522024334887000,4.876886962890625,-0.9390084743499756,1.1712446212768555,-0.412850946187973
1773522024344925700,4.88692578125,-0.5467464327812195,0.481588751077652,-0.2667379379272461
1773522024354963700,4.896963623046875,-0.2631432116031647,-0.1733771115541458,-0.22457265853881836
1773522024365001700,4.907001708984375,-0.14079733192920685,-0.5274182558059692,-0.2507059872150421
1773522024375040800,4.917040771484375,-0.12387267500162125,-0.31146013736724854,-0.2521744668483734
1773522024385078800,4.927078857421875,-0.15064756572246552,0.06326072663068771,-0.22086739540100098
1773522024395116800,4.93711669921875,-0.17424903810024261,0.1650126576423645,-0.13016732037067413
1773522024405155600,4.947155517578125,-0.16403234004974365,-0.06591536849737167,-0.009977532550692558
1773522024415193900,4.95719384765625,-0.11182400584220886,-0.3730641305446625,0.057503506541252136
1773522024425231600,4.967231689453125,0.07526199519634247,-0.5083612203598022,0.05604276433587074
1773522024435271000,4.97727099609375,0.29299911856651306,-0.5199102759361267,-0.005869074258953333
1773522024445308700,4.98730859375,0.5187427401542664,-0.4088607430458069,-0.05487283691763878
1773522024455347000,4.997346923828125,0.63353031873703,-0.4790978729724884,-0.03067668527364731
1773522024465385700,5.0073857421875,0.5387076735496521,-0.21812914311885834,0.08518333733081818
1773522024475423700,5.017423828125,0.386813223361969,0.21514160931110382,0.224154531955719
1773522024485462800,5.027462890625,0.34091684222221375,0.8305115699768066,0.4003910720348358
1773522024495500800,5.037500732421875,0.46481695771217346,1.2195507287979126,0.5754284262657166
1773522024505538800,5.047538818359375,0.541473388671875,1.2898932695388794,0.5710129141807556
1773522024515577900,5.057577880859375,0.518316388130188,1.1971592903137207,0.332719624042511
1773522024525615600,5.06761572265625,0.5628702640533447,0.9326672554016113,0.002968359272927046
1773522024535654000,5.07765380859375,0.588017463684082,0.9193141460418701,-0.24380254745483398
1773522024545692700,5.087692626953125,0.5440947413444519,1.1293838024139404,-0.2223057746887207
1773522024555731000,5.09773095703125,0.45662185549736023,1.185862421989441,-0.12186811119318008
1773522024565768700,5.107768798828125,0.4291905164718628,1.3176084756851196,-0.05660682171583176
1773522024575807700,5.117807861328125,0.440829336643219,1.3570976257324219,-0.0404512844979763
1773522024585845800,5.127845703125,0.514588475227356,1.2895913124084473,-0.03711647540330887
1773522024595884800,5.137884765625,0.6086971759796143,1.227387547492981,0.018062356859445572
1773522024605922800,5.1479228515625,0.6568036675453186,1.2453460693359375,0.15477359294891357
1773522024615960800,5.1579609375,0.6434210538864136,1.2249605655670166,0.3378763198852539
1773522024625999600,5.16799951171875,0.7752355337142944,1.1604596376419067,0.5238762497901917
1773522024636038000,5.178037841796875,0.9375194907188416,1.1579738855361938,0.6668919920921326
1773522024646075600,5.18807568359375,1.0168646574020386,1.1921688318252563,0.6943628191947937
1773522024656115000,5.198114990234375,0.9836755394935608,1.0635781288146973,0.7106264233589172
1773522024666152700,5.208152587890625,0.8510674238204956,1.0571407079696655,0.6575509905815125
1773522024676191000,5.21819091796875,0.620827317237854,0.9281012415885925,0.8291347026824951
1773522024686229800,5.228229736328125,0.5495275855064392,0.9165255427360535,1.0494675636291504
1773522024696267800,5.238267822265625,0.6899749636650085,1.138782024383545,1.1352603435516357
1773522024706306800,5.248306884765625,0.8241609930992126,1.1962589025497437,1.0469259023666382
1773522024716344800,5.2583447265625,0.8641875386238098,0.8958061337471008,0.805088222026825
1773522024726382800,5.2683828125,0.9425454139709473,-0.030192790552973747,0.5596787333488464
1773522024736422000,5.278421875,1.0010331869125366,-0.7645208239555359,0.5238938331604004
1773522024746459600,5.288459716796875,1.0573832988739014,-0.9961013197898865,0.4778840243816376
1773522024756498000,5.298497802734375,1.2028199434280396,-0.7921532392501831,0.4666798412799835
1773522024766536700,5.30853662109375,1.2942299842834473,-0.6371559500694275,0.5372064709663391
1773522024776575000,5.318574951171875,1.5220935344696045,-0.4880271852016449,0.7098253965377808
1773522024786612700,5.32861279296875,1.7165817022323608,-0.27552610635757446,0.8640894889831543
1773522024796651800,5.33865185546875,1.8506675958633423,0.044428981840610504,0.88001549243927
1773522024806689800,5.348689697265625,1.931146502494812,0.18999098241329193,0.5886582136154175
1773522024816727600,5.3587275390625,1.9386556148529053,0.36733540892601013,0.2118704468011856
1773522024826766800,5.368766845703125,1.9443161487579346,0.5038668513298035,-0.12491237372159958
1773522024836804900,5.378804931640625,1.8302971124649048,0.6626602411270142,-0.3647356331348419
1773522024846843600,5.38884375,1.7066811323165894,0.5594212412834167,-0.3471795320510864
1773522024856882000,5.3988818359375,1.684591293334961,0.39422932267189026,-0.04439409449696541
1773522024866919700,5.408919677734375,1.7018404006958008,0.43958109617233276,0.29467958211898804
1773522024876958700,5.418958740234375,1.637505054473877,0.6212411522865295,0.4240055978298187
1773522024886996700,5.428996826171875,1.473039150238037,1.0820289850234985,0.5099372863769531
1773522024897034800,5.43903466796875,1.4512637853622437,1.4756263494491577,0.6320813298225403
1773522024907073800,5.44907373046875,1.4283702373504639,1.552558183670044,0.5290438532829285
1773522024917111600,5.459111572265625,1.0068168640136719,1.7463127374649048,0.06011020764708519
1773522024927149800,5.46914990234375,0.779083251953125,1.038138747215271,-0.42266976833343506
1773522024937188900,5.47918896484375,0.4397187829017639,1.2246661186218262,-1.0074610710144043
1773522024947227000,5.489226806640625,0.3651260435581207,0.28765469789505005,-1.2372205257415771
1773522024957266000,5.499265869140625,0.48401939868927,0.048238903284072876,-1.3506886959075928
1773522024967303700,5.5093037109375,0.721312403678894,0.06387778371572495,-1.0689036846160889
1773522024977341700,5.519341796875,0.9138506650924683,0.22002770006656647,-0.5745389461517334
1773522024987380700,5.529380615234375,1.037171483039856,0.3851703107357025,-0.281235933303833
1773522024997418800,5.539418701171875,1.149244785308838,0.1776014119386673,0.08178248256444931
1773522025007456800,5.549456787109375,1.2103060483932495,-0.22046072781085968,0.3462088108062744
1773522025017495600,5.55949560546875,0.9913188219070435,-0.7114397883415222,0.7844359278678894
1773522025027533800,5.569533935546875,1.0376935005187988,-0.9278178811073303,1.0493022203445435
1773522025037571600,5.579571533203125,1.4304256439208984,-1.4201271533966064,0.9927798509597778
1773522025047611000,5.58961083984375,1.8431322574615479,-1.374345302581787,1.0892329216003418
1773522025057648600,5.599648681640625,2.2609965801239014,-0.6796693205833435,1.2230775356292725
1773522025067687000,5.60968701171875,2.640423059463501,0.20651482045650482,0.9850990176200867
1773522025077725700,5.6197255859375,2.9223742485046387,0.9686129689216614,0.7323304414749146
1773522025087763700,5.629763671875,2.8157644271850586,1.2832624912261963,0.25729864835739136
1773522025097802800,5.639802734375,2.721919298171997,1.6077826023101807,-0.0695793405175209
1773522025107840800,5.6498408203125,2.486522912979126,1.4894359111785889,-0.43591073155403137
1773522025117878800,5.659878662109375,2.0648462772369385,1.3044143915176392,-0.608199417591095
1773522025127917800,5.669917724609375,1.702078938484192,1.2339013814926147,-0.3045268654823303
1773522025137955600,5.67995556640625,1.7757997512817383,1.1183358430862427,0.22608186304569244
1773522025147993900,5.689993896484375,2.3712852001190186,1.1471537351608276,0.7390522360801697
1773522025158032600,5.70003271484375,2.796128273010254,1.4313862323760986,1.0540964603424072
1773522025168071000,5.71007080078125,2.9498085975646973,1.7215354442596436,1.2428200244903564
1773522025178108700,5.720108642578125,2.9392292499542236,1.5771088600158691,1.207287073135376
1773522025188147700,5.730147705078125,2.741938352584839,1.4556294679641724,1.0094906091690063
1773522025198185700,5.740185791015625,2.0097715854644775,1.0401973724365234,1.0980734825134277
1773522025208224800,5.750224853515625,1.015324354171753,0.9703986644744873,1.1328120231628418
1773522025218262800,5.7602626953125,0.25147244334220886,1.0986732244491577,0.9388478994369507
1773522025228300800,5.77030078125,-0.2996618151664734,1.108359694480896,1.0963096618652344
1773522025238339800,5.78033984375,-0.5280723571777344,0.988143801689148,0.9184893369674683
1773522025248377900,5.7903779296875,-0.3901464343070984,0.5224884748458862,0.26290619373321533
1773522025258415600,5.80041552734375,-0.2584752142429352,-0.17450016736984253,-0.33418968319892883
1773522025268455000,5.810454833984375,-0.18872863054275513,-0.7038516402244568,-0.585403561592102
1773522025278492700,5.82049267578125,-0.17863498628139496,-0.9006869196891785,-0.5636199712753296
1773522025288531000,5.830531005859375,-0.1442466527223587,-0.9890101552009583,-0.4069560468196869
1773522025298569700,5.84056982421875,-0.10956218093633652,-1.0007517337799072,-0.1753758192062378
1773522025308607700,5.850607666015625,-0.06528739631175995,-0.95032799243927,0.10606677830219269
1773522025318646800,5.860646728515625,-0.07530754059553146,-0.7311977744102478,0.410532146692276
1773522025328684800,5.870684814453125,-0.11756231635808945,-0.4289422929286957,0.6676893830299377
1773522025338722800,5.880722900390625,-0.15194079279899597,-0.08722198754549026,0.7714890241622925
1773522025348761900,5.890761962890625,-0.1865975707769394,0.17536570131778717,0.678062379360199
1773522025358799600,5.900799560546875,-0.21566171944141388,0.3326660990715027,0.421334445476532
1773522025368838000,5.910837890625,-0.2902105152606964,0.35379427671432495,0.0707029327750206
1773522025378876700,5.920876708984375,-0.3307318389415741,0.2916313111782074,-0.25307461619377136
1773522025388915000,5.9309150390625,-0.36142370104789734,0.29609769582748413,-0.44322776794433594
1773522025398952700,5.94095263671875,-0.3905094265937805,0.2977027893066406,-0.4922690689563751
1773522025408991700,5.95099169921875,-0.4761183261871338,0.27056971192359924,-0.4335647523403168
1773522025419029800,5.96102978515625,-0.5667427778244019,0.26739707589149475,-0.30236944556236267
1773522025429068800,5.97106884765625,-0.6744924187660217,0.3427506983280182,-0.1344030797481537
1773522025439106800,5.98110693359375,-0.6899427175521851,0.10817413777112961,0.09028302133083344
1773522025449144800,5.991144775390625,-0.6570412516593933,0.04296237975358963,0.30321288108825684
1773522025459183600,6.00118359375,-0.6236832737922668,-0.058703262358903885,0.4442967474460602
1773522025469222000,6.011221923828125,-0.6353364586830139,-0.15783463418483734,0.46754348278045654
1773522025479259600,6.021259765625,-0.6356582045555115,-0.2106565684080124,0.41099977493286133
1773522025489299000,6.031298828125,-0.6178478002548218,-0.31304311752319336,0.3177121877670288
1773522025499336700,6.041336669921875,-0.6583272814750671,-0.3053399324417114,0.18591713905334473
1773522025509375000,6.051375,-0.7433511018753052,-0.26763781905174255,0.07119641453027725
1773522025519413800,6.061413818359375,-0.828163206577301,-0.3421134054660797,-0.07401350885629654
1773522025529451800,6.07145166015625,-0.8715642094612122,-0.4621924161911011,-0.19401687383651733
1773522025539490800,6.08149072265625,-0.8347790241241455,-0.4316379427909851,-0.19542542099952698
1773522025549528800,6.09152880859375,-0.7846024036407471,-0.3263048827648163,-0.08255905658006668
1773522025559566800,6.10156689453125,-0.7341302037239075,-0.2025376558303833,0.09897851198911667
1773522025569606000,6.11160595703125,-0.6641015410423279,-0.10960612446069717,0.2918259799480438
1773522025579643600,6.1216435546875,-0.5998703837394714,-0.05615141987800598,0.46256789565086365
1773522025589682000,6.131681884765625,-0.5403074622154236,-0.01954973302781582,0.5997308492660522
1773522025599720700,6.141720703125,-0.49166586995124817,0.026438266038894653,0.6630762219429016
1773522025609759000,6.151759033203125,-0.4720942974090576,-0.015035674907267094,0.6915614008903503
1773522025619797800,6.1617978515625,-0.3984874486923218,-0.041781000792980194,0.6769033670425415
1773522025629835800,6.171835693359375,-0.3031979501247406,-0.07323560118675232,0.6166237592697144
1773522025639873800,6.181873779296875,-0.24209173023700714,-0.0838344469666481,0.565308153629303
1773522025649912800,6.191912841796875,-0.2127346396446228,-0.09597446769475937,0.5157997012138367
1773522025659950800,6.201950927734375,-0.19951443374156952,-0.09232939779758453,0.5038633942604065
1773522025669988900,6.21198876953125,-0.19189034402370453,-0.08040615916252136,0.5182639360427856
1773522025680027600,6.222027587890625,-0.2107021063566208,-0.074073426425457,0.5492141246795654
1773522025690066000,6.23206591796875,-0.23459812998771667,-0.07483189553022385,0.595572829246521
1773522025700103700,6.242103759765625,-0.26411738991737366,-0.08093266934156418,0.6400284171104431
1773522025710143000,6.25214306640625,-0.29137086868286133,-0.09107371419668198,0.6791665554046631
1773522025720180700,6.2621806640625,-0.3034949004650116,-0.09682348370552063,0.7072998881340027
1773522025730219000,6.272218994140625,-0.31328442692756653,-0.10088613629341125,0.7224599123001099
1773522025740257800,6.2822578125,-0.3305278420448303,-0.12472409009933472,0.7165655493736267
1773522025750295800,6.2922958984375,-0.35934990644454956,-0.1437784731388092,0.6932874321937561
1773522025760334800,6.3023349609375,-0.3770564794540405,-0.16491465270519257,0.6666512489318848
1773522025770372900,6.312372802734375,-0.3957361578941345,-0.1789039671421051,0.6441225409507751
1773522025780411000,6.322410888671875,-0.436201274394989,-0.1963532716035843,0.6339556574821472
1773522025790450000,6.332449951171875,-0.47646400332450867,-0.24566249549388885,0.6178291440010071
1773522025800487700,6.34248779296875,-0.517486572265625,-0.3584281802177429,0.57906574010849
1773522025810526000,6.35252587890625,-0.5268790125846863,-0.3795585036277771,0.5383486747741699
1773522025820564700,6.362564697265625,-0.5404776334762573,-0.36110278964042664,0.5005720257759094
1773522025830603000,6.37260302734375,-0.5167957544326782,-0.3537532687187195,0.45562291145324707
1773522025840641800,6.382641845703125,-0.49176838994026184,-0.25233158469200134,0.4124413728713989
1773522025850679800,6.3926796875,-0.4496595561504364,-0.10188774764537811,0.3673423230648041
1773522025860717800,6.4027177734375,-0.47037604451179504,-0.12521091103553772,0.31374940276145935
1773522025870756900,6.4127568359375,-0.4811650216579437,-0.19204773008823395,0.21787720918655396
1773522025880795000,6.422794921875,-0.4741521179676056,-0.2161397486925125,0.10557596385478973
1773522025890833000,6.4328330078125,-0.44469863176345825,-0.17405195534229279,0.025892050936818123
1773522025900871700,6.44287158203125,-0.42894816398620605,-0.16615727543830872,-0.05989129841327667
1773522025910910000,6.452909912109375,-0.4004022777080536,-0.13813816010951996,-0.13584864139556885
1773522025920947700,6.46294775390625,-0.3332432210445404,-0.10141583532094955,-0.19383658468723297
1773522025930987000,6.472987060546875,-0.30335482954978943,-0.023722905665636063,-0.2207891047000885
1773522025941024800,6.483024658203125,-0.2782209813594818,0.048165131360292435,-0.25275155901908875
1773522025951063800,6.493063720703125,-0.2311762273311615,0.14573536813259125,-0.29236528277397156
1773522025961101800,6.503101806640625,-0.2088317722082138,0.2381254881620407,-0.33597826957702637
1773522025971139800,6.513139892578125,-0.1876617819070816,0.341230571269989,-0.36675190925598145
1773522025981179000,6.523178955078125,-0.17663869261741638,0.3971172571182251,-0.41218090057373047
1773522025991217000,6.533216796875,-0.16687101125717163,0.4509405493736267,-0.4634842872619629
1773522026001255000,6.5432548828125,-0.09612467139959335,0.4290943741798401,-0.5069340467453003
1773522026011294000,6.5532939453125,0.04334640875458717,0.2730938494205475,-0.561426043510437
1773522026021331700,6.563331787109375,0.24022644758224487,0.15659546852111816,-0.6370866894721985
1773522026031369700,6.57336962890625,0.3724800944328308,0.3545950949192047,-0.7247369289398193
1773522026041408800,6.58340869140625,0.346684992313385,0.4425092339515686,-0.7999355792999268
1773522026051446800,6.59344677734375,0.34106144309043884,0.3537144064903259,-0.8569818139076233
1773522026061485800,6.60348583984375,0.35912540555000305,0.2769325375556946,-0.8580233454704285
1773522026071523800,6.61352392578125,0.353413462638855,0.2615351974964142,-0.8474825620651245
1773522026081561900,6.623561767578125,0.3180389702320099,0.2419668287038803,-0.8574917912483215
1773522026091601000,6.633600830078125,0.28327566385269165,0.2649565637111664,-0.8624540567398071
1773522026101639000,6.643638916015625,0.2644002437591553,0.2938031256198883,-0.8595016598701477
1773522026111676700,6.6536767578125,0.23893694579601288,0.3049575090408325,-0.8588625192642212
1773522026121715700,6.6637158203125,0.21093566715717316,0.29617840051651,-0.8645238876342773
1773522026131753700,6.673753662109375,0.18352216482162476,0.292184978723526,-0.863214910030365
1773522026141792800,6.683792724609375,0.15991748869419098,0.29867884516716003,-0.8583911657333374
1773522026151830800,6.693830810546875,0.13103684782981873,0.3374219834804535,-0.8206653594970703
1773522026161868800,6.703868896484375,0.07828521728515625,0.34993669390678406,-0.7733356356620789
1773522026171907000,6.713906982421875,0.02840820513665676,0.32416343688964844,-0.7193602919578552
1773522026181944800,6.72394482421875,-0.006265885196626186,0.27836504578590393,-0.6609483957290649
1773522026191983000,6.733983154296875,-0.02244964800775051,0.21796295046806335,-0.6075447797775269
1773522026202022000,6.74402197265625,-0.00133850472047925,0.15303349494934082,-0.5521510243415833
1773522026212060000,6.754059814453125,0.03521444648504257,0.0919690728187561,-0.505246102809906
1773522026222098000,6.764097900390625,0.065965436398983,0.04875395819544792,-0.4667530655860901
1773522026232137000,6.774136962890625,0.07561592757701874,0.010961304418742657,-0.4349440038204193
1773522026242175000,6.784175048828125,0.0660645067691803,-0.018694326281547546,-0.41492900252342224
1773522026252214000,6.794214111328125,0.04916568100452423,-0.03424585610628128,-0.3940543532371521
1773522026262251800,6.804251708984375,0.0284137986600399,-0.04585270956158638,-0.370746374130249
1773522026272290000,6.8142900390625,0.01019964087754488,-0.05380411073565483,-0.34656059741973877
1773522026282328800,6.824328857421875,0.003221892286092043,-0.055987101048231125,-0.32351040840148926
1773522026292367000,6.8343671875,0.07859174907207489,0.04530809447169304,-0.27993044257164
1773522026302404900,6.84440478515625,0.09114855527877808,0.10448193550109863,-0.29859068989753723
1773522026312444000,6.85444384765625,0.05655462294816971,0.07396849989891052,-0.29480740427970886
1773522026322482000,6.86448193359375,0.05224749073386192,0.05029326304793358,-0.2912536859512329
1773522026332519700,6.874519775390625,0.06488152593374252,0.08682703971862793,-0.2744147777557373
1773522026342559000,6.88455908203125,0.07549235969781876,0.16785025596618652,-0.25098854303359985
1773522026352596700,6.8945966796875,0.0873255804181099,0.2225523740053177,-0.24045920372009277
1773522026362635800,6.9046357421875,0.1050340086221695,0.2330886423587799,-0.24846786260604858
1773522026372674000,6.914674072265625,0.12646952271461487,0.2039472758769989,-0.2627418637275696
1773522026382711800,6.9247119140625,0.18301615118980408,0.24535010755062103,-0.23764744400978088
1773522026392751000,6.934751220703125,0.16135559976100922,0.29907459020614624,-0.2560591995716095
1773522026402788900,6.944788818359375,0.10363557934761047,0.2394368201494217,-0.2888701558113098
1773522026412827000,6.954826904296875,0.07565002143383026,0.21288883686065674,-0.3147776424884796
1773522026422866000,6.964865966796875,0.05710962414741516,0.209506094455719,-0.3430364429950714
1773522026432903700,6.974903564453125,0.06868798285722733,0.22986328601837158,-0.3568015396595001
1773522026442943000,6.98494287109375,0.15510596334934235,0.3160114884376526,-0.35708144307136536
1773522026452980700,6.994980712890625,0.12415257096290588,0.32467183470726013,-0.38662493228912354
1773522026463019000,7.00501904296875,0.10007147490978241,0.2775072455406189,-0.41072601079940796
1773522026473058000,7.01505810546875,0.08749096840620041,0.2733495235443115,-0.4381597638130188
1773522026483095800,7.025095703125,0.11109935492277145,0.23543834686279297,-0.46684256196022034
1773522026493133800,7.0351337890625,0.12008566409349442,0.2105811983346939,-0.4691150188446045
1773522026503172900,7.0451728515625,0.09939582645893097,0.22716496884822845,-0.4395808279514313
1773522026513211000,7.0552109375,0.08655007183551788,0.2373475730419159,-0.39076295495033264
1773522026523249000,7.065248779296875,0.08419450372457504,0.2637171149253845,-0.3401932716369629
1773522026533287700,7.07528759765625,0.08123254030942917,0.29524362087249756,-0.279259592294693
1773522026543326000,7.085325927734375,0.08461076021194458,0.2922603487968445,-0.22372975945472717
1773522026553364700,7.09536474609375,0.07984316349029541,0.28093472123146057,-0.17280054092407227
1773522026563403000,7.105403076171875,0.06612948328256607,0.28063830733299255,-0.11777377128601074
1773522026573440800,7.115440673828125,0.049783267080783844,0.25767868757247925,-0.06907254457473755
1773522026583479800,7.125479736328125,0.03852901607751846,0.21113380789756775,-0.024172713980078697
1773522026593517800,7.135517822265625,0.023142604157328606,0.1625566929578781,0.02298014983534813
1773522026603555800,7.145555908203125,0.014126471243798733,0.130531907081604,0.0652887225151062
1773522026613595000,7.155594970703125,0.011515508405864239,0.0913698598742485,0.09664877504110336
1773522026623633000,7.1656328125,0.013979464769363403,0.047978710383176804,0.12112722545862198
1773522026633671000,7.1756708984375,0.010905378498136997,0.018874354660511017,0.1366257518529892
1773522026643710000,7.1857099609375,-0.007842742837965488,-0.01924719847738743,0.135012686252594
1773522026653747700,7.195747802734375,-0.01733211800456047,-0.11253932863473892,0.15490064024925232
1773522026663787000,7.205787109375,0.010713363997638226,-0.14239975810050964,0.2305605113506317
1773522026673824800,7.21582470703125,0.029711822047829628,-0.15187129378318787,0.3207652270793915
1773522026683863000,7.225863037109375,0.02532532997429371,-0.19927901029586792,0.3792210817337036
1773522026693901800,7.23590185546875,-0.005498362239450216,-0.23589880764484406,0.4223073124885559
1773522026703939800,7.24593994140625,-0.045279596000909805,-0.2676572799682617,0.44499263167381287
1773522026713977900,7.255977783203125,-0.09601175040006638,-0.29334425926208496,0.4627700448036194
1773522026724017000,7.266016845703125,-0.13496021926403046,-0.3258090019226074,0.47089800238609314
1773522026734055000,7.276054931640625,-0.160323366522789,-0.3540979027748108,0.483311265707016
1773522026744094000,7.286093994140625,-0.16875812411308289,-0.385311484336853,0.48827221989631653
1773522026754131700,7.296131591796875,-0.16048555076122284,-0.4181266725063324,0.48488253355026245
1773522026764170000,7.306169921875,-0.1444368064403534,-0.43855684995651245,0.4823046028614044
1773522026774208800,7.316208740234375,-0.12878993153572083,-0.4359685182571411,0.47356170415878296
1773522026784247000,7.3262470703125,-0.12495871633291245,-0.40909484028816223,0.45106199383735657
1773522026794284800,7.336284912109375,-0.1238953098654747,-0.36927685141563416,0.41812559962272644
1773522026804323800,7.34632373046875,-0.12265560775995255,-0.32620179653167725,0.3706190884113312
1773522026814361900,7.35636181640625,-0.11475108563899994,-0.2861689031124115,0.32165366411209106
1773522026824400000,7.36639990234375,-0.10722365975379944,-0.26425987482070923,0.2685374617576599
1773522026834439000,7.37643896484375,-0.09669112414121628,-0.24367843568325043,0.21676640212535858
1773522026844477000,7.386476806640625,-0.08157981187105179,-0.22580356895923615,0.177882120013237
1773522026854515700,7.396515625,-0.0725381150841713,-0.19379477202892303,0.15750759840011597
1773522026864554000,7.406553955078125,-0.06714974343776703,-0.14160214364528656,0.13890515267848969
1773522026874591700,7.416591796875,-0.06560324132442474,-0.0816144347190857,0.12347666174173355
1773522026884631000,7.426631103515625,-0.06623707711696625,-0.008890696801245213,0.10913234949111938
1773522026894668800,7.436668701171875,-0.06329081952571869,0.04062652215361595,0.09674464911222458
1773522026904707000,7.44670703125,-0.06627596169710159,0.05505712702870369,0.08883906155824661
1773522026914745900,7.456745849609375,-0.05602305382490158,0.04848418012261391,0.08320700377225876
1773522026924783900,7.466783935546875,-0.030052706599235535,0.032042622566223145,0.08686325699090958
1773522026934823000,7.476822998046875,0.0005696501466445625,0.015958992764353752,0.09964749962091446
1773522026944861000,7.48686083984375,0.03135792165994644,-0.012280368246138096,0.10227763652801514
1773522026954899000,7.49689892578125,0.05931658670306206,-0.043297406286001205,0.0919823870062828
1773522026964938000,7.50693798828125,0.08839724212884903,-0.07672327011823654,0.06434915959835052
1773522026974975700,7.516975830078125,0.12002547085285187,-0.11714579910039902,0.039807867258787155
1773522026985014000,7.527013916015625,0.1520363986492157,-0.1371205747127533,0.02947666496038437
1773522026995052800,7.537052734375,0.18230083584785461,-0.12865625321865082,0.02720578759908676
1773522027005091000,7.547091064453125,0.19919300079345703,-0.10184593498706818,0.02923724800348282
1773522027015129900,7.5571298828125,0.1921396106481552,-0.08131376653909683,0.02154204435646534
1773522027025168000,7.56716796875,0.15837179124355316,-0.05330263450741768,0.002326004905626178
1773522027035206000,7.577205810546875,0.10617437213659286,0.023807328194379807,0.009919209405779839
1773522027045245000,7.587244873046875,0.04724287986755371,0.1392388492822647,0.05699537694454193
1773522027055283000,7.597282958984375,-0.018999524414539337,0.3502988815307617,0.15177807211875916
1773522027065321000,7.607321044921875,-0.04282815754413605,0.6359237432479858,0.21581459045410156
1773522027075359700,7.61735986328125,0.10515943914651871,0.6555395126342773,0.1596466451883316
1773522027085398000,7.62739794921875,0.16467949748039246,0.7666055560112,0.11326690018177032
1773522027095435800,7.637435791015625,0.08286985009908676,0.9815194606781006,0.04496694356203079
1773522027105475000,7.64747509765625,-0.0723721981048584,1.2948755025863647,-0.014052702113986015
1773522027115512800,7.657512939453125,-0.09864641726016998,1.626076579093933,-0.027962125837802887
1773522027125551900,7.6675517578125,-0.1758304089307785,1.812423586845398,-0.006119677796959877
1773522027135590000,7.67758984375,-0.2656351327896118,1.8465371131896973,0.06589566171169281
1773522027145628000,7.6876279296875,-0.2894967794418335,1.8701715469360352,0.13956934213638306
1773522027155667000,7.6976669921875,-0.217242032289505,1.5602831840515137,0.07103556394577026
1773522027165705000,7.707705078125,-0.129111647605896,1.2018790245056152,-0.03514094278216362
1773522027175743700,7.71774365234375,-0.05124587565660477,0.705329418182373,-0.10396794229745865
1773522027185782800,7.72778271484375,0.09502824395895004,0.1426982879638672,-0.11502166092395782
1773522027195820800,7.73782080078125,0.24630111455917358,-0.4123803675174713,-0.13079848885536194
1773522027205859800,7.74785986328125,0.15842212736606598,-0.6857756972312927,-0.06923792511224747
1773522027215897900,7.75789794921875,0.04483751207590103,-0.6631697416305542,0.06718942523002625
1773522027225935600,7.767935546875,0.02063816599547863,-0.4757944941520691,0.19905371963977814
1773522027235975000,7.777974853515625,0.036550555378198624,-0.2620726227760315,0.25697746872901917
1773522027246012700,7.7880126953125,0.026391128078103065,-0.09203937649726868,0.2329150140285492
1773522027256051000,7.798051025390625,-0.02870115265250206,0.015336345881223679,0.16779565811157227
1773522027266089700,7.80808984375,-0.08303683251142502,0.06547727435827255,0.11815353482961655
1773522027276127700,7.818127685546875,-0.13710619509220123,0.06203194707632065,0.09892604500055313
1773522027286165800,7.828165771484375,-0.1946357935667038,0.02726677432656288,0.10427606850862503
1773522027296204800,7.838204833984375,-0.2514103949069977,-0.0060933125205338,0.12942883372306824
1773522027306242800,7.848242919921875,-0.29678478837013245,-0.014065485447645187,0.16218145191669464
1773522027316281900,7.85828173828125,-0.3273765444755554,0.027420172467827797,0.19595059752464294
1773522027326319600,7.868319580078125,-0.35797756910324097,0.06708609312772751,0.20141540467739105
1773522027336358000,7.87835791015625,-0.426750510931015,0.06364022940397263,0.1568942815065384
1773522027346396700,7.888396728515625,-0.5673454403877258,-0.1164882630109787,0.00029055087361484766
1773522027356435000,7.89843505859375,-0.5188924074172974,-0.17453639209270477,-0.07561380416154861
1773522027366472700,7.90847265625,-0.45290595293045044,-0.13477087020874023,-0.09068968892097473
1773522027376511700,7.91851171875,-0.3908900022506714,-0.08882813900709152,-0.06585784256458282
1773522027386549800,7.9285498046875,-0.44393324851989746,-0.15797844529151917,-0.07442496716976166
1773522027396588800,7.9385888671875,-0.4752141833305359,-0.17527461051940918,-0.06402985006570816
1773522027406626800,7.948626708984375,-0.4476888179779053,-0.20428310334682465,-0.056225989013910294
1773522027416664800,7.958664794921875,-0.38180676102638245,-0.23054400086402893,-0.0539788119494915
1773522027426703600,7.96870361328125,-0.29616349935531616,-0.24046294391155243,-0.04241563379764557
1773522027436742000,7.978741943359375,-0.24589258432388306,-0.22118298709392548,-0.030252177268266678
1773522027446779600,7.988779541015625,-0.18002063035964966,-0.2076469361782074,-0.012629242613911629
1773522027456819000,7.99881884765625,-0.07256847620010376,-0.205415740609169,0.02588486112654209
1773522027466856700,8.008856689453125,0.010879811830818653,-0.18716482818126678,0.06792791932821274
1773522027476895700,8.018895751953124,0.03723924607038498,-0.19378279149532318,0.10056602209806442
1773522027486933800,8.028933837890625,0.016652479767799377,-0.18109016120433807,0.11884063482284546
1773522027496971800,8.0389716796875,-0.02082698419690132,-0.16097795963287354,0.1330355554819107
1773522027507010800,8.0490107421875,-0.056596700102090836,-0.1329740285873413,0.145920991897583
1773522027517048800,8.059048828125,-0.09011098742485046,-0.10592243820428848,0.14814579486846924
1773522027527086800,8.0690869140625,-0.11372416466474533,-0.08295799791812897,0.15932174026966095
1773522027537126000,8.0791259765625,-0.12526445090770721,-0.06445968151092529,0.15941868722438812
1773522027547163600,8.08916357421875,-0.12718963623046875,-0.048708152025938034,0.16358759999275208
1773522027557203000,8.099202880859375,-0.12496323883533478,-0.02702176384627819,0.16511864960193634
1773522027567240700,8.10924072265625,-0.12915904819965363,-0.021225392818450928,0.1630357950925827
1773522027577279000,8.119279052734376,-0.13459642231464386,-0.029978405684232712,0.1514100283384323
1773522027587317800,8.12931787109375,-0.1367245614528656,-0.04902959242463112,0.13690511882305145
1773522027597355800,8.139355712890625,-0.13690271973609924,-0.06606423854827881,0.12490677833557129
1773522027607393800,8.149393798828125,-0.1444149762392044,-0.07259777188301086,0.12298025190830231
1773522027617432800,8.159432861328124,-0.14733992516994476,-0.07186567038297653,0.12390170246362686
1773522027627470800,8.169470947265625,-0.1413949429988861,-0.06238401681184769,0.12006861716508865
1773522027637508900,8.1795087890625,-0.13332955539226532,-0.0542571134865284,0.12808047235012054
1773522027647547600,8.189547607421876,-0.12116290628910065,-0.03929441049695015,0.13914591073989868
1773522027657586000,8.1995859375,-0.104576475918293,-0.020981980487704277,0.15374881029129028
1773522027667624700,8.209624755859375,-0.08668828755617142,0.008523181080818176,0.1585904359817505
1773522027677663000,8.2196630859375,-0.07622073590755463,0.030166691169142723,0.15311312675476074
1773522027687700700,8.22970068359375,-0.0686831921339035,0.04174957796931267,0.14517050981521606
1773522027697739800,8.23973974609375,-0.07166619598865509,0.03795324265956879,0.12607350945472717
1773522027707777800,8.24977783203125,-0.09169716387987137,0.0330844484269619,0.10564467310905457
1773522027717816800,8.25981689453125,-0.11847444623708725,0.027669444680213928,0.08898606151342392
1773522027727854800,8.269854736328124,-0.13703562319278717,0.018552379682660103,0.07543563842773438
1773522027737892900,8.279892822265625,-0.1467313915491104,-0.00030067088664509356,0.0682847797870636
1773522027747931600,8.289931640625,-0.1557760089635849,-0.017255952581763268,0.07045526057481766
1773522027757970000,8.299969970703126,-0.16204775869846344,-0.03490392118692398,0.08217103779315948
1773522027768007700,8.310007568359374,-0.16619589924812317,-0.0456836000084877,0.09097518026828766
1773522027778046700,8.320046630859375,-0.15826819837093353,-0.051967594772577286,0.09142126142978668
1773522027788084700,8.330084716796875,-0.1509077548980713,-0.03910612314939499,0.07839014381170273
1773522027798123000,8.340123046875,-0.1613161861896515,-0.03020051307976246,0.05348426476120949
1773522027808161800,8.350161865234375,-0.16745664179325104,-0.03489566594362259,0.01674036495387554
1773522027818199800,8.36019970703125,-0.157110795378685,-0.06425515562295914,-0.015573366545140743
1773522027828238800,8.37023876953125,-0.16504807770252228,-0.0869562029838562,-0.019149193540215492
1773522027838276900,8.38027685546875,-0.17819078266620636,-0.1269097477197647,-0.010587663389742374
1773522027848315000,8.39031494140625,-0.1763976663351059,-0.1598818153142929,0.002229332225397229
1773522027858354000,8.40035400390625,-0.1645391434431076,-0.18870653212070465,0.015087606385350227
1773522027868391700,8.4103916015625,-0.14769518375396729,-0.20714998245239258,0.007801730185747147
1773522027878430000,8.420429931640625,-0.13838183879852295,-0.20938491821289062,-0.009664611890912056
1773522027888468700,8.43046875,-0.138880655169487,-0.2209632694721222,-0.03755989298224449
1773522027898506800,8.4405068359375,-0.16518203914165497,-0.23007075488567352,-0.05733759328722954
1773522027908545800,8.4505458984375,-0.1508595496416092,-0.3026147186756134,-0.07467050850391388
1773522027918583800,8.460583740234375,-0.15346571803092957,-0.34197598695755005,-0.07498130202293396
1773522027928621800,8.470621826171875,-0.17410042881965637,-0.30892083048820496,-0.05758579820394516
1773522027938660900,8.480660888671874,-0.21256126463413239,-0.2456691563129425,-0.03804884850978851
1773522027948699000,8.490698974609375,-0.2502324879169464,-0.23117409646511078,-0.02804175391793251
1773522027958737000,8.50073681640625,-0.2741239666938782,-0.295282244682312,-0.0315970741212368
1773522027968775700,8.510775634765626,-0.2915745973587036,-0.3947094976902008,-0.04752251133322716
1773522027978814000,8.52081396484375,-0.29909056425094604,-0.4716905653476715,-0.05432182922959328
1773522027988852700,8.530852783203125,-0.3215029239654541,-0.4948888421058655,-0.05910033732652664
1773522027998890800,8.540890869140625,-0.31549856066703796,-0.47596946358680725,-0.0741429403424263
1773522028008928800,8.5509287109375,-0.30759191513061523,-0.42888131737709045,-0.08775594830513
1773522028018967800,8.5609677734375,-0.2953839898109436,-0.33562326431274414,-0.10314635932445526
1773522028029005800,8.571005859375,-0.25996634364128113,-0.2422211617231369,-0.12652678787708282
1773522028039043800,8.5810439453125,-0.20445381104946136,-0.16094627976417542,-0.16045145690441132
1773522028049083000,8.591082763671874,-0.1393192708492279,-0.0977420061826706,-0.1921292245388031
1773522028059121000,8.601120849609375,-0.07207898795604706,-0.05624915659427643,-0.20977400243282318
1773522028069159700,8.61115966796875,-0.05542677268385887,-0.0006165218073874712,-0.21013006567955017
1773522028079198000,8.621197998046876,-0.002037318190559745,0.026983946561813354,-0.18267181515693665
1773522028089235700,8.631235595703124,0.012338158674538136,0.04062119498848915,-0.14622138440608978
1773522028099274800,8.641274658203125,0.005123655777424574,0.04764261841773987,-0.1224721223115921
1773522028109312800,8.651312744140625,-0.01751720905303955,0.05698924884200096,-0.11320272088050842
1773522028119350800,8.661350830078124,-0.04362737014889717,0.07175461202859879,-0.11274439096450806
1773522028129389800,8.671389892578125,-0.08041974157094955,0.09091073274612427,-0.1230929046869278
1773522028139427800,8.681427734375,-0.11879109591245651,0.0913674607872963,-0.11923903971910477
1773522028149467000,8.691466796875,-0.14624962210655212,0.05733492970466614,-0.09029900282621384
1773522028159505000,8.7015048828125,-0.15851321816444397,0.009103483520448208,-0.03633856773376465
1773522028169542400,8.71154248046875,-0.1460765153169632,-0.037278927862644196,0.012498747557401657
1773522028179581400,8.72158154296875,-0.12048780173063278,-0.07644523680210114,0.0284633319824934
1773522028189619200,8.731619140625,-0.09678726643323898,-0.0947376936674118,0.021268004551529884
1773522028199658500,8.741658447265625,-0.06861448287963867,-0.08871681988239288,0.017475929111242294
1773522028209696300,8.7516962890625,-0.049375005066394806,-0.038425952196121216,0.029691049829125404
1773522028219734300,8.761734375,-0.03993969410657883,0.012660135515034199,0.04935716465115547
1773522028229773300,8.771773193359374,-0.03755722939968109,0.028718996793031693,0.059471581131219864
1773522028239811000,8.78181103515625,-0.03339817002415657,0.061168015003204346,0.07016657292842865
1773522028249849300,8.791849365234375,-0.03753991797566414,0.0779789537191391,0.07598397880792618
1773522028259888000,8.80188818359375,-0.023359650745987892,0.09837077558040619,0.07742395251989365
1773522028269926400,8.811926513671875,-0.024467792361974716,0.11984677612781525,0.0787198469042778
1773522028279965400,8.82196533203125,-0.03608449921011925,0.1713017076253891,0.08065462857484818
1773522028290003200,8.832003173828125,-0.02346990630030632,0.12995852530002594,0.08911629021167755
1773522028300041200,8.842041259765624,-0.0522962287068367,0.07178790122270584,0.12095917761325836
1773522028310080300,8.852080322265625,-0.08015742152929306,0.019296998158097267,0.18404680490493774
1773522028320118300,8.8621181640625,-0.08267011493444443,0.0010657970560714602,0.24797971546649933
1773522028330156300,8.87215625,-0.06863605231046677,0.0016439693281427026,0.2718227207660675
1773522028340195000,8.882195068359374,-0.042551189661026,0.003572896821424365,0.24255645275115967
1773522028350233300,8.8922333984375,-0.017117468640208244,0.006542321294546127,0.17800408601760864
1773522028360272400,8.9022724609375,0.0025715483352541924,0.021993715316057205,0.11256968975067139
1773522028370310400,8.912310302734374,0.01540718600153923,0.0599922314286232,0.06161036714911461
1773522028380348200,8.92234814453125,0.017784856259822845,0.115522600710392,0.03478860855102539
1773522028390387200,8.93238720703125,0.020384900271892548,0.1615833044052124,0.00788668543100357
1773522028400425200,8.94242529296875,0.02863297611474991,0.17189213633537292,-0.02093910425901413
1773522028410463200,8.952463134765624,0.03368792310357094,0.16624251008033752,-0.04460635036230087
1773522028420502300,8.962502197265625,0.03897909075021744,0.16599217057228088,-0.04524817317724228
1773522028430540300,8.972540283203125,0.04254719242453575,0.165349543094635,-0.03161092475056648
1773522028440579000,8.9825791015625,0.043358124792575836,0.13871526718139648,-0.028911542147397995
1773522028450617300,8.992617431640625,0.044379182159900665,0.09915055334568024,-0.031674306839704514
1773522028460655000,9.002655029296875,0.042873699218034744,0.08349116146564484,-0.036074914038181305
1773522028470694400,9.0126943359375,0.04625857621431351,0.09004360437393188,-0.04338289424777031
1773522028480732200,9.022732177734374,0.0483747236430645,0.11529010534286499,-0.054432082921266556
1773522028490770400,9.0327705078125,0.052312739193439484,0.1306927651166916,-0.06448231637477875
1773522028500809200,9.042809326171875,0.056163135915994644,0.13879810273647308,-0.0673297718167305
1773522028510847200,9.05284716796875,0.0581972599029541,0.13790780305862427,-0.06798864156007767
1773522028520886300,9.06288623046875,0.053829677402973175,0.12217118591070175,-0.058162372559309006
1773522028530924300,9.07292431640625,0.05041071027517319,0.09064175188541412,-0.044012997299432755
1773522028540962300,9.08296240234375,0.044744037091732025,0.061774153262376785,-0.049127332866191864
1773522028551001300,9.09300146484375,0.03626692667603493,0.044006604701280594,-0.06834709644317627
1773522028561039000,9.1030390625,0.030478812754154205,0.04126701131463051,-0.08155078440904617
1773522028571077400,9.113077392578125,0.02983725816011429,0.0536310039460659,-0.08274521678686142
1773522028581116200,9.1231162109375,0.03506291285157204,0.07530487328767776,-0.08631385117769241
1773522028591154400,9.133154541015625,0.04250218719244003,0.08477507531642914,-0.09542825073003769
1773522028601193200,9.143193115234375,0.05914587900042534,0.09371956437826157,-0.09573850780725479
1773522028611231200,9.153231201171875,0.0525209978222847,0.09125693887472153,-0.0865442156791687
1773522028621269200,9.163269287109374,0.05285362899303436,0.08647710084915161,-0.06590098887681961
1773522028631308300,9.173308349609375,0.055084023624658585,0.068608358502388,-0.029880667105317116
1773522028641346300,9.18334619140625,0.02400493435561657,0.040041957050561905,-0.0012918994762003422
1773522028651385300,9.19338525390625,0.029389314353466034,0.008225439116358757,0.01224761176854372
1773522028661423000,9.203423095703124,0.022371618077158928,-0.009033708833158016,0.013456952758133411
1773522028671461400,9.21346142578125,0.0073625752702355385,-0.004833370912820101,0.006405967753380537
1773522028681500200,9.223500244140626,0.011071027256548405,-0.002576342085376382,-0.000818123109638691
1773522028691538400,9.233538330078124,0.014516624622046947,0.0007265103631652892,0.0054485611617565155
1773522028701576200,9.243576171875,0.02377137541770935,0.011271030642092228,-0.008460329845547676
1773522028711615200,9.253615234375,0.03353798761963844,0.019327625632286072,-0.03128335252404213
1773522028721653200,9.2636533203125,0.037646178156137466,0.022941535338759422,-0.039148733019828796
1773522028731692300,9.2736923828125,0.0373670794069767,0.023064306005835533,-0.030425816774368286
1773522028741730300,9.283730224609375,0.039100531488657,0.005210208240896463,-0.022761238738894463
1773522028751768300,9.293768310546875,0.03708904609084129,-0.007300523575395346,-0.005675995256751776
1773522028761807000,9.30380712890625,0.038174550980329514,-0.020651482045650482,0.011634019203484058
1773522028771845400,9.313845458984375,0.03724297508597374,-0.032702818512916565,0.03202930465340614
1773522028781883100,9.323883056640625,0.033849574625492096,-0.04722370579838753,0.05121152102947235
1773522028791922400,9.33392236328125,0.03308844566345215,-0.06374595314264297,0.061286792159080505
1773522028801960200,9.343960205078124,0.034440264105796814,-0.07679624110460281,0.07582658529281616
1773522028811999200,9.353999267578125,0.031028224155306816,-0.08861988037824631,0.08669867366552353
1773522028822037200,9.364037353515625,0.02779621072113514,-0.09134668856859207,0.08438066393136978
1773522028832075300,9.3740751953125,0.026456374675035477,-0.06930450350046158,0.0922553613781929
1773522028842114300,9.3841142578125,0.03299736604094505,-0.050749730318784714,0.10730062425136566
1773522028852152300,9.39415234375,0.041725873947143555,-0.08090310543775558,0.11481925845146179
1773522028862191000,9.404191162109376,0.04516987502574921,-0.14227432012557983,0.13374368846416473
1773522028872229400,9.4142294921875,0.040831051766872406,-0.17798490822315216,0.17189373075962067
1773522028882267100,9.42426708984375,0.027782361954450607,-0.17926110327243805,0.22349406778812408
1773522028892306400,9.434306396484375,0.01890444941818714,-0.18096739053726196,0.25606799125671387
1773522028902344200,9.44434423828125,0.006277603097259998,-0.2062399834394455,0.2626950144767761
1773522028912382500,9.454382568359375,-0.004652276169508696,-0.2303762137889862,0.27408427000045776
1773522028922421200,9.464421142578125,-0.018690064549446106,-0.2364596724510193,0.30721160769462585
1773522028932459300,9.474459228515625,-0.026941336691379547,-0.2318020761013031,0.3436974585056305
1773522028942498300,9.484498291015624,-0.043000463396310806,-0.24968360364437103,0.36055710911750793
1773522028952536300,9.494536376953125,-0.04848870635032654,-0.263005793094635,0.36329084634780884
1773522028962574300,9.50457421875,-0.04613607004284859,-0.23205986618995667,0.3712478578090668
1773522028972613400,9.51461328125,-0.03404505178332329,-0.20312249660491943,0.38241955637931824
1773522028982651100,9.524651123046874,-0.0031273500062525272,-0.25077682733535767,0.3650725185871124
1773522028992689400,9.534689453125,-0.02022084966301918,-0.2660740315914154,0.3292503356933594
1773522029002728200,9.544728271484376,-0.04591689258813858,-0.29980188608169556,0.3106159269809723
1773522029012766500,9.554766357421874,-0.06425728648900986,-0.2770073711872101,0.2987174689769745
1773522029022805200,9.56480517578125,-0.06711485236883163,-0.21785642206668854,0.27960607409477234
1773522029032843300,9.57484326171875,-0.06923872232437134,-0.16200780868530273,0.2286217212677002
1773522029042881300,9.58488134765625,-0.05217478796839714,-0.1547277867794037,0.1483449935913086
1773522029052920300,9.59492041015625,-0.01816568709909916,-0.1384100764989853,0.08746779710054398
1773522029062958300,9.604958251953125,0.016762468963861465,-0.0931139662861824,0.05758313462138176
1773522029072997400,9.614997314453126,0.04766765236854553,-0.025493109598755836,0.045942991971969604
1773522029083035100,9.62503515625,0.062057510018348694,-0.00020133497309871018,0.015034609474241734
1773522029093073400,9.635073486328125,0.07430698722600937,-0.008623315952718258,-0.03448287770152092
1773522029103112200,9.6451123046875,0.049140915274620056,0.02100461721420288,-0.07694751024246216
1773522029113150500,9.655150390625,0.09748980402946472,0.04795261099934578,-0.10205099731683731
1773522029123188200,9.665188232421874,0.10364197194576263,0.08139951527118683,-0.11745046079158783
1773522029133227300,9.675227294921875,0.09052084386348724,0.09086838364601135,-0.10304169356822968
1773522029143265300,9.685265380859375,0.09162712097167969,0.11252840608358383,-0.06470203399658203
1773522029153304300,9.69530419921875,0.10308404266834259,0.1398085057735443,-0.017344102263450623
1773522029163342300,9.70534228515625,0.10162649303674698,0.11616362631320953,0.021412881091237068
1773522029173380400,9.71538037109375,0.0751354992389679,0.08336732536554337,0.05510080233216286
1773522029183419400,9.72541943359375,0.044133108109235764,0.02520548738539219,0.10042407363653183
1773522029193457400,9.73545751953125,0.036017656326293945,-0.06040022522211075,0.13448937237262726
1773522029203495400,9.745495361328125,0.03380456939339638,-0.1067163273692131,0.14459499716758728
1773522029213534500,9.755534423828125,0.021461615338921547,-0.08429517596960068,0.13508564233779907
1773522029223572500,9.765572509765626,0.016390690580010414,-0.04134504124522209,0.14170867204666138
1773522029233611300,9.775611328125,0.029331523925065994,-0.010865431278944016,0.16436763107776642
1773522029243649500,9.7856494140625,0.03256380185484886,0.016658339649438858,0.19329063594341278
1773522029253687300,9.795687255859375,0.036247752606868744,0.007706122938543558,0.21415436267852783
1773522029263726600,9.8057265625,0.025829998776316643,-0.004805141594260931,0.22472631931304932
1773522029273764400,9.815764404296875,0.024644626304507256,-0.014693991281092167,0.22265145182609558
1773522029283803400,9.825803466796875,0.035295139998197556,-0.012883041985332966,0.19554686546325684
1773522029293841400,9.83584130859375,0.051117245107889175,-0.03443573787808418,0.13907799124717712
1773522029303879400,9.84587939453125,0.05648138374090195,-0.06353290379047394,0.057791128754615784
1773522029313918500,9.85591845703125,0.03779531642794609,-0.019327625632286072,-0.0032474587205797434
1773522029323956500,9.86595654296875,0.01702319271862507,0.07532591372728348,-0.03680754825472832
1773522029333994500,9.875994384765624,0.01859072782099247,0.09197360277175903,-0.08331486582756042
1773522029344033500,9.886033447265625,0.032173383980989456,0.03759344667196274,-0.16007915139198303
1773522029354071300,9.8960712890625,0.03587491065263748,-0.0024852619972079992,-0.22882039844989777
1773522029364110600,9.906110595703124,0.03273823857307434,0.01599894091486931,-0.28025534749031067
1773522029374148400,9.9161484375,0.0452316589653492,0.08648855239152908,-0.31094589829444885
1773522029384186600,9.9261865234375,0.08086022734642029,0.1918133795261383,-0.3239580988883972
1773522029394225400,9.936225341796876,0.13363395631313324,0.2040037363767624,-0.363273024559021
1773522029404263400,9.946263427734374,0.1384849101305008,0.10442840307950974,-0.45488283038139343
1773522029414301400,9.956301513671875,0.10759676992893219,0.06491242349147797,-0.49547553062438965
1773522029424340500,9.966340576171875,0.06663255393505096,0.13854695856571198,-0.4356324374675751
1773522029434378500,9.97637841796875,0.048583779484033585,0.19219553470611572,-0.3743360638618469
1773522029444417500,9.98641748046875,0.051666390150785446,0.18143077194690704,-0.3772372901439667
1773522029454455300,9.996455322265625,0.053042180836200714,0.15474830567836761,-0.4101438522338867
1773522029464493600,10.00649365234375,0.06060635671019554,0.15963253378868103,-0.40176767110824585
1773522029474532400,10.016532470703124,0.06458058953285217,0.21359004080295563,-0.2764030992984772
1773522029484570600,10.026570556640625,0.09716623276472092,0.22425946593284607,-0.1166352704167366
1773522029494609400,10.036609375,0.1298067271709442,0.08876875042915344,-0.07421644032001495
1773522029504647400,10.0466474609375,0.12023027241230011,-0.05630321800708771,-0.1271078884601593
1773522029514685400,10.056685546875,0.05723239481449127,-0.08620652556419373,-0.15131814777851105
1773522029524724500,10.066724365234375,-0.0033537186682224274,0.011012171395123005,-0.08450955897569656
1773522029534762500,10.076762451171875,-0.01696833036839962,0.10182969272136688,0.030838873237371445
1773522029544800500,10.086800537109376,-0.013974937610328197,0.15186169743537903,0.12623409926891327
1773522029554839300,10.09683935546875,-0.002591255819424987,0.16613838076591492,0.17774389684200287
1773522029564877600,10.106877685546875,0.0018905780743807554,0.11224398016929626,0.19707365334033966
1773522029574916400,10.116916259765626,-0.011543205007910728,0.031510788947343826,0.20126067101955414
1773522029584954600,10.12695458984375,-0.039865389466285706,-0.0009715211344882846,0.21896350383758545
1773522029594992400,10.136992431640625,-0.05580148100852966,0.035946015268564224,0.24186615645885468
1773522029605031400,10.147031494140625,-0.06372891366481781,0.08498147130012512,0.2328478991985321
1773522029615069400,10.1570693359375,-0.08482594043016434,0.09760165959596634,0.20490548014640808
1773522029625107500,10.167107421875,-0.10041901469230652,0.09189370274543762,0.19004078209400177
1773522029635146500,10.177146484375,-0.09583305567502975,0.06358855962753296,0.18317221105098724
1773522029645184500,10.1871845703125,-0.0787411481142044,0.03341707959771156,0.1786259412765503
1773522029655223300,10.197223388671874,-0.0691247433423996,0.03880704939365387,0.17287111282348633
1773522029665261600,10.207261474609375,-0.07984209805727005,0.03020530566573143,0.16542384028434753
1773522029675299300,10.21729931640625,-0.11295877397060394,0.026730680838227272,0.1484067738056183
1773522029685338600,10.227338623046874,-0.15326012670993805,0.021859759464859962,0.11878417432308197
1773522029695376400,10.23737646484375,-0.19960951805114746,0.020137226209044456,0.06782272458076477
1773522029705415400,10.24741552734375,-0.2334447056055069,0.027899807319045067,0.025122929364442825
1773522029715453400,10.257453369140626,-0.2233894169330597,0.033360354602336884,-0.00022610237647313625
1773522029725491500,10.267491455078124,-0.11013715714216232,0.053882673382759094,-0.004033091012388468
1773522029735530500,10.277530517578125,0.09164523333311081,0.12137410044670105,-0.023088008165359497
1773522029745568500,10.287568603515625,0.2311437427997589,0.22871281206607819,-0.07990868389606476
1773522029755606500,10.2976064453125,0.18083450198173523,0.26206302642822266,-0.10060729831457138
1773522029765645600,10.3076455078125,0.03362160921096802,0.09440426528453827,-0.055217716842889786
1773522029775683300,10.317683349609375,-0.0864880234003067,-0.16425950825214386,0.031679365783929825
1773522029785722400,10.327722412109376,-0.12889353930950165,-0.2716815769672394,0.06800754368305206
1773522029795760400,10.337760498046874,-0.11869069933891296,-0.20239810645580292,0.013879063539206982
1773522029805798700,10.347798583984375,-0.08443765342235565,-0.054733820259571075,-0.08091322332620621
1773522029815837400,10.35783740234375,-0.04890042915940285,0.042341332882642746,-0.1412024050951004
1773522029825875500,10.36787548828125,-0.0294931773096323,0.05728139728307724,-0.13431279361248016
1773522029835913500,10.37791357421875,-0.017367804422974586,0.03580779954791069,-0.1139390841126442
1773522029845952500,10.387952392578125,-0.007955927401781082,-0.0014809839194640517,-0.11979004740715027
1773522029855990500,10.397990478515625,-0.00737322773784399,-0.0323113352060318,-0.12935373187065125
1773522029866029600,10.408029541015624,-0.01287798210978508,-0.04487772658467293,-0.11228765547275543
1773522029876067300,10.4180673828125,-0.006135923322290182,-0.0537836030125618,-0.0879351794719696
1773522029886105300,10.428105224609375,0.012737366370856762,-0.06060688942670822,-0.09370598196983337
1773522029896144400,10.438144287109376,0.02773415856063366,-0.043406061828136444,-0.12766927480697632
1773522029906182400,10.448182373046874,0.02760925702750683,-0.01104412879794836,-0.1599353402853012
1773522029916220400,10.458220458984375,0.019936956465244293,-0.015458318404853344,-0.16913069784641266
1773522029926259500,10.468259521484375,0.009288307279348373,-0.039803072810173035,-0.1582021564245224
1773522029936297500,10.47829736328125,0.002232261700555682,-0.06402186304330826,-0.14118801057338715
1773522029946336500,10.48833642578125,-0.0107668936252594,-0.08476042747497559,-0.11791731417179108
1773522029956374500,10.49837451171875,-0.018450912088155746,-0.11300138384103775,-0.08851148933172226
1773522029966412300,10.508412353515626,-0.018609104678034782,-0.13464942574501038,-0.07318846136331558
1773522029976451300,10.518451416015624,-0.013896108604967594,-0.14811863005161285,-0.07102198153734207
1773522029986489300,10.5284892578125,-0.0076211681589484215,-0.13525156676769257,-0.07652965933084488
1773522029996528400,10.5385283203125,-0.0014096111990511417,-0.10932090133428574,-0.06740620732307434
1773522030006566400,10.54856640625,0.009551160968840122,-0.09174217283725739,-0.05889900401234627
1773522030016604400,10.5586044921875,0.019000323489308357,-0.08712264895439148,-0.061714764684438705
1773522030026643500,10.5686435546875,0.032769396901130676,-0.0852869376540184,-0.06393663585186005
1773522030036681500,10.578681396484376,0.034631215035915375,-0.0840056911110878,-0.061224475502967834
1773522030046719200,10.58871923828125,0.03521338105201721,-0.08034224063158035,-0.05814665928483009
1773522030056758500,10.598758544921875,0.030355243012309074,-0.07527611404657364,-0.06048251688480377
1773522030066796300,10.60879638671875,0.019708989188075066,-0.062131546437740326,-0.05829393118619919
1773522030076835300,10.61883544921875,0.014659636653959751,-0.05449599772691727,-0.04356904700398445
1773522030086873600,10.62887353515625,0.0036077843979001045,-0.046013832092285156,-0.01865597628057003
1773522030096911400,10.638911376953125,-0.000672448193654418,-0.0476524718105793,-0.011988486163318157
1773522030106950400,10.648950439453126,0.0017957695527002215,-0.05242938548326492,-0.001317998394370079
1773522030116988400,10.658988525390624,0.005941512528806925,-0.05001549795269966,0.006592388730496168
1773522030127027500,10.66902734375,0.006052566226571798,-0.03875751420855522,0.010359696112573147
1773522030137065500,10.6790654296875,0.009705358184874058,-0.02652668207883835,0.031440746039152145
1773522030147103200,10.689103271484376,0.010943727567791939,-0.016956079751253128,0.06095656007528305
1773522030157142500,10.699142578125,0.010342385619878769,-0.021696506068110466,0.07079001516103745
1773522030167180300,10.70918017578125,0.010036122053861618,-0.0359894260764122,0.0638333112001419
1773522030177222400,10.719222412109374,0.00854421965777874,-0.04771159589290619,0.05981086939573288
1773522030187261700,10.72926171875,0.002261556452140212,-0.05392448604106903,0.06294647604227066
1773522030197299500,10.739299560546876,-0.002490321872755885,-0.05106984078884125,0.06951676309108734
1773522030207338500,10.74933837890625,-0.005507417023181915,-0.03388339653611183,0.06570284813642502
1773522030217376500,10.75937646484375,0.0001651159836910665,-0.013515009544789791,0.058750662952661514
1773522030227414500,10.76941455078125,-0.0016564861871302128,-0.00126713200006634,0.04737577214837074
1773522030237453600,10.77945361328125,-0.009269931353628635,-0.004195277579128742,0.03669543191790581
1773522030247491600,10.78949169921875,-0.0076179723255336285,-0.007977232336997986,0.033358488231897354
1773522030257529600,10.799529541015625,-0.004845088813453913,-0.00857431348413229,0.03489140421152115
1773522030267568600,10.809568603515626,0.001404018490575254,0.004530835896730423,0.03534094616770744
1773522030277606400,10.8196064453125,0.004744421225041151,0.011363175697624683,0.03677532449364662
1773522030287645700,10.829645751953125,0.0010072075529024005,0.021585986018180847,0.04555017501115799
1773522030297683500,10.839683349609375,-0.00515747768804431,0.010279002599418163,0.06376619637012482
1773522030307721700,10.8497216796875,-0.009730923920869827,-0.010202569887042046,0.07315916568040848
1773522030317760500,10.859760498046874,-0.012538694776594639,-0.03351082280278206,0.07143796235322952
1773522030327798500,10.869798583984375,-0.014448980800807476,-0.033551834523677826,0.06792605668306351
1773522030337836500,10.87983642578125,-0.013968812301754951,-0.030131271108984947,0.06730207800865173
1773522030347875600,10.88987548828125,-0.008023305796086788,-0.029268672689795494,0.06015494838356972
1773522030357913600,10.89991357421875,-0.0035198999103158712,-0.02496660314500332,0.0549551285803318
1773522030367952600,10.90995263671875,0.003622697899118066,-0.0035428032279014587,0.044197287410497665
1773522030377990400,10.919990478515626,0.0062794676050543785,0.018215755000710487,0.03844219818711281
1773522030388028400,10.9300283203125,0.013962154276669025,0.02912326343357563,0.029338713735342026
1773522030398067500,10.9400673828125,0.01449958048760891,0.031381357461214066,0.022102639079093933
1773522030408105700,10.950105712890625,0.015731291845440865,0.032528117299079895,0.020321782678365707
1773522030418143500,10.9601435546875,0.015664979815483093,0.027173297479748726,0.02913178689777851
1773522030428182500,10.9701826171875,0.015501728281378746,0.018630942329764366,0.03477342799305916
1773522030438220500,10.980220458984375,0.018341191112995148,0.012767193838953972,0.034035731106996536
1773522030448259600,10.990259521484376,0.01696034148335457,0.01811535470187664,0.032153673470020294
1773522030458297600,11.000297607421874,0.017663948237895966,0.03568502515554428,0.02472691796720028
1773522030468335400,11.01033544921875,0.023549534380435944,0.05903535708785057,0.020139357075095177
1773522030478374400,11.02037451171875,0.024948226287961006,0.062430087476968765,0.03419392183423042
1773522030488412400,11.030412353515626,0.01949700154364109,0.05976799130439758,0.03912396728992462
1773522030498450400,11.040450439453124,0.013001020066440105,0.03626719489693642,0.04176342487335205
1773522030508489700,11.05048974609375,0.009436644613742828,0.017480190843343735,0.046553388237953186
1773522030518527500,11.060527587890626,0.003450657706707716,0.026858778670430183,0.0459911935031414
1773522030528566500,11.07056640625,0.00013635384675581008,0.04518052935600281,0.0334429107606411
1773522030538604500,11.0806044921875,0.0009299758239649236,0.07083822041749954,0.019710054621100426
1773522030548642300,11.090642333984375,-0.0033846113365143538,0.0887375921010971,0.020143084228038788
1773522030558681600,11.100681640625,-0.0006170544074848294,0.0761600136756897,0.04199964925646782
1773522030568719400,11.11071923828125,-0.0006242449744604528,0.06133819371461868,0.06485676020383835
1773522030578757600,11.120757568359375,0.0007797735743224621,0.04379701614379883,0.0736694261431694
1773522030588796700,11.130796630859376,0.005880259443074465,0.009286176413297653,0.06854603439569473
1773522030598834400,11.14083447265625,0.019653862342238426,-0.022000906988978386,0.057128001004457474
1773522030608873700,11.150873779296875,0.029157087206840515,-0.03423227369785309,0.0442793145775795
1773522030618911500,11.160911376953125,0.03902889043092728,-0.023450464010238647,0.020432570949196815
1773522030628949500,11.170949462890626,0.03585360571742058,0.01079911831766367,-0.006423544604331255
1773522030638988500,11.180988525390624,0.03664962202310562,0.03581418842077255,-0.0291802566498518
1773522030649026300,11.1910263671875,0.02960183471441269,0.05560839921236038,-0.043954674154520035
1773522030659064600,11.201064697265625,0.025247300043702126,0.05853787809610367,-0.053897321224212646
1773522030669103400,11.211103271484374,0.030279608443379402,0.022491194307804108,-0.06544531881809235
1773522030679141600,11.2211416015625,0.038011565804481506,-0.02269625850021839,-0.07878349721431732
1773522030689179400,11.231179443359375,0.04019002988934517,-0.0605807900428772,-0.07645242661237717
1773522030699218400,11.241218505859376,0.039794549345970154,-0.09363088756799698,-0.0645504966378212
1773522030709256400,11.25125634765625,0.03299896419048309,-0.11413935571908951,-0.05513995140790939
1773522030719295500,11.26129541015625,0.019238142296671867,-0.12903787195682526,-0.04766978323459625
1773522030729333500,11.27133349609375,0.009195628575980663,-0.13237188756465912,-0.040057938545942307
1773522030739371500,11.28137158203125,0.010144513100385666,-0.1285180300474167,-0.045455366373062134
1773522030749410300,11.291410400390625,0.009467271156609058,-0.12386415153741837,-0.057201236486434937
1773522030759448600,11.301448486328125,0.007482417393475771,-0.13024215400218964,-0.06782751530408859
1773522030769486300,11.311486328125,0.0019020296167582273,-0.17073126137256622,-0.05916398763656616
1773522030779525600,11.321525634765624,-0.0018359832465648651,-0.21317192912101746,-0.04490169510245323
1773522030789563400,11.3315634765625,-0.006628874223679304,-0.25778812170028687,-0.03470231965184212
1773522030799602400,11.3416025390625,-0.0070366039872169495,-0.28801900148391724,-0.04132799804210663
1773522030809640400,11.351640380859376,-0.0051897019147872925,-0.3018384277820587,-0.06568953394889832
1773522030819678500,11.361678466796874,-0.00872291810810566,-0.28825974464416504,-0.09478882700204849
1773522030829717500,11.371717529296875,-0.0031212246976792812,-0.26721519231796265,-0.11801239103078842
1773522030839755500,11.381755615234376,0.004001133143901825,-0.2593420743942261,-0.13259479403495789
1773522030849793500,11.39179345703125,0.00956634059548378,-0.25080132484436035,-0.14497795701026917
1773522030859832600,11.40183251953125,0.007250988855957985,-0.2590126395225525,-0.1596682220697403
1773522030869870300,11.411870361328125,-0.0013976269401609898,-0.27345311641693115,-0.16318626701831818
1773522030879909600,11.42190966796875,-0.008065915666520596,-0.29579678177833557,-0.1604301482439041
1773522030889947400,11.431947509765624,-0.01763278990983963,-0.30511435866355896,-0.16104134917259216
1773522030899985700,11.441985595703125,-0.017488446086645126,-0.28687572479248047,-0.16372768580913544
1773522030910024400,11.4520244140625,-0.013819409534335136,-0.2485341876745224,-0.16074706614017487
1773522030920062500,11.4620625,-0.016175508499145508,-0.19992749392986298,-0.14738412201404572
1773522030930100500,11.4721005859375,-0.021954568102955818,-0.1793425977230072,-0.13085176050662994
1773522030940139500,11.482139404296875,-0.033958498388528824,-0.17043805122375488,-0.1008155569434166
1773522030950177500,11.492177490234376,-0.038058437407016754,-0.19684168696403503,-0.05818740651011467
1773522030960215600,11.502215576171874,-0.046427685767412186,-0.2235500067472458,0.00033396040089428425
1773522030970254300,11.51225439453125,-0.040945302695035934,-0.2339555025100708,0.052390504628419876
1773522030980292600,11.522292724609375,-0.028620725497603416,-0.25350069999694824,0.0910785123705864
1773522030990331400,11.532331298828124,-0.010355701670050621,-0.27156999707221985,0.1057000607252121
1773522031000369700,11.54236962890625,0.004224305972456932,-0.29482898116111755,0.10890331119298935
1773522031010407400,11.552407470703125,0.006863764952868223,-0.295279860496521,0.11164210736751556
1773522031020446500,11.562446533203126,0.0064831990748643875,-0.2736847996711731,0.11940362304449081
1773522031030484500,11.572484375,-0.000949150591623038,-0.23880432546138763,0.11015233397483826
1773522031040522500,11.5825224609375,-0.013885721564292908,-0.1886460781097412,0.07384173572063446
1773522031050561500,11.5925615234375,-0.01973748579621315,-0.13597194850444794,0.0208850409835577
1773522031060599600,11.602599609375,-0.01709536276757717,-0.09067583829164505,-0.016696421429514885
1773522031070638300,11.612638427734375,-0.022060029208660126,-0.07793954014778137,-0.027051057666540146
1773522031080676600,11.622676513671875,-0.027273166924715042,-0.07085073739290237,-0.022041119635105133
1773522031090714400,11.63271435546875,-0.02376897819340229,-0.08057393878698349,-0.0184093676507473
1773522031100753700,11.642753662109374,-0.01555365975946188,-0.07450379431247711,-0.03128521889448166
1773522031110791400,11.65279150390625,0.012318984605371952,-0.05607631802558899,-0.06145084276795387
1773522031120829700,11.66282958984375,0.041784998029470444,-0.002284193178638816,-0.11063596606254578
1773522031130868500,11.672868408203126,0.05916265398263931,0.08177316188812256,-0.1683621108531952
1773522031140906500,11.682906494140624,0.08769682794809341,0.18460340797901154,-0.21905352175235748
1773522031150944500,11.692944580078125,0.10698104649782181,0.2706514596939087,-0.2519233226776123
1773522031160983600,11.702983642578126,0.10095617175102234,0.3366592526435852,-0.2770228087902069
1773522031171021300,11.713021240234376,0.0960620865225792,0.35503292083740234,-0.28336140513420105
1773522031181060000,11.72306005859375,0.09631135314702988,0.32489314675331116,-0.262145072221756
1773522031191098000,11.73309814453125,0.08708164095878601,0.2704341411590576,-0.22978100180625916
1773522031201136000,11.74313623046875,0.07277247309684753,0.22757190465927124,-0.2075401395559311
1773522031211175200,11.753175048828124,0.06400508433580399,0.20426471531391144,-0.18490034341812134
1773522031221213200,11.763213134765625,0.05528136342763901,0.18686895072460175,-0.1623939722776413
1773522031231251200,11.773251220703125,0.04254879057407379,0.17364050447940826,-0.13722389936447144
1773522031241290000,11.7832900390625,0.04188566282391548,0.17297416925430298,-0.11653593182563782
1773522031251328300,11.793328369140625,0.04426972568035126,0.1815122663974762,-0.10661033540964127
1773522031261366000,11.803365966796875,0.04339754208922386,0.2019626796245575,-0.10409524291753769
1773522031271405300,11.8134052734375,0.04285425692796707,0.20083749294281006,-0.09548924118280411
1773522031281443000,11.823443115234374,0.04339487850666046,0.1833045780658722,-0.08909685164690018
1773522031291482000,11.833482177734375,0.04122546687722206,0.17275074124336243,-0.0872558057308197
1773522031301520100,11.84352001953125,0.0432761013507843,0.16817063093185425,-0.08827393501996994
1773522031311558000,11.853557861328126,0.04958672821521759,0.1841013878583908,-0.08737804740667343
1773522031321597200,11.86359716796875,0.05870592221617699,0.2055896371603012,-0.09056531637907028
1773522031331635200,11.87363525390625,0.06623361259698868,0.21262705326080322,-0.10533041507005692
1773522031341673200,11.883673095703125,0.07248378545045853,0.20518085360527039,-0.10753205418586731
1773522031351712300,11.893712158203124,0.07547877728939056,0.17795774340629578,-0.09796331822872162
1773522031361750000,11.90375,0.07514721155166626,0.1550561636686325,-0.08319981396198273
1773522031371788000,11.9137880859375,0.07531579583883286,0.14155180752277374,-0.06631111353635788
1773522031381827000,11.9238271484375,0.0749536007642746,0.12124839425086975,-0.05692373588681221
1773522031391865000,11.933864990234374,0.06884591281414032,0.09143936634063721,-0.047215983271598816
1773522031401904000,11.943904052734375,0.06467460095882416,0.06600005179643631,-0.02828889526426792
1773522031411942000,11.95394189453125,0.05909820646047592,0.04193306714296341,-0.00532685499638319
1773522031421980200,11.963980224609376,0.058027882128953934,0.03242744877934456,-0.0003049319493584335
1773522031432019200,11.974019287109375,0.05453488230705261,0.029753368347883224,0.007200655061751604
1773522031442057200,11.98405712890625,0.053707703948020935,0.0350211001932621,0.010333064943552017
1773522031452095000,11.994094970703125,0.05750750005245209,0.04977607727050781,0.012921657413244247
1773522031462134000,12.004134033203124,0.058336544781923294,0.054599594324827194,0.011826032772660255
1773522031472172000,12.014172119140625,0.05736289173364639,0.05235082283616066,0.017347298562526703
1773522031482210000,12.0242099609375,0.05365843325853348,0.03562084585428238,0.020594490692019463
1773522031492249000,12.0342490234375,0.04573233425617218,0.004048803821206093,0.029755499213933945
1773522031502287000,12.044287109375,0.03231000155210495,-0.028848160058259964,0.04073171690106392
1773522031512326100,12.054326171875,0.01750202849507332,-0.05518043041229248,0.05285016447305679
1773522031522364200,12.0643642578125,0.007429953198879957,-0.06878598779439926,0.052989449352025986
1773522031532402000,12.07440185546875,-0.001204814063385129,-0.07718479633331299,0.05073694512248039
1773522031542441200,12.084441162109375,-0.007506385911256075,-0.07931319624185562,0.04874836280941963
1773522031552479000,12.09447900390625,-0.012604208663105965,-0.07489527761936188,0.05537803843617439
1773522031562517200,12.104517333984376,-0.009786584414541721,-0.06393424421548843,0.05722547322511673
1773522031572556000,12.11455615234375,-0.01016794890165329,-0.0581945963203907,0.06715426594018936
1773522031582594000,12.124593994140625,-0.0014149374328553677,-0.05634316802024841,0.07418821007013321
1773522031592632000,12.134632080078125,-0.0004988100845366716,-0.05113615468144417,0.08737698197364807
1773522031602671000,12.144671142578124,0.0002671150432433933,-0.04348835349082947,0.10059398412704468
1773522031612709000,12.154709228515625,-0.005088502075523138,-0.03386342525482178,0.10883114486932755
1773522031622748200,12.164748046875,-0.01239381916821003,-0.03509007766842842,0.13350319862365723
1773522031632786000,12.174785888671876,-0.021682925522327423,-0.04063531011343002,0.16695542633533478
1773522031642824200,12.18482421875,-0.02816186286509037,-0.06747598201036453,0.18583084642887115
1773522031652863000,12.194863037109375,-0.032638102769851685,-0.09645729511976242,0.20658992230892181
1773522031662901200,12.2049013671875,-0.04122013971209526,-0.10960585623979568,0.22227515280246735
1773522031672939000,12.21493896484375,-0.047682832926511765,-0.12788152694702148,0.238891139626503
1773522031682978000,12.22497802734375,-0.05714291334152222,-0.1396883875131607,0.2436816394329071
1773522031693016000,12.23501611328125,-0.060811419039964676,-0.13943246006965637,0.23464766144752502
1773522031703054000,12.24505419921875,-0.06555131077766418,-0.12561172246932983,0.22245784103870392
1773522031713093000,12.255093017578124,-0.06402266025543213,-0.10889772325754166,0.20099249482154846
1773522031723131100,12.265131103515625,-0.060386113822460175,-0.09745758026838303,0.17656384408473969
1773522031733170000,12.275169921875,-0.05799192935228348,-0.08784143626689911,0.1588549017906189
1773522031743208200,12.285208251953126,-0.05816743150353432,-0.07573923468589783,0.1481013149023056
1773522031753246000,12.295245849609374,-0.0570523664355278,-0.07166939228773117,0.14534787833690643
1773522031763285200,12.30528515625,-0.05200541019439697,-0.06759768724441528,0.13973766565322876
1773522031773323000,12.315322998046875,-0.04609984904527664,-0.07719358801841736,0.12542955577373505
1773522031783361300,12.325361328125,-0.042751193046569824,-0.08280140906572342,0.09675797075033188
1773522031793400000,12.335400146484375,-0.036740969866514206,-0.07432083785533905,0.05915519967675209
1773522031803438000,12.34543798828125,-0.029522737488150597,-0.04333602264523506,0.020744426175951958
1773522031813476000,12.35547607421875,-0.02418230101466179,0.0018437063554301858,-0.010272344574332237
1773522031823515100,12.36551513671875,-0.009662747383117676,0.05362541228532791,-0.03585173934698105
1773522031833553200,12.37555322265625,0.006337258033454418,0.09913883358240128,-0.05699963495135307
1773522031843591200,12.385591064453125,0.023198796436190605,0.12574301660060883,-0.07261747866868973
1773522031853630000,12.3956298828125,0.030780550092458725,0.128870889544487,-0.08771467208862305
1773522031863668200,12.405668212890625,0.034874361008405685,0.11509010195732117,-0.10090398043394089
1773522031873707000,12.41570703125,0.02990436926484108,0.09535235166549683,-0.1002616211771965
