time,seconds_elapsed,z,y,x
1773522019546601500,0.0886015625,-45.41276550292969,16.728368759155273,4.860073089599609
1773522019556639500,0.098639404296875,-45.34765625,16.63800621032715,5.129482269287109
1773522019566677500,0.108677490234375,-45.306060791015625,16.468778610229492,5.526103973388672
1773522019576715500,0.118715576171875,-45.442962646484375,16.220632553100586,6.456123352050781
1773522019586754600,0.128754638671875,-45.50086975097656,16.33201789855957,6.892024993896484
1773522019596792600,0.13879248046875,-45.72868347167969,16.66837501525879,7.030330657958984
1773522019606830600,0.14883056640625,-45.28578186035156,16.839601516723633,7.4893035888671875
1773522019616869400,0.158869384765625,-45.00010681152344,17.31925392150879,8.15262222290039
1773522019626907600,0.16890771484375,-44.69004821777344,17.9371280670166,9.071163177490234
1773522019636945400,0.1789453125,-43.88609313964844,18.290071487426758,10.419376373291016
1773522019646984700,0.188984619140625,-43.57148742675781,18.457273483276367,11.766197204589844
1773522019657022500,0.1990224609375,-42.85075378417969,18.753332138061523,13.25299072265625
1773522019667060700,0.209060791015625,-42.24241638183594,18.79581642150879,14.560539245605469
1773522019677098500,0.219098388671875,-41.99073791503906,19.004812240600586,15.588096618652344
1773522019687137500,0.229137451171875,-41.24269104003906,19.106069564819336,16.637081146240234
1773522019697175600,0.239175537109375,-41.19856262207031,19.528276443481445,16.964834213256836
1773522019707213600,0.249213623046875,-40.62042236328125,19.938085556030273,16.985261917114258
1773522019717252600,0.259252685546875,-40.67521667480469,19.930662155151367,16.411468505859375
1773522019727290600,0.26929052734375,-41.0877685546875,20.102571487426758,15.57724380493164
1773522019737328600,0.27932861328125,-41.60321044921875,20.031587600708008,14.487789154052734
1773522019747366400,0.289366455078125,-42.0545654296875,19.98863410949707,13.491279602050781
1773522019757405400,0.299405517578125,-42.63380432128906,19.959993362426758,12.690757751464844
1773522019767443700,0.309443603515625,-42.63435363769531,19.827245712280273,11.842041015625
1773522019777481500,0.3194814453125,-42.983245849609375,19.802324295043945,11.13900375366211
1773522019787520800,0.329520751953125,-43.06855773925781,19.602903366088867,10.662879943847656
1773522019797558500,0.33955859375,-43.23851013183594,19.563325881958008,10.124813079833984
1773522019807596500,0.349596435546875,-43.55256652832031,19.50645637512207,9.282752990722656
1773522019817635600,0.359635498046875,-43.52076721191406,19.87015724182129,8.5697021484375
1773522019827673300,0.36967333984375,-43.637969970703125,20.24864387512207,8.133148193359375
1773522019837711600,0.379711669921875,-43.41947937011719,20.722105026245117,7.931003570556641
1773522019847749400,0.389749267578125,-42.816864013671875,21.314672470092773,8.155071258544922
1773522019857788700,0.39978857421875,-42.59234619140625,22.05296516418457,8.132495880126953
1773522019867826400,0.409826416015625,-42.068389892578125,22.52659034729004,8.285499572753906
1773522019877864700,0.41986474609375,-42.042449951171875,23.0986385345459,8.382205963134766
1773522019887903500,0.429903564453125,-41.80607604980469,23.522146224975586,8.568058013916016
1773522019897941500,0.43994140625,-41.383056640625,23.60258674621582,9.029350280761719
1773522019907979500,0.4499794921875,-41.65455627441406,23.590452194213867,9.059318542480469
1773522019918017500,0.460017578125,-41.90074157714844,23.44904136657715,9.060707092285156
1773522019928056600,0.470056640625,-42.15846252441406,22.992216110229492,9.200260162353516
1773522019938094600,0.480094482421875,-42.16265869140625,22.787927627563477,9.046195983886719
1773522019948132600,0.490132568359375,-42.56205749511719,22.392831802368164,8.719623565673828
1773522019958171600,0.500171630859375,-43.06010437011719,21.88859748840332,8.234390258789062
1773522019968209400,0.51020947265625,-43.3001708984375,21.34895896911621,7.588924407958984
1773522019978247700,0.52024755859375,-43.75395202636719,20.92512321472168,6.896762847900391
1773522019988286500,0.530286376953125,-43.89556884765625,20.61448097229004,6.496906280517578
1773522019998324700,0.54032470703125,-44.00743103027344,20.324384689331055,5.804325103759766
1773522020008362500,0.550362548828125,-44.30213928222656,19.970701217651367,5.150310516357422
1773522020018400500,0.560400390625,-44.40943908691406,19.782808303833008,4.494586944580078
1773522020028439600,0.570439453125,-44.76271057128906,19.638708114624023,3.7542037963867188
1773522020038477300,0.580477294921875,-44.86846923828125,19.44633674621582,3.2701034545898438
1773522020048515600,0.590515625,-45.058746337890625,19.198545455932617,2.7164344787597656
1773522020058554600,0.6005546875,-45.065185546875,18.9428768157959,2.3647918701171875
1773522020068592600,0.610592529296875,-45.24592590332031,18.964895248413086,2.2810096740722656
1773522020078630400,0.62063037109375,-45.33799743652344,19.026994705200195,2.3032493591308594
1773522020088669400,0.63066943359375,-45.19285583496094,19.2990665435791,2.22442626953125
1773522020098707500,0.64070751953125,-45.085540771484375,19.307207107543945,2.4689407348632812
1773522020108745500,0.650745361328125,-45.141021728515625,19.35471534729004,2.411022186279297
1773522020118784500,0.660784423828125,-45.090606689453125,19.44289207458496,2.332000732421875
1773522020128822500,0.670822509765625,-45.06962585449219,19.173582077026367,2.3655433654785156
1773522020138860500,0.680860595703125,-45.18534851074219,19.235776901245117,2.2863426208496094
1773522020148898600,0.690898681640625,-45.17912292480469,19.003610610961914,2.295654296875
1773522020158937300,0.700937255859375,-45.36094665527344,18.801389694213867,2.2811317443847656
1773522020168976000,0.710975830078125,-45.3463134765625,18.3489933013916,2.1953048706054688
1773522020179014000,0.721013916015625,-45.342010498046875,18.515745162963867,2.0005340576171875
1773522020189053000,0.731052978515625,-45.48162841796875,18.225801467895508,1.5742416381835938
1773522020199091000,0.741091064453125,-45.65727233886719,17.9893741607666,1.248260498046875
1773522020209129000,0.75112890625,-45.71781921386719,17.925588607788086,0.6207504272460938
1773522020219168000,0.76116796875,-45.795013427734375,17.824975967407227,0.295501708984375
1773522020229205800,0.771205810546875,-45.859527587890625,17.602537155151367,-0.10664749145507812
1773522020239244000,0.781244140625,-45.989105224609375,17.579259872436523,-0.5985107421875
1773522020249282800,0.79128271484375,-46.03392028808594,17.461912155151367,-0.9119873046875
1773522020259321000,0.801321044921875,-46.286041259765625,17.2888126373291,-1.5479660034179688
1773522020269358800,0.81135888671875,-46.135406494140625,17.263559341430664,-1.9133987426757812
1773522020279396900,0.82139697265625,-46.17366027832031,17.03169059753418,-2.33404541015625
1773522020289436000,0.831435791015625,-46.28375244140625,16.781599044799805,-2.8721084594726562
1773522020299473700,0.8414736328125,-46.44819641113281,16.5427303314209,-3.3648414611816406
1773522020309512000,0.851511962890625,-46.585479736328125,16.389284133911133,-3.788043975830078
1773522020319551000,0.861551025390625,-46.4119873046875,16.18781089782715,-4.165473937988281
1773522020329589000,0.871589111328125,-46.45277404785156,16.09611701965332,-4.752281188964844
1773522020339626800,0.881626708984375,-46.179443359375,15.773683547973633,-5.198829650878906
1773522020349665800,0.891665771484375,-46.23951721191406,15.765466690063477,-5.627857208251953
1773522020359703800,0.901703857421875,-46.20880126953125,15.703310012817383,-6.055961608886719
1773522020369741800,0.911741943359375,-46.16929626464844,15.625886917114258,-6.45758056640625
1773522020379780900,0.92178076171875,-46.102508544921875,15.591646194458008,-6.603015899658203
1773522020389819000,0.93181884765625,-46.237030029296875,15.628183364868164,-6.761463165283203
1773522020399857000,0.94185693359375,-45.997894287109375,15.943017959594727,-6.875984191894531
1773522020409896000,0.95189599609375,-46.13825988769531,16.15931510925293,-7.101047515869141
1773522020419933700,0.96193359375,-46.07319641113281,16.11747932434082,-7.317523956298828
1773522020429972000,0.971971923828125,-45.9755859375,16.219491958618164,-7.597377777099609
1773522020440009700,0.982009765625,-46.06175231933594,16.005067825317383,-7.8622589111328125
1773522020450049000,0.992049072265625,-45.829681396484375,15.944726943969727,-8.115249633789062
1773522020460086800,1.002086669921875,-45.57160949707031,15.787763595581055,-8.225265502929688
1773522020470125000,1.012125,-45.57160949707031,15.787763595581055,-8.225265502929688
1773522020480163800,1.022163818359375,-45.71430969238281,15.372831344604492,-8.591609954833984
1773522020490201900,1.032201904296875,-45.78306579589844,15.051435470581055,-8.730751037597656
1773522020500240000,1.042239990234375,-45.82527160644531,14.867353439331055,-9.030380249023438
1773522020510279000,1.05227880859375,-45.90345764160156,14.880075454711914,-9.080543518066406
1773522020520317000,1.06231689453125,-45.829376220703125,14.753961563110352,-9.313117980957031
1773522020530355000,1.07235498046875,-45.98323059082031,14.492532730102539,-9.606548309326172
1773522020540393700,1.082393798828125,-45.91975402832031,14.519624710083008,-10.004497528076172
1773522020550432000,1.092431884765625,-46.07212829589844,14.359338760375977,-10.378944396972656
1773522020560469800,1.1024697265625,-45.7850341796875,14.402639389038086,-10.634769439697266
1773522020570509000,1.112509033203125,-45.823760986328125,14.080419540405273,-10.818607330322266
1773522020580546800,1.122546875,-45.682373046875,14.073564529418945,-11.025093078613281
1773522020590584800,1.132584716796875,-46.04804992675781,14.004915237426758,-11.201873779296875
1773522020600623900,1.142623779296875,-46.05964660644531,13.762910842895508,-11.291725158691406
1773522020610662000,1.152661865234375,-45.9827880859375,13.835691452026367,-11.134662628173828
1773522020620700000,1.162699951171875,-45.857879638671875,13.478219985961914,-11.122730255126953
1773522020630737700,1.172737548828125,-45.80314636230469,13.444845199584961,-11.026679992675781
1773522020640777000,1.18277685546875,-45.94091796875,13.351753234863281,-11.05472183227539
1773522020650814700,1.192814697265625,-45.971160888671875,13.073984146118164,-10.967731475830078
1773522020660853000,1.20285302734375,-46.05546569824219,13.064823150634766,-10.817626953125
1773522020670891800,1.212891845703125,-46.01493835449219,12.98238754272461,-10.98907470703125
1773522020680929800,1.2229296875,-45.99949645996094,13.006332397460938,-11.086795806884766
1773522020690967800,1.2329677734375,-46.12757873535156,12.989482879638672,-11.06320571899414
1773522020701006800,1.2430068359375,-46.21913146972656,12.855201721191406,-11.223079681396484
1773522020711044900,1.253044921875,-46.3905029296875,12.765274047851562,-11.499992370605469
1773522020721083000,1.263082763671875,-46.24287414550781,12.735204696655273,-11.86248779296875
1773522020731121700,1.27312158203125,-46.23046875,12.563888549804688,-12.023609161376953
1773522020741160000,1.283159912109375,-45.97235107421875,12.47256851196289,-12.14120864868164
1773522020751197700,1.29319775390625,-45.96943664550781,12.507425308227539,-12.252815246582031
1773522020761237000,1.303237060546875,-46.001434326171875,12.431097030639648,-12.32509994506836
1773522020771274800,1.313274658203125,-46.03924560546875,12.463058471679688,-12.450080871582031
1773522020781313000,1.32331298828125,-46.16926574707031,12.400415420532227,-12.450450897216797
1773522020791351800,1.333351806640625,-46.289520263671875,12.414569854736328,-12.275188446044922
1773522020801389800,1.343389892578125,-46.16973876953125,12.466423034667969,-12.081924438476562
1773522020811427800,1.353427734375,-46.398101806640625,12.396951675415039,-12.160991668701172
1773522020821467000,1.363466796875,-46.28959655761719,12.340982437133789,-12.13541030883789
1773522020831505000,1.3735048828125,-46.43095397949219,12.445337295532227,-12.191497802734375
1773522020841543000,1.38354296875,-45.98883056640625,12.570442199707031,-11.985603332519531
1773522020851581700,1.393581787109375,-46.26591491699219,12.533784866333008,-12.065658569335938
1773522020861620000,1.403619873046875,-46.17292785644531,12.575214385986328,-12.094688415527344
1773522020871657700,1.41365771484375,-46.16416931152344,12.458293914794922,-12.176620483398438
1773522020881697000,1.423697021484375,-46.344757080078125,12.332395553588867,-12.300006866455078
1773522020891734800,1.43373486328125,-46.13958740234375,12.547412872314453,-12.370109558105469
1773522020901773000,1.44377294921875,-46.084259033203125,12.546333312988281,-12.466876983642578
1773522020911811800,1.453811767578125,-46.09941101074219,12.469537734985352,-12.236122131347656
1773522020921849900,1.463849853515625,-46.29991149902344,12.444591522216797,-12.221393585205078
1773522020931887900,1.473887939453125,-46.327239990234375,12.402975082397461,-12.286354064941406
1773522020941926000,1.48392578125,-45.99212646484375,12.54122543334961,-12.147499084472656
1773522020951965000,1.49396484375,-46.05094909667969,12.560586929321289,-12.3079833984375
1773522020962002700,1.504002685546875,-46.079681396484375,12.626768112182617,-12.273601531982422
1773522020972041000,1.514041015625,-46.112823486328125,12.68576431274414,-12.358695983886719
1773522020982080000,1.524080078125,-46.18096923828125,12.833152770996094,-12.429340362548828
1773522020992117800,1.53411767578125,-45.93603515625,12.831710815429688,-12.510665893554688
1773522021002155800,1.54415576171875,-45.77616882324219,13.14434814453125,-12.538200378417969
1773522021012194800,1.55419482421875,-45.91844177246094,13.133359909057617,-12.479534149169922
1773522021022232800,1.56423291015625,-45.677337646484375,13.313871383666992,-12.359420776367188
1773522021032270800,1.574270751953125,-45.65403747558594,13.38392448425293,-12.450603485107422
1773522021042310000,1.584309814453125,-45.88214111328125,13.540029525756836,-12.400165557861328
1773522021052348000,1.594347900390625,-45.9283447265625,13.615774154663086,-12.225234985351562
1773522021062386000,1.604385986328125,-45.590545654296875,13.758447647094727,-12.23724365234375
1773522021072425000,1.614425048828125,-45.67997741699219,13.912599563598633,-12.118263244628906
1773522021082462700,1.624462646484375,-45.725555419921875,13.952478408813477,-12.048309326171875
1773522021092501000,1.6345009765625,-45.64111328125,14.089601516723633,-12.021175384521484
1773522021102539800,1.644539794921875,-45.796051025390625,14.117517471313477,-11.892414093017578
1773522021112577800,1.654577880859375,-45.644378662109375,14.314077377319336,-11.911529541015625
1773522021122615800,1.66461572265625,-45.69744873046875,14.20677375793457,-11.754932403564453
1773522021132654800,1.67465478515625,-45.52410888671875,14.244653701782227,-11.49666976928711
1773522021142692900,1.68469287109375,-45.79618835449219,14.23286247253418,-11.419532775878906
1773522021152731000,1.69473095703125,-46.06184387207031,14.132375717163086,-11.247024536132812
1773522021162770000,1.70477001953125,-46.20021057128906,14.308034896850586,-11.118427276611328
1773522021172807700,1.7148076171875,-46.08642578125,14.473859786987305,-10.835811614990234
1773522021182846000,1.724845947265625,-45.712310791015625,14.604585647583008,-10.299491882324219
1773522021192884700,1.734884765625,-45.93824768066406,14.779550552368164,-9.824993133544922
1773522021202922800,1.7449228515625,-45.99745178222656,15.187227249145508,-9.093341827392578
1773522021212960800,1.754960693359375,-45.878936767578125,15.648778915405273,-8.284629821777344
1773522021222999800,1.764999755859375,-45.804290771484375,15.911405563354492,-7.155826568603516
1773522021233037800,1.775037841796875,-45.712554931640625,16.333105087280273,-6.128795623779297
1773522021243075800,1.785075927734375,-46.064239501953125,16.460580825805664,-4.946140289306641
1773522021253114600,1.795114501953125,-46.13763427734375,16.648584365844727,-3.5204124450683594
1773522021263153000,1.80515283203125,-45.92124938964844,16.868070602416992,-1.7080802917480469
1773522021273190700,1.815190673828125,-45.912353515625,17.283166885375977,0.7014122009277344
1773522021283230000,1.82522998046875,-45.53443908691406,17.476987838745117,3.212635040283203
1773522021293267700,1.835267822265625,-45.135986328125,18.105676651000977,5.714912414550781
1773522021303306000,1.845305908203125,-44.40562438964844,18.762556076049805,8.091991424560547
1773522021313344800,1.8553447265625,-43.53660583496094,19.547082901000977,10.209400177001953
1773522021323382800,1.8653828125,-42.54887390136719,20.1832332611084,11.997489929199219
1773522021333420800,1.8754208984375,-41.70245361328125,20.82853126525879,13.61065673828125
1773522021343459800,1.8854599609375,-40.54673767089844,21.405885696411133,14.846923828125
1773522021353497900,1.895497802734375,-39.79698181152344,21.78816795349121,16.112728118896484
1773522021363536000,1.905535888671875,-39.09996032714844,22.06431007385254,17.105777740478516
1773522021373574700,1.91557470703125,-38.70930480957031,22.51737403869629,17.776472091674805
1773522021383613000,1.925613037109375,-37.966217041015625,22.888307571411133,18.416093826293945
1773522021393650700,1.935650634765625,-37.458526611328125,23.379541397094727,19.130847930908203
1773522021403690000,1.94568994140625,-36.723785400390625,23.7620906829834,19.8637638092041
1773522021413727700,1.955727783203125,-35.81983947753906,24.158735275268555,20.83053970336914
1773522021423766000,1.96576611328125,-35.028411865234375,24.465261459350586,21.634082794189453
1773522021433804800,1.9758046875,-34.5145263671875,24.687807083129883,22.215953826904297
1773522021443842800,1.9858427734375,-34.23976135253906,24.851835250854492,22.374258041381836
1773522021453880800,1.995880859375,-34.015594482421875,25.074384689331055,22.06810188293457
1773522021463919900,2.005919921875,-34.28581237792969,25.43687629699707,21.549741744995117
1773522021473958000,2.0159580078125,-34.17961120605469,25.833742141723633,21.060453414916992
1773522021483995600,2.02599560546875,-34.59991455078125,26.142621994018555,20.544540405273438
1773522021494034700,2.03603466796875,-34.42242431640625,26.674802780151367,20.00019073486328
1773522021504073000,2.046072998046875,-34.27392578125,26.869626998901367,19.747575759887695
1773522021514110700,2.05611083984375,-34.35221862792969,27.127927780151367,19.23453140258789
1773522021524150000,2.06614990234375,-34.41780090332031,27.38023567199707,18.709367752075195
1773522021534187800,2.076187744140625,-34.540130615234375,27.7420597076416,18.12328338623047
1773522021544225800,2.086225830078125,-34.751708984375,28.027978897094727,17.512340545654297
1773522021554264800,2.096264892578125,-34.75440979003906,28.176061630249023,16.96741485595703
1773522021564302600,2.106302490234375,-35.216094970703125,28.233827590942383,16.26751708984375
1773522021574340900,2.1163408203125,-35.6954345703125,28.16880226135254,15.498123168945312
1773522021584379600,2.126379638671875,-36.10003662109375,28.37526512145996,14.789573669433594
1773522021594418000,2.13641796875,-36.650115966796875,28.4917049407959,13.878604888916016
1773522021604455700,2.14645556640625,-36.86427307128906,28.73039436340332,12.861644744873047
1773522021614494700,2.15649462890625,-37.12855529785156,28.996519088745117,11.75033187866211
1773522021624532700,2.16653271484375,-37.28932189941406,29.328950881958008,10.611770629882812
1773522021634570800,2.17657080078125,-37.31864929199219,29.807313919067383,9.366722106933594
1773522021644609800,2.18660986328125,-37.34690856933594,30.057435989379883,8.12808609008789
1773522021654647800,2.196647705078125,-37.56544494628906,30.479387283325195,6.827583312988281
1773522021664685800,2.206685791015625,-37.45928955078125,30.936094284057617,5.6233673095703125
1773522021674724900,2.216724853515625,-36.97181701660156,31.807008743286133,4.080619812011719
1773522021684762600,2.2267626953125,-36.30218505859375,32.61116027832031,2.757495880126953
1773522021694801000,2.23680078125,-35.25755310058594,33.51983642578125,1.6286773681640625
1773522021704839700,2.246839599609375,-34.47276306152344,34.52959442138672,0.6022529602050781
1773522021714878000,2.2568779296875,-32.97381591796875,35.90094757080078,-0.34639739990234375
1773522021724915700,2.266915771484375,-31.740829467773438,37.04778289794922,-1.2445068359375
1773522021734954800,2.276954833984375,-30.34124755859375,38.310447692871094,-2.1570205688476562
1773522021744992800,2.28699267578125,-28.610687255859375,39.534027099609375,-2.898387908935547
1773522021755030800,2.29703076171875,-26.9019775390625,40.762474060058594,-3.762054443359375
1773522021765069800,2.30706982421875,-25.239837646484375,41.754608154296875,-4.560123443603516
1773522021775107800,2.31710791015625,-23.441802978515625,42.881553649902344,-5.270439147949219
1773522021785145900,2.327145751953125,-21.893356323242188,43.58430480957031,-5.8900299072265625
1773522021795185000,2.337184814453125,-20.252716064453125,44.534339904785156,-6.469486236572266
1773522021805222700,2.34722265625,-18.552001953125,45.12248992919922,-6.807334899902344
1773522021815261000,2.357260986328125,-16.824554443359375,45.57872772216797,-6.7133331298828125
1773522021825299700,2.3672998046875,-16.824554443359375,45.57872772216797,-6.7133331298828125
1773522021835338000,2.377337890625,-15.469512939453125,46.318931579589844,-6.5261688232421875
1773522021845375700,2.387375732421875,-13.497406005859375,46.86503601074219,-5.997795104980469
1773522021855414800,2.397414794921875,-11.3380126953125,47.36933898925781,-5.32373046875
1773522021865452800,2.407452880859375,-9.292922973632812,47.735618591308594,-4.525096893310547
1773522021875490800,2.41749072265625,-7.9977569580078125,48.07805633544922,-3.618999481201172
1773522021885529900,2.42752978515625,-6.7001800537109375,48.27276611328125,-2.6218605041503906
1773522021895568000,2.43756787109375,-5.374786376953125,48.37391662597656,-1.3580398559570312
1773522021905606000,2.44760595703125,-4.304901123046875,48.50599670410156,-0.238983154296875
1773522021915645000,2.45764501953125,-3.2201080322265625,48.47838592529297,1.2705116271972656
1773522021925682700,2.4676826171875,-2.3074493408203125,48.32996368408203,2.851959228515625
1773522021935720700,2.477720703125,-1.431854248046875,48.12376403808594,4.462882995605469
1773522021945759700,2.487759765625,-0.4873809814453125,47.82899475097656,6.078224182128906
1773522021955797800,2.4977978515625,0.05963134765625,47.52238464355469,7.672233581542969
1773522021965835800,2.507835693359375,0.8323211669921875,47.12982177734375,9.35397720336914
1773522021975874800,2.517874755859375,1.4687957763671875,46.84992980957031,10.61187744140625
1773522021985912800,2.527912841796875,1.6651611328125,46.61125946044922,11.85543441772461
1773522021995950600,2.53795068359375,1.3975067138671875,46.326622009277344,12.648078918457031
1773522022005990000,2.547989990234375,0.9837646484375,46.02234649658203,13.355873107910156
1773522022016027600,2.558027587890625,0.5746917724609375,45.995948791503906,13.88840103149414
1773522022026066000,2.56806591796875,0.3130950927734375,45.54167175292969,14.534370422363281
1773522022036104700,2.578104736328125,0.3125457763671875,45.152915954589844,15.43304443359375
1773522022046142700,2.588142822265625,-0.23046875,44.778900146484375,16.27957534790039
1773522022056180700,2.5981806640625,-0.2113037109375,44.399749755859375,17.20281219482422
1773522022066219800,2.6082197265625,-0.2427825927734375,43.83917236328125,18.233787536621094
1773522022076257800,2.6182578125,-0.33001708984375,43.281585693359375,19.24109649658203
1773522022086295800,2.6282958984375,0.1450653076171875,42.714271545410156,20.525583267211914
1773522022096334600,2.63833447265625,0.0502166748046875,41.800689697265625,21.720144271850586
1773522022106372900,2.648372802734375,0.2271575927734375,41.05567932128906,22.915809631347656
1773522022116410600,2.65841064453125,0.08929443359375,40.21752166748047,24.061674118041992
1773522022126450000,2.668449951171875,0.0303955078125,39.22163391113281,25.187307357788086
1773522022136487700,2.67848779296875,0.530548095703125,38.34405517578125,26.231578826904297
1773522022146526000,2.68852587890625,0.449371337890625,37.32231140136719,27.491676330566406
1773522022156564700,2.698564697265625,0.255859375,36.28284454345703,28.584510803222656
1773522022166606000,2.708606201171875,-0.3651123046875,35.336219787597656,29.698272705078125
1773522022176644400,2.718644287109375,-0.9333953857421875,34.332183837890625,30.894662857055664
1773522022186683100,2.72868310546875,-1.66766357421875,33.28180694580078,31.543521881103516
1773522022196721400,2.738721435546875,-2.3711090087890625,32.401893615722656,32.17262649536133
1773522022206759200,2.74875927734375,-2.6598968505859375,31.6881160736084,32.885902404785156
1773522022216798200,2.758798095703125,-3.51544189453125,30.94245719909668,33.435733795166016
1773522022226836200,2.768836181640625,-3.949859619140625,30.61065101623535,33.71729278564453
1773522022236874200,2.778874267578125,-4.0012359619140625,30.159292221069336,33.88730239868164
1773522022246913300,2.788913330078125,-4.4774932861328125,29.990869522094727,33.97175598144531
1773522022256951300,2.798951416015625,-4.8959503173828125,29.713098526000977,34.067626953125
1773522022266989300,2.8089892578125,-6.028106689453125,29.39393424987793,34.392276763916016
1773522022277028400,2.8190283203125,-6.7151641845703125,29.067869186401367,34.33361053466797
1773522022287066000,2.829066162109375,-7.8895111083984375,28.623395919799805,34.25093460083008
1773522022297104400,2.8391044921875,-8.941619873046875,28.314783096313477,34.2259635925293
1773522022307143200,2.84914306640625,-9.684234619140625,28.085542678833008,34.15412521362305
1773522022317181400,2.859181396484375,-10.74847412109375,27.80245018005371,34.31745147705078
1773522022327220200,2.86922021484375,-11.165176391601562,27.763601303100586,34.03478240966797
1773522022337258200,2.87925830078125,-11.956100463867188,27.81202507019043,33.904056549072266
1773522022347296300,2.889296142578125,-12.509658813476562,28.085214614868164,33.4837646484375
1773522022357335300,2.899335205078125,-12.770675659179688,28.413312911987305,33.02250671386719
1773522022367373300,2.909373291015625,-12.99932861328125,29.020891189575195,32.738033294677734
1773522022377411300,2.919411376953125,-13.499679565429688,29.358022689819336,32.3242073059082
1773522022387450000,2.9294501953125,-13.470550537109375,29.525148391723633,32.125999450683594
1773522022397488400,2.93948828125,-13.891860961914062,29.569108963012695,31.996124267578125
1773522022407526100,2.949526123046875,-14.475906372070312,29.528459548950195,31.629474639892578
1773522022417565400,2.9595654296875,-14.62994384765625,29.58583641052246,31.396936416625977
1773522022427603200,2.969603271484375,-15.344009399414062,29.59897804260254,31.143413543701172
1773522022437641200,2.97964111328125,-15.86328125,29.634397506713867,30.898839950561523
1773522022447680300,2.98968017578125,-16.296356201171875,29.619108200073242,30.96620750427246
1773522022457718000,2.999718017578125,-16.527114868164062,29.3806095123291,31.036542892456055
1773522022467756300,3.00975634765625,-16.7845458984375,28.718103408813477,31.31825065612793
1773522022477795300,3.01979541015625,-17.0770263671875,27.774293899536133,31.728178024291992
1773522022487833300,3.029833251953125,-17.281845092773438,26.60965919494629,32.43299865722656
1773522022497871000,3.03987109375,-17.408248901367188,25.679319381713867,33.184669494628906
1773522022507910100,3.04991015625,-17.230941772460938,24.965639114379883,34.028106689453125
1773522022517948200,3.0599482421875,-17.4862060546875,23.967252731323242,34.598793029785156
1773522022527986200,3.069986083984375,-17.207107543945312,23.399255752563477,34.900699615478516
1773522022538025200,3.080025146484375,-17.462982177734375,22.954076766967773,35.095924377441406
1773522022548063200,3.090063232421875,-17.818756103515625,22.685575485229492,35.0813102722168
1773522022558101200,3.100101318359375,-18.1572265625,22.29426383972168,35.15485382080078
1773522022568140300,3.110140380859375,-18.876739501953125,22.030900955200195,35.01457595825195
1773522022578178000,3.120177978515625,-19.405166625976562,21.675382614135742,34.86088562011719
1773522022588216300,3.13021630859375,-19.51513671875,21.490480422973633,34.94768524169922
1773522022598255000,3.140255126953125,-19.246017456054688,21.252546310424805,35.159000396728516
1773522022608293400,3.15029345703125,-19.613082885742188,21.031293869018555,35.210899353027344
1773522022618332200,3.160332275390625,-19.385299682617188,20.5035457611084,35.45375061035156
1773522022628370200,3.1703701171875,-19.3388671875,19.9210147857666,35.75398254394531
1773522022638408200,3.180408203125,-19.568817138671875,19.359437942504883,35.93230438232422
1773522022648447200,3.190447265625,-19.581802368164062,18.860471725463867,36.15668487548828
1773522022658485200,3.2004853515625,-19.824508666992188,18.460134506225586,36.0948486328125
1773522022668523300,3.210523193359375,-20.358489990234375,18.525850296020508,35.950645446777344
1773522022678562000,3.22056201171875,-20.413681030273438,18.349428176879883,35.968406677246094
1773522022688600300,3.230600341796875,-20.480621337890625,18.192087173461914,35.79505157470703
1773522022698638000,3.24063818359375,-20.612075805664062,18.46232032775879,35.712257385253906
1773522022708677400,3.250677490234375,-20.975906372070312,18.84003257751465,35.37462615966797
1773522022718715100,3.260715087890625,-21.3323974609375,19.328271865844727,35.09716796875
1773522022728753400,3.27075341796875,-21.430450439453125,19.923627853393555,34.63893127441406
1773522022738792200,3.280792236328125,-21.953277587890625,20.96400260925293,33.84850311279297
1773522022748830200,3.290830322265625,-22.465713500976562,21.878267288208008,32.89563751220703
1773522022758868200,3.3008681640625,-23.592742919921875,23.063058853149414,31.560964584350586
1773522022768907300,3.3109072265625,-24.8026123046875,24.474973678588867,30.07093620300293
1773522022778945300,3.3209453125,-25.967025756835938,25.915189743041992,28.45700454711914
1773522022788983300,3.3309833984375,-26.7047119140625,27.629487991333008,26.593334197998047
1773522022799022000,3.34102197265625,-27.07684326171875,29.255800247192383,24.641239166259766
1773522022809060400,3.351060302734375,-27.395462036132812,30.536314010620117,23.199045181274414
1773522022819098000,3.36109814453125,-27.1353759765625,31.669408798217773,22.238656997680664
1773522022829137400,3.371137451171875,-26.717941284179688,32.48066711425781,21.642187118530273
1773522022839175200,3.381175048828125,-25.863662719726562,33.30162811279297,21.410194396972656
1773522022849214200,3.391214111328125,-25.066513061523438,34.035888671875,21.415916442871094
1773522022859252200,3.401252197265625,-23.58746337890625,34.582489013671875,21.560195922851562
1773522022869290200,3.411290283203125,-22.408889770507812,34.99268341064453,21.739227294921875
1773522022879329300,3.421329345703125,-21.492172241210938,35.51476287841797,21.993633270263672
1773522022889367300,3.4313671875,-20.960525512695312,36.177101135253906,21.907527923583984
1773522022899405300,3.4414052734375,-19.892425537109375,36.739585876464844,21.831989288330078
1773522022909444400,3.4514443359375,-19.171844482421875,37.368621826171875,21.46444320678711
1773522022919482000,3.461482177734375,-18.555282592773438,37.97270202636719,20.99641990661621
1773522022929520000,3.47152001953125,-17.985015869140625,38.64311981201172,20.586593627929688
1773522022939559200,3.48155908203125,-17.9063720703125,39.434410095214844,19.620525360107422
1773522022949597400,3.491597412109375,-17.991729736328125,40.021141052246094,18.709857940673828
1773522022959635200,3.50163525390625,-18.156158447265625,40.656517028808594,17.493385314941406
1773522022969674200,3.51167431640625,-17.994659423828125,41.49330139160156,16.047435760498047
1773522022979712300,3.521712158203125,-17.593414306640625,42.30804443359375,14.567935943603516
1773522022989750300,3.531750244140625,-17.613571166992188,43.00957489013672,12.852546691894531
1773522022999789300,3.541789306640625,-17.31561279296875,43.98567199707031,11.487144470214844
1773522023009827000,3.5518271484375,-16.8443603515625,44.301429748535156,10.430957794189453
1773522023019865300,3.561865234375,-16.670120239257812,44.55580139160156,9.791557312011719
1773522023029904400,3.571904296875,-17.007888793945312,44.538917541503906,9.23068618774414
1773522023039942100,3.581942138671875,-17.833251953125,44.280784606933594,8.73532485961914
1773522023049981400,3.5919814453125,-18.689620971679688,44.137481689453125,8.138771057128906
1773522023060019200,3.602019287109375,-19.57098388671875,44.00886535644531,7.751911163330078
1773522023070057200,3.61205712890625,-19.954345703125,43.86736297607422,7.571048736572266
1773522023080096300,3.62209619140625,-20.567337036132812,43.47779083251953,7.354896545410156
1773522023090134000,3.632134033203125,-20.733047485351562,43.34770202636719,7.191291809082031
1773522023100172300,3.64217236328125,-20.713516235351562,43.43366241455078,6.788776397705078
1773522023110211000,3.652211181640625,-20.724639892578125,43.55658721923828,6.438652038574219
1773522023120249300,3.662249267578125,-20.528152465820312,43.973785400390625,5.977367401123047
1773522023130287000,3.672287109375,-20.278045654296875,44.23387145996094,5.330028533935547
1773522023140326100,3.682326171875,-20.326889038085938,44.368919372558594,4.570285797119141
1773522023150364200,3.6923642578125,-20.000091552734375,44.74742126464844,3.7354049682617188
1773522023160402200,3.702402099609375,-19.905792236328125,45.01543426513672,2.8556861877441406
1773522023170438000,3.71243798828125,-19.77008056640625,45.208892822265625,2.1715431213378906
1773522023180475600,3.7224755859375,-19.541168212890625,45.295692443847656,1.6234550476074219
1773522023190514000,3.732513916015625,-19.541168212890625,45.295692443847656,1.6234550476074219
1773522023200552700,3.742552734375,-19.530471801757812,45.54308319091797,1.0869674682617188
1773522023210590700,3.7525908203125,-19.152267456054688,45.84693908691406,0.6322860717773438
1773522023220629800,3.762629638671875,-18.695938110351562,46.088134765625,0.40573883056640625
1773522023230667800,3.772667724609375,-18.057510375976562,46.12431335449219,0.4416236877441406
1773522023240705800,3.782705810546875,-17.993759155273438,46.476104736328125,0.570709228515625
1773522023250744800,3.792744873046875,-17.914306640625,46.47315979003906,0.9308891296386719
1773522023260782600,3.802782470703125,-17.506423950195312,46.365966796875,1.2702445983886719
1773522023270820900,3.81282080078125,-17.603897094726562,46.31859588623047,1.8336944580078125
1773522023280859600,3.822859619140625,-17.767303466796875,46.26750183105469,1.9674453735351562
1773522023290898000,3.83289794921875,-18.198623657226562,46.155174255371094,2.1420059204101562
1773522023300935700,3.842935791015625,-18.291183471679688,46.26922607421875,2.2565383911132812
1773522023310974700,3.852974609375,-18.231948852539062,46.24407958984375,2.292510986328125
1773522023321012700,3.8630126953125,-17.999343872070312,45.93994140625,2.4482040405273438
1773522023331050800,3.87305078125,-18.245803833007812,45.949432373046875,2.275341033935547
1773522023341089800,3.88308984375,-18.339752197265625,46.086761474609375,2.298877716064453
1773522023351127800,3.8931279296875,-18.056976318359375,46.20794677734375,2.239337921142578
1773522023361166600,3.90316650390625,-17.259353637695312,46.46443176269531,2.3591690063476562
1773522023371204900,3.913204833984375,-16.510498046875,46.85784912109375,2.4064483642578125
1773522023381243000,3.923242919921875,-15.4395751953125,47.238372802734375,2.359516143798828
1773522023391282000,3.933281982421875,-14.772064208984375,47.486358642578125,2.367816925048828
1773522023401319700,3.943319580078125,-14.333724975585938,47.873008728027344,2.1551475524902344
1773522023411357700,3.953357666015625,-13.752716064453125,47.91322326660156,1.9070053100585938
1773522023421396700,3.963396728515625,-13.463546752929688,47.93309783935547,1.7417068481445312
1773522023431434800,3.973434814453125,-13.88238525390625,48.04120635986328,1.2934341430664062
1773522023441472800,3.98347265625,-14.479446411132812,48.063323974609375,1.0635032653808594
1773522023451511800,3.99351171875,-15.0509033203125,47.89735412597656,0.9840011596679688
1773522023461549800,4.0035498046875,-15.372360229492188,47.630889892578125,0.9592018127441406
1773522023471587600,4.013587646484375,-16.315078735351562,47.36503601074219,0.68768310546875
1773522023481626600,4.023626708984375,-16.528121948242188,47.04883575439453,0.4385871887207031
1773522023491664600,4.03366455078125,-16.919769287109375,46.96990966796875,0.09608078002929688
1773522023501703000,4.043702880859375,-17.355331420898438,46.98779296875,-0.5168838500976562
1773522023511741700,4.05374169921875,-17.1556396484375,47.10762023925781,-1.1087226867675781
1773522023521779700,4.06377978515625,-16.861602783203125,47.195289611816406,-1.8352241516113281
1773522023531818800,4.07381884765625,-16.893753051757812,47.479454040527344,-2.1685333251953125
1773522023541856800,4.083856689453125,-16.737442016601562,47.48722839355469,-2.2372398376464844
1773522023551894800,4.093894775390625,-16.304595947265625,47.6268310546875,-2.1666183471679688
1773522023561933800,4.103933837890625,-16.387985229492188,47.69499969482422,-2.1079635620117188
1773522023571971600,4.1139716796875,-16.059814453125,47.790687561035156,-1.8524703979492188
1773522023582009900,4.124009765625,-15.516693115234375,47.96056365966797,-1.6937370300292969
1773522023592048600,4.134048583984375,-14.756301879882812,48.28532409667969,-1.4973526000976562
1773522023602086700,4.144086669921875,-14.2386474609375,48.33222198486328,-1.02679443359375
1773522023612124700,4.154124755859375,-13.355117797851562,48.36456298828125,-0.5618095397949219
1773522023622163700,4.164163818359375,-13.139205932617188,48.627479553222656,0.00215911865234375
1773522023632201700,4.17420166015625,-13.005996704101562,48.59246826171875,0.64251708984375
1773522023642239700,4.18423974609375,-12.84283447265625,48.49043273925781,1.2500762939453125
1773522023652278800,4.19427880859375,-12.722076416015625,48.564231872558594,1.4939804077148438
1773522023662316800,4.20431689453125,-12.920562744140625,48.352516174316406,1.619659423828125
1773522023672355600,4.21435546875,-12.94769287109375,48.25493621826172,1.6545982360839844
1773522023682393900,4.224393798828125,-13.350936889648438,48.2957763671875,1.3677253723144531
1773522023692431600,4.234431640625,-13.410614013671875,48.300758361816406,1.1954879760742188
1773522023702470700,4.244470703125,-13.539657592773438,48.2734375,1.0504608154296875
1773522023712508700,4.2545087890625,-13.634567260742188,48.098731994628906,1.1312370300292969
1773522023722546700,4.264546630859375,-13.51434326171875,48.31671142578125,1.5063667297363281
1773522023732585700,4.274585693359375,-12.823883056640625,48.383644104003906,1.8933868408203125
1773522023742623700,4.284623779296875,-12.267745971679688,48.375762939453125,2.5935020446777344
1773522023752661800,4.294661865234375,-11.676193237304688,48.48347473144531,3.2029647827148438
1773522023762700800,4.30470068359375,-10.7530517578125,48.795021057128906,3.8051605224609375
1773522023772738800,4.31473876953125,-9.78778076171875,48.808013916015625,4.368370056152344
1773522023782776800,4.32477685546875,-9.18621826171875,48.67378234863281,4.9861297607421875
1773522023792815600,4.334815673828125,-8.517532348632812,48.795196533203125,5.473766326904297
1773522023802854000,4.34485400390625,-8.026611328125,48.93292999267578,5.821922302246094
1773522023812892700,4.354892578125,-7.487640380859375,48.83045959472656,6.257778167724609
1773522023822930700,4.3649306640625,-6.7908782958984375,48.90406799316406,6.505626678466797
1773522023832968700,4.37496875,-6.147125244140625,48.903289794921875,6.798786163330078
1773522023843007700,4.3850078125,-5.162261962890625,48.779945373535156,7.055011749267578
1773522023853045800,4.395045654296875,-4.3924713134765625,48.83930969238281,7.231212615966797
1773522023863083800,4.405083740234375,-3.475189208984375,48.84185791015625,7.441192626953125
1773522023873122800,4.415122802734375,-2.9463958740234375,48.96745300292969,7.4672698974609375
1773522023883160800,4.425160888671875,-2.073822021484375,48.88896179199219,7.866367340087891
1773522023893198800,4.43519873046875,-2.133636474609375,48.93336486816406,7.935111999511719
1773522023903238000,4.44523779296875,-1.8507080078125,49.09828186035156,7.856586456298828
1773522023913275600,4.455275634765625,-1.4093017578125,49.162376403808594,8.128650665283203
1773522023923314000,4.46531396484375,-1.1664886474609375,49.099586486816406,8.435428619384766
1773522023933352700,4.475352783203125,-0.85552978515625,48.93592071533203,8.875598907470703
1773522023943390700,4.485390625,-0.7507476806640625,48.868255615234375,9.025558471679688
1773522023953429800,4.4954296875,-0.753143310546875,48.80773162841797,9.007282257080078
1773522023963467800,4.5054677734375,-0.66424560546875,48.85089111328125,9.103324890136719
1773522023973505800,4.515505859375,-0.321136474609375,48.8380126953125,9.10915756225586
1773522023983544800,4.525544921875,0.0525665283203125,48.69135284423828,9.103546142578125
1773522023993582800,4.535582763671875,0.392791748046875,48.7230224609375,8.978096008300781
1773522024003620900,4.545620849609375,0.3103179931640625,48.957725524902344,8.820438385009766
1773522024013659600,4.55565966796875,0.157440185546875,48.97509002685547,8.824188232421875
1773522024023698000,4.565697998046875,0.132110595703125,49.14593505859375,8.579753875732422
1773522024033735700,4.575735595703125,-0.30706787109375,49.00028991699219,8.45901107788086
1773522024043774700,4.585774658203125,-0.2987213134765625,49.058753967285156,8.238353729248047
1773522024053812700,4.595812744140625,-0.6092681884765625,49.037574768066406,7.821407318115234
1773522024063850800,4.605850830078125,-1.0059814453125,49.314292907714844,7.391719818115234
1773522024073889800,4.615889892578125,-1.193328857421875,49.465362548828125,6.727275848388672
1773522024083927600,4.625927490234375,-2.05133056640625,49.5731201171875,5.664646148681641
1773522024093966800,4.635966796875,-2.288726806640625,49.93168640136719,4.31414794921875
1773522024104004900,4.6460048828125,-2.7555389404296875,50.02928924560547,2.8950767517089844
1773522024114043000,4.65604296875,-3.0702667236328125,50.30439758300781,1.60137939453125
1773522024124082000,4.66608203125,-3.106414794921875,50.283782958984375,0.4355812072753906
1773522024134119700,4.67611962890625,-3.132171630859375,50.53730010986328,-0.5374336242675781
1773522024144157700,4.68615771484375,-3.21624755859375,50.42487335205078,-1.5105171203613281
1773522024154196700,4.69619677734375,-3.2700958251953125,50.50695037841797,-2.508892059326172
1773522024164234800,4.70623486328125,-3.1956634521484375,50.261863708496094,-3.1543502807617188
1773522024174272800,4.716272705078125,-3.85076904296875,50.32404327392578,-3.7987632751464844
1773522024184311800,4.726311767578125,-3.523590087890625,50.3155517578125,-3.9541893005371094
1773522024194349800,4.736349853515625,-3.7277984619140625,50.363739013671875,-3.821086883544922
1773522024204388900,4.746388916015625,-3.6172332763671875,50.21650695800781,-3.4908599853515625
1773522024214427000,4.756427001953125,-3.186981201171875,50.225624084472656,-2.9833335876464844
1773522024224464600,4.766464599609375,-3.5568084716796875,50.233177185058594,-3.218883514404297
1773522024234503700,4.776503662109375,-3.1983642578125,50.27674102783203,-3.2872657775878906
1773522024244541700,4.786541748046875,-3.2192535400390625,50.460121154785156,-3.3880844116210938
1773522024254579700,4.796579833984375,-2.4494476318359375,50.45826721191406,-3.674518585205078
1773522024264618800,4.80661865234375,-1.811279296875,50.56932067871094,-3.8363914489746094
1773522024274656800,4.81665673828125,-1.5966949462890625,50.51530456542969,-4.3721771240234375
1773522024284694800,4.82669482421875,-0.8954620361328125,50.41143035888672,-4.735942840576172
1773522024294733800,4.83673388671875,-0.351959228515625,50.57018280029297,-5.249973297119141
1773522024304771600,4.846771484375,-0.0079803466796875,50.57354736328125,-5.989955902099609
1773522024314809900,4.856809814453125,0.5333709716796875,50.56925964355469,-6.577960968017578
1773522024324848600,4.8668486328125,0.8143463134765625,50.51837158203125,-7.271148681640625
1773522024334887000,4.876886962890625,1.378936767578125,50.322296142578125,-7.557598114013672
1773522024344925700,4.88692578125,1.3719482421875,50.449920654296875,-8.041664123535156
1773522024354963700,4.896963623046875,1.5440826416015625,50.539817810058594,-8.151508331298828
1773522024365001700,4.907001708984375,1.8185882568359375,50.39453887939453,-8.386421203613281
1773522024375040800,4.917040771484375,2.2101287841796875,50.46513366699219,-8.53084945678711
1773522024385078800,4.927078857421875,2.130767822265625,50.40990447998047,-8.523124694824219
1773522024395116800,4.93711669921875,1.7914581298828125,50.40904998779297,-8.553577423095703
1773522024405155600,4.947155517578125,1.9367218017578125,50.452972412109375,-8.650665283203125
1773522024415193900,4.95719384765625,1.95074462890625,50.5556640625,-8.583076477050781
1773522024425231600,4.967231689453125,2.067291259765625,50.604881286621094,-8.582626342773438
1773522024435271000,4.97727099609375,2.0332794189453125,50.669647216796875,-8.5965576171875
1773522024445308700,4.98730859375,1.678466796875,50.59928894042969,-8.350395202636719
1773522024455347000,4.997346923828125,2.0029144287109375,50.53704833984375,-8.21109390258789
1773522024465385700,5.0073857421875,2.3031768798828125,50.43638610839844,-7.803119659423828
1773522024475423700,5.017423828125,2.075408935546875,50.55430603027344,-7.671375274658203
1773522024485462800,5.027462890625,1.6959991455078125,50.429954528808594,-7.3731842041015625
1773522024495500800,5.037500732421875,1.5569915771484375,50.4832763671875,-7.168479919433594
1773522024505538800,5.047538818359375,1.213165283203125,50.480506896972656,-6.933738708496094
1773522024515577900,5.057577880859375,1.269256591796875,50.63280487060547,-6.894939422607422
1773522024525615600,5.06761572265625,0.9364013671875,50.619224548339844,-6.717987060546875
1773522024535654000,5.07765380859375,0.9762115478515625,50.45940399169922,-6.312831878662109
1773522024545692700,5.087692626953125,0.9762115478515625,50.45940399169922,-6.312831878662109
1773522024555731000,5.09773095703125,1.1889495849609375,50.450965881347656,-5.925014495849609
1773522024565768700,5.107768798828125,1.382354736328125,50.500152587890625,-5.852710723876953
1773522024575807700,5.117807861328125,1.2033843994140625,50.51409912109375,-5.693775177001953
1773522024585845800,5.127845703125,0.8612823486328125,50.53038787841797,-5.5918731689453125
1773522024595884800,5.137884765625,1.26483154296875,50.451805114746094,-5.312797546386719
1773522024605922800,5.1479228515625,1.216278076171875,50.51142883300781,-4.966594696044922
1773522024615960800,5.1579609375,0.95465087890625,50.40826416015625,-4.710105895996094
1773522024625999600,5.16799951171875,0.9569091796875,50.53840637207031,-4.442234039306641
1773522024636038000,5.178037841796875,0.569793701171875,50.64569091796875,-4.0186920166015625
1773522024646075600,5.18807568359375,0.2443389892578125,50.639801025390625,-3.6356849670410156
1773522024656115000,5.198114990234375,-0.1044158935546875,50.431800842285156,-3.1050682067871094
1773522024666152700,5.208152587890625,-0.415557861328125,50.44550323486328,-2.548358917236328
1773522024676191000,5.21819091796875,-0.6462860107421875,50.388336181640625,-2.200366973876953
1773522024686229800,5.228229736328125,-1.263214111328125,50.347877502441406,-1.7712478637695312
1773522024696267800,5.238267822265625,-1.3904876708984375,50.3865966796875,-1.4051246643066406
1773522024706306800,5.248306884765625,-2.058990478515625,50.407684326171875,-1.2269325256347656
1773522024716344800,5.2583447265625,-2.4430084228515625,50.45947265625,-0.8945388793945312
1773522024726382800,5.2683828125,-2.791259765625,50.46174621582031,-0.47945404052734375
1773522024736422000,5.278421875,-3.1055145263671875,50.42962646484375,0.06433868408203125
1773522024746459600,5.288459716796875,-3.1019744873046875,50.30223083496094,0.47983551025390625
1773522024756498000,5.298497802734375,-3.2159881591796875,50.16239929199219,0.8549766540527344
1773522024766536700,5.30853662109375,-3.725189208984375,50.18095397949219,1.4168548583984375
1773522024776575000,5.318574951171875,-3.8353271484375,50.06476593017578,1.9385833740234375
1773522024786612700,5.32861279296875,-4.4068450927734375,50.004844665527344,2.5418968200683594
1773522024796651800,5.33865185546875,-4.7757568359375,49.93370819091797,3.442455291748047
1773522024806689800,5.348689697265625,-5.3421478271484375,49.671356201171875,4.15234375
1773522024816727600,5.3587275390625,-5.6478424072265625,49.563323974609375,5.067100524902344
1773522024826766800,5.368766845703125,-5.760009765625,49.262046813964844,6.066886901855469
1773522024836804900,5.378804931640625,-5.662261962890625,49.08777618408203,7.035160064697266
1773522024846843600,5.38884375,-5.5090789794921875,48.87403869628906,7.927909851074219
1773522024856882000,5.3988818359375,-5.5721893310546875,48.77867889404297,8.64126205444336
1773522024866919700,5.408919677734375,-5.4514312744140625,48.77001953125,9.461128234863281
1773522024876958700,5.418958740234375,-4.9534149169921875,48.329994201660156,10.29940414428711
1773522024886996700,5.428996826171875,-5.2460174560546875,48.12311553955078,11.201698303222656
1773522024897034800,5.43903466796875,-5.4176025390625,47.78465270996094,11.913185119628906
1773522024907073800,5.44907373046875,-5.353424072265625,47.777191162109375,12.597957611083984
1773522024917111600,5.459111572265625,-5.3149566650390625,47.613990783691406,13.301666259765625
1773522024927149800,5.46914990234375,-5.2187042236328125,47.50346374511719,13.744132995605469
1773522024937188900,5.47918896484375,-4.8308258056640625,47.442588806152344,14.188373565673828
1773522024947227000,5.489226806640625,-4.24951171875,47.243675231933594,14.542144775390625
1773522024957266000,5.499265869140625,-3.6574554443359375,47.19226837158203,14.830467224121094
1773522024967303700,5.5093037109375,-2.9674224853515625,47.34223937988281,15.093772888183594
1773522024977341700,5.519341796875,-2.3549652099609375,47.424827575683594,15.440895080566406
1773522024987380700,5.529380615234375,-2.3845977783203125,47.086280822753906,15.881881713867188
1773522024997418800,5.539418701171875,-2.1099700927734375,46.90626525878906,16.204051971435547
1773522025007456800,5.549456787109375,-2.2455596923828125,46.64710235595703,16.67251205444336
1773522025017495600,5.55949560546875,-2.4859771728515625,46.368011474609375,17.275959014892578
1773522025027533800,5.569533935546875,-2.89013671875,46.31104278564453,17.715179443359375
1773522025037571600,5.579571533203125,-3.5752410888671875,45.959075927734375,18.249797821044922
1773522025047611000,5.58961083984375,-4.2464599609375,45.616233825683594,18.777585983276367
1773522025057648600,5.599648681640625,-5.2474822998046875,45.25636291503906,19.42106056213379
1773522025067687000,5.60968701171875,-5.945526123046875,44.65459442138672,20.27911376953125
1773522025077725700,5.6197255859375,-6.3334197998046875,43.910255432128906,21.2043399810791
1773522025087763700,5.629763671875,-6.2166900634765625,43.18122100830078,22.278213500976562
1773522025097802800,5.639802734375,-6.3455963134765625,42.413726806640625,23.48416519165039
1773522025107840800,5.6498408203125,-5.416961669921875,41.606689453125,24.577865600585938
1773522025117878800,5.659878662109375,-4.6447601318359375,41.117713928222656,25.59441375732422
1773522025127917800,5.669917724609375,-4.2064971923828125,40.336814880371094,26.2662410736084
1773522025137955600,5.67995556640625,-3.7685089111328125,39.98413848876953,26.897811889648438
1773522025147993900,5.689993896484375,-3.7913818359375,39.08318328857422,27.673368453979492
1773522025158032600,5.70003271484375,-3.48236083984375,38.47218322753906,28.361467361450195
1773522025168071000,5.71007080078125,-3.113983154296875,37.664459228515625,29.48823356628418
1773522025178108700,5.720108642578125,-3.038604736328125,36.56487274169922,30.229778289794922
1773522025188147700,5.730147705078125,-2.841583251953125,35.44261169433594,31.078834533691406
1773522025198185700,5.740185791015625,-2.9967498779296875,34.366607666015625,31.849397659301758
1773522025208224800,5.750224853515625,-3.02880859375,33.53639221191406,32.33610534667969
1773522025218262800,5.7602626953125,-2.5312957763671875,33.231117248535156,32.54863739013672
1773522025228300800,5.77030078125,-2.354339599609375,33.252464294433594,32.44801712036133
1773522025238339800,5.78033984375,-2.4273529052734375,33.183929443359375,32.44287872314453
1773522025248377900,5.7903779296875,-2.48577880859375,33.43719482421875,32.19987106323242
1773522025258415600,5.80041552734375,-2.3614654541015625,33.59117126464844,32.020301818847656
1773522025268455000,5.810454833984375,-2.5016021728515625,33.75135803222656,32.05459213256836
1773522025278492700,5.82049267578125,-2.5783233642578125,33.62181854248047,31.945966720581055
1773522025288531000,5.830531005859375,-2.5020599365234375,33.765113830566406,31.88914680480957
1773522025298569700,5.84056982421875,-2.6965789794921875,33.7974853515625,31.93545913696289
1773522025308607700,5.850607666015625,-2.8945465087890625,34.013648986816406,32.14761734008789
1773522025318646800,5.860646728515625,-3.0731048583984375,33.98237609863281,31.829750061035156
1773522025328684800,5.870684814453125,-3.415069580078125,34.01496124267578,31.80771255493164
1773522025338722800,5.880722900390625,-4.326385498046875,33.86176300048828,31.702640533447266
1773522025348761900,5.890761962890625,-4.576202392578125,33.750328063964844,31.765424728393555
1773522025358799600,5.900799560546875,-4.7555999755859375,33.968650817871094,31.83234977722168
1773522025368838000,5.910837890625,-4.7615509033203125,34.06672668457031,31.68189239501953
1773522025378876700,5.920876708984375,-4.639068603515625,34.195648193359375,31.43868637084961
1773522025388915000,5.9309150390625,-4.142791748046875,34.30408477783203,31.358474731445312
1773522025398952700,5.94095263671875,-4.08502197265625,34.28636932373047,31.299198150634766
1773522025408991700,5.95099169921875,-4.01226806640625,34.581329345703125,31.08185577392578
1773522025419029800,5.96102978515625,-3.739654541015625,34.816307067871094,30.960779190063477
1773522025429068800,5.97106884765625,-3.660980224609375,35.125579833984375,30.862089157104492
1773522025439106800,5.98110693359375,-3.3400421142578125,35.29228973388672,30.545087814331055
1773522025449144800,5.991144775390625,-3.1350555419921875,35.495849609375,30.411977767944336
1773522025459183600,6.00118359375,-3.3069305419921875,35.67162322998047,30.029386520385742
1773522025469222000,6.011221923828125,-3.1048126220703125,36.0845947265625,29.748035430908203
1773522025479259600,6.021259765625,-3.71966552734375,36.126625061035156,29.644655227661133
1773522025489299000,6.031298828125,-4.0270538330078125,36.28606414794922,29.42188835144043
1773522025499336700,6.041336669921875,-3.7281341552734375,36.56073760986328,29.149063110351562
1773522025509375000,6.051375,-4.1447601318359375,36.78507995605469,28.875778198242188
1773522025519413800,6.061413818359375,-4.429412841796875,37.187828063964844,28.545358657836914
1773522025529451800,6.07145166015625,-4.277252197265625,37.35083770751953,28.387645721435547
1773522025539490800,6.08149072265625,-4.494659423828125,37.50824737548828,28.128063201904297
1773522025549528800,6.09152880859375,-4.6274261474609375,37.77558898925781,27.786195755004883
1773522025559566800,6.10156689453125,-5.0098114013671875,38.08667755126953,27.48021697998047
1773522025569606000,6.11160595703125,-4.8647003173828125,38.24456787109375,27.099994659423828
1773522025579643600,6.1216435546875,-5.05072021484375,38.253257751464844,26.99180030822754
1773522025589682000,6.131681884765625,-5.12127685546875,38.60931396484375,26.733539581298828
1773522025599720700,6.141720703125,-4.784423828125,38.725669860839844,26.572904586791992
1773522025609759000,6.151759033203125,-5.273681640625,38.68559265136719,26.401718139648438
1773522025619797800,6.1617978515625,-5.5090789794921875,38.94763946533203,26.22633934020996
1773522025629835800,6.171835693359375,-6.0525360107421875,38.99205780029297,26.244922637939453
1773522025639873800,6.181873779296875,-6.23785400390625,39.21002960205078,26.151029586791992
1773522025649912800,6.191912841796875,-6.4252166748046875,39.113311767578125,26.037250518798828
1773522025659950800,6.201950927734375,-6.8512725830078125,39.234100341796875,25.843093872070312
1773522025669988900,6.21198876953125,-6.8673553466796875,39.40827941894531,25.76826286315918
1773522025680027600,6.222027587890625,-7.238922119140625,39.249534606933594,25.79909896850586
1773522025690066000,6.23206591796875,-7.543182373046875,39.24181365966797,25.72550392150879
1773522025700103700,6.242103759765625,-7.7921600341796875,39.17454528808594,25.675804138183594
1773522025710143000,6.25214306640625,-8.213470458984375,39.170860290527344,25.533004760742188
1773522025720180700,6.2621806640625,-8.328445434570312,39.272850036621094,25.269620895385742
1773522025730219000,6.272218994140625,-8.32293701171875,39.36151885986328,25.265974044799805
1773522025740257800,6.2822578125,-8.677658081054688,39.364471435546875,25.159618377685547
1773522025750295800,6.2922958984375,-8.981460571289062,39.439697265625,24.9969482421875
1773522025760334800,6.3023349609375,-9.473953247070312,39.563011169433594,24.875057220458984
1773522025770372900,6.312372802734375,-9.672332763671875,39.57386016845703,24.64397621154785
1773522025780411000,6.322410888671875,-9.601531982421875,39.526885986328125,24.744863510131836
1773522025790450000,6.332449951171875,-10.011489868164062,39.55974578857422,24.429777145385742
1773522025800487700,6.34248779296875,-10.1348876953125,39.73297882080078,24.10831069946289
1773522025810526000,6.35252587890625,-10.65435791015625,39.797950744628906,24.026479721069336
1773522025820564700,6.362564697265625,-11.127685546875,39.90727996826172,23.82115364074707
1773522025830603000,6.37260302734375,-11.01885986328125,40.128990173339844,23.596879959106445
1773522025840641800,6.382641845703125,-11.346221923828125,40.23914337158203,23.268674850463867
1773522025850679800,6.3926796875,-11.5576171875,40.219947814941406,22.965286254882812
1773522025860717800,6.4027177734375,-11.804412841796875,40.18585968017578,22.943681716918945
1773522025870756900,6.4127568359375,-12.259735107421875,40.44096374511719,22.704551696777344
1773522025880795000,6.422794921875,-12.124237060546875,40.64839172363281,22.552288055419922
1773522025890833000,6.4328330078125,-12.23419189453125,40.59843444824219,22.322986602783203
1773522025900871700,6.44287158203125,-12.318603515625,40.599281311035156,22.161457061767578
1773522025910910000,6.452909912109375,-12.38934326171875,40.73285675048828,21.926015853881836
1773522025920947700,6.46294775390625,-12.38934326171875,40.73285675048828,21.926015853881836
1773522025930987000,6.472987060546875,-11.8983154296875,41.10746765136719,21.790868759155273
1773522025941024800,6.483024658203125,-12.024505615234375,41.220703125,21.51968765258789
1773522025951063800,6.493063720703125,-12.13641357421875,41.2923583984375,21.38196563720703
1773522025961101800,6.503101806640625,-11.951568603515625,41.475563049316406,21.273344039916992
1773522025971139800,6.513139892578125,-11.8209228515625,41.40436553955078,21.407445907592773
1773522025981179000,6.523178955078125,-11.467315673828125,41.43019104003906,21.41273307800293
1773522025991217000,6.533216796875,-11.424911499023438,41.55345916748047,21.375627517700195
1773522026001255000,6.5432548828125,-11.29364013671875,41.826507568359375,21.337602615356445
1773522026011294000,6.5532939453125,-10.9688720703125,41.72386932373047,21.240467071533203
1773522026021331700,6.563331787109375,-10.603103637695312,41.78276062011719,21.286067962646484
1773522026031369700,6.57336962890625,-10.40338134765625,41.55812072753906,21.415367126464844
1773522026041408800,6.58340869140625,-9.921401977539062,41.72393798828125,21.449493408203125
1773522026051446800,6.59344677734375,-9.812255859375,41.91465759277344,21.6071720123291
1773522026061485800,6.60348583984375,-9.127914428710938,41.794944763183594,21.78855323791504
1773522026071523800,6.61352392578125,-8.581863403320312,41.872596740722656,21.960405349731445
1773522026081561900,6.623561767578125,-8.117645263671875,41.70043182373047,22.097352981567383
1773522026091601000,6.633600830078125,-7.8138427734375,41.62841796875,22.291784286499023
1773522026101639000,6.643638916015625,-7.556793212890625,41.68517303466797,22.42499542236328
1773522026111676700,6.6536767578125,-7.19219970703125,41.51777648925781,22.44452667236328
1773522026121715700,6.6637158203125,-6.5509796142578125,41.728111267089844,22.654094696044922
1773522026131753700,6.673753662109375,-6.1490631103515625,41.58167266845703,22.68276023864746
1773522026141792800,6.683792724609375,-5.5929412841796875,41.46488952636719,22.752473831176758
1773522026151830800,6.693830810546875,-5.1327056884765625,41.674652099609375,22.89167022705078
1773522026161868800,6.703868896484375,-4.947265625,41.531524658203125,22.99066925048828
1773522026171907000,6.713906982421875,-4.6168670654296875,41.63006591796875,22.98892593383789
1773522026181944800,6.72394482421875,-4.1293792724609375,41.77240753173828,22.967470169067383
1773522026191983000,6.733983154296875,-3.75103759765625,41.648963928222656,23.115137100219727
1773522026202022000,6.74402197265625,-3.6536102294921875,41.56199645996094,23.085283279418945
1773522026212060000,6.754059814453125,-3.0859832763671875,41.76506805419922,23.095321655273438
1773522026222098000,6.764097900390625,-3.01019287109375,41.88807678222656,23.00716209411621
1773522026232137000,6.774136962890625,-2.85614013671875,41.770484924316406,22.987791061401367
1773522026242175000,6.784175048828125,-2.89471435546875,41.85575866699219,22.993837356567383
1773522026252214000,6.794214111328125,-2.939605712890625,42.005531311035156,23.111692428588867
1773522026262251800,6.804251708984375,-2.2644805908203125,41.847267150878906,23.36832618713379
1773522026272290000,6.8142900390625,-2.121917724609375,42.06968688964844,23.193267822265625
1773522026282328800,6.824328857421875,-2.5217742919921875,42.07799530029297,23.145246505737305
1773522026292367000,6.8343671875,-1.8925323486328125,42.16123962402344,23.101024627685547
1773522026302404900,6.84440478515625,-1.96856689453125,42.058502197265625,23.21525001525879
1773522026312444000,6.85444384765625,-1.9110870361328125,42.071998596191406,23.308069229125977
1773522026322482000,6.86448193359375,-1.61492919921875,42.065406799316406,23.32093048095703
1773522026332519700,6.874519775390625,-1.5643310546875,42.110267639160156,23.224708557128906
1773522026342559000,6.88455908203125,-1.397216796875,42.26292419433594,23.13433837890625
1773522026352596700,6.8945966796875,-1.139495849609375,42.133018493652344,23.296918869018555
1773522026362635800,6.9046357421875,-0.777130126953125,42.35302734375,23.326948165893555
1773522026372674000,6.914674072265625,-1.022735595703125,42.291954040527344,23.276308059692383
1773522026382711800,6.9247119140625,-0.663330078125,42.434349060058594,23.440044403076172
1773522026392751000,6.934751220703125,-0.59259033203125,42.10576629638672,23.413846969604492
1773522026402788900,6.944788818359375,-0.123992919921875,42.133819580078125,23.596797943115234
1773522026412827000,6.954826904296875,0.0386199951171875,42.101905822753906,23.41554832458496
1773522026422866000,6.964865966796875,0.145233154296875,42.08497619628906,23.4354305267334
1773522026432903700,6.974903564453125,0.4236297607421875,42.154632568359375,23.582429885864258
1773522026442943000,6.98494287109375,0.565185546875,41.974449157714844,23.602500915527344
1773522026452980700,6.994980712890625,0.899871826171875,42.07994842529297,23.61002540588379
1773522026463019000,7.00501904296875,0.9024200439453125,41.943702697753906,23.564146041870117
1773522026473058000,7.01505810546875,1.27655029296875,41.84302520751953,23.46502685546875
1773522026483095800,7.025095703125,1.5773468017578125,41.85197448730469,23.5891170501709
1773522026493133800,7.0351337890625,1.6636199951171875,41.79814910888672,23.653186798095703
1773522026503172900,7.0451728515625,1.84820556640625,41.87200927734375,23.538476943969727
1773522026513211000,7.0552109375,1.8265533447265625,41.80543518066406,23.688081741333008
1773522026523249000,7.065248779296875,2.151214599609375,41.843360900878906,23.58291244506836
1773522026533287700,7.07528759765625,2.50506591796875,41.72870635986328,23.85079002380371
1773522026543326000,7.085325927734375,2.6735992431640625,41.73412322998047,23.91996955871582
1773522026553364700,7.09536474609375,2.8357391357421875,41.62516784667969,23.827178955078125
1773522026563403000,7.105403076171875,2.989715576171875,41.4998779296875,23.84183692932129
1773522026573440800,7.115440673828125,2.92926025390625,41.38745880126953,23.744937896728516
1773522026583479800,7.125479736328125,3.1510772705078125,41.35261535644531,23.906368255615234
1773522026593517800,7.135517822265625,3.379486083984375,41.39752960205078,23.89257049560547
1773522026603555800,7.145555908203125,3.5280914306640625,41.37657165527344,23.830625534057617
1773522026613595000,7.155594970703125,3.59783935546875,41.36554718017578,23.78506088256836
1773522026623633000,7.1656328125,3.475067138671875,41.25146484375,23.750654220581055
1773522026633671000,7.1756708984375,3.3706512451171875,41.47620391845703,23.64775848388672
1773522026643710000,7.1857099609375,3.144073486328125,41.36981964111328,23.73879051208496
1773522026653747700,7.195747802734375,3.1417083740234375,41.46441650390625,23.68979263305664
1773522026663787000,7.205787109375,2.949798583984375,41.38689422607422,23.784549713134766
1773522026673824800,7.21582470703125,3.149139404296875,41.27131652832031,23.776248931884766
1773522026683863000,7.225863037109375,2.849395751953125,41.251007080078125,23.897695541381836
1773522026693901800,7.23590185546875,2.6352386474609375,41.112953186035156,23.749832153320312
1773522026703939800,7.24593994140625,2.37554931640625,41.02489471435547,23.837364196777344
1773522026713977900,7.255977783203125,2.27362060546875,41.2086181640625,23.82038116455078
1773522026724017000,7.266016845703125,2.0197296142578125,41.416603088378906,23.67644500732422
1773522026734055000,7.276054931640625,1.8863677978515625,41.64818572998047,23.782060623168945
1773522026744094000,7.286093994140625,1.203094482421875,41.513832092285156,23.664960861206055
1773522026754131700,7.296131591796875,1.08282470703125,41.720489501953125,23.47425651550293
1773522026764170000,7.306169921875,0.5108642578125,41.62928771972656,23.38943862915039
1773522026774208800,7.316208740234375,0.2557525634765625,41.65826416015625,23.387676239013672
1773522026784247000,7.3262470703125,0.0240936279296875,41.71742248535156,23.332233428955078
1773522026794284800,7.336284912109375,0.0260162353515625,41.56425476074219,23.22151756286621
1773522026804323800,7.34632373046875,-0.0812835693359375,41.66499328613281,23.26348304748535
1773522026814361900,7.35636181640625,-0.341766357421875,41.909507751464844,23.311885833740234
1773522026824400000,7.36639990234375,-0.575714111328125,41.959716796875,23.21400260925293
1773522026834439000,7.37643896484375,-0.7877197265625,41.87066650390625,23.17037010192871
1773522026844477000,7.386476806640625,-1.1158447265625,41.975975036621094,23.06749153137207
1773522026854515700,7.396515625,-1.31884765625,41.96727752685547,23.136913299560547
1773522026864554000,7.406553955078125,-1.3251495361328125,42.06884765625,22.991926193237305
1773522026874591700,7.416591796875,-1.062255859375,41.97528839111328,23.274364471435547
1773522026884631000,7.426631103515625,-1.1626739501953125,41.95256042480469,23.081741333007812
1773522026894668800,7.436668701171875,-1.5324249267578125,41.89918518066406,22.96624755859375
1773522026904707000,7.44670703125,-1.80084228515625,41.902923583984375,22.967161178588867
1773522026914745900,7.456745849609375,-1.88104248046875,42.15575408935547,22.88309669494629
1773522026924783900,7.466783935546875,-1.845733642578125,42.11724853515625,22.88850212097168
1773522026934823000,7.476822998046875,-1.71246337890625,42.012611389160156,22.844192504882812
1773522026944861000,7.48686083984375,-1.9181365966796875,42.18811798095703,22.84370994567871
1773522026954899000,7.49689892578125,-1.8715362548828125,42.14179992675781,22.79275894165039
1773522026964938000,7.50693798828125,-1.3299102783203125,42.21363830566406,22.85970115661621
1773522026974975700,7.516975830078125,-1.6588897705078125,42.14318084716797,22.785966873168945
1773522026985014000,7.527013916015625,-1.6485748291015625,42.066741943359375,22.820369720458984
1773522026995052800,7.537052734375,-1.619720458984375,42.00269317626953,23.01947784423828
1773522027005091000,7.547091064453125,-1.7373809814453125,42.01490783691406,23.106000900268555
1773522027015129900,7.5571298828125,-1.767822265625,41.927833557128906,23.362611770629883
1773522027025168000,7.56716796875,-1.8455047607421875,41.723663330078125,23.362619400024414
1773522027035206000,7.577205810546875,-1.978179931640625,41.99116516113281,23.2757625579834
1773522027045245000,7.587244873046875,-2.035186767578125,41.97233581542969,23.375484466552734
1773522027055283000,7.597282958984375,-2.0648956298828125,41.91520690917969,23.236862182617188
1773522027065321000,7.607321044921875,-1.742156982421875,41.87217712402344,23.244762420654297
1773522027075359700,7.61735986328125,-1.91070556640625,41.86674499511719,23.336511611938477
1773522027085398000,7.62739794921875,-1.4986572265625,41.927978515625,23.32004165649414
1773522027095435800,7.637435791015625,-1.3078765869140625,41.82611083984375,23.37217140197754
1773522027105475000,7.64747509765625,-0.9293365478515625,41.762542724609375,23.405324935913086
1773522027115512800,7.657512939453125,-0.4145660400390625,42.07697296142578,23.561798095703125
1773522027125551900,7.6675517578125,-0.06597900390625,42.10993957519531,23.63953971862793
1773522027135590000,7.67758984375,0.5270233154296875,42.143402099609375,23.283578872680664
1773522027145628000,7.6876279296875,0.958648681640625,42.37568664550781,23.236499786376953
1773522027155667000,7.6976669921875,1.3001708984375,42.4486083984375,23.195133209228516
1773522027165705000,7.707705078125,1.570892333984375,42.34014892578125,23.25300407409668
1773522027175743700,7.71774365234375,1.9545745849609375,42.43486785888672,23.17522621154785
1773522027185782800,7.72778271484375,1.9852752685546875,42.407676696777344,23.14209747314453
1773522027195820800,7.73782080078125,2.1553192138671875,42.480323791503906,23.185937881469727
1773522027205859800,7.74785986328125,2.3060302734375,42.33940887451172,23.428678512573242
1773522027215897900,7.75789794921875,1.9055938720703125,42.37458038330078,23.34134864807129
1773522027225935600,7.767935546875,1.4972076416015625,42.39842987060547,23.347681045532227
1773522027235975000,7.777974853515625,1.4276580810546875,42.275787353515625,23.382341384887695
1773522027246012700,7.7880126953125,1.0913848876953125,42.18830871582031,23.40218162536621
1773522027256051000,7.798051025390625,0.93670654296875,42.19532012939453,23.304170608520508
1773522027266089700,7.80808984375,0.93670654296875,42.19532012939453,23.304170608520508
1773522027276127700,7.818127685546875,1.0415496826171875,42.38334655761719,23.302562713623047
1773522027286165800,7.828165771484375,0.907318115234375,42.54090118408203,23.220277786254883
1773522027296204800,7.838204833984375,0.961639404296875,42.55445861816406,23.15477752685547
1773522027306242800,7.848242919921875,1.187530517578125,42.53522491455078,23.194351196289062
1773522027316281900,7.85828173828125,0.979888916015625,42.588233947753906,22.825387954711914
1773522027326319600,7.868319580078125,0.90814208984375,42.724159240722656,22.74168586730957
1773522027336358000,7.87835791015625,0.900726318359375,42.68791961669922,22.706369400024414
1773522027346396700,7.888396728515625,0.89361572265625,42.87865447998047,22.454517364501953
1773522027356435000,7.89843505859375,0.9505157470703125,42.789764404296875,22.538379669189453
1773522027366472700,7.90847265625,0.7938079833984375,43.01127624511719,22.14914321899414
1773522027376511700,7.91851171875,0.7451934814453125,42.93084716796875,22.087308883666992
1773522027386549800,7.9285498046875,0.3603973388671875,43.2161865234375,21.854360580444336
1773522027396588800,7.9385888671875,0.296783447265625,43.4884033203125,21.546445846557617
1773522027406626800,7.948626708984375,0.518035888671875,43.77159881591797,21.293663024902344
1773522027416664800,7.958664794921875,0.4666290283203125,43.720314025878906,21.158100128173828
1773522027426703600,7.96870361328125,0.6188507080078125,43.699378967285156,21.007694244384766
1773522027436742000,7.978741943359375,0.7859344482421875,43.86351013183594,20.872133255004883
1773522027446779600,7.988779541015625,0.634429931640625,44.038421630859375,20.917964935302734
1773522027456819000,7.99881884765625,0.5299835205078125,43.83141326904297,20.792409896850586
1773522027466856700,8.008856689453125,0.683868408203125,43.93150329589844,20.722835540771484
1773522027476895700,8.018895751953124,0.5772247314453125,43.972930908203125,20.6732120513916
1773522027486933800,8.028933837890625,0.762054443359375,43.85271453857422,20.720916748046875
1773522027496971800,8.0389716796875,0.363861083984375,43.919586181640625,20.853729248046875
1773522027507010800,8.0490107421875,-0.0121307373046875,44.012481689453125,20.71416473388672
1773522027517048800,8.059048828125,-0.0587158203125,43.905189514160156,20.63104248046875
1773522027527086800,8.0690869140625,-0.1011199951171875,43.99390411376953,20.541942596435547
1773522027537126000,8.0791259765625,-0.2524566650390625,44.06175231933594,20.530601501464844
1773522027547163600,8.08916357421875,0.033294677734375,44.24482727050781,20.580162048339844
1773522027557203000,8.099202880859375,-0.2583770751953125,44.027503967285156,20.44162940979004
1773522027567240700,8.10924072265625,-0.4652862548828125,44.17613220214844,20.42062759399414
1773522027577279000,8.119279052734376,-0.41278076171875,44.21778106689453,20.23828125
1773522027587317800,8.12931787109375,-0.517364501953125,44.23731994628906,20.33426284790039
1773522027597355800,8.139355712890625,-0.696136474609375,44.18763732910156,20.233787536621094
1773522027607393800,8.149393798828125,-0.9550018310546875,44.22522735595703,20.061742782592773
1773522027617432800,8.159432861328124,-1.1539154052734375,44.369041442871094,20.083589553833008
1773522027627470800,8.169470947265625,-0.912109375,44.22999572753906,20.032400131225586
1773522027637508900,8.1795087890625,-0.833099365234375,44.33354949951172,20.07320785522461
1773522027647547600,8.189547607421876,-0.98565673828125,44.297515869140625,19.96280288696289
1773522027657586000,8.1995859375,-0.9605712890625,44.438316345214844,19.902923583984375
1773522027667624700,8.209624755859375,-1.1929473876953125,44.52996826171875,19.956890106201172
1773522027677663000,8.2196630859375,-0.9802093505859375,44.48759460449219,19.9306583404541
1773522027687700700,8.22970068359375,-0.927001953125,44.51860046386719,19.981931686401367
1773522027697739800,8.23973974609375,-1.1436767578125,44.291053771972656,19.848297119140625
1773522027707777800,8.24977783203125,-1.117218017578125,44.40348815917969,19.78624725341797
1773522027717816800,8.25981689453125,-1.2364044189453125,44.49183654785156,19.730817794799805
1773522027727854800,8.269854736328124,-1.28778076171875,44.54058074951172,19.645803451538086
1773522027737892900,8.279892822265625,-1.3104248046875,44.62017059326172,19.509456634521484
1773522027747931600,8.289931640625,-1.2068023681640625,44.68626403808594,19.528722763061523
1773522027757970000,8.299969970703126,-1.0941162109375,44.758270263671875,19.361024856567383
1773522027768007700,8.310007568359374,-1.303466796875,44.68125915527344,19.409521102905273
1773522027778046700,8.320046630859375,-1.099395751953125,44.891700744628906,19.329051971435547
1773522027788084700,8.330084716796875,-1.4836883544921875,44.88928985595703,19.127248764038086
1773522027798123000,8.340123046875,-1.5592803955078125,44.886688232421875,19.045427322387695
1773522027808161800,8.350161865234375,-1.576171875,44.99592590332031,18.98633575439453
1773522027818199800,8.36019970703125,-1.4999847412109375,45.09960174560547,19.016456604003906
1773522027828238800,8.37023876953125,-1.6380462646484375,45.08819580078125,19.116592407226562
1773522027838276900,8.38027685546875,-1.5232391357421875,45.02955627441406,18.954158782958984
1773522027848315000,8.39031494140625,-1.6487274169921875,45.09953308105469,18.823909759521484
1773522027858354000,8.40035400390625,-1.4775848388671875,45.23809051513672,18.64263916015625
1773522027868391700,8.4103916015625,-1.46307373046875,45.34801483154297,18.46100616455078
1773522027878430000,8.420429931640625,-1.4236907958984375,45.42561340332031,18.44209098815918
1773522027888468700,8.43046875,-1.6736297607421875,45.32074737548828,18.398393630981445
1773522027898506800,8.4405068359375,-1.9322357177734375,45.36638641357422,18.477563858032227
1773522027908545800,8.4505458984375,-2.0347442626953125,45.521331787109375,18.26778221130371
1773522027918583800,8.460583740234375,-1.8370361328125,45.56036376953125,18.434200286865234
1773522027928621800,8.470621826171875,-2.071197509765625,45.415489196777344,18.327682495117188
1773522027938660900,8.480660888671874,-1.9011383056640625,45.462135314941406,18.17403793334961
1773522027948699000,8.490698974609375,-2.132659912109375,45.520057678222656,18.153165817260742
1773522027958737000,8.50073681640625,-2.1706085205078125,45.64335632324219,17.997295379638672
1773522027968775700,8.510775634765626,-2.179901123046875,45.84766387939453,18.021528244018555
1773522027978814000,8.52081396484375,-2.4501190185546875,45.87507629394531,17.682300567626953
1773522027988852700,8.530852783203125,-2.52166748046875,45.864173889160156,17.652986526489258
1773522027998890800,8.540890869140625,-2.5914459228515625,46.05547332763672,17.587005615234375
1773522028008928800,8.5509287109375,-2.7804412841796875,46.145225524902344,17.279794692993164
1773522028018967800,8.5609677734375,-3.00164794921875,46.30450439453125,17.162548065185547
1773522028029005800,8.571005859375,-2.5408172607421875,46.112281799316406,17.139591217041016
1773522028039043800,8.5810439453125,-2.1380615234375,46.23332977294922,16.91632080078125
1773522028049083000,8.591082763671874,-2.3743133544921875,46.349464416503906,16.939010620117188
1773522028059121000,8.601120849609375,-2.2137603759765625,46.308067321777344,16.887069702148438
1773522028069159700,8.61115966796875,-2.4206085205078125,46.41343688964844,16.779708862304688
1773522028079198000,8.621197998046876,-2.427001953125,46.392539978027344,16.696033477783203
1773522028089235700,8.631235595703124,-2.210784912109375,46.45884704589844,16.586692810058594
1773522028099274800,8.641274658203125,-2.250579833984375,46.409263610839844,16.68582534790039
1773522028109312800,8.651312744140625,-2.175811767578125,46.303245544433594,16.858718872070312
1773522028119350800,8.661350830078124,-2.3166351318359375,46.126380920410156,16.679607391357422
1773522028129389800,8.671389892578125,-2.5132904052734375,46.29338836669922,16.74258041381836
1773522028139427800,8.681427734375,-2.3436279296875,46.38121795654297,16.54825210571289
1773522028149467000,8.691466796875,-1.833038330078125,46.55921173095703,16.56058120727539
1773522028159505000,8.7015048828125,-1.900634765625,46.64185333251953,16.633636474609375
1773522028169542400,8.71154248046875,-1.896514892578125,46.78898620605469,16.49029541015625
1773522028179581400,8.72158154296875,-1.7555389404296875,46.691978454589844,16.406414031982422
1773522028189619200,8.731619140625,-2.020172119140625,46.66510009765625,16.345458984375
1773522028199658500,8.741658447265625,-1.77508544921875,46.723426818847656,16.22562026977539
1773522028209696300,8.7516962890625,-1.745452880859375,46.72137451171875,16.232471466064453
1773522028219734300,8.761734375,-1.7053070068359375,46.78582763671875,16.178878784179688
1773522028229773300,8.771773193359374,-1.933258056640625,46.696739196777344,16.27719497680664
1773522028239811000,8.78181103515625,-1.82550048828125,46.699249267578125,16.26101303100586
1773522028249849300,8.791849365234375,-1.509918212890625,46.70759582519531,16.337730407714844
1773522028259888000,8.80188818359375,-1.6779327392578125,46.648719787597656,16.23336410522461
1773522028269926400,8.811926513671875,-1.6563262939453125,46.64186096191406,16.235450744628906
1773522028279965400,8.82196533203125,-1.94342041015625,46.80260467529297,16.204341888427734
1773522028290003200,8.832003173828125,-2.0312957763671875,46.73017883300781,16.12966537475586
1773522028300041200,8.842041259765624,-1.76812744140625,46.74082946777344,16.25491714477539
1773522028310080300,8.852080322265625,-1.5539398193359375,46.76256561279297,16.182167053222656
1773522028320118300,8.8621181640625,-1.3302001953125,46.86076354980469,15.952049255371094
1773522028330156300,8.87215625,-1.7239532470703125,46.78450012207031,16.129119873046875
1773522028340195000,8.882195068359374,-1.990814208984375,46.66041564941406,15.989139556884766
1773522028350233300,8.8922333984375,-2.0781097412109375,46.739227294921875,15.96817398071289
1773522028360272400,8.9022724609375,-2.05377197265625,46.823646545410156,15.909210205078125
1773522028370310400,8.912310302734374,-2.2263031005859375,46.64247131347656,15.874374389648438
1773522028380348200,8.92234814453125,-2.1792755126953125,46.87584686279297,15.90179443359375
1773522028390387200,8.93238720703125,-2.1391448974609375,47.06739044189453,16.0142822265625
1773522028400425200,8.94242529296875,-1.9456787109375,46.933387756347656,16.042583465576172
1773522028410463200,8.952463134765624,-2.183258056640625,46.918617248535156,15.873908996582031
1773522028420502300,8.962502197265625,-2.2630462646484375,46.81639862060547,15.792064666748047
1773522028430540300,8.972540283203125,-2.3707275390625,46.89642333984375,15.88632583618164
1773522028440579000,8.9825791015625,-1.87628173828125,46.910797119140625,16.121963500976562
1773522028450617300,8.992617431640625,-1.7864227294921875,46.84052276611328,15.94204330444336
1773522028460655000,9.002655029296875,-1.6923980712890625,46.819541931152344,16.11773681640625
1773522028470694400,9.0126943359375,-1.7666015625,46.69975280761719,16.0238037109375
1773522028480732200,9.022732177734374,-1.6327362060546875,46.63011169433594,16.041091918945312
1773522028490770400,9.0327705078125,-1.5377349853515625,46.744354248046875,16.08847427368164
1773522028500809200,9.042809326171875,-1.5346832275390625,46.59400177001953,16.21631622314453
1773522028510847200,9.05284716796875,-1.9211578369140625,46.68193817138672,16.13697052001953
1773522028520886300,9.06288623046875,-1.9784698486328125,46.715362548828125,16.182231903076172
1773522028530924300,9.07292431640625,-1.7041778564453125,46.65873718261719,16.299785614013672
1773522028540962300,9.08296240234375,-1.7027435302734375,46.60264587402344,16.202239990234375
1773522028551001300,9.09300146484375,-1.566802978515625,46.663429260253906,16.28777313232422
1773522028561039000,9.1030390625,-1.485015869140625,46.762428283691406,16.293922424316406
1773522028571077400,9.113077392578125,-1.279052734375,46.66899871826172,16.299022674560547
1773522028581116200,9.1231162109375,-1.233795166015625,46.7630615234375,16.392738342285156
1773522028591154400,9.133154541015625,-1.7194061279296875,46.73583984375,16.314701080322266
1773522028601193200,9.143193115234375,-1.373321533203125,46.782684326171875,16.251544952392578
1773522028611231200,9.153231201171875,-1.2424468994140625,46.78794860839844,16.28249740600586
1773522028621269200,9.163269287109374,-1.32049560546875,46.65685272216797,16.39043426513672
1773522028631308300,9.173308349609375,-1.32049560546875,46.65685272216797,16.39043426513672
1773522028641346300,9.18334619140625,-1.4319305419921875,46.74153137207031,16.442256927490234
1773522028651385300,9.19338525390625,-1.72283935546875,46.67680358886719,16.414649963378906
1773522028661423000,9.203423095703124,-1.485260009765625,46.74723815917969,16.24685287475586
1773522028671461400,9.21346142578125,-1.501861572265625,46.84019470214844,16.342803955078125
1773522028681500200,9.223500244140626,-1.25860595703125,46.90071105957031,16.290252685546875
1773522028691538400,9.233538330078124,-1.2517852783203125,46.75695037841797,16.334232330322266
1773522028701576200,9.243576171875,-1.2252197265625,46.605194091796875,16.283172607421875
1773522028711615200,9.253615234375,-1.383636474609375,46.70000457763672,16.182785034179688
1773522028721653200,9.2636533203125,-1.3563079833984375,46.69609832763672,16.307506561279297
1773522028731692300,9.2736923828125,-1.1168670654296875,46.848121643066406,16.509441375732422
1773522028741730300,9.283730224609375,-1.607940673828125,46.782562255859375,16.36833953857422
1773522028751768300,9.293768310546875,-1.5268402099609375,46.90435028076172,16.326194763183594
1773522028761807000,9.30380712890625,-1.3784027099609375,46.82826232910156,16.26788330078125
1773522028771845400,9.313845458984375,-1.46295166015625,46.848419189453125,16.34345245361328
1773522028781883100,9.323883056640625,-0.992919921875,46.89179229736328,16.372940063476562
1773522028791922400,9.33392236328125,-1.275787353515625,46.8497314453125,16.353408813476562
1773522028801960200,9.343960205078124,-1.4741363525390625,46.896141052246094,16.471420288085938
1773522028811999200,9.353999267578125,-1.586151123046875,46.84789276123047,16.40353012084961
1773522028822037200,9.364037353515625,-1.5618133544921875,46.800254821777344,16.31578826904297
1773522028832075300,9.3740751953125,-1.6043548583984375,46.657623291015625,16.432918548583984
1773522028842114300,9.3841142578125,-1.3663482666015625,46.638526916503906,16.45513153076172
1773522028852152300,9.39415234375,-1.672088623046875,46.73017883300781,16.457569122314453
1773522028862191000,9.404191162109376,-1.776123046875,46.6932373046875,16.400875091552734
1773522028872229400,9.4142294921875,-1.5933074951171875,46.710052490234375,16.39087677001953
1773522028882267100,9.42426708984375,-2.07244873046875,46.529624938964844,16.361526489257812
1773522028892306400,9.434306396484375,-2.1513519287109375,46.48698425292969,16.336483001708984
1773522028902344200,9.44434423828125,-2.0558013916015625,46.617523193359375,16.319976806640625
1773522028912382500,9.454382568359375,-2.1318359375,46.7584228515625,16.354938507080078
1773522028922421200,9.464421142578125,-2.143829345703125,46.70417785644531,16.527568817138672
1773522028932459300,9.474459228515625,-2.93701171875,46.56889343261719,16.477222442626953
1773522028942498300,9.484498291015624,-3.0753173828125,46.552406311035156,16.440616607666016
1773522028952536300,9.494536376953125,-3.2859344482421875,46.472755432128906,16.498783111572266
1773522028962574300,9.50457421875,-3.494140625,46.35798645019531,16.417964935302734
1773522028972613400,9.51461328125,-3.6008758544921875,46.42181396484375,16.44350814819336
1773522028982651100,9.524651123046874,-3.47332763671875,46.47904968261719,16.412986755371094
1773522028992689400,9.534689453125,-3.5539093017578125,46.48571014404297,16.283153533935547
1773522029002728200,9.544728271484376,-3.7981719970703125,46.58574676513672,16.222320556640625
1773522029012766500,9.554766357421874,-4.1414947509765625,46.637062072753906,16.268829345703125
1773522029022805200,9.56480517578125,-4.489288330078125,46.612098693847656,16.201213836669922
1773522029032843300,9.57484326171875,-4.6107330322265625,46.722023010253906,16.177242279052734
1773522029042881300,9.58488134765625,-4.687225341796875,46.48612976074219,16.17150115966797
1773522029052920300,9.59492041015625,-4.9954681396484375,46.51482391357422,16.15624237060547
1773522029062958300,9.604958251953125,-4.9592132568359375,46.68175506591797,16.184734344482422
1773522029072997400,9.614997314453126,-5.245513916015625,46.50719451904297,16.31390380859375
1773522029083035100,9.62503515625,-5.4457855224609375,46.470863342285156,16.24411392211914
1773522029093073400,9.635073486328125,-5.4541778564453125,46.46794891357422,16.153385162353516
1773522029103112200,9.6451123046875,-5.0578765869140625,46.52742004394531,16.14330291748047
1773522029113150500,9.655150390625,-5.134735107421875,46.47926330566406,16.16747283935547
1773522029123188200,9.665188232421874,-5.1951446533203125,46.650367736816406,16.140064239501953
1773522029133227300,9.675227294921875,-5.0227813720703125,46.553619384765625,16.210445404052734
1773522029143265300,9.685265380859375,-4.9469757080078125,46.51427459716797,16.18848419189453
1773522029153304300,9.69530419921875,-4.896697998046875,46.73033142089844,16.303104400634766
1773522029163342300,9.70534228515625,-5.0696563720703125,46.48130798339844,16.35263442993164
1773522029173380400,9.71538037109375,-4.7359619140625,46.47679138183594,16.348983764648438
1773522029183419400,9.72541943359375,-4.554046630859375,46.417808532714844,16.469928741455078
1773522029193457400,9.73545751953125,-4.86627197265625,46.41350555419922,16.455425262451172
1773522029203495400,9.745495361328125,-4.8715667724609375,46.31703186035156,16.654010772705078
1773522029213534500,9.755534423828125,-5.105712890625,46.34760284423828,16.57229995727539
1773522029223572500,9.765572509765626,-4.5224761962890625,46.234107971191406,16.703197479248047
1773522029233611300,9.775611328125,-4.780548095703125,46.39708709716797,16.60928726196289
1773522029243649500,9.7856494140625,-5.245513916015625,46.344451904296875,16.63686752319336
1773522029253687300,9.795687255859375,-5.0222320556640625,46.34221649169922,16.716651916503906
1773522029263726600,9.8057265625,-5.388275146484375,46.351539611816406,16.67711639404297
1773522029273764400,9.815764404296875,-5.1829833984375,46.26795959472656,16.57904815673828
1773522029283803400,9.825803466796875,-5.1153411865234375,46.1788330078125,16.62479019165039
1773522029293841400,9.83584130859375,-5.758026123046875,46.16668701171875,16.655502319335938
1773522029303879400,9.84587939453125,-5.7109222412109375,46.286048889160156,16.67148208618164
1773522029313918500,9.85591845703125,-5.6222076416015625,46.323150634765625,16.666030883789062
1773522029323956500,9.86595654296875,-5.7169647216796875,46.17376708984375,16.742427825927734
1773522029333994500,9.875994384765624,-5.709197998046875,46.058387756347656,16.783405303955078
1773522029344033500,9.886033447265625,-5.5565185546875,46.027122497558594,16.937381744384766
1773522029354071300,9.8960712890625,-5.7046966552734375,46.113304138183594,16.72425079345703
1773522029364110600,9.906110595703124,-5.5073089599609375,46.308692932128906,16.753082275390625
1773522029374148400,9.9161484375,-5.341644287109375,46.15746307373047,16.715343475341797
1773522029384186600,9.9261865234375,-5.3620758056640625,46.287879943847656,16.77153778076172
1773522029394225400,9.936225341796876,-4.812652587890625,46.175315856933594,16.98929214477539
1773522029404263400,9.946263427734374,-4.4895477294921875,46.19599151611328,16.837291717529297
1773522029414301400,9.956301513671875,-4.3801422119140625,46.08636474609375,16.952716827392578
1773522029424340500,9.966340576171875,-4.38031005859375,46.21376037597656,16.812835693359375
1773522029434378500,9.97637841796875,-4.09149169921875,46.280853271484375,16.902389526367188
1773522029444417500,9.98641748046875,-3.9209442138671875,46.25597381591797,16.951562881469727
1773522029454455300,9.996455322265625,-3.7465362548828125,46.306358337402344,16.875370025634766
1773522029464493600,10.00649365234375,-3.65618896484375,46.387908935546875,17.08757209777832
1773522029474532400,10.016532470703124,-3.4912567138671875,46.22191619873047,17.01518440246582
1773522029484570600,10.026570556640625,-3.1505584716796875,46.28160858154297,17.036510467529297
1773522029494609400,10.036609375,-3.2208251953125,46.31132507324219,17.111448287963867
1773522029504647400,10.0466474609375,-3.10162353515625,46.19770812988281,17.185184478759766
1773522029514685400,10.056685546875,-3.197662353515625,46.253196716308594,17.183639526367188
1773522029524724500,10.066724365234375,-2.9686737060546875,46.25758361816406,17.124067306518555
1773522029534762500,10.076762451171875,-2.8157806396484375,46.448211669921875,17.290578842163086
1773522029544800500,10.086800537109376,-3.0211334228515625,46.436065673828125,17.186433792114258
1773522029554839300,10.09683935546875,-3.116455078125,46.27392578125,17.114580154418945
1773522029564877600,10.106877685546875,-3.0438385009765625,46.28648376464844,17.120437622070312
1773522029574916400,10.116916259765626,-2.901214599609375,46.31830596923828,17.0804386138916
1773522029584954600,10.12695458984375,-2.8787994384765625,46.122955322265625,17.121057510375977
1773522029594992400,10.136992431640625,-3.1816253662109375,46.150367736816406,17.124923706054688
1773522029605031400,10.147031494140625,-3.24212646484375,46.161766052246094,17.10308837890625
1773522029615069400,10.1570693359375,-3.3378143310546875,46.16703796386719,17.085969924926758
1773522029625107500,10.167107421875,-3.5769805908203125,46.34315490722656,17.053884506225586
1773522029635146500,10.177146484375,-3.6707000732421875,46.429473876953125,16.903060913085938
1773522029645184500,10.1871845703125,-3.63555908203125,46.56556701660156,16.917728424072266
1773522029655223300,10.197223388671874,-3.6973724365234375,46.489715576171875,16.718875885009766
1773522029665261600,10.207261474609375,-3.4472808837890625,46.401466369628906,16.822704315185547
1773522029675299300,10.21729931640625,-3.6421356201171875,46.290748596191406,16.922630310058594
1773522029685338600,10.227338623046874,-3.1411285400390625,46.379180908203125,16.710643768310547
1773522029695376400,10.23737646484375,-3.751708984375,46.4158935546875,16.708263397216797
1773522029705415400,10.24741552734375,-3.965301513671875,46.465728759765625,16.529022216796875
1773522029715453400,10.257453369140626,-3.863189697265625,46.59198760986328,16.499732971191406
1773522029725491500,10.267491455078124,-3.972564697265625,46.46802520751953,16.381866455078125
1773522029735530500,10.277530517578125,-3.826873779296875,46.50215148925781,16.29568099975586
1773522029745568500,10.287568603515625,-3.7490081787109375,46.44715118408203,16.443931579589844
1773522029755606500,10.2976064453125,-3.755615234375,46.39903259277344,16.402320861816406
1773522029765645600,10.3076455078125,-3.479400634765625,46.266510009765625,16.557952880859375
1773522029775683300,10.317683349609375,-3.78900146484375,46.36865997314453,16.539958953857422
1773522029785722400,10.327722412109376,-3.6898345947265625,46.48814392089844,16.36127471923828
1773522029795760400,10.337760498046874,-3.9465484619140625,46.63550567626953,16.4945068359375
1773522029805798700,10.347798583984375,-3.72259521484375,46.60596466064453,16.40027618408203
1773522029815837400,10.35783740234375,-3.522735595703125,46.686424255371094,16.412437438964844
1773522029825875500,10.36787548828125,-3.3287506103515625,46.657867431640625,16.38037872314453
1773522029835913500,10.37791357421875,-3.45257568359375,46.55101776123047,16.219085693359375
1773522029845952500,10.387952392578125,-3.31024169921875,46.65997314453125,16.304370880126953
1773522029855990500,10.397990478515625,-3.5203399658203125,46.37529754638672,16.259098052978516
1773522029866029600,10.408029541015624,-3.45489501953125,46.620521545410156,16.310977935791016
1773522029876067300,10.4180673828125,-3.459442138671875,46.48338317871094,16.311538696289062
1773522029886105300,10.428105224609375,-3.48675537109375,46.62278747558594,16.052204132080078
1773522029896144400,10.438144287109376,-3.382110595703125,46.62841796875,16.155780792236328
1773522029906182400,10.448182373046874,-3.204925537109375,46.58856201171875,16.320148468017578
1773522029916220400,10.458220458984375,-3.44500732421875,46.45433044433594,16.244213104248047
1773522029926259500,10.468259521484375,-3.112762451171875,46.521514892578125,16.15073013305664
1773522029936297500,10.47829736328125,-2.952850341796875,46.563499450683594,16.03359603881836
1773522029946336500,10.48833642578125,-3.1050567626953125,46.68855285644531,16.111896514892578
1773522029956374500,10.49837451171875,-3.253387451171875,46.7442626953125,16.28679656982422
1773522029966412300,10.508412353515626,-3.0808258056640625,46.71824645996094,16.165916442871094
1773522029976451300,10.518451416015624,-3.0808258056640625,46.71824645996094,16.165916442871094
1773522029986489300,10.5284892578125,-3.3248291015625,46.615478515625,16.242351531982422
1773522029996528400,10.5385283203125,-3.2462921142578125,46.64479064941406,16.10430908203125
1773522030006566400,10.54856640625,-3.2833251953125,46.70526123046875,16.13555908203125
1773522030016604400,10.5586044921875,-2.9421539306640625,46.71775817871094,16.228626251220703
1773522030026643500,10.5686435546875,-2.9609375,46.82450866699219,16.039981842041016
1773522030036681500,10.578681396484376,-3.1683349609375,46.90552520751953,16.10805892944336
1773522030046719200,10.58871923828125,-3.2410736083984375,46.88056945800781,16.030315399169922
1773522030056758500,10.598758544921875,-3.24261474609375,46.947654724121094,15.990001678466797
1773522030066796300,10.60879638671875,-3.16119384765625,46.84056854248047,16.076980590820312
1773522030076835300,10.61883544921875,-3.0932464599609375,46.89031219482422,15.984302520751953
1773522030086873600,10.62887353515625,-2.7252349853515625,46.87700653076172,16.08139419555664
1773522030096911400,10.638911376953125,-2.7855072021484375,46.90789794921875,15.99221420288086
1773522030106950400,10.648950439453126,-2.9009857177734375,46.86039733886719,16.25157928466797
1773522030116988400,10.658988525390624,-3.245452880859375,46.89128112792969,16.003833770751953
1773522030127027500,10.66902734375,-3.03802490234375,46.863922119140625,16.08401870727539
1773522030137065500,10.6790654296875,-3.2237548828125,46.949432373046875,16.06285858154297
1773522030147103200,10.689103271484376,-3.0797119140625,46.87132263183594,16.166255950927734
1773522030157142500,10.699142578125,-3.1076507568359375,46.92543029785156,16.307804107666016
1773522030167180300,10.70918017578125,-3.3498382568359375,46.874794006347656,16.12933349609375
1773522030177222400,10.719222412109374,-3.4511566162109375,46.74561309814453,16.108917236328125
1773522030187261700,10.72926171875,-3.4647216796875,46.552833557128906,16.178470611572266
1773522030197299500,10.739299560546876,-3.3648681640625,46.457603454589844,16.24456024169922
1773522030207338500,10.74933837890625,-3.0670623779296875,46.6864013671875,16.269638061523438
1773522030217376500,10.75937646484375,-3.230010986328125,46.644020080566406,16.185810089111328
1773522030227414500,10.76941455078125,-3.240814208984375,46.70771789550781,16.11429214477539
1773522030237453600,10.77945361328125,-3.1183624267578125,46.72074890136719,16.135528564453125
1773522030247491600,10.78949169921875,-3.0400848388671875,46.616661071777344,16.309101104736328
1773522030257529600,10.799529541015625,-3.2488861083984375,46.64372253417969,16.16461181640625
1773522030267568600,10.809568603515626,-3.5855865478515625,46.771202087402344,16.01665496826172
1773522030277606400,10.8196064453125,-3.3000640869140625,46.644073486328125,16.052833557128906
1773522030287645700,10.829645751953125,-3.3839569091796875,46.70275115966797,16.08864974975586
1773522030297683500,10.839683349609375,-3.2345123291015625,46.78028869628906,16.281787872314453
1773522030307721700,10.8497216796875,-3.192108154296875,46.72844696044922,16.026412963867188
1773522030317760500,10.859760498046874,-3.562713623046875,46.64130401611328,16.17251968383789
1773522030327798500,10.869798583984375,-3.37091064453125,46.673919677734375,16.165908813476562
1773522030337836500,10.87983642578125,-3.633636474609375,46.67424011230469,16.052127838134766
1773522030347875600,10.88987548828125,-3.788299560546875,46.693443298339844,16.152679443359375
1773522030357913600,10.89991357421875,-3.7427520751953125,46.74639892578125,15.954814910888672
1773522030367952600,10.90995263671875,-3.775054931640625,46.59278106689453,16.075740814208984
1773522030377990400,10.919990478515626,-3.697357177734375,46.77888488769531,15.992877960205078
1773522030388028400,10.9300283203125,-4.09307861328125,46.80530548095703,15.972087860107422
1773522030398067500,10.9400673828125,-3.944580078125,46.664459228515625,16.150325775146484
1773522030408105700,10.950105712890625,-3.9203033447265625,46.72356414794922,15.989566802978516
1773522030418143500,10.9601435546875,-4.1772613525390625,46.70501708984375,16.055252075195312
1773522030428182500,10.9701826171875,-4.28460693359375,46.61357116699219,16.082298278808594
1773522030438220500,10.980220458984375,-3.9776763916015625,46.690513610839844,16.241512298583984
1773522030448259600,10.990259521484376,-4.1217193603515625,46.5731201171875,16.201679229736328
1773522030458297600,11.000297607421874,-3.89825439453125,46.64697265625,15.935443878173828
1773522030468335400,11.01033544921875,-4.0318450927734375,46.56739807128906,16.104297637939453
1773522030478374400,11.02037451171875,-4.1081695556640625,46.62645721435547,16.00766372680664
1773522030488412400,11.030412353515626,-4.033721923828125,46.81268310546875,16.10898208618164
1773522030498450400,11.040450439453124,-4.2294921875,46.69379425048828,16.04024887084961
1773522030508489700,11.05048974609375,-3.7999725341796875,46.51085662841797,16.090068817138672
1773522030518527500,11.060527587890626,-4.12615966796875,46.60542297363281,16.09943389892578
1773522030528566500,11.07056640625,-4.017669677734375,46.63520812988281,15.998672485351562
1773522030538604500,11.0806044921875,-4.26776123046875,46.77928161621094,16.067886352539062
1773522030548642300,11.090642333984375,-4.238739013671875,46.75341796875,16.0064697265625
1773522030558681600,11.100681640625,-4.048248291015625,46.61625671386719,15.863903045654297
1773522030568719400,11.11071923828125,-3.932098388671875,46.59284973144531,15.99135971069336
1773522030578757600,11.120757568359375,-3.981048583984375,46.81598663330078,16.038394927978516
1773522030588796700,11.130796630859376,-3.651641845703125,46.852622985839844,15.905487060546875
1773522030598834400,11.14083447265625,-3.6351470947265625,46.88744354248047,15.947990417480469
1773522030608873700,11.150873779296875,-3.889892578125,46.869606018066406,15.95871353149414
1773522030618911500,11.160911376953125,-3.878082275390625,46.76676940917969,16.060619354248047
1773522030628949500,11.170949462890626,-3.9480743408203125,46.695289611816406,16.197147369384766
1773522030638988500,11.180988525390624,-3.8584442138671875,46.61552429199219,16.144405364990234
1773522030649026300,11.1910263671875,-4.1241607666015625,46.74064636230469,16.127933502197266
1773522030659064600,11.201064697265625,-4.1234283447265625,46.67626190185547,16.027599334716797
1773522030669103400,11.211103271484374,-3.940582275390625,46.70110321044922,16.044422149658203
1773522030679141600,11.2211416015625,-4.0704345703125,46.69178009033203,16.06148910522461
1773522030689179400,11.231179443359375,-3.7408905029296875,46.50806427001953,16.13060760498047
1773522030699218400,11.241218505859376,-3.829742431640625,46.65473937988281,16.10293960571289
1773522030709256400,11.25125634765625,-3.848663330078125,46.71148681640625,16.19088363647461
1773522030719295500,11.26129541015625,-3.6987152099609375,46.813323974609375,16.358314514160156
1773522030729333500,11.27133349609375,-3.8978271484375,46.780723571777344,16.157855987548828
1773522030739371500,11.28137158203125,-3.84136962890625,46.661163330078125,16.228717803955078
1773522030749410300,11.291410400390625,-3.7108612060546875,46.806549072265625,16.246253967285156
1773522030759448600,11.301448486328125,-3.75445556640625,46.60736846923828,16.141616821289062
1773522030769486300,11.311486328125,-3.5767669677734375,46.72301483154297,16.334476470947266
1773522030779525600,11.321525634765624,-3.6114959716796875,46.69749450683594,16.139957427978516
1773522030789563400,11.3315634765625,-3.8123779296875,46.58898162841797,16.06505584716797
1773522030799602400,11.3416025390625,-3.9420166015625,46.88745880126953,15.944644927978516
1773522030809640400,11.351640380859376,-4.0918121337890625,46.705535888671875,15.919750213623047
1773522030819678500,11.361678466796874,-3.8191680908203125,46.92884826660156,15.971076965332031
1773522030829717500,11.371717529296875,-3.6828155517578125,46.790130615234375,16.14502716064453
1773522030839755500,11.381755615234376,-4.1911163330078125,46.588111877441406,15.985786437988281
1773522030849793500,11.39179345703125,-4.0573577880859375,46.72753143310547,15.928951263427734
1773522030859832600,11.40183251953125,-4.006927490234375,46.72236633300781,16.014118194580078
1773522030869870300,11.411870361328125,-4.162506103515625,46.78485870361328,15.843955993652344
1773522030879909600,11.42190966796875,-4.39935302734375,46.77098083496094,15.934398651123047
1773522030889947400,11.431947509765624,-4.2974853515625,46.73460388183594,15.850574493408203
1773522030899985700,11.441985595703125,-4.0659027099609375,46.75542449951172,15.790660858154297
1773522030910024400,11.4520244140625,-3.6642913818359375,46.63714599609375,16.146305084228516
1773522030920062500,11.4620625,-3.8824310302734375,46.781578063964844,15.912609100341797
1773522030930100500,11.4721005859375,-3.98162841796875,46.806610107421875,15.931964874267578
1773522030940139500,11.482139404296875,-4.132568359375,46.67591857910156,15.844654083251953
1773522030950177500,11.492177490234376,-3.950775146484375,46.744239807128906,15.965465545654297
1773522030960215600,11.502215576171874,-3.9573516845703125,46.88677215576172,15.906211853027344
1773522030970254300,11.51225439453125,-4.0015106201171875,46.82330322265625,15.809410095214844
1773522030980292600,11.522292724609375,-4.3093719482421875,46.89160919189453,15.837432861328125
1773522030990331400,11.532331298828124,-4.3777008056640625,46.95252990722656,15.749282836914062
1773522031000369700,11.54236962890625,-4.375762939453125,47.073516845703125,15.712852478027344
1773522031010407400,11.552407470703125,-4.6540985107421875,47.01914978027344,15.743682861328125
1773522031020446500,11.562446533203126,-4.733428955078125,46.847084045410156,15.577899932861328
1773522031030484500,11.572484375,-4.87255859375,46.81269836425781,15.689510345458984
1773522031040522500,11.5825224609375,-5.23773193359375,46.88312530517578,15.56201171875
1773522031050561500,11.5925615234375,-5.036895751953125,46.88908386230469,15.859798431396484
1773522031060599600,11.602599609375,-5.1196136474609375,46.94580841064453,15.679443359375
1773522031070638300,11.612638427734375,-5.268798828125,46.7772216796875,15.605789184570312
1773522031080676600,11.622676513671875,-5.299957275390625,47.08978271484375,15.521232604980469
1773522031090714400,11.63271435546875,-5.3354644775390625,47.03467559814453,15.475040435791016
1773522031100753700,11.642753662109374,-5.2590179443359375,46.88896942138672,15.671043395996094
1773522031110791400,11.65279150390625,-5.341461181640625,47.13433074951172,15.484153747558594
1773522031120829700,11.66282958984375,-4.9691925048828125,47.083778381347656,15.493305206298828
1773522031130868500,11.672868408203126,-4.998626708984375,47.046485900878906,15.480823516845703
1773522031140906500,11.682906494140624,-4.880462646484375,46.95039367675781,15.681594848632812
1773522031150944500,11.692944580078125,-4.7511138916015625,46.97882080078125,15.675586700439453
1773522031160983600,11.702983642578126,-4.7479705810546875,46.95220184326172,15.624332427978516
1773522031171021300,11.713021240234376,-4.319580078125,46.967132568359375,15.68673324584961
1773522031181060000,11.72306005859375,-4.0581817626953125,46.978553771972656,15.696731567382812
1773522031191098000,11.73309814453125,-3.874755859375,46.90350341796875,15.872879028320312
1773522031201136000,11.74313623046875,-3.8001251220703125,46.82703399658203,15.782676696777344
1773522031211175200,11.753175048828124,-3.86627197265625,46.75103759765625,15.928768157958984
1773522031221213200,11.763213134765625,-3.969390869140625,46.88182830810547,15.790374755859375
1773522031231251200,11.773251220703125,-3.430816650390625,47.07109832763672,15.711448669433594
1773522031241290000,11.7832900390625,-3.40045166015625,47.05340576171875,15.915897369384766
1773522031251328300,11.793328369140625,-3.277496337890625,46.9666748046875,15.92110824584961
1773522031261366000,11.803365966796875,-3.249114990234375,47.021095275878906,15.952262878417969
1773522031271405300,11.8134052734375,-3.258575439453125,47.10218048095703,15.894214630126953
1773522031281443000,11.823443115234374,-2.90234375,46.95232391357422,15.90777587890625
1773522031291482000,11.833482177734375,-2.9964141845703125,46.771575927734375,15.972297668457031
1773522031301520100,11.84352001953125,-2.799102783203125,46.830833435058594,15.97991943359375
1773522031311558000,11.853557861328126,-2.870574951171875,46.868446350097656,16.086315155029297
1773522031321597200,11.86359716796875,-2.870574951171875,46.868446350097656,16.086315155029297
1773522031331635200,11.87363525390625,-2.7052001953125,46.830711364746094,15.946830749511719
1773522031341673200,11.883673095703125,-2.75152587890625,46.76219177246094,15.999832153320312
1773522031351712300,11.893712158203124,-2.703033447265625,46.7515869140625,16.092735290527344
1773522031361750000,11.90375,-2.3775787353515625,46.732269287109375,16.13369369506836
1773522031371788000,11.9137880859375,-2.348297119140625,46.87610626220703,16.016738891601562
1773522031381827000,11.9238271484375,-2.20855712890625,46.77195739746094,16.074600219726562
1773522031391865000,11.933864990234374,-2.083709716796875,46.76880645751953,16.27965545654297
1773522031401904000,11.943904052734375,-2.2715911865234375,46.82835388183594,16.230186462402344
1773522031411942000,11.95394189453125,-2.307586669921875,46.76136016845703,16.136585235595703
1773522031421980200,11.963980224609376,-2.39117431640625,46.75178527832031,16.234996795654297
1773522031432019200,11.974019287109375,-2.58453369140625,46.5350341796875,16.327083587646484
1773522031442057200,11.98405712890625,-2.454986572265625,46.68214416503906,16.316680908203125
1773522031452095000,11.994094970703125,-2.602447509765625,46.57494354248047,16.441864013671875
1773522031462134000,12.004134033203124,-2.2279815673828125,46.68815612792969,16.290599822998047
1773522031472172000,12.014172119140625,-2.3185577392578125,46.71143341064453,16.299484252929688
1773522031482210000,12.0242099609375,-2.305419921875,46.65193176269531,16.330265045166016
1773522031492249000,12.0342490234375,-2.184722900390625,46.75128173828125,16.309310913085938
1773522031502287000,12.044287109375,-2.10565185546875,46.773902893066406,16.389225006103516
1773522031512326100,12.054326171875,-2.22430419921875,46.80540466308594,16.38574981689453
1773522031522364200,12.0643642578125,-1.9200439453125,46.63928985595703,16.495609283447266
1773522031532402000,12.07440185546875,-2.123626708984375,46.65177917480469,16.48617172241211
1773522031542441200,12.084441162109375,-2.2488250732421875,46.68785095214844,16.311996459960938
1773522031552479000,12.09447900390625,-2.5869293212890625,46.98094177246094,16.346694946289062
1773522031562517200,12.104517333984376,-2.53363037109375,46.678199768066406,16.44771957397461
1773522031572556000,12.11455615234375,-2.520172119140625,46.84886932373047,16.385005950927734
1773522031582594000,12.124593994140625,-2.6334228515625,46.69860076904297,16.485248565673828
1773522031592632000,12.134632080078125,-2.3126220703125,46.53538513183594,16.44744110107422
1773522031602671000,12.144671142578124,-2.5431671142578125,46.63374328613281,16.41028594970703
1773522031612709000,12.154709228515625,-2.9134063720703125,46.59949493408203,16.422592163085938
1773522031622748200,12.164748046875,-2.741455078125,46.70536804199219,16.39203643798828
1773522031632786000,12.174785888671876,-3.0040130615234375,46.72273254394531,16.368972778320312
1773522031642824200,12.18482421875,-2.825775146484375,46.67127227783203,16.27861785888672
1773522031652863000,12.194863037109375,-2.9602508544921875,46.701866149902344,16.383193969726562
1773522031662901200,12.2049013671875,-3.283935546875,46.768096923828125,16.305809020996094
1773522031672939000,12.21493896484375,-3.2763671875,46.792747497558594,16.372989654541016
1773522031682978000,12.22497802734375,-3.2205047607421875,46.649925231933594,16.349754333496094
1773522031693016000,12.23501611328125,-3.5643768310546875,46.5242919921875,16.311397552490234
1773522031703054000,12.24505419921875,-3.8041534423828125,46.6981201171875,16.181594848632812
1773522031713093000,12.255093017578124,-3.9356231689453125,46.668006896972656,16.112964630126953
1773522031723131100,12.265131103515625,-3.9771728515625,46.625160217285156,16.158161163330078
1773522031733170000,12.275169921875,-4.171051025390625,46.73313903808594,16.051464080810547
1773522031743208200,12.285208251953126,-4.3889923095703125,46.740928649902344,15.974090576171875
1773522031753246000,12.295245849609374,-4.261260986328125,46.69952392578125,15.925128936767578
1773522031763285200,12.30528515625,-4.404937744140625,46.71403503417969,15.894527435302734
1773522031773323000,12.315322998046875,-4.4859771728515625,46.62091827392578,15.90732192993164
1773522031783361300,12.325361328125,-4.6066436767578125,46.85088348388672,15.884632110595703
1773522031793400000,12.335400146484375,-4.5799407958984375,46.790496826171875,15.777149200439453
1773522031803438000,12.34543798828125,-4.4346160888671875,46.896934509277344,15.745780944824219
1773522031813476000,12.35547607421875,-4.2748565673828125,47.00078582763672,15.743785858154297
1773522031823515100,12.36551513671875,-4.4402008056640625,47.05821228027344,15.61733627319336
1773522031833553200,12.37555322265625,-4.541595458984375,47.21702575683594,15.617389678955078
1773522031843591200,12.385591064453125,-4.5386962890625,47.06444549560547,15.718116760253906
1773522031853630000,12.3956298828125,-4.2748565673828125,46.85667419433594,15.798362731933594
1773522031863668200,12.405668212890625,-4.17327880859375,47.05540466308594,15.908214569091797
1773522031873707000,12.41570703125,-4.069549560546875,46.90434265136719,15.750160217285156
1773522031883745300,12.425745361328126,-4.2292327880859375,46.96684265136719,15.87491226196289
1773522031893783000,12.435782958984374,-4.0612335205078125,47.01048278808594,15.87152099609375
1773522031903822000,12.445822021484375,-3.9342498779296875,46.94053649902344,15.848464965820312
1773522031913860000,12.455860107421875,-3.956329345703125,46.807472229003906,15.856224060058594
1773522031923898000,12.465898193359376,-3.648895263671875,46.85680389404297,15.800029754638672
1773522031933937200,12.475937255859375,-3.9257965087890625,46.96540832519531,15.915454864501953
1773522031943975200,12.48597509765625,-3.8758392333984375,47.05683898925781,15.756523132324219
1773522031954013200,12.49601318359375,-3.73321533203125,47.11396789550781,15.895999908447266
1773522031964052200,12.50605224609375,-3.7217559814453125,47.04784393310547,15.793724060058594
1773522031974090000,12.516090087890625,-3.806243896484375,46.85204315185547,15.773334503173828
1773522031984128300,12.526128173828125,-3.7218475341796875,47.07630920410156,15.801383972167969
1773522031994167000,12.5361669921875,-3.7225189208984375,46.95935821533203,15.770626068115234
1773522032004205300,12.546205322265624,-3.3123931884765625,46.85508728027344,16.02511215209961
1773522032014244000,12.556244140625,-3.6725921630859375,47.00495910644531,15.930286407470703
1773522032024282000,12.5662822265625,-3.7308807373046875,46.93341827392578,15.841751098632812
1773522032034320100,12.576320068359376,-3.67877197265625,46.897972106933594,15.773773193359375
1773522032044359200,12.586359130859375,-3.758819580078125,46.82854461669922,15.859691619873047
1773522032054397200,12.596397216796875,-3.71954345703125,46.95189666748047,15.84316635131836
1773522032064435000,12.60643505859375,-3.73663330078125,46.9947509765625,15.955406188964844
1773522032074474000,12.616473876953124,-3.5635528564453125,46.889862060546875,15.931076049804688
1773522032084512300,12.62651220703125,-3.8144073486328125,47.01354217529297,15.889045715332031
1773522032094550000,12.636550048828125,-3.951385498046875,47.011940002441406,15.93912124633789
1773522032104589300,12.64658935546875,-3.9367218017578125,46.834999084472656,15.946365356445312
1773522032114627000,12.656626953125,-4.14813232421875,46.961402893066406,15.874732971191406
1773522032124665000,12.6666650390625,-3.962860107421875,46.89967346191406,15.914176940917969
1773522032134704000,12.6767041015625,-3.913848876953125,46.78314971923828,15.985404968261719
1773522032144742000,12.686741943359374,-3.6174163818359375,46.63005065917969,16.25265121459961
1773522032154780200,12.6967802734375,-3.62005615234375,46.721595764160156,16.206314086914062
1773522032164819200,12.706819091796875,-3.5435028076171875,46.750709533691406,16.17734146118164
1773522032174854000,12.71685400390625,-3.630706787109375,46.607391357421875,16.228836059570312
1773522032184892700,12.726892578125,-3.68878173828125,46.56510925292969,16.287704467773438
1773522032194930700,12.7369306640625,-3.36431884765625,46.57769775390625,16.374496459960938
1773522032204968700,12.74696875,-3.20257568359375,46.589515686035156,16.30386734008789
1773522032215007700,12.7570078125,-3.095947265625,46.570106506347656,16.415435791015625
1773522032225045800,12.767045654296876,-3.074554443359375,46.67626190185547,16.377445220947266
1773522032235083800,12.777083740234374,-3.246917724609375,46.80158996582031,16.24551010131836
1773522032245122600,12.78712255859375,-3.3556976318359375,46.66956329345703,16.314510345458984
1773522032255160800,12.797160888671876,-3.2852935791015625,46.66621398925781,16.168498992919922
1773522032265198600,12.807198486328126,-3.4189300537109375,46.54331970214844,16.26620864868164
1773522032275238000,12.81723779296875,-3.4175872802734375,46.84587097167969,16.063232421875
1773522032285275600,12.827275634765625,-3.39056396484375,46.74609375,16.236160278320312
1773522032295314000,12.83731396484375,-3.450103759765625,46.719703674316406,16.12598419189453
1773522032305352700,12.847352783203124,-3.48480224609375,46.73918151855469,16.090717315673828
1773522032315390700,12.857390625,-3.3553009033203125,46.79204559326172,16.115764617919922
1773522032325428700,12.8674287109375,-3.717803955078125,46.653594970703125,16.207176208496094
1773522032335467800,12.8774677734375,-3.6238861083984375,46.73286437988281,16.35297393798828
1773522032345505800,12.887505859375,-3.5952911376953125,46.820045471191406,16.30734634399414
1773522032355544800,12.897544921875,-3.5019683837890625,46.9468994140625,16.229934692382812
1773522032365582600,12.90758251953125,-3.2478179931640625,46.91399383544922,16.207050323486328
1773522032375620900,12.917620849609374,-3.113555908203125,46.70436096191406,16.243602752685547
1773522032385659600,12.92765966796875,-2.58355712890625,46.76610565185547,16.288379669189453
1773522032395698000,12.937697998046875,-2.9412078857421875,46.72332763671875,16.331951141357422
1773522032405735700,12.947735595703126,-2.5381317138671875,46.688720703125,16.306671142578125
1773522032415774700,12.957774658203125,-2.483184814453125,46.752647399902344,16.34668731689453
1773522032425812700,12.967812744140625,-2.25787353515625,46.667633056640625,16.51822280883789
1773522032435850800,12.977850830078125,-1.843780517578125,46.705787658691406,16.491188049316406
1773522032445889800,12.987889892578124,-1.7142333984375,46.694480895996094,16.649089813232422
1773522032455927800,12.997927734375,-1.6773529052734375,46.688934326171875,16.600337982177734
