time,seconds_elapsed,z,y,x
1773522019542985500,0.0849853515625,-222.04139709472656,35.31005859375,-44.07987976074219
1773522019553097500,0.095097412109375,-221.91119384765625,35.12933349609375,-43.54106140136719
1773522019563210500,0.10521044921875,-221.8515167236328,34.712005615234375,-42.62060546875
1773522019573323500,0.115323486328125,-222.12606811523438,34.70359802246094,-42.11383056640625
1773522019583436500,0.1254365234375,-222.1525421142578,34.95802307128906,-41.87451171875
1773522019593548500,0.135548583984375,-222.4479522705078,35.383880615234375,-41.85459899902344
1773522019603661600,0.14566162109375,-221.73822021484375,35.489410400390625,-41.26805114746094
1773522019613773600,0.155773681640625,-221.51507568359375,36.091766357421875,-40.5234375
1773522019623886600,0.165886474609375,-221.19532775878906,36.76463317871094,-39.50335693359375
1773522019633999600,0.17599951171875,-220.19488525390625,37.012176513671875,-37.98420715332031
1773522019644112600,0.186112548828125,-220.07496643066406,37.10548400878906,-36.637939453125
1773522019654225700,0.1962255859375,-219.19265747070312,37.45280456542969,-35.095458984375
1773522019664337700,0.206337646484375,-218.6290283203125,37.3944091796875,-33.859222412109375
1773522019674450700,0.21645068359375,-218.5192413330078,37.669647216796875,-32.94305419921875
1773522019684563700,0.226563720703125,-217.57371520996094,37.72804260253906,-31.885543823242188
1773522019694675500,0.236675537109375,-217.8096466064453,38.27793884277344,-31.8447265625
1773522019704788500,0.24678857421875,-217.01905822753906,38.68281555175781,-31.946563720703125
1773522019714900500,0.256900390625,-217.3256378173828,38.5093994140625,-32.75675964355469
1773522019725012500,0.267012451171875,-217.88052368164062,38.752655029296875,-33.69459533691406
1773522019735125500,0.27712548828125,-218.43690490722656,38.58503723144531,-34.885589599609375
1773522019745236700,0.28723681640625,-218.86276245117188,38.55323791503906,-35.845123291015625
1773522019755349800,0.297349853515625,-219.49288940429688,38.53028869628906,-36.56767272949219
1773522019765462500,0.307462646484375,-219.26319885253906,38.35612487792969,-37.43556213378906
1773522019775575600,0.317575439453125,-219.75067138671875,38.37409973144531,-38.08064270019531
1773522019785686500,0.3276865234375,-219.7311248779297,38.105255126953125,-38.46649169921875
1773522019795798500,0.337798583984375,-219.93475341796875,38.1292724609375,-39.029205322265625
1773522019805910500,0.34791064453125,-220.30613708496094,38.065521240234375,-39.99220275878906
1773522019816022500,0.3580224609375,-220.13674926757812,38.59654235839844,-40.6539306640625
1773522019826135600,0.368135498046875,-220.313232421875,38.98091125488281,-40.98048400878906
1773522019836247600,0.37824755859375,-219.96119689941406,39.492156982421875,-41.08937072753906
1773522019846359600,0.388359619140625,-219.20574951171875,40.132110595703125,-40.69573974609375
1773522019856471600,0.398471435546875,-219.13165283203125,40.928375244140625,-40.816436767578125
1773522019866584600,0.40858447265625,-218.4885711669922,41.29670715332031,-40.59358215332031
1773522019876696600,0.418696533203125,-218.66075134277344,41.90791320800781,-40.51927185058594
1773522019886809600,0.4288095703125,-218.34066772460938,42.27232360839844,-40.29795837402344
1773522019896921600,0.438921630859375,-217.84339904785156,42.216278076171875,-39.727081298828125
1773522019907033300,0.449033447265625,-218.39120483398438,42.16731262207031,-39.86871337890625
1773522019917146400,0.459146484375,-218.6273193359375,41.97447204589844,-39.878692626953125
1773522019927259400,0.46925927734375,-218.88961791992188,41.39216613769531,-39.684173583984375
1773522019937372400,0.479372314453125,-218.79296875,41.28834533691406,-39.955047607421875
1773522019947485400,0.4894853515625,-219.34959411621094,40.81733703613281,-40.350250244140625
1773522019957599700,0.499599853515625,-219.8868865966797,40.269683837890625,-40.89860534667969
1773522019967711500,0.50971142578125,-220.02430725097656,39.71595764160156,-41.607818603515625
1773522019977825500,0.519825439453125,-220.5631103515625,39.33819580078125,-42.31855773925781
1773522019987938600,0.5299384765625,-220.58055114746094,39.07258605957031,-42.60212707519531
1773522019998052600,0.540052490234375,-220.68055725097656,38.79066467285156,-43.411163330078125
1773522020008166700,0.550166748046875,-221.0480194091797,38.41168212890625,-44.049835205078125
1773522020018280400,0.560280517578125,-221.08074951171875,38.28974914550781,-44.70623779296875
1773522020028393500,0.5703935546875,-221.53189086914062,38.16307067871094,-45.48030090332031
1773522020038507500,0.580507568359375,-221.5391845703125,37.95149230957031,-45.86244201660156
1773522020048620500,0.59062060546875,-221.76307678222656,37.68165588378906,-46.44378662109375
1773522020058735600,0.600735595703125,-221.69638061523438,37.4228515625,-46.715057373046875
1773522020068849700,0.610849609375,-221.9464569091797,37.55534362792969,-46.69227600097656
1773522020078962700,0.620962646484375,-222.0032501220703,37.633392333984375,-46.62785339355469
1773522020089076500,0.631076416015625,-221.7637481689453,37.98899841308594,-46.74688720703125
1773522020099190500,0.6411904296875,-221.67147827148438,37.89213562011719,-46.37373352050781
1773522020109303600,0.651303466796875,-221.79171752929688,37.95530700683594,-46.551971435546875
1773522020119416600,0.66141650390625,-221.69918823242188,38.059661865234375,-46.63938903808594
1773522020129530400,0.6715302734375,-221.68991088867188,37.64813232421875,-46.561065673828125
1773522020139643400,0.681643310546875,-221.86001586914062,37.84220886230469,-46.68511962890625
1773522020149755400,0.69175537109375,-221.80528259277344,37.49293518066406,-46.640594482421875
1773522020159868400,0.701868408203125,-222.06192016601562,37.30262756347656,-46.66459655761719
1773522020169982000,0.71198193359375,-221.9691162109375,36.750701904296875,-46.77879333496094
1773522020180095000,0.722094970703125,-221.96893310546875,37.16377258300781,-47.01690673828125
1773522020190209000,0.732208984375,-222.16580200195312,36.692138671875,-47.535308837890625
1773522020200322800,0.74232275390625,-222.35577392578125,36.47700500488281,-47.821380615234375
1773522020210439000,0.75243896484375,-222.37054443359375,36.481903076171875,-48.56884765625
1773522020220553000,0.762552978515625,-222.45436096191406,36.36663818359375,-48.77384948730469
1773522020230667800,0.772667724609375,-222.51382446289062,36.095733642578125,-49.20658874511719
1773522020240783000,0.782783203125,-222.66929626464844,36.15168762207031,-49.73414611816406
1773522020250897000,0.79289697265625,-222.6803741455078,35.996917724609375,-49.976654052734375
1773522020261010000,0.803010009765625,-223.01498413085938,35.8016357421875,-50.740936279296875
1773522020271124000,0.8131240234375,-222.7041015625,35.835205078125,-50.99873352050781
1773522020281237800,0.82323779296875,-222.81752014160156,35.52113342285156,-51.44134521484375
1773522020291349800,0.833349853515625,-222.95619201660156,35.2637939453125,-52.026123046875
1773522020301462800,0.843462890625,-223.14224243164062,35.029388427734375,-52.500823974609375
1773522020311575000,0.853574951171875,-223.2687225341797,34.90992736816406,-52.8963623046875
1773522020321688800,0.863688720703125,-222.9716033935547,34.68934631347656,-53.255584716796875
1773522020331800800,0.87380078125,-223.09764099121094,34.641326904296875,-53.925689697265625
1773522020341913000,0.8839130859375,-222.6993408203125,34.22709655761719,-54.316436767578125
1773522020352026000,0.894026123046875,-222.8920440673828,34.34388732910156,-54.738494873046875
1773522020362137900,0.904137939453125,-222.82521057128906,34.26026916503906,-55.166229248046875
1773522020372251000,0.9142509765625,-222.78221130371094,34.17677307128906,-55.55731201171875
1773522020382364000,0.924364013671875,-222.70455932617188,34.15971374511719,-55.600830078125
1773522020392476700,0.9344765625,-222.91917419433594,34.22441101074219,-55.76445007324219
1773522020402589700,0.944589599609375,-222.53138732910156,34.64996337890625,-55.86149597167969
1773522020412702000,0.954701904296875,-222.82273864746094,34.827056884765625,-56.13053894042969
1773522020422815700,0.964815673828125,-222.67593383789062,34.682525634765625,-56.343597412109375
1773522020432928800,0.9749287109375,-222.5653839111328,34.841766357421875,-56.64866638183594
1773522020443042800,0.985042724609375,-222.7246551513672,34.50144958496094,-56.9075927734375
1773522020453156900,0.995156982421875,-222.36598205566406,34.502410888671875,-57.155853271484375
1773522020463270000,1.005269775390625,-222.0975799560547,34.3070068359375,-57.208984375
1773522020473383000,1.0153828125,-222.39971923828125,33.78944396972656,-57.67730712890625
1773522020483496000,1.025495849609375,-222.43905639648438,33.50526428222656,-57.72605895996094
1773522020493610000,1.03560986328125,-222.470703125,33.37580871582031,-58.08953857421875
1773522020503722000,1.045721923828125,-222.5631866455078,33.466827392578125,-58.04045104980469
1773522020513832000,1.05583203125,-222.4285430908203,33.28547668457031,-58.34559631347656
1773522020523944000,1.06594384765625,-222.67308044433594,32.97021484375,-58.663238525390625
1773522020534056000,1.076055908203125,-222.52313232421875,33.112091064453125,-59.10276794433594
1773522020544167700,1.086167724609375,-222.76138305664062,32.87725830078125,-59.467864990234375
1773522020554279000,1.09627880859375,-222.29945373535156,33.001556396484375,-59.67649841308594
1773522020564391000,1.106390869140625,-222.46780395507812,32.53392028808594,-59.831695556640625
1773522020574502000,1.116501953125,-222.2547607421875,32.65252685546875,-60.04719543457031
1773522020584614000,1.12661376953125,-222.82215881347656,32.559295654296875,-60.212158203125
1773522020594726000,1.136725830078125,-222.69290161132812,32.248321533203125,-60.267425537109375
1773522020604838000,1.146837890625,-222.58084106445312,32.44633483886719,-60.01213073730469
1773522020614951000,1.156950927734375,-222.4368133544922,31.917694091796875,-60.05793762207031
1773522020625063000,1.16706298828125,-222.41000366210938,32.01325988769531,-59.92842102050781
1773522020635174000,1.177173828125,-222.62435913085938,31.896408081054688,-60.005828857421875
1773522020645287000,1.187286865234375,-222.61183166503906,31.545166015625,-59.873077392578125
1773522020655398000,1.19739794921875,-222.71763610839844,31.642868041992188,-59.69786071777344
1773522020665510000,1.207510009765625,-222.62745666503906,31.531280517578125,-59.99723815917969
1773522020675622000,1.217621826171875,-222.6219940185547,31.597549438476562,-60.06562805175781
1773522020685735000,1.22773486328125,-222.80715942382812,31.564468383789062,-59.9937744140625
1773522020695848000,1.237847900390625,-222.88418579101562,31.383468627929688,-60.22663879394531
1773522020705959700,1.247959716796875,-223.08731079101562,31.311187744140625,-60.55010986328125
1773522020716072000,1.258072021484375,-222.81277465820312,31.304931640625,-60.9466552734375
1773522020726184000,1.268183837890625,-222.8541717529297,31.077423095703125,-61.02766418457031
1773522020736295000,1.278294921875,-222.498291015625,31.017929077148438,-61.12794494628906
1773522020746406000,1.288406005859375,-222.59690856933594,31.102981567382812,-61.23716735839844
1773522020756516900,1.298516845703125,-222.64279174804688,30.982421875,-61.29380798339844
1773522020766630000,1.3086298828125,-222.68292236328125,31.057464599609375,-61.43975830078125
1773522020776743000,1.318742919921875,-222.84962463378906,30.957183837890625,-61.39054870605469
1773522020786857000,1.32885693359375,-222.9659881591797,31.00189208984375,-61.145416259765625
1773522020796970800,1.338970703125,-222.75071716308594,31.068740844726562,-60.94499206542969
1773522020807083800,1.349083740234375,-223.11758422851562,30.951004028320312,-61.13240051269531
1773522020817197800,1.35919775390625,-222.87506103515625,30.900405883789062,-61.065185546875
1773522020827310800,1.369310791015625,-223.11582946777344,31.06854248046875,-61.15376281738281
1773522020837423900,1.379423828125,-222.4415740966797,31.201904296875,-60.84364318847656
1773522020847537000,1.389536865234375,-223.00477600097656,31.10089111328125,-61.03746032714844
1773522020857650700,1.399650634765625,-222.7645721435547,31.173385620117188,-61.04618835449219
1773522020867763700,1.409763671875,-222.789306640625,30.99346923828125,-61.149169921875
1773522020877875700,1.419875732421875,-223.04522705078125,30.863998413085938,-61.28904724121094
1773522020887988000,1.429988037109375,-222.68658447265625,31.214645385742188,-61.33795166015625
1773522020898100000,1.440099853515625,-222.6908721923828,31.127593994140625,-61.44532775878906
1773522020908213000,1.450212890625,-222.73406982421875,31.020675659179688,-61.08427429199219
1773522020918323700,1.46032373046875,-223.00830078125,31.016357421875,-61.155487060546875
1773522020928435700,1.470435791015625,-222.9667510986328,30.968109130859375,-61.25215148925781
1773522020938548700,1.480548828125,-222.4874267578125,31.17791748046875,-61.03221130371094
1773522020948661800,1.490661865234375,-222.70297241210938,31.149978637695312,-61.31178283691406
1773522020958773800,1.500773681640625,-222.71974182128906,31.234786987304688,-61.19987487792969
1773522020968886000,1.510885986328125,-222.754638671875,31.290924072265625,-61.33250427246094
1773522020978999800,1.520999755859375,-222.8367156982422,31.473480224609375,-61.39739990234375
1773522020989112800,1.53111279296875,-222.46722412109375,31.412826538085938,-61.48297119140625
1773522020999224800,1.541224853515625,-222.34120178222656,31.850418090820312,-61.489105224609375
1773522021009339000,1.5513388671875,-222.6036834716797,31.710678100585938,-61.396148681640625
1773522021019453700,1.56145361328125,-222.21005249023438,31.967376708984375,-61.2515869140625
1773522021029566700,1.571566650390625,-222.2733917236328,31.993484497070312,-61.42683410644531
1773522021039681000,1.581680908203125,-222.6015167236328,32.18382263183594,-61.32005310058594
1773522021049794800,1.591794921875,-222.57534790039062,32.22760009765625,-61.09559631347656
1773522021059907800,1.601907958984375,-222.0847930908203,32.39689636230469,-61.181976318359375
1773522021070020900,1.612020751953125,-222.3441925048828,32.55561828613281,-61.01087951660156
1773522021080134000,1.6221337890625,-222.372314453125,32.55003356933594,-60.96043395996094
1773522021090247000,1.632246826171875,-222.23614501953125,32.72584533691406,-60.95033264160156
1773522021100361000,1.64236083984375,-222.486328125,32.71031188964844,-60.78114318847656
1773522021110474000,1.652473876953125,-222.21267700195312,32.973968505859375,-60.85908508300781
1773522021120587800,1.662587890625,-222.34718322753906,32.74577331542969,-60.63258361816406
1773522021130700800,1.67270068359375,-222.08377075195312,32.84141540527344,-60.33387756347656
1773522021140813800,1.682813720703125,-222.53306579589844,32.80986022949219,-60.32879638671875
1773522021150926800,1.6929267578125,-222.79617309570312,32.67408752441406,-60.11834716796875
1773522021161042000,1.7030419921875,-222.88389587402344,32.95960998535156,-60.00721740722656
1773522021171157000,1.713156982421875,-222.6697998046875,33.12152099609375,-59.663330078125
1773522021181271800,1.723271728515625,-222.19210815429688,33.23828125,-59.02607727050781
1773522021191384800,1.733384765625,-222.65676879882812,33.43084716796875,-58.576171875
1773522021201498600,1.74349853515625,-222.64964294433594,33.93110656738281,-57.742218017578125
1773522021211611600,1.753611572265625,-222.46041870117188,34.414093017578125,-56.90284729003906
1773522021221725700,1.7637255859375,-222.40322875976562,34.59757995605469,-55.646697998046875
1773522021231840000,1.773840087890625,-222.3046875,35.08256530761719,-54.66015625
1773522021241953800,1.783953857421875,-222.83279418945312,35.092987060546875,-53.41558837890625
1773522021252067800,1.79406787109375,-222.7954559326172,35.30506896972656,-51.893157958984375
1773522021262181600,1.804181640625,-222.4637908935547,35.537078857421875,-49.92701721191406
1773522021272295700,1.814295654296875,-222.53744506835938,36.029998779296875,-47.27995300292969
1773522021282410000,1.824409912109375,-222.01272583007812,36.13578796386719,-44.72825622558594
1773522021292523000,1.83452294921875,-221.60609436035156,36.93748474121094,-42.22953796386719
1773522021302634800,1.844634765625,-220.74368286132812,37.60557556152344,-39.90226745605469
1773522021312748500,1.85474853515625,-219.81951904296875,38.440887451171875,-37.88816833496094
1773522021322861600,1.864861572265625,-218.7845458984375,39.01800537109375,-36.23109436035156
1773522021332975900,1.874975830078125,-217.9943389892578,39.66694641113281,-34.68751525878906
1773522021343090700,1.885090576171875,-216.71559143066406,40.21726989746094,-33.6011962890625
1773522021353204700,1.895204833984375,-216.12733459472656,40.521942138671875,-32.323638916015625
1773522021363318800,1.90531884765625,-215.4512939453125,40.755859375,-31.439102172851562
1773522021373431800,1.915431884765625,-215.18251037597656,41.27931213378906,-30.896652221679688
1773522021383544600,1.925544677734375,-214.29922485351562,41.61756896972656,-30.269393920898438
1773522021393657600,1.93565771484375,-213.8851776123047,42.15666198730469,-29.524749755859375
1773522021403770600,1.9457705078125,-213.06011962890625,42.4959716796875,-28.78460693359375
1773522021413885000,1.955885009765625,-212.08883666992188,42.898223876953125,-27.72479248046875
1773522021423998700,1.965998779296875,-211.34217834472656,43.16889953613281,-26.986190795898438
1773522021434112800,1.97611279296875,-210.93870544433594,43.3580322265625,-26.492507934570312
1773522021444226800,1.986226806640625,-210.7590789794922,43.498779296875,-26.502716064453125
1773522021454340600,1.996340576171875,-210.55503845214844,43.74461364746094,-26.99365234375
1773522021464452900,2.006452880859375,-211.02195739746094,44.16278076171875,-27.596435546875
1773522021474565600,2.016565673828125,-210.7659912109375,44.57331848144531,-28.07415771484375
1773522021484678700,2.0266787109375,-211.39576721191406,44.847198486328125,-28.600662231445312
1773522021494791000,2.036791015625,-210.98045349121094,45.46821594238281,-29.156326293945312
1773522021504903000,2.04690283203125,-210.84347534179688,45.52882385253906,-29.292877197265625
1773522021515015000,2.057014892578125,-211.0120086669922,45.8123779296875,-29.909530639648438
1773522021525129000,2.06712890625,-211.07252502441406,46.06230163574219,-30.43951416015625
1773522021535241700,2.07724169921875,-211.21742248535156,46.46769714355469,-31.049835205078125
1773522021545354000,2.08735400390625,-211.46450805664062,46.723419189453125,-31.670669555664062
1773522021555465700,2.0974658203125,-211.38412475585938,46.81666564941406,-32.1893310546875
1773522021565578800,2.107578857421875,-212.02841186523438,46.8385009765625,-32.95088195800781
1773522021575690800,2.117690673828125,-212.5147705078125,46.72462463378906,-33.7479248046875
1773522021585803800,2.1278037109375,-212.88963317871094,47.039093017578125,-34.43226623535156
1773522021595916800,2.137916748046875,-213.49758911132812,47.119720458984375,-35.42376708984375
1773522021606030600,2.148030517578125,-213.57810974121094,47.40704345703125,-36.48289489746094
1773522021616145000,2.158144775390625,-213.86233520507812,47.68408203125,-37.631744384765625
1773522021626259700,2.168259765625,-213.98191833496094,48.04289245605469,-38.78114318847656
1773522021636374800,2.178374755859375,-213.95895385742188,48.579315185546875,-40.06855773925781
1773522021646488800,2.18848876953125,-213.98678588867188,48.73863220214844,-41.30464172363281
1773522021656601900,2.198601806640625,-214.28102111816406,49.22894287109375,-42.6297607421875
1773522021666716000,2.2087158203125,-214.04568481445312,49.69947814941406,-43.79566955566406
1773522021676829700,2.21882958984375,-213.40650939941406,50.73518371582031,-45.47309875488281
1773522021686943700,2.22894384765625,-212.66441345214844,51.51277160644531,-46.70884704589844
1773522021697057800,2.239057861328125,-211.47059631347656,52.46302795410156,-47.76036071777344
1773522021707170800,2.2491708984375,-210.78916931152344,53.51300048828125,-48.74604797363281
1773522021717282800,2.25928271484375,-209.006103515625,55.02821350097656,-49.66375732421875
1773522021727396600,2.269396728515625,-207.87893676757812,56.085723876953125,-50.54176330566406
1773522021737510700,2.2795107421875,-206.41307067871094,57.39447021484375,-51.46000671386719
1773522021747623700,2.289623779296875,-204.55084228515625,58.602508544921875,-52.13328552246094
1773522021757738000,2.299738037109375,-202.850830078125,59.8328857421875,-53.04560852050781
1773522021767851800,2.309851806640625,-201.20721435546875,60.73100280761719,-53.81758117675781
1773522021777965800,2.3199658203125,-199.3551025390625,61.911590576171875,-54.49298095703125
1773522021788078800,2.330078857421875,-197.9059600830078,62.44557189941406,-55.07647705078125
1773522021798191900,2.34019189453125,-196.2286376953125,63.493988037109375,-55.63996887207031
1773522021808305000,2.350304931640625,-194.5040283203125,63.93817138671875,-55.88169860839844
1773522021818417000,2.3604169921875,-192.7659454345703,64.3419189453125,-55.61589050292969
1773522021828530700,2.37053076171875,-191.55905151367188,65.19509887695312,-55.39166259765625
1773522021838644700,2.380644775390625,-189.34146118164062,65.66398620605469,-54.7275390625
1773522021848757800,2.3907578125,-187.10755920410156,66.15165710449219,-53.995513916015625
1773522021858870800,2.400870849609375,-185.10794067382812,66.46302795410156,-53.14732360839844
1773522021868984600,2.410984619140625,-184.1111297607422,66.79597473144531,-52.19847106933594
1773522021879099000,2.421098876953125,-182.81259155273438,66.93191528320312,-51.16511535644531
1773522021889210600,2.431210693359375,-181.4761199951172,66.995849609375,-49.795196533203125
1773522021899323600,2.44132373046875,-180.5078887939453,67.14022827148438,-48.733734130859375
1773522021909436700,2.451436767578125,-179.41717529296875,67.04908752441406,-47.06890869140625
1773522021919549700,2.4615498046875,-178.572998046875,66.85260009765625,-45.458831787109375
1773522021929662700,2.471662841796875,-177.71214294433594,66.6234130859375,-43.836181640625
1773522021939775700,2.481775634765625,-176.74026489257812,66.29341125488281,-42.219085693359375
1773522021949887700,2.4918876953125,-176.35137939453125,65.98208618164062,-40.63356018066406
1773522021960000800,2.502000732421875,-175.48890686035156,65.55532836914062,-38.91691589355469
1773522021970114800,2.51211474609375,-174.90663146972656,65.32026672363281,-37.82763671875
1773522021980228900,2.522228759765625,-174.88534545898438,65.09799194335938,-36.58978271484375
1773522021990343000,2.532343017578125,-175.33761596679688,64.79507446289062,-35.976531982421875
1773522022000456700,2.542456787109375,-175.80947875976562,64.48298645019531,-35.302490234375
1773522022010571800,2.55257177734375,-176.2166748046875,64.567138671875,-34.839691162109375
1773522022020684800,2.562684814453125,-176.41961669921875,63.942626953125,-34.148590087890625
1773522022030796800,2.572796875,-176.31631469726562,63.57994079589844,-33.149383544921875
1773522022040910800,2.582910888671875,-177.07513427734375,63.2117919921875,-32.32359313964844
1773522022051026000,2.59302587890625,-176.8323211669922,62.830596923828125,-31.369842529296875
1773522022061140700,2.603140625,-176.88394165039062,62.197845458984375,-30.296005249023438
1773522022071255800,2.613255859375,-176.99334716796875,61.641448974609375,-29.298110961914062
1773522022081371000,2.623370849609375,-176.2945556640625,61.07026672363281,-27.903350830078125
1773522022091485700,2.633485595703125,-176.61614990234375,60.0189208984375,-26.74456787109375
1773522022101599700,2.643599853515625,-176.33108520507812,59.340972900390625,-25.5484619140625
1773522022111713800,2.6537138671875,-176.59417724609375,58.46575927734375,-24.422409057617188
1773522022121827800,2.663827880859375,-176.62167358398438,57.40711975097656,-23.304824829101562
1773522022131942000,2.67394189453125,-175.89910888671875,56.57661437988281,-22.292922973632812
1773522022142055700,2.6840556640625,-176.21156311035156,55.49751281738281,-20.94696044921875
1773522022152169700,2.694169677734375,-176.4497528076172,54.45098876953125,-19.920669555664062
1773522022162284800,2.704284912109375,-177.2407989501953,53.54130554199219,-18.798583984375
1773522022172402200,2.714402099609375,-177.78810119628906,52.514434814453125,-17.569320678710938
1773522022182515200,2.72451513671875,-178.58840942382812,51.44561767578125,-17.138290405273438
1773522022192629200,2.734629150390625,-179.27960205078125,50.633514404296875,-16.517044067382812
1773522022202743300,2.744743408203125,-179.40342712402344,49.98583984375,-15.770278930664062
1773522022212858000,2.754858154296875,-180.48443603515625,49.22749328613281,-15.285476684570312
1773522022222972200,2.76497216796875,-180.75131225585938,49.060333251953125,-15.110641479492188
1773522022233085200,2.775085205078125,-180.65029907226562,48.56141662597656,-14.985015869140625
1773522022243199200,2.78519921875,-181.2956085205078,48.50555419921875,-14.934600830078125
1773522022253312300,2.795312255859375,-181.69105529785156,48.18428039550781,-14.834182739257812
1773522022263426300,2.80542626953125,-183.10714721679688,47.84864807128906,-14.41851806640625
1773522022273538300,2.815538330078125,-183.61712646484375,47.51983642578125,-14.629684448242188
1773522022283652400,2.82565234375,-184.98533630371094,47.02825927734375,-14.721908569335938
1773522022293765400,2.835765380859375,-185.98883056640625,46.77369689941406,-14.723922729492188
1773522022303879200,2.845879150390625,-186.60830688476562,46.57603454589844,-14.814407348632812
1773522022313993200,2.8559931640625,-187.8004913330078,46.271514892578125,-14.557525634765625
1773522022324106200,2.866106201171875,-187.95957946777344,46.329833984375,-15.017623901367188
1773522022334219300,2.87621923828125,-188.89938354492188,46.41297912597656,-15.087905883789062
1773522022344332300,2.886332275390625,-189.3585205078125,46.77558898925781,-15.623397827148438
1773522022354444300,2.8964443359375,-189.50315856933594,47.12553405761719,-16.1009521484375
1773522022364557300,2.906557373046875,-189.7189178466797,47.84429931640625,-16.315093994140625
1773522022374671000,2.916671142578125,-190.32736206054688,48.07383728027344,-16.780380249023438
1773522022384784100,2.9267841796875,-190.08758544921875,48.17332458496094,-16.892807006835938
1773522022394898200,2.936898193359375,-190.6881103515625,48.16828918457031,-16.995498657226562
1773522022405011200,2.94701123046875,-191.33689880371094,48.09397888183594,-17.456344604492188
1773522022415123200,2.957123291015625,-191.31985473632812,48.19035339355469,-17.635528564453125
1773522022425236200,2.967236328125,-192.25672912597656,48.18589782714844,-17.89739990234375
1773522022435348200,2.97734814453125,-192.69850158691406,48.23017883300781,-18.138412475585938
1773522022445461200,2.987461181640625,-193.0972900390625,48.19471740722656,-17.946945190429688
1773522022455575300,2.9975751953125,-193.24754333496094,47.86741638183594,-17.87542724609375
1773522022465690000,3.007690185546875,-193.51559448242188,47.036224365234375,-17.509628295898438
1773522022475803100,3.01780322265625,-193.822021484375,45.980499267578125,-17.048690795898438
1773522022485918200,3.027918212890625,-193.99195861816406,44.72801208496094,-16.226547241210938
1773522022496032300,3.0380322265625,-194.08717346191406,43.89088439941406,-15.45623779296875
1773522022506147000,3.04814697265625,-193.78903198242188,43.263397216796875,-14.5762939453125
1773522022516262400,3.058262451171875,-194.2163848876953,42.15174865722656,-14.114120483398438
1773522022526376200,3.068376220703125,-193.72470092773438,41.754974365234375,-13.919143676757812
1773522022536489200,3.0784892578125,-194.1934051513672,41.35865783691406,-13.766357421875
1773522022546602200,3.088602294921875,-194.58892822265625,41.16044616699219,-13.864456176757812
1773522022556715300,3.09871533203125,-194.92051696777344,40.72027587890625,-13.755844116210938
1773522022566829300,3.108829345703125,-195.7916259765625,40.5078125,-13.981185913085938
1773522022576941300,3.11894140625,-196.2440185546875,40.115631103515625,-14.140213012695312
1773522022587054300,3.129054443359375,-196.18751525878906,39.99861145019531,-13.957733154296875
1773522022597168000,3.139168212890625,-195.76759338378906,39.73957824707031,-13.696884155273438
1773522022607283500,3.149283447265625,-196.3877410888672,39.52496337890625,-13.708404541015625
1773522022617396500,3.159396484375,-195.92330932617188,38.875274658203125,-13.38958740234375
1773522022627509200,3.16950927734375,-195.9490203857422,38.27095031738281,-13.0665283203125
1773522022637622300,3.179622314453125,-196.28892517089844,37.71771240234375,-12.93670654296875
1773522022647735300,3.1897353515625,-196.21559143066406,37.24365234375,-12.694000244140625
1773522022657847000,3.199846923828125,-196.54969787597656,36.88255310058594,-12.869705200195312
1773522022667960000,3.2099599609375,-197.19956970214844,37.13368225097656,-13.046676635742188
1773522022678074400,3.220074462890625,-197.06427001953125,36.860931396484375,-12.9644775390625
1773522022688187400,3.2301875,-197.13587951660156,36.711181640625,-13.2138671875
1773522022698298000,3.240298095703125,-197.2930145263672,37.151519775390625,-13.260635375976562
1773522022708411100,3.2504111328125,-197.74928283691406,37.571990966796875,-13.69964599609375
1773522022718523100,3.260523193359375,-198.10284423828125,38.10420227050781,-13.953170776367188
1773522022728635400,3.270635498046875,-198.09808349609375,38.74217224121094,-14.483322143554688
1773522022738748400,3.28074853515625,-198.7899169921875,39.9595947265625,-15.405914306640625
1773522022748861400,3.290861328125,-199.2982177734375,40.82368469238281,-16.42340087890625
1773522022758973400,3.300973388671875,-200.6697540283203,42.11610412597656,-17.90997314453125
1773522022769085200,3.311085205078125,-201.91258239746094,43.618377685546875,-19.461807250976562
1773522022779197200,3.321197265625,-203.0589141845703,45.069854736328125,-21.125030517578125
1773522022789310200,3.331310302734375,-203.62681579589844,46.8931884765625,-23.088058471679688
1773522022799421200,3.341421142578125,-203.85353088378906,48.4844970703125,-25.075332641601562
1773522022809534200,3.3515341796875,-204.15084838867188,49.62744140625,-26.314666748046875
1773522022819647200,3.361647216796875,-203.66053771972656,50.70188903808594,-27.0833740234375
1773522022829759200,3.37175927734375,-203.1804962158203,51.385101318359375,-27.535064697265625
1773522022839871200,3.381871337890625,-202.15243530273438,52.209930419921875,-27.622055053710938
1773522022849984300,3.391984375,-201.3780059814453,52.909698486328125,-27.521759033203125
1773522022860097300,3.40209716796875,-199.62767028808594,53.38163757324219,-27.322357177734375
1773522022870209300,3.412209228515625,-198.5686492919922,53.73756408691406,-27.129501342773438
1773522022880322300,3.422322265625,-197.75608825683594,54.30415344238281,-26.845108032226562
1773522022890433300,3.432433349609375,-197.3776397705078,55.02229309082031,-27.066680908203125
1773522022900546300,3.44254638671875,-196.09613037109375,55.54505920410156,-27.138015747070312
1773522022910660400,3.452660400390625,-195.51380920410156,56.2005615234375,-27.621734619140625
1773522022920773400,3.4627734375,-194.93861389160156,56.79472351074219,-28.129730224609375
1773522022930885400,3.472885498046875,-194.3867645263672,57.49153137207031,-28.516403198242188
1773522022940996000,3.48299609375,-194.50372314453125,58.330902099609375,-29.703765869140625
1773522022951106300,3.493106201171875,-194.65432739257812,58.83625793457031,-30.592391967773438
1773522022961216300,3.50321630859375,-194.85020446777344,59.49098205566406,-31.930526733398438
1773522022971326500,3.513326416015625,-194.5590362548828,60.40789794921875,-33.4677734375
1773522022981437200,3.523437255859375,-194.0624237060547,61.2138671875,-34.96061706542969
1773522022991548400,3.53354833984375,-194.25022888183594,61.870361328125,-36.76985168457031
1773522023001660400,3.543660400390625,-193.82571411132812,62.9556884765625,-37.99601745605469
1773522023011772200,3.553772216796875,-193.28550720214844,63.00874328613281,-38.92918395996094
1773522023021885200,3.56388525390625,-193.22943115234375,63.23869323730469,-39.40277099609375
1773522023031998200,3.573998291015625,-193.77090454101562,63.1138916015625,-39.932403564453125
1773522023042111200,3.584111328125,-194.79025268554688,62.75978088378906,-40.401702880859375
1773522023052223200,3.59422314453125,-195.65895080566406,62.66215515136719,-41.03851318359375
1773522023062336300,3.604336181640625,-196.55026245117188,62.53938293457031,-41.341949462890625
1773522023072448300,3.6144482421875,-196.73548889160156,62.39276123046875,-41.44085693359375
1773522023082561300,3.624561279296875,-197.43983459472656,61.90449523925781,-41.671051025390625
1773522023092675300,3.63467529296875,-197.42759704589844,61.87763977050781,-41.813751220703125
1773522023102789000,3.6447890625,-197.33438110351562,62.04954528808594,-42.311309814453125
1773522023112902100,3.654902099609375,-197.35769653320312,62.18717956542969,-42.640594482421875
1773522023123014100,3.66501416015625,-197.07861328125,62.72145080566406,-43.14610290527344
1773522023133126100,3.675126220703125,-196.8071746826172,62.919036865234375,-43.867462158203125
1773522023143237400,3.6852373046875,-196.97496032714844,63.00433349609375,-44.67192077636719
1773522023153350400,3.695350341796875,-196.49871826171875,63.47969055175781,-45.53669738769531
1773522023163461000,3.705461181640625,-196.49691772460938,63.70375061035156,-46.43424987792969
1773522023173571800,3.71557177734375,-196.3447265625,63.8675537109375,-47.04058837890625
1773522023183683600,3.72568359375,-196.07872009277344,63.91191101074219,-47.5345458984375
1773522023193796600,3.735796630859375,-196.15484619140625,64.22319030761719,-48.06642150878906
1773522023203908600,3.74590869140625,-195.63043212890625,64.54951477050781,-48.488555908203125
1773522023214021600,3.756021728515625,-195.1430206298828,64.76577758789062,-48.62434387207031
1773522023224133600,3.766133544921875,-194.43214416503906,64.72039794921875,-48.48405456542969
1773522023234246000,3.776245849609375,-194.59703063964844,65.19775390625,-48.31788635253906
1773522023244358700,3.786358642578125,-194.51133728027344,65.05368041992188,-47.86576843261719
1773522023254471700,3.7964716796875,-193.9727783203125,64.90501403808594,-47.534698486328125
1773522023264584000,3.806583984375,-194.2713165283203,64.88143920898438,-46.88209533691406
1773522023274695700,3.81669580078125,-194.4609375,64.828857421875,-46.91929626464844
1773522023284808700,3.82680859375,-194.99884033203125,64.69216918945312,-46.72850036621094
1773522023294920700,3.836920654296875,-194.95663452148438,64.89628601074219,-46.637847900390625
1773522023305033700,3.84703369140625,-194.83700561523438,64.81576538085938,-46.63313293457031
1773522023315145700,3.857145751953125,-194.5354461669922,64.400634765625,-46.4298095703125
1773522023325257700,3.8672578125,-194.9724884033203,64.53489685058594,-46.73338317871094
1773522023335369700,3.87736962890625,-195.00575256347656,64.72308349609375,-46.6317138671875
1773522023345480700,3.887480712890625,-194.57310485839844,64.83784484863281,-46.72430419921875
1773522023355591700,3.897591796875,-193.57066345214844,65.14816284179688,-46.533111572265625
1773522023365702700,3.90770263671875,-192.84120178222656,65.59605407714844,-46.51469421386719
1773522023375814700,3.917814697265625,-191.64215087890625,65.97145080566406,-46.59910583496094
1773522023385927700,3.927927734375,-191.1351318359375,66.16670227050781,-46.56883239746094
1773522023396039700,3.938039794921875,-190.78797912597656,66.6085205078125,-46.869415283203125
1773522023406152700,3.948152587890625,-190.15020751953125,66.51091003417969,-47.13166809082031
1773522023416264700,3.9582646484375,-189.9771270751953,66.52268981933594,-47.264007568359375
1773522023426376000,3.9683759765625,-190.67764282226562,66.66590881347656,-47.824859619140625
1773522023436487700,3.97848779296875,-191.34561157226562,66.65380859375,-47.967926025390625
1773522023446598700,3.9885986328125,-191.90687561035156,66.41300964355469,-47.987579345703125
1773522023456710000,3.9987099609375,-192.12887573242188,66.1065673828125,-47.99061584472656
1773522023466821600,4.008821533203125,-193.31875610351562,65.84095764160156,-48.36029052734375
1773522023476934700,4.0189345703125,-193.24151611328125,65.50473022460938,-48.6004638671875
1773522023487047700,4.029047607421875,-193.70420837402344,65.52020263671875,-48.980133056640625
1773522023497162000,4.039161865234375,-194.15724182128906,65.57659912109375,-49.70069885253906
1773522023507274800,4.049274658203125,-193.704833984375,65.73698425292969,-50.28413391113281
1773522023517387800,4.0593876953125,-193.37326049804688,65.81185913085938,-51.064208984375
1773522023527500500,4.06950048828125,-193.53517150878906,66.1741943359375,-51.2410888671875
1773522023537613600,4.079613525390625,-193.30389404296875,66.07200622558594,-51.20452880859375
1773522023547728000,4.089727783203125,-192.7610321044922,66.26405334472656,-51.07847595214844
1773522023557841700,4.099841552734375,-193.04978942871094,66.30380249023438,-51.02458190917969
1773522023567955700,4.109955810546875,-192.55787658691406,66.41044616699219,-50.69078063964844
1773522023578069800,4.12006982421875,-191.9292449951172,66.60983276367188,-50.57054138183594
1773522023588182800,4.130182861328125,-191.08241271972656,66.9962158203125,-50.35917663574219
1773522023598296600,4.140296630859375,-190.66134643554688,66.93257141113281,-49.779541015625
1773522023608409600,4.15040966796875,-189.6322479248047,66.95912170410156,-49.3167724609375
1773522023618521600,4.160521484375,-189.68194580078125,67.31376647949219,-48.71342468261719
1773522023628634600,4.170634521484375,-189.58163452148438,67.16023254394531,-48.04267883300781
1773522023638747600,4.18074755859375,-189.40655517578125,67.03152465820312,-47.44816589355469
1773522023648861700,4.19086181640625,-189.3026580810547,67.17527770996094,-47.34893798828125
1773522023658974700,4.200974609375,-189.62815856933594,66.8499755859375,-47.270294189453125
1773522023669087700,4.211087646484375,-189.5871124267578,66.79780578613281,-47.271453857421875
1773522023679200800,4.22120068359375,-190.13998413085938,66.89370727539062,-47.68635559082031
1773522023689313500,4.2313134765625,-190.06298828125,66.88442993164062,-47.81298828125
1773522023699426600,4.241426513671875,-190.21961975097656,66.84425354003906,-47.94718933105469
1773522023709539600,4.25153955078125,-190.30096435546875,66.61091613769531,-47.776580810546875
1773522023719651600,4.261651611328125,-190.09515380859375,66.98512268066406,-47.28434753417969
1773522023729764600,4.2717646484375,-189.17782592773438,66.99195861816406,-46.89259338378906
1773522023739877600,4.281877685546875,-188.6751251220703,66.95431518554688,-46.06791687011719
1773522023749990700,4.29199072265625,-188.06947326660156,67.10801696777344,-45.49452209472656
1773522023760104700,4.302104736328125,-187.01441955566406,67.50065612792969,-44.89521789550781
1773522023770217700,4.3122177734375,-186.0323944091797,67.39486694335938,-44.34751892089844
1773522023780329700,4.322329833984375,-185.57553100585938,67.20207214355469,-43.70805358886719
1773522023790443800,4.33244384765625,-184.88014221191406,67.42518615722656,-43.272186279296875
1773522023800557800,4.342557861328125,-184.45994567871094,67.56941223144531,-42.979522705078125
1773522023810671900,4.352671875,-183.90185546875,67.37138366699219,-42.50877380371094
1773522023820785700,4.36278564453125,-183.14231872558594,67.51504516601562,-42.335723876953125
1773522023830899700,4.372899658203125,-182.5196533203125,67.48466491699219,-42.0245361328125
1773522023841011700,4.38301171875,-181.39907836914062,67.31256103515625,-41.78300476074219
1773522023851124700,4.393124755859375,-180.71484375,67.44461059570312,-41.638641357421875
1773522023861236700,4.40323681640625,-179.7388916015625,67.424560546875,-41.41522216796875
1773522023871348700,4.4133486328125,-179.36465454101562,67.59910583496094,-41.462310791015625
1773522023881460700,4.423460693359375,-178.3553009033203,67.43942260742188,-40.91481018066406
1773522023891573800,4.43357373046875,-178.7860565185547,67.53271484375,-40.97749328613281
1773522023901686800,4.443686767578125,-178.3667755126953,67.74557495117188,-41.11460876464844
1773522023911799600,4.453799560546875,-177.86233520507812,67.76956176757812,-40.70306396484375
1773522023921911800,4.463911865234375,-177.69851684570312,67.65629577636719,-40.382476806640625
1773522023932024800,4.47402490234375,-177.36044311523438,67.45249938964844,-39.88923645019531
1773522023942137600,4.4841376953125,-177.3376922607422,67.42301940917969,-39.854736328125
1773522023952250600,4.494250732421875,-177.3827362060547,67.36534118652344,-39.93994140625
1773522023962363000,4.50436279296875,-177.25750732421875,67.44975280761719,-39.79841613769531
1773522023972476700,4.5144765625,-176.81326293945312,67.41458129882812,-39.82847595214844
1773522023982590700,4.5245908203125,-176.42739868164062,67.21469116210938,-39.83863830566406
1773522023992703700,4.534703857421875,-176.10047912597656,67.31730651855469,-40.01176452636719
1773522024002817500,4.544817626953125,-176.35113525390625,67.63278198242188,-40.18223571777344
1773522024012930600,4.5549306640625,-176.53201293945312,67.56369018554688,-40.11427307128906
1773522024023042600,4.56504248046875,-176.506591796875,67.79559326171875,-40.45744323730469
1773522024033154800,4.57515478515625,-177.1104278564453,67.52403259277344,-40.52897644042969
1773522024043267800,4.585267822265625,-176.9240264892578,67.6636962890625,-40.78938293457031
1773522024053378800,4.59537890625,-177.3614501953125,67.61083984375,-41.284423828125
1773522024063490600,4.605490478515625,-177.7924346923828,68.00607299804688,-41.71917724609375
1773522024073602600,4.6156025390625,-177.89649963378906,68.10714721679688,-42.477020263671875
1773522024083715600,4.625715576171875,-179.02130126953125,68.19767761230469,-43.69805908203125
1773522024093829600,4.63582958984375,-179.0117950439453,68.65602111816406,-45.1630859375
1773522024103942700,4.645942626953125,-179.56988525390625,68.64981079101562,-46.60943603515625
1773522024114055700,4.6560556640625,-179.82411193847656,68.99552917480469,-47.85325622558594
1773522024124168700,4.666168701171875,-179.7494354248047,68.85726928710938,-48.968170166015625
1773522024134281700,4.67628173828125,-179.77105712890625,69.2198486328125,-49.86448669433594
1773522024144395800,4.686395751953125,-179.87832641601562,68.96183776855469,-50.83760070800781
1773522024154508800,4.6965087890625,-179.92015075683594,69.12129211425781,-51.846038818359375
1773522024164622800,4.706622802734375,-179.794677734375,68.74604797363281,-52.35108947753906
1773522024174736000,4.71673583984375,-180.74002075195312,68.93046569824219,-52.995086669921875
1773522024184849000,4.726848876953125,-180.0220489501953,68.89385986328125,-52.95597839355469
1773522024194961000,4.7369609375,-180.4376678466797,68.964599609375,-52.70808410644531
1773522024205074700,4.74707470703125,-180.20187377929688,68.7396240234375,-52.2994384765625
1773522024215187700,4.757187744140625,-179.64443969726562,68.81094360351562,-51.72137451171875
1773522024225300700,4.76730078125,-180.3325653076172,68.81787109375,-52.25254821777344
1773522024235414800,4.777414794921875,-179.68438720703125,68.87576293945312,-52.254425048828125
1773522024245529600,4.787529541015625,-179.85618591308594,69.11476135253906,-52.36814880371094
1773522024255641600,4.7976416015625,-178.77182006835938,69.03921508789062,-52.728424072265625
1773522024265754600,4.807754638671875,-178.18601989746094,69.1951904296875,-52.84074401855469
1773522024275868700,4.81786865234375,-178.13995361328125,69.07550048828125,-53.52528381347656
1773522024285982700,4.827982666015625,-177.2451171875,68.95179748535156,-53.82061767578125
1773522024296096800,4.8380966796875,-176.76437377929688,69.21502685546875,-54.39442443847656
1773522024306210800,4.8482109375,-176.499755859375,69.15657043457031,-55.22430419921875
1773522024316323800,4.85832373046875,-175.87989807128906,69.14924621582031,-55.75184631347656
1773522024326437600,4.868437744140625,-175.70249938964844,69.07981872558594,-56.48687744140625
1773522024336550700,4.878550537109375,-175.0250701904297,68.82597351074219,-56.61151123046875
1773522024346664700,4.888664794921875,-175.25946044921875,69.08238220214844,-57.1741943359375
1773522024356777700,4.89877783203125,-175.0160675048828,69.15727233886719,-57.135162353515625
1773522024366890800,4.908890869140625,-174.70083618164062,68.91842651367188,-57.419830322265625
1773522024377003800,4.919003662109375,-174.26272583007812,69.07490539550781,-57.52825927734375
1773522024387116500,4.929116455078125,-174.52943420410156,68.96961975097656,-57.46000671386719
1773522024397229600,4.9392294921875,-174.97216796875,68.99040222167969,-57.505645751953125
1773522024407342600,4.949342529296875,-174.63412475585938,69.05213928222656,-57.629241943359375
1773522024417453800,4.959453857421875,-174.67230224609375,69.17820739746094,-57.49613952636719
1773522024427566800,4.96956689453125,-174.5149688720703,69.20614624023438,-57.52239990234375
1773522024437679900,4.979679931640625,-174.60888671875,69.277099609375,-57.54205322265625
1773522024447793000,4.98979296875,-175.09132385253906,69.15298461914062,-57.192413330078125
1773522024457903900,4.99990380859375,-174.49664306640625,69.09397888183594,-57.09562683105469
1773522024468017000,5.010016845703125,-174.20599365234375,68.97802734375,-56.58076477050781
1773522024478128600,5.020128662109375,-174.64382934570312,69.18290710449219,-56.55891418457031
1773522024488241700,5.03024169921875,-175.0835723876953,68.96217346191406,-56.19450378417969
1773522024498356700,5.040356689453125,-175.126953125,69.086181640625,-56.02699279785156
1773522024508470800,5.050470703125,-175.55224609375,69.06109619140625,-55.780303955078125
1773522024518583800,5.060583740234375,-175.33706665039062,69.27508544921875,-55.8194580078125
1773522024528695800,5.07069580078125,-175.82464599609375,69.19551086425781,-55.58753967285156
1773522024538808800,5.080808837890625,-175.63658142089844,68.97750854492188,-55.09159851074219
1773522024548920600,5.090920654296875,-175.3550567626953,69.029296875,-54.71067810058594
1773522024559033600,5.10103369140625,-175.16934204101562,69.10140991210938,-54.76390075683594
1773522024569145600,5.1111455078125,-175.49644470214844,69.10133361816406,-54.57049560546875
1773522024579258600,5.121258544921875,-175.90345764160156,69.11856079101562,-54.49128723144531
1773522024589371600,5.13137158203125,-175.2032470703125,69.00222778320312,-54.1417236328125
1773522024599484700,5.141484619140625,-175.43167114257812,69.11683654785156,-53.76881408691406
1773522024609598700,5.1515986328125,-175.778076171875,68.94891357421875,-53.54801940917969
1773522024619710700,5.161710693359375,-175.6708221435547,69.171875,-53.27561950683594
1773522024629823700,5.17182373046875,-176.2128448486328,69.27006530761719,-52.79014587402344
1773522024639937500,5.1819375,-176.51376342773438,69.21914672851562,-52.42326354980469
1773522024650050600,5.192050537109375,-176.87179565429688,68.93074035644531,-51.83392333984375
1773522024660163600,5.20216357421875,-177.16798400878906,69.03263854980469,-51.26683044433594
1773522024670275600,5.212275634765625,-177.36671447753906,68.94728088378906,-51.00187683105469
1773522024680386800,5.22238671875,-178.1372833251953,68.91346740722656,-50.54048156738281
1773522024690499800,5.232499755859375,-178.06976318359375,68.98368835449219,-50.19941711425781
1773522024700612900,5.24261279296875,-178.95358276367188,68.99775695800781,-50.09599304199219
1773522024710726000,5.252725830078125,-179.22442626953125,69.061767578125,-49.70225524902344
1773522024720839000,5.2628388671875,-179.55844116210938,69.04434204101562,-49.2542724609375
1773522024730952700,5.27295263671875,-179.85916137695312,68.99853515625,-48.659271240234375
1773522024741066800,5.283066650390625,-179.7292022705078,68.83323669433594,-48.29481506347656
1773522024751179800,5.2931796875,-179.88998413085938,68.68846130371094,-47.93572998046875
1773522024761292800,5.303292724609375,-180.556396484375,68.77001953125,-47.299560546875
1773522024771405800,5.31340576171875,-180.5077667236328,68.60023498535156,-46.79380798339844
1773522024781517800,5.323517822265625,-181.26284790039062,68.56269836425781,-46.15803527832031
1773522024791630800,5.333630859375,-181.5511474609375,68.48709106445312,-45.13922119140625
1773522024801742800,5.343742919921875,-182.1961212158203,68.14866638183594,-44.50518798828125
1773522024811853600,5.353853515625,-182.39808654785156,68.10203552246094,-43.50892639160156
1773522024821966600,5.363966552734375,-182.4332733154297,67.723876953125,-42.475311279296875
1773522024832079600,5.37407958984375,-182.25201416015625,67.60012817382812,-41.51957702636719
1773522024842192600,5.384192626953125,-182.07676696777344,67.37069702148438,-40.65687561035156
1773522024852305700,5.3943056640625,-182.22592163085938,67.32243347167969,-40.014892578125
1773522024862418700,5.404418701171875,-182.0320281982422,67.3482666015625,-39.15264892578125
1773522024872529700,5.41452978515625,-181.3839111328125,66.73661804199219,-38.30705261230469
1773522024882642000,5.424641845703125,-181.99105834960938,66.62249755859375,-37.37928771972656
1773522024892754000,5.43475390625,-182.11448669433594,66.231689453125,-36.74371337890625
1773522024902867000,5.444866943359375,-181.95651245117188,66.35591125488281,-36.06956481933594
1773522024912978700,5.454978759765625,-181.92828369140625,66.13075256347656,-35.35832214355469
1773522024923092700,5.4650927734375,-181.80905151367188,66.04118347167969,-35.01979064941406
1773522024933206800,5.475206787109375,-181.30514526367188,66.00006103515625,-34.57484436035156
1773522024943319800,5.48531982421875,-180.64686584472656,65.74623107910156,-34.25706481933594
1773522024953433900,5.495433837890625,-180.05055236816406,65.75350952148438,-33.994781494140625
1773522024963545900,5.5055458984375,-179.321533203125,65.98359680175781,-33.741424560546875
1773522024973656600,5.515656494140625,-178.7399444580078,66.03936767578125,-33.3609619140625
1773522024983768600,5.5257685546875,-179.0250244140625,65.53327941894531,-32.88262939453125
1773522024993879800,5.5358798828125,-178.6293487548828,65.41633605957031,-32.60772705078125
1773522025003991800,5.54599169921875,-178.92813110351562,65.12568664550781,-32.08106994628906
1773522025014103600,5.556103515625,-179.2102508544922,64.83866882324219,-31.423919677734375
1773522025024214800,5.56621484375,-179.6795654296875,64.87007141113281,-31.050033569335938
1773522025034326800,5.576326904296875,-180.4764404296875,64.40074157714844,-30.477462768554688
1773522025044438800,5.586438720703125,-181.1421356201172,64.0615234375,-29.952392578125
1773522025054551800,5.5965517578125,-182.27435302734375,63.69488525390625,-29.262893676757812
1773522025064665900,5.606665771484375,-182.85186767578125,62.99687194824219,-28.319473266601562
1773522025074777900,5.61677783203125,-183.1163787841797,62.19581604003906,-27.367523193359375
1773522025084889600,5.6268896484375,-182.79888916015625,61.472869873046875,-26.234512329101562
1773522025095001600,5.637001708984375,-183.0255126953125,60.69007873535156,-24.97601318359375
1773522025105114600,5.647114501953125,-181.6761474609375,59.8673095703125,-23.926971435546875
1773522025115226600,5.6572265625,-180.9661865234375,59.50486755371094,-22.941116333007812
1773522025125339600,5.667339599609375,-180.6607666015625,58.60783386230469,-22.40643310546875
1773522025135452700,5.67745263671875,-180.22288513183594,58.42552185058594,-21.790878295898438
1773522025145564700,5.687564697265625,-180.42910766601562,57.30644226074219,-20.958038330078125
1773522025155677700,5.697677734375,-179.98805236816406,56.810791015625,-20.304733276367188
1773522025165790700,5.707790771484375,-179.5960693359375,55.9248046875,-19.003448486328125
1773522025175904800,5.71790478515625,-179.63723754882812,54.7091064453125,-18.4151611328125
1773522025186017800,5.728017822265625,-179.39183044433594,53.57781982421875,-17.523330688476562
1773522025196129800,5.7381298828125,-179.68710327148438,52.52021789550781,-16.78399658203125
1773522025206241800,5.74824169921875,-179.67019653320312,51.78779602050781,-16.41021728515625
1773522025216353800,5.758353759765625,-178.9619903564453,51.69136047363281,-16.3067626953125
1773522025226465800,5.7684658203125,-178.91256713867188,51.8426513671875,-16.531967163085938
1773522025236577800,5.778577880859375,-179.0850372314453,51.73835754394531,-16.499114990234375
1773522025246689800,5.788689697265625,-179.1376495361328,52.11964416503906,-16.836761474609375
1773522025256802800,5.798802734375,-178.94064331054688,52.23411560058594,-16.9910888671875
1773522025266914800,5.808914794921875,-179.1859893798828,52.39677429199219,-16.871719360351562
1773522025277026800,5.81902685546875,-179.23748779296875,52.1519775390625,-17.037200927734375
1773522025287138800,5.829138916015625,-179.100341796875,52.40380859375,-17.073410034179688
1773522025297250800,5.839250732421875,-179.40260314941406,52.392059326171875,-16.986068725585938
1773522025307363800,5.84936376953125,-179.6019287109375,52.68133544921875,-16.707931518554688
1773522025317475800,5.859475830078125,-179.7727813720703,52.55162048339844,-17.236663818359375
1773522025327587800,5.869587890625,-180.17974853515625,52.609619140625,-17.141006469726562
1773522025337699800,5.879699951171875,-181.31756591796875,52.38250732421875,-17.27911376953125
1773522025347811600,5.8898115234375,-181.30422973632812,52.287689208984375,-17.149551391601562
1773522025357922800,5.8999228515625,-181.45559692382812,52.63719177246094,-17.080978393554688
1773522025368034800,5.910034912109375,-181.39254760742188,52.68743896484375,-17.317916870117188
1773522025378145800,5.920145751953125,-181.21897888183594,52.82862854003906,-17.5980224609375
1773522025388256800,5.9302568359375,-180.57398986816406,52.92890930175781,-17.613388061523438
1773522025398368800,5.94036865234375,-180.690673828125,52.86100769042969,-17.664337158203125
1773522025408480800,5.950480712890625,-180.61195373535156,53.280364990234375,-17.944564819335938
1773522025418592800,5.9605927734375,-180.25982666015625,53.491485595703125,-18.02734375
1773522025428705800,5.970705810546875,-180.25831604003906,53.83030700683594,-18.11712646484375
1773522025438818800,5.98081884765625,-179.8409881591797,53.9403076171875,-18.520980834960938
1773522025448931600,5.990931640625,-179.68214416503906,54.15852355957031,-18.5809326171875
1773522025459043800,6.0010439453125,-180.00393676757812,54.3232421875,-19.062774658203125
1773522025469155800,6.01115576171875,-179.6530303955078,54.83058166503906,-19.303848266601562
1773522025479267800,6.021267822265625,-180.59291076660156,54.72503662109375,-19.33642578125
1773522025489379800,6.0313798828125,-180.77796936035156,54.931182861328125,-19.606689453125
1773522025499491600,6.04149169921875,-180.2378387451172,55.251708984375,-19.899429321289062
1773522025509602800,6.051602783203125,-180.93914794921875,55.456024169921875,-20.172897338867188
1773522025519714800,6.06171484375,-181.17129516601562,55.92974853515625,-20.526046752929688
1773522025529826800,6.071826904296875,-180.84535217285156,55.99737548828125,-20.61505126953125
1773522025539938800,6.081938720703125,-181.2097930908203,56.152557373046875,-20.9151611328125
1773522025550048800,6.092048828125,-181.3088836669922,56.46363830566406,-21.289764404296875
1773522025560159700,6.10215966796875,-181.7905731201172,56.79212951660156,-21.581466674804688
1773522025570271700,6.112271728515625,-181.4355926513672,56.889068603515625,-21.991226196289062
1773522025580383700,6.1223837890625,-181.75335693359375,56.838409423828125,-21.991195678710938
1773522025590495000,6.132494873046875,-181.77796936035156,57.33265686035156,-22.309158325195312
1773522025600606700,6.142606689453125,-181.27903747558594,57.35365295410156,-22.430953979492188
1773522025610719700,6.1527197265625,-182.09695434570312,57.2513427734375,-22.606338500976562
1773522025620831700,6.162831787109375,-182.2313690185547,57.633575439453125,-22.78338623046875
1773522025630944800,6.17294482421875,-182.89736938476562,57.59141540527344,-22.687637329101562
1773522025641057800,6.183057861328125,-182.94021606445312,57.87843322753906,-22.826278686523438
1773522025651170800,6.1931708984375,-183.12838745117188,57.656524658203125,-22.947967529296875
1773522025661283800,6.203283935546875,-183.6494140625,57.86384582519531,-23.174102783203125
1773522025671396600,6.213396728515625,-183.5023956298828,58.05926513671875,-23.201461791992188
1773522025681508900,6.2235087890625,-184.015380859375,57.76806640625,-23.128585815429688
1773522025691622700,6.23362255859375,-184.29286193847656,57.8204345703125,-23.243728637695312
1773522025701738000,6.243738037109375,-184.51983642578125,57.72947692871094,-23.283920288085938
1773522025711851800,6.253851806640625,-185.0097198486328,57.75108337402344,-23.463760375976562
1773522025721964800,6.26396484375,-185.00282287597656,57.895111083984375,-23.775115966796875
1773522025732077800,6.274077880859375,-184.94937133789062,57.978485107421875,-23.675430297851562
1773522025742190800,6.28419091796875,-185.44740295410156,57.94734191894531,-23.822647094726562
1773522025752303900,6.294303955078125,-185.73095703125,58.05131530761719,-24.007720947265625
1773522025762418000,6.30441796875,-186.2985076904297,58.193756103515625,-24.113388061523438
1773522025772531700,6.31453173828125,-186.3798828125,58.15986633300781,-24.387908935546875
1773522025782646800,6.324646728515625,-186.20199584960938,58.08988952636719,-24.154953002929688
1773522025792760800,6.3347607421875,-186.80322265625,58.154510498046875,-24.635528564453125
1773522025802875000,6.344875,-186.81260681152344,58.38359069824219,-24.95953369140625
1773522025812988700,6.35498876953125,-187.48965454101562,58.405487060546875,-24.946029663085938
1773522025823102700,6.365102783203125,-187.9446258544922,58.532470703125,-25.200485229492188
1773522025833217000,6.375217041015625,-187.60418701171875,58.79888916015625,-25.432296752929688
1773522025843329800,6.385329833984375,-188.10508728027344,58.864654541015625,-25.801849365234375
1773522025853443800,6.39544384765625,-188.27035522460938,58.79400634765625,-26.095367431640625
1773522025863556900,6.405556884765625,-188.53123474121094,58.75398254394531,-26.004867553710938
1773522025873671000,6.4156708984375,-189.06951904296875,59.1241455078125,-26.330535888671875
1773522025883784000,6.425783935546875,-188.69895935058594,59.31260681152344,-26.4482421875
1773522025893896700,6.435896728515625,-188.9065704345703,59.160247802734375,-26.70819091796875
1773522025904009000,6.446009033203125,-188.98081970214844,59.181304931640625,-26.842758178710938
1773522025914120700,6.45612060546875,-189.04612731933594,59.36769104003906,-27.10760498046875
1773522025924232700,6.466232666015625,-188.3315887451172,59.83819580078125,-27.202850341796875
1773522025934345700,6.476345703125,-188.70333862304688,59.847442626953125,-27.528152465820312
1773522025944458800,6.486458740234375,-188.8095703125,59.902557373046875,-27.612777709960938
1773522025954569700,6.49656982421875,-188.50665283203125,60.13014221191406,-27.709823608398438
1773522025964682000,6.506681884765625,-188.3975830078125,59.957733154296875,-27.479156494140625
1773522025974792700,6.516792724609375,-187.95526123046875,60.02215576171875,-27.525115966796875
1773522025984904000,6.526904052734375,-188.03668212890625,60.18418884277344,-27.579086303710938
1773522025995016700,6.5370166015625,-187.87005615234375,60.51683044433594,-27.617477416992188
1773522026005129700,6.547129638671875,-187.4683074951172,60.26472473144531,-27.738128662109375
1773522026015244800,6.557244873046875,-187.0862274169922,60.38787841796875,-27.6357421875
1773522026025358600,6.567358642578125,-186.9525604248047,60.050445556640625,-27.47314453125
1773522026035473000,6.577472900390625,-186.35829162597656,60.37159729003906,-27.476882934570312
1773522026045587000,6.5875869140625,-186.3974609375,60.57221984863281,-27.270050048828125
1773522026055700700,6.59770068359375,-185.4842987060547,60.329010009765625,-27.079238891601562
1773522026065814800,6.607814697265625,-184.99325561523438,60.48518371582031,-26.911178588867188
1773522026075928600,6.617928466796875,-184.5615997314453,60.213623046875,-26.788116455078125
1773522026086043000,6.62804296875,-184.3216094970703,60.18145751953125,-26.570816040039062
1773522026096157000,6.638156982421875,-184.08316040039062,60.28944396972656,-26.461959838867188
1773522026106270000,6.64827001953125,-183.67578125,60.032867431640625,-26.487655639648438
1773522026116382000,6.6583818359375,-182.92449951171875,60.39347839355469,-26.202484130859375
1773522026126495000,6.668494873046875,-182.6177978515625,60.1051025390625,-26.24578857421875
1773522026136608000,6.67860791015625,-182.0003204345703,60.0001220703125,-26.159744262695312
1773522026146721800,6.6887216796875,-181.57823181152344,60.33979797363281,-25.992904663085938
1773522026156835800,6.6988359375,-181.5021209716797,60.0562744140625,-25.909896850585938
1773522026166950700,6.70895068359375,-181.11404418945312,60.25096130371094,-25.95172119140625
1773522026177065000,6.71906494140625,-180.56407165527344,60.41072082519531,-25.98101806640625
1773522026187178800,6.7291787109375,-180.22915649414062,60.181549072265625,-25.766067504882812
1773522026197291800,6.739291748046875,-180.2434844970703,60.10908508300781,-25.866546630859375
1773522026207404800,6.74940478515625,-179.48880004882812,60.42755126953125,-25.84063720703125
1773522026217518800,6.759518798828125,-179.60867309570312,60.518707275390625,-25.967864990234375
1773522026227631900,6.7696318359375,-179.42347717285156,60.305389404296875,-25.959869384765625
1773522026237745700,6.77974560546875,-179.5386962890625,60.47137451171875,-25.943710327148438
1773522026247858700,6.789858642578125,-179.58609008789062,60.64680480957031,-25.7813720703125
1773522026257971700,6.7999716796875,-178.62451171875,60.365997314453125,-25.469528198242188
1773522026268083000,6.8100830078125,-178.69383239746094,60.7398681640625,-25.816329956054688
1773522026278195000,6.82019482421875,-179.3094940185547,60.662994384765625,-25.813812255859375
1773522026288307000,6.830306884765625,-178.2708282470703,60.77604675292969,-25.856521606445312
1773522026298421000,6.8404208984375,-178.62745666503906,60.59931945800781,-25.67926025390625
1773522026308534000,6.850533935546875,-178.51686096191406,60.6590576171875,-25.594955444335938
1773522026318646000,6.86064599609375,-178.125732421875,60.64447021484375,-25.613906860351562
1773522026328757800,6.8707578125,-178.17283630371094,60.709808349609375,-25.753524780273438
1773522026338870800,6.880870849609375,-177.95936584472656,60.90534973144531,-25.841567993164062
1773522026348983800,6.89098388671875,-177.6656036376953,60.66302490234375,-25.578353881835938
1773522026359096800,6.901096923828125,-177.2615966796875,61.022247314453125,-25.601058959960938
1773522026369209900,6.9112099609375,-177.74908447265625,60.84934997558594,-25.683792114257812
1773522026379323000,6.921322998046875,-177.1489715576172,61.07269287109375,-25.434768676757812
1773522026389437000,6.93143701171875,-177.19308471679688,60.556732177734375,-25.536529541015625
1773522026399551700,6.9415517578125,-176.56619262695312,60.72666931152344,-25.270370483398438
1773522026409665800,6.951665771484375,-176.5253143310547,60.6708984375,-25.596511840820312
1773522026419779800,6.96177978515625,-176.44097900390625,60.65992736816406,-25.496612548828125
1773522026429895000,6.97189501953125,-176.09425354003906,60.7640380859375,-25.299041748046875
1773522026440008000,6.982008056640625,-176.0071258544922,60.48445129394531,-25.3294677734375
1773522026450122800,6.992122802734375,-175.59561157226562,60.70361328125,-25.326934814453125
1773522026460235800,7.00223583984375,-175.72518920898438,60.47119140625,-25.394058227539062
1773522026470349800,7.012349853515625,-175.20323181152344,60.38465881347656,-25.514358520507812
1773522026480464000,7.0224638671875,-174.93161010742188,60.437225341796875,-25.301467895507812
1773522026490579000,7.032578857421875,-174.93067932128906,60.358428955078125,-25.261276245117188
1773522026500693800,7.04269384765625,-174.7069854736328,60.48307800292969,-25.447113037109375
1773522026510808000,7.05280810546875,-174.81069946289062,60.36064147949219,-25.192352294921875
1773522026520921000,7.062921142578125,-174.34825134277344,60.44013977050781,-25.398880004882812
1773522026531033900,7.073033935546875,-173.9827880859375,60.26478576660156,-24.982589721679688
1773522026541147000,7.08314697265625,-173.8879852294922,60.317962646484375,-24.992462158203125
1773522026551259600,7.093259765625,-173.7283935546875,60.16351318359375,-25.149688720703125
1773522026561372700,7.10337255859375,-173.57766723632812,60.03172302246094,-25.09228515625
1773522026571485700,7.113485595703125,-173.72341918945312,59.92442321777344,-25.233566284179688
1773522026581598700,7.1235986328125,-173.38929748535156,59.920440673828125,-24.9693603515625
1773522026591711700,7.133711669921875,-173.1582794189453,59.99708557128906,-25.052871704101562
1773522026601826000,7.143825927734375,-173.04141235351562,59.949920654296875,-25.13397216796875
1773522026611939800,7.15393994140625,-173.00303649902344,59.94285583496094,-25.173019409179688
1773522026622054000,7.164053955078125,-173.20240783691406,59.78776550292969,-25.202987670898438
1773522026632167000,7.1741669921875,-173.2995147705078,60.147308349609375,-25.3331298828125
1773522026642280700,7.18428076171875,-173.57470703125,59.9091796875,-25.164947509765625
1773522026652394800,7.194394775390625,-173.48785400390625,60.083740234375,-25.2696533203125
1773522026662509000,7.204509033203125,-173.7551727294922,59.937744140625,-25.117706298828125
1773522026672622000,7.2146220703125,-173.4001922607422,59.80702209472656,-25.167007446289062
1773522026682734800,7.22473486328125,-173.8984832763672,59.824615478515625,-24.993942260742188
1773522026692850000,7.234849853515625,-174.07859802246094,59.63972473144531,-25.248947143554688
1773522026702963700,7.244963623046875,-174.3563995361328,59.57154846191406,-25.067764282226562
1773522026713077800,7.255077880859375,-174.3955535888672,59.8634033203125,-25.126327514648438
1773522026723192800,7.26519287109375,-174.7099151611328,60.08103942871094,-25.320770263671875
1773522026733307000,7.275306884765625,-174.79531860351562,60.32200622558594,-25.115875244140625
1773522026743423000,7.285423095703125,-175.69737243652344,60.04206848144531,-25.321578979492188
1773522026753536000,7.295535888671875,-175.59365844726562,60.3843994140625,-25.54156494140625
1773522026763650000,7.305650146484375,-176.34532165527344,60.17469787597656,-25.584259033203125
1773522026773764900,7.315764892578125,-176.474365234375,60.25148010253906,-25.552978515625
1773522026783879700,7.325879638671875,-176.6967010498047,60.32264709472656,-25.629776000976562
1773522026793994000,7.335993896484375,-176.6018524169922,60.08500671386719,-25.762481689453125
1773522026804108000,7.34610791015625,-176.75259399414062,60.28675842285156,-25.659774780273438
1773522026814221800,7.356221923828125,-177.0740203857422,60.588470458984375,-25.608810424804688
1773522026824336600,7.366336669921875,-177.29742431640625,60.56138610839844,-25.764892578125
1773522026834452000,7.376451904296875,-177.5006866455078,60.41693115234375,-25.786941528320312
1773522026844565800,7.386565673828125,-177.87501525878906,60.59956359863281,-25.91339111328125
1773522026854680800,7.396680908203125,-178.0282440185547,60.545501708984375,-25.775421142578125
1773522026864795000,7.406794921875,-177.95628356933594,60.690948486328125,-26.005706787109375
1773522026874910000,7.416909912109375,-177.5863037109375,60.51976013183594,-25.55322265625
1773522026885023700,7.427023681640625,-177.8312530517578,60.52520751953125,-25.934844970703125
1773522026895139000,7.43713916015625,-178.3081512451172,60.45964050292969,-26.0196533203125
1773522026905254000,7.44725390625,-178.5362548828125,60.48609924316406,-25.972427368164062
1773522026915368000,7.457367919921875,-178.5415802001953,60.83802795410156,-26.090301513671875
1773522026925481700,7.467481689453125,-178.46031188964844,60.683624267578125,-26.049301147460938
1773522026935594800,7.4775947265625,-178.28807067871094,60.55267333984375,-26.113388061523438
1773522026945707800,7.487707763671875,-178.62860107421875,60.839630126953125,-26.096435546875
1773522026955819800,7.49781982421875,-178.48162841796875,60.70506286621094,-26.167465209960938
1773522026965931800,7.507931884765625,-177.74307250976562,60.82391357421875,-26.053619384765625
1773522026976044800,7.518044921875,-178.41839599609375,60.69683837890625,-26.183319091796875
1773522026986156000,7.528156005859375,-178.27310180664062,60.61802673339844,-26.10589599609375
1773522026996267800,7.538267822265625,-178.2368621826172,60.55889892578125,-25.841262817382812
1773522027006379800,7.5483798828125,-178.41282653808594,60.60145568847656,-25.799530029296875
1773522027016491800,7.55849169921875,-178.4085693359375,60.474884033203125,-25.475250244140625
1773522027026604000,7.56860400390625,-178.5050506591797,60.22412109375,-25.57733154296875
1773522027036717800,7.5787177734375,-178.6595916748047,60.67927551269531,-25.698745727539062
1773522027046829800,7.588829833984375,-178.68649291992188,60.546539306640625,-25.524795532226562
1773522027056942800,7.59894287109375,-178.70535278320312,60.47416687011719,-25.75823974609375
1773522027067055000,7.60905517578125,-178.2423858642578,60.43675231933594,-25.692047119140625
1773522027077169000,7.6191689453125,-178.60638427734375,60.44627380371094,-25.566940307617188
1773522027087283000,7.629282958984375,-177.96336364746094,60.534027099609375,-25.62646484375
1773522027097397800,7.639397705078125,-177.86061096191406,60.367279052734375,-25.547042846679688
1773522027107510800,7.6495107421875,-177.40737915039062,60.318939208984375,-25.521438598632812
1773522027117623800,7.659623779296875,-176.83839416503906,60.78375244140625,-25.315902709960938
1773522027127737900,7.66973779296875,-176.55592346191406,60.704742431640625,-25.269485473632812
1773522027137852000,7.679851806640625,-175.86569213867188,60.7384033203125,-25.797988891601562
1773522027147965000,7.68996484375,-175.49826049804688,61.04978942871094,-25.722183227539062
1773522027158078000,7.700077880859375,-175.1925811767578,61.05931091308594,-25.761276245117188
1773522027168191000,7.71019091796875,-174.95004272460938,60.878692626953125,-25.663925170898438
1773522027178305800,7.720305908203125,-174.5214080810547,61.05424499511719,-25.795669555664062
1773522027188418800,7.730418701171875,-174.63113403320312,60.978546142578125,-25.81103515625
1773522027198534700,7.74053466796875,-174.40567016601562,61.090911865234375,-25.736572265625
1773522027208647700,7.750647705078125,-174.2626495361328,60.86503601074219,-25.414703369140625
1773522027218762800,7.7607626953125,-174.88233947753906,60.97026062011719,-25.633346557617188
1773522027228876800,7.770876708984375,-175.2938995361328,60.98960876464844,-25.589752197265625
1773522027238990800,7.780990966796875,-175.22865295410156,60.808685302734375,-25.5438232421875
1773522027249104000,7.791103759765625,-175.67103576660156,60.735198974609375,-25.529876708984375
1773522027259217000,7.801216796875,-175.7534637451172,60.77980041503906,-25.674774169921875
1773522027269330700,7.81133056640625,-175.5453643798828,61.03984069824219,-25.638031005859375
1773522027279444700,7.82144482421875,-175.77471923828125,61.185272216796875,-25.752410888671875
1773522027289557800,7.831557861328125,-175.6453857421875,61.14154052734375,-25.811233520507812
1773522027299671800,7.841671875,-175.3512420654297,61.10926818847656,-25.7298583984375
1773522027309785900,7.851785888671875,-175.73135375976562,61.191009521484375,-26.2613525390625
1773522027319900000,7.86189990234375,-175.74903869628906,61.35992431640625,-26.2315673828125
1773522027330013700,7.872013671875,-175.73086547851562,61.25518798828125,-26.247634887695312
1773522027340127700,7.882127685546875,-175.73785400390625,61.536224365234375,-26.58563232421875
1773522027350240800,7.89224072265625,-175.65548706054688,61.336090087890625,-26.368209838867188
1773522027360353800,7.902353759765625,-175.8971710205078,61.68109130859375,-26.945663452148438
1773522027370467800,7.9124677734375,-175.90277099609375,61.48054504394531,-26.877243041992188
1773522027380582000,7.922581787109375,-176.42132568359375,61.91139221191406,-27.178268432617188
1773522027390696000,7.932696044921875,-176.35714721679688,62.17839050292969,-27.516006469726562
1773522027400808700,7.94280859375,-176.0225830078125,62.46595764160156,-27.746856689453125
1773522027410922800,7.9529228515625,-176.1824493408203,62.28160095214844,-27.835784912109375
1773522027421035800,7.963035888671875,-175.94921875,62.272735595703125,-27.992095947265625
1773522027431149800,7.97314990234375,-175.77621459960938,62.510498046875,-28.121749877929688
1773522027441265000,7.983264892578125,-176.05447387695312,62.689697265625,-28.003753662109375
1773522027451378000,7.9933779296875,-176.14019775390625,62.33074951171875,-28.197494506835938
1773522027461493800,8.00349365234375,-175.883544921875,62.553009033203125,-28.244796752929688
1773522027471607800,8.01360791015625,-176.0938262939453,62.57110595703125,-28.286483764648438
1773522027481721900,8.023721923828125,-175.7930450439453,62.38658142089844,-28.200057983398438
1773522027491836700,8.033836669921875,-176.42318725585938,62.52787780761719,-28.03338623046875
1773522027501951700,8.04395166015625,-176.79034423828125,62.631134033203125,-28.28131103515625
1773522027512066800,8.05406689453125,-176.70587158203125,62.44419860839844,-28.34197998046875
1773522027522180900,8.064180908203125,-176.7466278076172,62.61088562011719,-28.433456420898438
1773522027532294700,8.074294677734375,-176.94129943847656,62.670440673828125,-28.413864135742188
1773522027542408700,8.08440869140625,-176.4816436767578,62.89935302734375,-28.340072631835938
1773522027552523000,8.09452294921875,-177.0030517578125,62.522735595703125,-28.553436279296875
1773522027562637800,8.104637939453125,-177.1762237548828,62.81695556640625,-28.527679443359375
1773522027572752000,8.114751953125,-177.02052307128906,62.8160400390625,-28.774215698242188
1773522027582865700,8.12486572265625,-177.18760681152344,62.8267822265625,-28.5675048828125
1773522027592980700,8.134980712890625,-177.39588928222656,62.74955749511719,-28.746139526367188
1773522027603094800,8.1450947265625,-177.68663024902344,62.821868896484375,-28.9466552734375
1773522027613208800,8.155208740234375,-177.86167907714844,63.00794982910156,-28.847671508789062
1773522027623322600,8.165322509765625,-177.4445343017578,62.75636291503906,-28.92791748046875
1773522027633436700,8.175436767578125,-177.4302978515625,62.95643615722656,-28.850509643554688
1773522027643551700,8.1855517578125,-177.6749725341797,62.8648681640625,-29.021072387695312
1773522027653664800,8.195664794921875,-177.5792236328125,63.076019287109375,-29.06085205078125
1773522027663778800,8.20577880859375,-177.91403198242188,63.14811706542969,-28.961593627929688
1773522027673891800,8.215891845703124,-177.52420043945312,63.05242919921875,-29.019729614257812
1773522027684005600,8.226005615234374,-177.5344696044922,63.11262512207031,-28.9376220703125
1773522027694119700,8.23611962890625,-177.85850524902344,62.78221130371094,-29.144821166992188
1773522027704231700,8.246231689453126,-177.73532104492188,63.0299072265625,-29.178390502929688
1773522027714344700,8.2563447265625,-177.91244506835938,63.108673095703125,-29.231185913085938
1773522027724457700,8.266457763671875,-177.93685913085938,63.14166259765625,-29.327972412109375
1773522027734570800,8.27657080078125,-177.94805908203125,63.2335205078125,-29.4847412109375
1773522027744684800,8.286684814453125,-177.79420471191406,63.29425048828125,-29.403564453125
1773522027754796800,8.296796875,-177.67791748046875,63.36860656738281,-29.645645141601562
1773522027764908800,8.30690869140625,-178.015380859375,63.23231506347656,-29.511138916015625
1773522027775020800,8.317020751953125,-177.6468505859375,63.55711364746094,-29.642913818359375
1773522027785133800,8.3271337890625,-178.26519775390625,63.47001647949219,-29.892990112304688
1773522027795246800,8.337246826171874,-178.21798706054688,63.46734619140625,-29.927078247070312
1773522027805359900,8.34735986328125,-178.21151733398438,63.62107849121094,-29.977127075195312
1773522027815473000,8.357472900390626,-178.0983123779297,63.7225341796875,-29.911514282226562
1773522027825586000,8.3675859375,-178.32159423828125,63.66534423828125,-29.783523559570312
1773522027835699700,8.37769970703125,-178.10618591308594,63.587921142578125,-30.0504150390625
1773522027845812700,8.387812744140625,-178.32728576660156,63.70906066894531,-30.167861938476562
1773522027855927800,8.397927734375,-178.0381317138672,63.874908447265625,-30.369430541992188
1773522027866039800,8.408039794921875,-178.0859375,63.97343444824219,-30.55120849609375
1773522027876153600,8.418153564453124,-178.03665161132812,64.03817749023438,-30.505386352539062
1773522027886265900,8.428265869140626,-178.4016876220703,63.8607177734375,-30.558944702148438
1773522027896377900,8.4383779296875,-178.6637420654297,63.96623229980469,-30.430892944335938
1773522027906488800,8.44848876953125,-178.70416259765625,64.16465759277344,-30.755630493164062
1773522027916600800,8.458600830078124,-178.3870086669922,64.15757751464844,-30.439544677734375
1773522027926710800,8.468710693359375,-178.79298400878906,63.939544677734375,-30.654647827148438
1773522027936821800,8.47882177734375,-178.4621124267578,64.0623779296875,-30.827041625976562
1773522027946933800,8.488933837890626,-178.85340881347656,64.12478637695312,-30.795089721679688
1773522027957046800,8.499046875,-178.8143310546875,64.27409362792969,-31.004669189453125
1773522027967158800,8.50915869140625,-178.81222534179688,64.51063537597656,-30.908782958984375
1773522027977271800,8.519271728515625,-179.18624877929688,64.46766662597656,-31.392608642578125
1773522027987383800,8.5293837890625,-179.1787567138672,64.4415283203125,-31.298629760742188
1773522027997496800,8.539496826171876,-179.24783325195312,64.71327209472656,-31.379196166992188
1773522028007609900,8.54960986328125,-179.48426818847656,64.76261901855469,-31.782379150390625
1773522028017723000,8.559722900390625,-179.71829223632812,64.94955444335938,-31.824050903320312
1773522028027833600,8.56983349609375,-178.98611450195312,64.61749267578125,-31.809494018554688
1773522028037946600,8.579946533203126,-178.60646057128906,64.86317443847656,-32.112457275390625
1773522028048058600,8.59005859375,-179.09693908691406,64.97735595703125,-31.991912841796875
1773522028058171600,8.600171630859375,-178.7785186767578,64.873291015625,-32.07354736328125
1773522028068284000,8.610283935546875,-179.13153076171875,65.03704833984375,-32.20295715332031
1773522028078397700,8.620397705078124,-179.05816650390625,64.96591186523438,-32.27720642089844
1773522028088510700,8.6305107421875,-178.75340270996094,65.06690979003906,-32.396759033203125
1773522028098624800,8.640624755859376,-178.89503479003906,64.97122192382812,-32.214691162109375
1773522028108737800,8.65073779296875,-178.77468872070312,64.84275817871094,-32.012451171875
1773522028118850800,8.660850830078125,-179.00128173828125,64.63771057128906,-32.33160400390625
1773522028128964900,8.67096484375,-179.2201690673828,64.94151306152344,-32.17231750488281
1773522028139076600,8.68107666015625,-178.90476989746094,64.99784851074219,-32.46900939941406
1773522028149187800,8.691187744140626,-178.258544921875,65.21171569824219,-32.37446594238281
1773522028159299800,8.7012998046875,-178.55615234375,65.25642395019531,-32.277252197265625
1773522028169412900,8.711412841796875,-178.5235137939453,65.42921447753906,-32.506683349609375
1773522028179525400,8.721525390625,-178.3280792236328,65.23507690429688,-32.56690979003906
1773522028189637000,8.73163720703125,-178.75408935546875,65.23609924316406,-32.618743896484375
1773522028199749000,8.7417490234375,-178.30621337890625,65.32832336425781,-32.76200866699219
1773522028209862100,8.751862060546875,-178.3623046875,65.30224609375,-32.70475769042969
1773522028219974400,8.761974365234375,-178.31796264648438,65.39315795898438,-32.78239440917969
1773522028230086400,8.77208642578125,-178.65257263183594,65.24298095703125,-32.62364196777344
1773522028240198400,8.782198486328125,-178.41127014160156,65.28193664550781,-32.68537902832031
1773522028250310100,8.79231005859375,-178.01300048828125,65.2926025390625,-32.57170104980469
1773522028260423200,8.802423095703125,-178.37339782714844,65.20698547363281,-32.74810791015625
1773522028270535200,8.81253515625,-178.2763671875,65.2208251953125,-32.70367431640625
1773522028280648200,8.822648193359376,-178.686279296875,65.4482421875,-32.74798583984375
1773522028290762200,8.83276220703125,-178.69488525390625,65.28305053710938,-32.839996337890625
1773522028300876300,8.842876220703126,-178.2920684814453,65.32675170898438,-32.63520812988281
1773522028310990300,8.852990234375,-178.09735107421875,65.3529052734375,-32.78672790527344
1773522028321103400,8.863103271484375,-177.8698272705078,65.48152160644531,-33.07945251464844
1773522028331217400,8.873217529296875,-178.5092315673828,65.33584594726562,-32.740386962890625
1773522028341330200,8.883330078125,-178.72561645507812,65.19273376464844,-33.006500244140625
1773522028351442400,8.8934423828125,-178.74147033691406,65.35226440429688,-32.98011779785156
1773522028361556200,8.90355615234375,-178.6727294921875,65.43891906738281,-33.05419921875
1773522028371669200,8.913669189453126,-178.923583984375,65.15208435058594,-33.079437255859375
1773522028381781200,8.92378125,-178.78919982910156,65.55038452148438,-33.027252197265625
1773522028391893500,8.9338935546875,-178.75180053710938,65.72528076171875,-32.88092041015625
1773522028402005200,8.944005126953124,-178.49734497070312,65.46176147460938,-32.8861083984375
1773522028412117200,8.9541171875,-178.90640258789062,65.49443054199219,-33.133148193359375
1773522028422229200,8.964229248046875,-178.9234161376953,65.357421875,-33.180450439453125
1773522028432341200,8.97434130859375,-179.04220581054688,65.50994873046875,-33.01612854003906
1773522028442453500,8.98445361328125,-178.30821228027344,65.49819946289062,-32.7242431640625
1773522028452567300,8.9945673828125,-178.37930297851562,65.39425659179688,-33.069488525390625
1773522028462679300,9.00467919921875,-178.2836151123047,65.39288330078125,-32.7523193359375
1773522028472793300,9.01479345703125,-178.42474365234375,65.23377990722656,-32.953521728515625
1773522028482906400,9.02490625,-178.20811462402344,65.18409729003906,-32.89198303222656
1773522028493019400,9.035019287109375,-178.12857055664062,65.37149047851562,-32.83262634277344
1773522028503132400,9.04513232421875,-178.16209411621094,65.11587524414062,-32.67277526855469
1773522028513246200,9.05524609375,-178.70355224609375,65.29861450195312,-32.83454895019531
1773522028523360300,9.0653603515625,-178.62989807128906,65.31034851074219,-32.739715576171875
1773522028533474300,9.075474365234374,-178.22369384765625,65.2178955078125,-32.59339904785156
1773522028543587300,9.08558740234375,-178.330810546875,65.16201782226562,-32.776519775390625
1773522028553701400,9.095701416015626,-178.14134216308594,65.26930236816406,-32.61814880371094
1773522028563815400,9.1058154296875,-178.08111572265625,65.38349914550781,-32.643585205078125
1773522028573929200,9.11592919921875,-177.82574462890625,65.21351623535156,-32.63890075683594
1773522028584043300,9.126043212890625,-177.84442138671875,65.38217163085938,-32.50993347167969
1773522028594157300,9.1361572265625,-178.54122924804688,65.30670166015625,-32.65629577636719
1773522028604269300,9.146269287109375,-177.8642578125,65.38301086425781,-32.713531494140625
1773522028614383000,9.156383056640625,-177.8190155029297,65.37173461914062,-32.6451416015625
1773522028624496000,9.16649609375,-177.9801788330078,65.18638610839844,-32.50657653808594
1773522028634608400,9.1766083984375,-178.1049041748047,65.35690307617188,-32.477081298828125
1773522028644721200,9.18672119140625,-178.4672088623047,65.23274230957031,-32.536285400390625
1773522028654834200,9.196834228515625,-178.0193634033203,65.35694885253906,-32.759857177734375
1773522028664947200,9.206947265625,-178.13710021972656,65.4588623046875,-32.55897521972656
1773522028675060200,9.217060302734374,-177.79046630859375,65.5064697265625,-32.67060852050781
1773522028685173200,9.22717333984375,-177.87770080566406,65.28144836425781,-32.588226318359375
1773522028695286300,9.237286376953126,-177.84329223632812,65.12651062011719,-32.677093505859375
1773522028705398300,9.247398193359375,-178.07528686523438,65.31941223144531,-32.79710388183594
1773522028715511300,9.25751123046875,-177.97406005859375,65.27622985839844,-32.58282470703125
1773522028725624300,9.267624267578125,-177.65023803710938,65.49029541015625,-32.35017395019531
1773522028735737300,9.2777373046875,-178.43194580078125,65.33816528320312,-32.62774658203125
1773522028745849300,9.287849365234376,-178.1232147216797,65.53448486328125,-32.630523681640625
1773522028755961000,9.297961181640625,-177.94798278808594,65.37968444824219,-32.69526672363281
1773522028766075400,9.308075439453125,-178.12521362304688,65.43812561035156,-32.566436767578125
1773522028776187100,9.318187255859375,-177.43455505371094,65.49073791503906,-32.55528259277344
1773522028786301400,9.328301513671875,-178.01695251464844,65.41468811035156,-32.59431457519531
1773522028796413200,9.3384130859375,-178.1816864013672,65.49629211425781,-32.42158508300781
1773522028806526200,9.348526123046875,-178.25933837890625,65.41038513183594,-32.56343078613281
1773522028816638200,9.35863818359375,-178.18077087402344,65.36299133300781,-32.65907287597656
1773522028826750200,9.368750244140625,-178.24990844726562,65.18257141113281,-32.46043395996094
1773522028836863200,9.37886328125,-177.90029907226562,65.21261596679688,-32.475982666015625
1773522028846975200,9.388975341796876,-178.42236328125,65.34832763671875,-32.481414794921875
1773522028857086200,9.399086181640625,-178.44615173339844,65.26022338867188,-32.56163024902344
1773522028867199200,9.40919921875,-178.14920043945312,65.29843139648438,-32.55305480957031
1773522028877311200,9.419311279296876,-178.89170837402344,65.03953552246094,-32.59010314941406
1773522028887424300,9.42942431640625,-178.81137084960938,65.05171203613281,-32.613433837890625
1773522028897537300,9.439537353515625,-178.64642333984375,65.25114440917969,-32.62654113769531
1773522028907651000,9.449651123046875,-178.79071044921875,65.39616394042969,-32.57110595703125
1773522028917764000,9.45976416015625,-178.77723693847656,65.2642822265625,-32.34370422363281
1773522028927877000,9.469877197265625,-179.88121032714844,65.09675598144531,-32.482757568359375
1773522028937989000,9.479989013671876,-179.75897216796875,65.12753295898438,-32.51390075683594
1773522028948102100,9.49010205078125,-179.99835205078125,65.02275085449219,-32.41802978515625
1773522028958214400,9.50021435546875,-180.20559692382812,64.89401245117188,-32.55413818359375
1773522028968326400,9.510326416015625,-180.27197265625,65.02890014648438,-32.48628234863281
1773522028978440200,9.520440185546875,-180.05120849609375,65.08351135253906,-32.53910827636719
1773522028988553200,9.53055322265625,-180.214599609375,65.07005310058594,-32.70845031738281
1773522028998665200,9.540665283203126,-180.5239715576172,65.20722961425781,-32.74183654785156
1773522029008778200,9.5507783203125,-180.90672302246094,65.23916625976562,-32.652618408203125
1773522029018890500,9.560890380859375,-181.25628662109375,65.18385314941406,-32.76564025878906
1773522029029002200,9.571002197265624,-181.2876739501953,65.34744262695312,-32.772247314453125
1773522029039116300,9.5811162109375,-181.34628295898438,64.97396850585938,-32.77073669433594
1773522029049229300,9.591229248046876,-181.74673461914062,65.10792541503906,-32.78977966308594
1773522029059342300,9.60134228515625,-181.57342529296875,65.32984924316406,-32.74388122558594
1773522029069455400,9.611455322265625,-181.98805236816406,65.01943969726562,-32.57466125488281
1773522029079568400,9.621568359375,-182.15408325195312,65.03810119628906,-32.723602294921875
1773522029089681400,9.631681396484375,-182.08615112304688,65.04847717285156,-32.822662353515625
1773522029099794400,9.64179443359375,-181.5288543701172,65.13276672363281,-32.8006591796875
1773522029109908200,9.651908203125,-181.7939453125,65.04179382324219,-32.76286315917969
1773522029120020500,9.6620205078125,-181.84780883789062,65.30012512207031,-32.810791015625
1773522029130133500,9.672133544921875,-181.5828399658203,65.09681701660156,-32.701507568359375
1773522029140246300,9.682246337890625,-181.5454559326172,65.08030700683594,-32.76020812988281
1773522029150359300,9.692359375,-181.5053253173828,65.39797973632812,-32.59124755859375
1773522029160473300,9.702473388671875,-181.76710510253906,64.96392822265625,-32.56761169433594
1773522029170587400,9.71258740234375,-181.23184204101562,65.05668640136719,-32.59242248535156
1773522029180701400,9.722701416015624,-181.1103057861328,64.97602844238281,-32.421905517578125
1773522029190814500,9.732814453125,-181.61912536621094,64.99348449707031,-32.49029541015625
1773522029200928500,9.742928466796876,-181.50230407714844,64.86033630371094,-32.206939697265625
1773522029211041500,9.75304150390625,-181.82749938964844,64.94145202636719,-32.40016174316406
1773522029221154600,9.763154541015625,-180.9190673828125,64.77064514160156,-32.18467712402344
1773522029231267300,9.773267333984375,-181.5118408203125,65.04360961914062,-32.36802673339844
1773522029241380400,9.78338037109375,-182.0591278076172,64.90519714355469,-32.2921142578125
1773522029251493400,9.793493408203124,-181.56202697753906,64.92301940917969,-32.191558837890625
1773522029261604400,9.803604248046875,-182.16253662109375,64.93693542480469,-32.278564453125
1773522029271717400,9.81371728515625,-181.72994995117188,64.81639099121094,-32.39991760253906
1773522029281830400,9.823830322265625,-181.71707153320312,64.72506713867188,-32.296966552734375
1773522029291944400,9.8339443359375,-182.64234924316406,64.74354553222656,-32.27223205566406
1773522029302057500,9.844057373046875,-182.32081604003906,64.91522216796875,-32.262115478515625
1773522029312172300,9.85417236328125,-182.21554565429688,64.91960144042969,-32.276092529296875
1773522029322285300,9.864285400390624,-182.38328552246094,64.69602966308594,-32.16712951660156
1773522029332399400,9.8743994140625,-182.33474731445312,64.59417724609375,-32.14024353027344
1773522029342513400,9.884513427734374,-182.12440490722656,64.59637451171875,-31.941314697265625
1773522029352626400,9.89462646484375,-182.39227294921875,64.72927856445312,-32.30049133300781
1773522029362740500,9.904740478515626,-182.05740356445312,64.96810913085938,-32.17539978027344
1773522029372854500,9.9148544921875,-181.9043731689453,64.67898559570312,-32.2396240234375
1773522029382966500,9.924966552734375,-181.99884033203125,64.92144775390625,-32.14605712890625
1773522029393079600,9.93507958984375,-181.2227020263672,64.71221923828125,-31.864028930664062
1773522029403192600,9.945192626953125,-180.98963928222656,64.78590393066406,-32.16313171386719
1773522029413306400,9.955306396484374,-180.96524047851562,64.62443542480469,-31.941314697265625
1773522029423418600,9.965418701171876,-181.00901794433594,64.84613037109375,-32.182769775390625
1773522029433532400,9.975532470703126,-180.605224609375,64.88923645019531,-32.00193786621094
1773522029443645400,9.9856455078125,-180.4817352294922,64.8277587890625,-31.968826293945312
1773522029453758500,9.995758544921875,-180.3057861328125,64.90809631347656,-32.09489440917969
1773522029463872500,10.00587255859375,-180.24887084960938,65.00204467773438,-31.767959594726562
1773522029473986300,10.015986328125,-180.0542755126953,64.73756408691406,-31.953567504882812
1773522029484100400,10.026100341796875,-179.64364624023438,64.88703918457031,-31.89495849609375
1773522029494214400,10.03621435546875,-179.87741088867188,64.90483093261719,-31.798690795898438
1773522029504328400,10.046328369140625,-179.68283081054688,64.73419189453125,-31.725433349609375
1773522029514442500,10.0564423828125,-179.864501953125,64.85696411132812,-31.756927490234375
1773522029524557300,10.066557373046875,-179.50619506835938,64.84101867675781,-31.839584350585938
1773522029534672400,10.07667236328125,-179.3835906982422,65.10574340820312,-31.5831298828125
1773522029544786400,10.086786376953125,-179.73146057128906,65.01292419433594,-31.794952392578125
1773522029554901200,10.0969013671875,-179.7830047607422,64.79110717773438,-31.853958129882812
1773522029565015300,10.107015380859375,-179.64356994628906,64.8731689453125,-31.817184448242188
1773522029575129600,10.117129638671875,-179.4730987548828,64.91265869140625,-31.87542724609375
1773522029585244400,10.127244384765625,-179.49850463867188,64.62692260742188,-31.802734375
1773522029595359200,10.137359130859375,-179.9307403564453,64.74296569824219,-31.813491821289062
1773522029605474600,10.147474609375,-179.8948211669922,64.74798583984375,-31.845550537109375
1773522029615589400,10.15758935546875,-180.0045166015625,64.75082397460938,-31.860794067382812
1773522029625703400,10.167703369140625,-180.30076599121094,64.99490356445312,-31.898834228515625
1773522029635818500,10.177818603515625,-180.33660888671875,65.04550170898438,-32.096893310546875
1773522029645933300,10.187933349609375,-180.25021362304688,65.20140075683594,-32.016387939453125
1773522029656048400,10.19804833984375,-180.35060119628906,65.04122924804688,-32.30018615722656
1773522029666163500,10.20816357421875,-179.97642517089844,64.94804382324219,-32.07594299316406
1773522029676277500,10.218277587890626,-180.34829711914062,64.82838439941406,-31.977569580078125
1773522029686392300,10.228392333984376,-179.5704345703125,64.99604797363281,-32.31364440917969
1773522029696506600,10.238506591796876,-180.6232452392578,65.01219177246094,-32.232635498046875
1773522029706620400,10.248620361328125,-180.6789093017578,65.06724548339844,-32.48223876953125
1773522029716733400,10.2587333984375,-180.45118713378906,65.22390747070312,-32.451873779296875
1773522029726846500,10.268846435546875,-180.64471435546875,65.00039672851562,-32.60498046875
1773522029736960500,10.27896044921875,-180.3975372314453,65.097412109375,-32.678558349609375
1773522029747073500,10.289073486328125,-180.34666442871094,65.0069580078125,-32.437042236328125
1773522029757186300,10.299186279296874,-180.38687133789062,64.96157836914062,-32.55418395996094
1773522029767299300,10.30929931640625,-179.99815368652344,64.79547119140625,-32.32008361816406
1773522029777414400,10.319414306640626,-180.54080200195312,64.99098205566406,-32.40715026855469
1773522029787529500,10.329529541015624,-180.27902221679688,65.11737060546875,-32.64976501464844
1773522029797644300,10.339644287109374,-180.67730712890625,65.27581787109375,-32.39244079589844
1773522029807758300,10.34975830078125,-180.2621307373047,65.1759033203125,-32.57716369628906
1773522029817873400,10.359873291015624,-180.0718536376953,65.30012512207031,-32.522674560546875
1773522029827987500,10.369987548828124,-179.8802032470703,65.22819519042969,-32.57232666015625
1773522029838100500,10.3801005859375,-180.13047790527344,65.09019470214844,-32.7850341796875
1773522029848213500,10.390213623046876,-179.8822479248047,65.28500366210938,-32.601654052734375
1773522029858326500,10.400326416015625,-180.23255920410156,64.84373474121094,-32.69886779785156
1773522029868441300,10.41044140625,-180.0574951171875,65.29977416992188,-32.60833740234375
1773522029878554400,10.420554443359375,-180.0898895263672,65.01051330566406,-32.62818908691406
1773522029888668400,10.43066845703125,-180.12625122070312,65.25993347167969,-32.99092102050781
1773522029898782500,10.440782470703125,-179.96910095214844,65.21234130859375,-32.74296569824219
1773522029908895500,10.4508955078125,-179.7630615234375,65.15438842773438,-32.554412841796875
1773522029919009500,10.461009521484375,-180.1691436767578,64.98262023925781,-32.7259521484375
1773522029929123300,10.471123291015624,-179.60922241210938,65.12992858886719,-32.826416015625
1773522029939236400,10.481236328125,-179.51785278320312,65.16189575195312,-32.95295715332031
1773522029949350400,10.491350341796876,-179.7942352294922,65.31999206542969,-32.796905517578125
1773522029959464200,10.501464111328126,-179.94102478027344,65.34811401367188,-32.58357238769531
1773522029969578500,10.51157861328125,-179.64080810546875,65.28958129882812,-32.82212829589844
1773522029979692500,10.521692626953126,-180.050537109375,65.15628051757812,-32.66719055175781
1773522029989807400,10.531807373046876,-179.8436737060547,65.23814392089844,-32.89056396484375
1773522029999921400,10.54192138671875,-179.9266815185547,65.31100463867188,-32.791961669921875
1773522030010036500,10.552036376953126,-179.43505859375,65.30441284179688,-32.67430114746094
1773522030020149500,10.5621494140625,-179.5970458984375,65.44866943359375,-32.97502136230469
1773522030030263300,10.57226318359375,-179.8794708251953,65.51943969726562,-32.8048095703125
1773522030040378400,10.58237841796875,-179.8986358642578,65.45233154296875,-32.94056701660156
1773522030050492400,10.592492431640625,-179.87185668945312,65.5560302734375,-32.96598815917969
1773522030060607500,10.602607421875,-179.75743103027344,65.37965393066406,-32.828369140625
1773522030070720500,10.612720458984375,-179.69485473632812,65.49179077148438,-32.992523193359375
1773522030080834300,10.622834228515625,-179.20745849609375,65.45339965820312,-32.81993103027344
1773522030090948400,10.6329482421875,-179.4381103515625,65.50187683105469,-32.98321533203125
1773522030101061400,10.643061279296875,-179.5755615234375,65.42318725585938,-32.58518981933594
1773522030111174400,10.65317431640625,-180.01112365722656,65.48526000976562,-33.03468322753906
1773522030121288200,10.6632880859375,-179.58413696289062,65.43472290039062,-32.82403564453125
1773522030131403500,10.673403564453125,-179.92628479003906,65.56513977050781,-32.88551330566406
1773522030141517300,10.683517333984375,-179.6510467529297,65.42193603515625,-32.73255920410156
1773522030151631400,10.69363134765625,-179.7473907470703,65.52864074707031,-32.575836181640625
1773522030161746400,10.703746337890625,-180.0748291015625,65.43634033203125,-32.881622314453125
1773522030171860500,10.713860595703125,-180.12008666992188,65.27590942382812,-32.83915710449219
1773522030181978400,10.723978271484375,-180.09873962402344,65.05783081054688,-32.73381042480469
1773522030192093700,10.73409375,-179.9537811279297,65.00140380859375,-32.669097900390625
1773522030202207500,10.74420751953125,-179.5772247314453,65.35911560058594,-32.66033935546875
1773522030212319500,10.754319580078125,-179.92347717285156,65.20884704589844,-32.78749084472656
1773522030222433500,10.76443359375,-179.87374877929688,65.31474304199219,-32.85411071777344
1773522030232546600,10.774546630859374,-179.6982879638672,65.3076171875,-32.79597473144531
1773522030242661400,10.784661376953125,-179.6375732421875,65.15693664550781,-32.561798095703125
1773522030252776400,10.7947763671875,-179.96058654785156,65.23617553710938,-32.83282470703125
1773522030262890500,10.804890380859375,-180.34815979003906,65.40361022949219,-32.98216247558594
1773522030273004500,10.815004638671875,-179.8151092529297,65.17518615722656,-32.87272644042969
1773522030283118600,10.82511865234375,-180.04595947265625,65.30778503417969,-32.83705139160156
1773522030293230600,10.835230712890626,-179.80368041992188,65.392822265625,-32.581329345703125
1773522030303344400,10.845344482421876,-179.80386352539062,65.28950500488281,-33.01513671875
1773522030313457400,10.85545751953125,-180.3387908935547,65.18832397460938,-32.70930480957031
1773522030323572500,10.865572509765625,-179.92323303222656,65.26858520507812,-32.77667236328125
1773522030333687600,10.8756875,-180.36679077148438,65.25605773925781,-32.93309020996094
1773522030343801600,10.885801513671876,-180.47845458984375,65.28277587890625,-32.74726867675781
1773522030353915400,10.895915283203125,-180.35325622558594,65.34915161132812,-33.06385803222656
1773522030364028400,10.9060283203125,-180.41653442382812,65.11335754394531,-32.81610107421875
1773522030374142500,10.916142578125,-180.29507446289062,65.43461608886719,-32.98004150390625
1773522030384256500,10.926256591796875,-180.879150390625,65.39750671386719,-32.97613525390625
1773522030394371600,10.93637158203125,-180.51412963867188,65.19010925292969,-32.718719482421875
1773522030404486400,10.946486328125,-180.53927612304688,65.32876586914062,-33.01434326171875
1773522030414600700,10.9566005859375,-180.9081268310547,65.27932739257812,-32.85856628417969
1773522030424714500,10.966714599609375,-180.95594787597656,65.15887451171875,-32.846893310546875
1773522030434828500,10.97682861328125,-180.48419189453125,65.30281066894531,-32.635101318359375
1773522030444943400,10.986943359375,-180.8076629638672,65.10810852050781,-32.754119873046875
1773522030455058700,10.99705859375,-180.43797302246094,65.25804138183594,-33.11042785644531
1773522030465173500,11.007173583984375,-180.713623046875,65.117431640625,-32.76847839355469
1773522030475288300,11.017288330078125,-180.7671661376953,65.23164367675781,-32.970733642578125
1773522030485403600,11.027403564453126,-180.6327362060547,65.46846008300781,-32.79066467285156
1773522030495518500,11.0375185546875,-180.93600463867188,65.22817993164062,-32.92704772949219
1773522030505631500,11.047631591796875,-180.25772094726562,65.01976013183594,-32.83006286621094
1773522030515744500,11.05774462890625,-180.88455200195312,65.2247314453125,-32.8367919921875
1773522030525856500,11.0678564453125,-180.60313415527344,65.22874450683594,-32.98136901855469
1773522030535969500,11.077969482421874,-180.9958953857422,65.41828918457031,-32.84452819824219
1773522030546082600,11.08808251953125,-180.85581970214844,65.32481384277344,-32.957916259765625
1773522030556197400,11.098197265625,-180.60110473632812,65.14337158203125,-33.13276672363281
1773522030566311700,11.108311767578124,-180.51451110839844,65.16522216796875,-32.89788818359375
1773522030576425500,11.118425537109376,-180.629150390625,65.4864501953125,-32.882843017578125
1773522030586540500,11.12854052734375,-180.1492156982422,65.44888305664062,-33.08734130859375
1773522030596655600,11.138655517578124,-180.25721740722656,65.48298645019531,-32.97505187988281
1773522030606769700,11.148769775390624,-180.619873046875,65.44419860839844,-32.97697448730469
1773522030616884500,11.158884521484374,-180.50201416015625,65.30754089355469,-32.83879089355469
1773522030626996500,11.16899658203125,-180.60455322265625,65.24853515625,-32.68849182128906
1773522030637110500,11.179110595703126,-180.451416015625,65.16548156738281,-32.8165283203125
1773522030647224300,11.189224365234375,-180.85850524902344,65.37211608886719,-32.818572998046875
1773522030657339600,11.199339599609376,-180.75177001953125,65.23233032226562,-32.9522705078125
1773522030667454500,11.209454345703126,-180.49647521972656,65.29267883300781,-32.88883972167969
1773522030677569300,11.2195693359375,-180.75071716308594,65.26976013183594,-32.871673583984375
1773522030687684600,11.2296845703125,-180.23841857910156,65.01666259765625,-32.78184509277344
1773522030697799400,11.23979931640625,-180.49371337890625,65.29478454589844,-32.8480224609375
1773522030707914500,11.24991455078125,-180.48483276367188,65.31575012207031,-32.714080810546875
1773522030718028500,11.260028564453124,-180.2677001953125,65.43553161621094,-32.51502990722656
1773522030728142600,11.270142578125,-180.60568237304688,65.34944152832031,-32.861846923828125
1773522030738256400,11.28025634765625,-180.44754028320312,65.19528198242188,-32.68304443359375
1773522030748370400,11.290370361328126,-180.28756713867188,65.44607543945312,-32.68672180175781
1773522030758484500,11.300484375,-180.4004364013672,65.10981750488281,-32.8399658203125
1773522030768599600,11.310599609375,-180.13470458984375,65.3507080078125,-32.52874755859375
1773522030778713300,11.32071337890625,-180.2539520263672,65.26902770996094,-32.87738037109375
1773522030788828700,11.33082861328125,-180.5209197998047,65.12750244140625,-32.904693603515625
1773522030798942500,11.3409423828125,-180.62222290039062,65.587890625,-33.043212890625
1773522030809058300,11.351058349609374,-180.780029296875,65.21484375,-33.03010559082031
1773522030819172400,11.36117236328125,-180.33934020996094,65.59938049316406,-32.948455810546875
1773522030829287400,11.371287353515624,-180.2572021484375,65.31663513183594,-32.72572326660156
1773522030839400400,11.381400390625,-181.02197265625,65.08943176269531,-33.01751708984375
1773522030849513500,11.391513427734376,-180.6327667236328,65.36468505859375,-33.03361511230469
1773522030859627500,11.40162744140625,-180.61549377441406,65.302001953125,-32.89195251464844
1773522030869740500,11.411740478515625,-180.85302734375,65.39140319824219,-33.1636962890625
1773522030879854300,11.421854248046875,-181.12220764160156,65.34715270996094,-32.969573974609375
1773522030889969700,11.4319697265625,-180.88558959960938,65.30181884765625,-33.12272644042969
1773522030900083500,11.44208349609375,-180.60240173339844,65.34539794921875,-33.173126220703125
1773522030910198500,11.452198486328125,-180.13314819335938,65.17178344726562,-32.65216064453125
1773522030920313600,11.462313720703126,-180.5978546142578,65.42073059082031,-33.12031555175781
1773522030930427600,11.472427734375,-180.64971923828125,65.39825439453125,-33.00028991699219
1773522030940542500,11.48254248046875,-180.8212432861328,65.20561218261719,-33.130035400390625
1773522030950656500,11.492656494140626,-180.507080078125,65.35310363769531,-32.926422119140625
1773522030960771600,11.502771484375,-180.58860778808594,65.52516174316406,-33.05731201171875
1773522030970887400,11.512887451171874,-180.647705078125,65.37974548339844,-33.16905212402344
1773522030981002500,11.52300244140625,-181.06048583984375,65.50047302246094,-33.09136962890625
1773522030991118300,11.533118408203125,-181.03350830078125,65.55845642089844,-33.225738525390625
1773522031001232400,11.543232421875,-181.00363159179688,65.70333862304688,-33.24159240722656
1773522031011346700,11.5533466796875,-181.39346313476562,65.57920837402344,-33.18400573730469
1773522031021461500,11.56346142578125,-181.39361572265625,65.36032104492188,-33.428009033203125
1773522031031576300,11.573576416015625,-181.55654907226562,65.38070678710938,-33.20603942871094
1773522031041692400,11.5836923828125,-182.0116424560547,65.49282836914062,-33.42866516113281
1773522031051807500,11.593807373046875,-181.5856170654297,65.47314453125,-32.96168518066406
1773522031061923600,11.603923583984376,-181.78115844726562,65.55006408691406,-33.33226013183594
1773522031072038400,11.614038330078126,-181.95677185058594,65.29183959960938,-33.36346435546875
1773522031082153500,11.624153564453126,-181.94097900390625,65.79582214355469,-33.452362060546875
1773522031092267500,11.634267578125,-181.9782257080078,65.59443664550781,-33.48329162597656
1773522031102380500,11.644380615234375,-181.85723876953125,65.41268920898438,-33.19093322753906
1773522031112493600,11.65449365234375,-182.0028839111328,65.81362915039062,-33.5301513671875
1773522031122608400,11.6646083984375,-181.44972229003906,65.64535522460938,-33.44300842285156
1773522031132721400,11.674721435546875,-181.63897705078125,65.61334228515625,-33.46409606933594
1773522031142834400,11.68483447265625,-181.4620819091797,65.49385070800781,-33.17848205566406
1773522031152949500,11.694949462890625,-181.32827758789062,65.57182312011719,-33.266754150390625
1773522031163064600,11.705064697265625,-181.37535095214844,65.52330017089844,-33.33601379394531
1773522031173177600,11.715177490234375,-180.7777862548828,65.55476379394531,-33.2283935546875
1773522031183291100,11.725291015625,-180.58282470703125,65.56478881835938,-33.23924255371094
1773522031193405200,11.7354052734375,-180.430419921875,65.45533752441406,-32.99699401855469
1773522031203519200,11.745519287109374,-180.39906311035156,65.3782958984375,-33.19316101074219
1773522031213635300,11.75563525390625,-180.52120971679688,65.302490234375,-32.95306396484375
1773522031223749000,11.7657490234375,-180.63905334472656,65.51554870605469,-33.20463562011719
1773522031233863200,11.77586328125,-179.84518432617188,65.72808837890625,-33.25990295410156
1773522031243977000,11.78597705078125,-180.01699829101562,65.6280517578125,-32.942718505859375
1773522031254093000,11.796093017578125,-179.85720825195312,65.51385498046875,-33.01676940917969
1773522031264207000,11.80620703125,-179.866455078125,65.62443542480469,-32.97529602050781
1773522031274322000,11.816322021484375,-179.89097595214844,65.71612548828125,-33.06883239746094
1773522031284435000,11.82643505859375,-179.38925170898438,65.47439575195312,-33.02677917480469
1773522031294549200,11.83654931640625,-179.66246032714844,65.28135681152344,-32.941986083984375
1773522031304663300,11.846663330078124,-179.34922790527344,65.43609619140625,-32.957000732421875
1773522031314778000,11.856778076171874,-179.5276336669922,65.46510314941406,-32.811309814453125
1773522031324891100,11.86689111328125,-179.26803588867188,65.39738464355469,-33.048614501953125
1773522031335005000,11.8770048828125,-179.39859008789062,65.31661987304688,-32.919036865234375
1773522031345116200,11.8871162109375,-179.31236267089844,65.32905578613281,-32.81025695800781
1773522031355229200,11.897229248046875,-178.87673950195312,65.3062744140625,-32.78996276855469
1773522031365343000,11.907343017578125,-178.96527099609375,65.5150146484375,-32.96974182128906
1773522031375456000,11.9174560546875,-178.78158569335938,65.31221008300781,-32.84233093261719
1773522031385570000,11.927570068359374,-178.6626739501953,65.3492431640625,-32.57872009277344
1773522031395685000,11.93768505859375,-178.9749755859375,65.43373107910156,-32.72944641113281
1773522031405799200,11.947799072265624,-178.95054626464844,65.31639099121094,-32.840606689453125
1773522031415913200,11.957913330078124,-179.05307006835938,65.32966613769531,-32.665802001953125
1773522031426027000,11.968027099609374,-179.2900848388672,65.03048706054688,-32.57623291015625
1773522031436141000,11.97814111328125,-179.03208923339844,65.32235717773438,-32.627410888671875
1773522031446255000,11.988255126953124,-179.2897491455078,65.11398315429688,-32.44828796386719
1773522031456369200,11.998369140625,-178.7076416015625,65.31488037109375,-32.70953369140625
1773522031466482200,12.008482177734376,-178.98321533203125,65.30238342285156,-32.636932373046875
1773522031476596200,12.01859619140625,-178.9288330078125,65.20994567871094,-32.597442626953125
1773522031486710000,12.0287099609375,-178.7653350830078,65.37249755859375,-32.63897705078125
1773522031496824000,12.038823974609375,-178.7028350830078,65.36459350585938,-32.51893615722656
1773522031506938000,12.048938232421875,-178.90013122558594,65.39962768554688,-32.55558776855469
1773522031517052200,12.05905224609375,-178.42762756347656,65.15489196777344,-32.400634765625
1773522031527166200,12.069166259765625,-178.833251953125,65.23843383789062,-32.45753479003906
1773522031537279200,12.079279296875,-178.92726135253906,65.28388977050781,-32.69725036621094
1773522031547393000,12.08939306640625,-179.35006713867188,65.67922973632812,-32.57945251464844
1773522031557505000,12.099505126953124,-179.1410675048828,65.13945007324219,-32.45204162597656
1773522031567616300,12.1096162109375,-179.14344787597656,65.49845886230469,-32.57989501953125
1773522031577728000,12.11972802734375,-179.30711364746094,65.22050476074219,-32.414825439453125
1773522031587840000,12.129840087890624,-178.81362915039062,65.05213928222656,-32.50755310058594
1773522031597952000,12.139951904296876,-179.26351928710938,65.25456237792969,-32.54444885253906
1773522031608065000,12.15006494140625,-179.6893310546875,65.16755676269531,-32.51246643066406
1773522031618176300,12.16017626953125,-179.3016815185547,65.32917785644531,-32.56007385253906
1773522031628287000,12.170286865234376,-179.73709106445312,65.31132507324219,-32.58015441894531
1773522031638398200,12.180398193359375,-179.3834991455078,65.23248291015625,-32.69728088378906
1773522031648511200,12.19051123046875,-179.6423797607422,65.29573059082031,-32.51515197753906
1773522031658623200,12.200623291015624,-180.04135131835938,65.37612915039062,-32.66493225097656
1773522031668735000,12.21073486328125,-179.90199279785156,65.38424682617188,-32.54023742675781
1773522031678847000,12.220846923828125,-179.82691955566406,65.17478942871094,-32.59944152832031
1773522031688959200,12.230959228515625,-180.32981872558594,65.05599975585938,-32.64381408691406
1773522031699071200,12.2410712890625,-180.52816772460938,65.34896850585938,-32.80999755859375
1773522031709184300,12.251184326171876,-180.61656188964844,65.23771667480469,-32.85429382324219
1773522031719297300,12.26129736328125,-180.62234497070312,65.18980407714844,-32.76380920410156
1773522031729409300,12.2714091796875,-180.87681579589844,65.3577880859375,-32.930938720703125
1773522031739521000,12.28152099609375,-181.1043243408203,65.32571411132812,-32.99664306640625
1773522031749634000,12.291634033203126,-180.83908081054688,65.26473999023438,-33.0343017578125
1773522031759745000,12.3017451171875,-181.09072875976562,65.30149841308594,-33.05760192871094
1773522031769858000,12.311858154296875,-181.1468505859375,65.16555786132812,-33.02754211425781
1773522031779972000,12.32197216796875,-181.2832794189453,65.52406311035156,-33.06434631347656
1773522031790086100,12.332086181640625,-181.1979522705078,65.34815979003906,-33.20556640625
1773522031800199000,12.342198974609374,-181.00543212890625,65.52096557617188,-33.20664978027344
1773522031810312000,12.35231201171875,-180.83993530273438,65.62379455566406,-33.19696044921875
1773522031820425000,12.362425048828126,-181.13461303710938,65.66275024414062,-33.3729248046875
1773522031830538000,12.3725380859375,-181.2105712890625,65.86189270019531,-33.322540283203125
1773522031840652300,12.38265234375,-181.16616821289062,65.58543395996094,-33.1817626953125
1773522031850766000,12.39276611328125,-180.79852294921875,65.35569763183594,-33.10966491699219
1773522031860880100,12.402880126953125,-180.76148986816406,65.71615600585938,-32.988037109375
1773522031870993200,12.4129931640625,-180.6569061279297,65.42593383789062,-33.25267028808594
1773522031881107200,12.423107177734375,-180.92140197753906,65.57339477539062,-33.015411376953125
1773522031891219200,12.43321923828125,-180.62303161621094,65.60952758789062,-33.06977844238281
1773522031901331200,12.443331298828125,-180.51235961914062,65.49440002441406,-33.10066223144531
1773522031911444200,12.4534443359375,-180.59373474121094,65.33622741699219,-33.08064270019531
1773522031921557200,12.46355712890625,-180.1552276611328,65.45811462402344,-33.16227722167969
1773522031931670300,12.473670166015625,-180.66458129882812,65.59030151367188,-32.97857666015625
1773522031941782300,12.4837822265625,-180.48460388183594,65.67489624023438,-33.24665832519531
1773522031951894000,12.49389404296875,-180.30511474609375,65.7183837890625,-32.98846435546875
1773522031962007000,12.504007080078125,-180.3458251953125,65.60322570800781,-33.186920166015625
1773522031972119000,12.514119140625,-180.46849060058594,65.3558349609375,-33.17472839355469
1773522031982231000,12.52423095703125,-180.31689453125,65.74722290039062,-33.127410888671875
1773522031992343300,12.53434326171875,-180.35140991210938,65.49452209472656,-33.18156433105469
1773522032002455300,12.544455322265625,-179.77786254882812,65.39529418945312,-32.8135986328125
1773522032012568300,12.554568359375,-180.44451904296875,65.64627075195312,-33.047393798828125
1773522032022680000,12.56468017578125,-180.38270568847656,65.48664855957031,-33.1334228515625
1773522032032794000,12.574794189453126,-180.2866668701172,65.46556091308594,-33.19322204589844
1773522032042907100,12.5849072265625,-180.41929626464844,65.38261413574219,-33.04608154296875
1773522032053020200,12.595020263671875,-180.33255004882812,65.58265686035156,-33.103363037109375
1773522032063133200,12.60513330078125,-180.37205505371094,65.59349060058594,-32.93989562988281
1773522032073246200,12.61524609375,-180.12332153320312,65.42982482910156,-33.0185546875
1773522032083359200,12.625359130859374,-180.54283142089844,65.64443969726562,-33.067626953125
1773522032093472000,12.635471923828124,-180.63450622558594,65.59298706054688,-32.98091125488281
1773522032103584000,12.645583984375,-180.5595245361328,65.34629821777344,-32.99070739746094
1773522032113698000,12.655697998046875,-180.86087036132812,65.5933837890625,-33.093719482421875
1773522032123810000,12.66581005859375,-180.51779174804688,65.45680236816406,-33.01008605957031
1773522032133922000,12.675922119140624,-180.52297973632812,65.3184814453125,-32.92620849609375
1773522032144036000,12.6860361328125,-180.12811279296875,65.15083312988281,-32.58097839355469
1773522032154149000,12.696149169921876,-180.24974060058594,65.33970642089844,-32.7520751953125
1773522032164263000,12.706262939453126,-180.1416778564453,65.34397888183594,-32.774139404296875
1773522032174376000,12.7163759765625,-180.2940216064453,65.13206481933594,-32.69062805175781
1773522032184487000,12.72648681640625,-180.34051513671875,65.12997436523438,-32.62882995605469
1773522032194600700,12.7366005859375,-179.86386108398438,65.16439819335938,-32.53092956542969
1773522032204713700,12.746713623046874,-179.76686096191406,65.1759033203125,-32.6641845703125
1773522032214825700,12.75682568359375,-179.68215942382812,65.14407348632812,-32.480133056640625
1773522032224938800,12.766938720703125,-179.69467163085938,65.30018615722656,-32.57762145996094
1773522032235051500,12.777051513671875,-179.94412231445312,65.43313598632812,-32.74693298339844
1773522032245163800,12.787163818359375,-180.02760314941406,65.19873046875,-32.597991943359375
1773522032255275800,12.79727587890625,-179.8859100341797,65.24656677246094,-32.82954406738281
1773522032265388800,12.807388916015626,-180.10072326660156,65.07611083984375,-32.63487243652344
1773522032275500800,12.817500732421875,-180.04568481445312,65.54792785644531,-32.95747375488281
1773522032285612800,12.82761279296875,-180.00845336914062,65.2880859375,-32.63499450683594
1773522032295723800,12.837723876953126,-180.1024169921875,65.2908935546875,-32.85780334472656
1773522032305835800,12.847835693359375,-180.1272430419922,65.32861328125,-32.86326599121094
1773522032315948800,12.85794873046875,-179.9324188232422,65.39476013183594,-32.81422424316406
1773522032326062600,12.8680625,-180.49066162109375,65.18020629882812,-32.6964111328125
1773522032336174800,12.8781748046875,-180.2151641845703,65.34608459472656,-32.52897644042969
1773522032346286800,12.888286865234376,-180.21253967285156,65.43641662597656,-32.6507568359375
1773522032356399900,12.89839990234375,-180.09347534179688,65.57905578613281,-32.740814208984375
1773522032366510600,12.908510498046875,-179.77532958984375,65.48258972167969,-32.74200439453125
1773522032376622600,12.91862255859375,-179.68878173828125,65.20265197753906,-32.68180847167969
1773522032386735600,12.928735595703126,-179.00132751464844,65.37236022949219,-32.633758544921875
1773522032396846800,12.938846923828125,-179.71212768554688,65.28799438476562,-32.590667724609375
1773522032406958800,12.948958740234374,-179.00640869140625,65.25663757324219,-32.643341064453125
1773522032417069600,12.959069580078125,-179.08995056152344,65.35977172851562,-32.57734680175781
1773522032427181800,12.969181884765625,-178.79685974121094,65.21549987792969,-32.353485107421875
1773522032437294800,12.979294921875,-178.30767822265625,65.30265808105469,-32.45951843261719
1773522032447405800,12.98940576171875,-178.29132080078125,65.27166748046875,-32.22804260253906
