absolute_timestamp,accel_x,accel_y,accel_z
1775855247732,0.162,-0.922,-0.303
1775855247752,0.189,-0.902,-0.332
1775855247772,0.198,-0.907,-0.365
1775855247792,0.199,-0.926,-0.343
1775855247811,0.194,-0.971,-0.316
1775855247831,0.155,-0.941,-0.288
1775855247851,0.135,-0.907,-0.313
1775855247871,0.111,-0.927,-0.319
1775855247890,0.085,-0.978,-0.284
1775855247910,0.058,-0.981,-0.240
1775855247930,0.060,-0.961,-0.243
1775855247950,0.060,-0.938,-0.261
1775855247969,0.059,-0.910,-0.253
1775855247989,0.052,-0.912,-0.249
1775855248009,0.033,-0.931,-0.247
1775855248029,0.033,-0.938,-0.252
1775855248048,0.021,-0.921,-0.260
1775855248068,0.007,-0.969,-0.243
1775855248088,-0.014,-0.986,-0.234
1775855248108,-0.019,-0.988,-0.251
1775855248127,-0.027,-1.001,-0.264
1775855248147,-0.045,-0.962,-0.257
1775855248167,-0.067,-0.934,-0.276
1775855248187,-0.086,-0.899,-0.285
1775855248206,-0.112,-0.883,-0.312
1775855248226,-0.161,-0.887,-0.332
1775855248246,-0.208,-0.929,-0.351
1775855248266,-0.227,-0.964,-0.405
1775855248285,-0.255,-0.974,-0.448
1775855248305,-0.264,-0.979,-0.476
1775855248325,-0.267,-0.960,-0.500
1775855248345,-0.278,-0.962,-0.492
1775855248365,-0.297,-0.954,-0.435
1775855248384,-0.310,-0.961,-0.393
1775855248404,-0.308,-0.929,-0.338
1775855248424,-0.313,-0.885,-0.274
1775855248444,-0.322,-0.869,-0.233
1775855248463,-0.330,-0.843,-0.192
1775855248483,-0.352,-0.795,-0.222
1775855248503,-0.365,-0.725,-0.344
1775855248523,-0.367,-0.684,-0.429
1775855248542,-0.360,-0.709,-0.513
1775855248562,-0.351,-0.744,-0.654
1775855248582,-0.334,-0.749,-0.738
1775855248602,-0.320,-0.749,-0.746
1775855248621,-0.308,-0.758,-0.727
1775855248641,-0.291,-0.758,-0.741
1775855248661,-0.278,-0.756,-0.729
1775855248681,-0.260,-0.755,-0.707
1775855248700,-0.251,-0.750,-0.678
1775855248720,-0.229,-0.751,-0.691
1775855248740,-0.220,-0.742,-0.716
1775855248760,-0.214,-0.759,-0.700
1775855248779,-0.213,-0.749,-0.675
1775855248799,-0.214,-0.770,-0.655
1775855248819,-0.209,-0.748,-0.600
1775855248839,-0.209,-0.747,-0.568
1775855248858,-0.216,-0.762,-0.564
1775855248878,-0.200,-0.838,-0.570
1775855248898,-0.196,-0.772,-0.587
1775855248918,-0.180,-0.800,-0.619
1775855248937,-0.171,-0.814,-0.591
1775855248957,-0.158,-0.831,-0.576
1775855248977,-0.142,-0.817,-0.594
1775855248997,-0.119,-0.809,-0.609
1775855249016,-0.100,-0.812,-0.595
1775855249036,-0.083,-0.805,-0.593
1775855249056,-0.068,-0.798,-0.605
1775855249076,-0.052,-0.795,-0.600
1775855249096,-0.034,-0.789,-0.590
1775855249115,-0.024,-0.790,-0.583
1775855249135,-0.012,-0.794,-0.571
1775855249155,-0.005,-0.787,-0.572
1775855249175,0.008,-0.776,-0.581
1775855249194,0.010,-0.773,-0.583
1775855249214,0.020,-0.789,-0.578
1775855249234,0.029,-0.800,-0.566
1775855249254,0.028,-0.803,-0.558
1775855249273,0.033,-0.806,-0.555
1775855249293,0.038,-0.806,-0.543
1775855249313,0.036,-0.816,-0.528
1775855249333,0.037,-0.823,-0.517
1775855249352,0.030,-0.832,-0.506
1775855249372,0.032,-0.841,-0.504
1775855249392,0.031,-0.837,-0.501
1775855249412,0.027,-0.835,-0.524
1775855249431,0.023,-0.864,-0.571
1775855249451,0.026,-0.917,-0.717
1775855249471,0.050,-0.937,-0.869
1775855249491,0.060,-0.902,-0.880
1775855249510,0.065,-0.857,-0.715
1775855249530,0.074,-0.799,-0.524
1775855249550,0.079,-0.779,-0.354
1775855249570,0.084,-0.816,-0.244
1775855249589,0.085,-0.850,-0.165
1775855249609,0.091,-0.867,-0.118
1775855249629,0.083,-0.907,-0.140
1775855249649,0.082,-0.919,-0.189
1775855249668,0.081,-0.937,-0.227
1775855249688,0.074,-0.956,-0.250
1775855249708,0.075,-0.968,-0.270
1775855249728,0.075,-0.964,-0.289
1775855249747,0.077,-0.965,-0.309
1775855249767,0.084,-0.950,-0.323
1775855249787,0.084,-0.947,-0.320
1775855249807,0.096,-0.949,-0.320
1775855249826,0.097,-0.931,-0.320
1775855249846,0.090,-0.931,-0.322
1775855249866,0.101,-0.945,-0.323
1775855249886,0.096,-0.932,-0.328
1775855249906,0.090,-0.938,-0.348
1775855249925,0.096,-0.943,-0.356
1775855249945,0.094,-0.934,-0.348
1775855249965,0.087,-0.936,-0.342
1775855249985,0.084,-0.947,-0.332
1775855250004,0.081,-0.941,-0.323
1775855250024,0.076,-0.920,-0.314
1775855250044,0.077,-0.922,-0.319
1775855250064,0.069,-0.940,-0.296
1775855250083,0.070,-0.925,-0.278
1775855250103,0.060,-0.934,-0.262
1775855250123,0.063,-0.916,-0.231
1775855250143,0.053,-0.907,-0.207
1775855250162,0.044,-0.921,-0.224
1775855250182,0.027,-0.919,-0.294
1775855250202,0.030,-0.911,-0.357
1775855250222,0.025,-0.902,-0.378
1775855250241,0.019,-0.903,-0.402
1775855250261,0.017,-0.907,-0.452
1775855250281,0.016,-0.908,-0.506
1775855250301,0.015,-0.904,-0.549
1775855250321,0.021,-0.901,-0.566
1775855250340,0.024,-0.896,-0.557
1775855250360,0.022,-0.895,-0.547
1775855250380,0.029,-0.885,-0.546
1775855250400,0.026,-0.875,-0.534
1775855250419,0.026,-0.872,-0.504
1775855250439,0.026,-0.873,-0.477
1775855250459,0.027,-0.872,-0.467
1775855250479,0.030,-0.876,-0.471
1775855250498,0.026,-0.874,-0.477
1775855250518,0.027,-0.878,-0.457
1775855250538,0.016,-0.877,-0.430
1775855250558,0.018,-0.881,-0.451
1775855250577,0.013,-0.878,-0.482
1775855250597,0.014,-0.905,-0.474
1775855250617,0.020,-0.903,-0.461
1775855250637,0.019,-0.873,-0.469
1775855250656,0.027,-0.879,-0.475
1775855250676,0.024,-0.872,-0.469
1775855250696,0.028,-0.866,-0.483
1775855250716,0.031,-0.867,-0.488
1775855250736,0.025,-0.863,-0.491
1775855250755,0.029,-0.867,-0.496
1775855250775,0.027,-0.879,-0.487
1775855250795,0.030,-0.881,-0.474
1775855250815,0.030,-0.879,-0.467
1775855250834,0.024,-0.875,-0.469
1775855250854,0.021,-0.877,-0.466
1775855250874,0.019,-0.871,-0.478
1775855250894,0.019,-0.879,-0.484
1775855250933,0.023,-0.872,-0.476
1775855250953,0.019,-0.867,-0.484
1775855250973,0.020,-0.871,-0.477
1775855250992,0.022,-0.875,-0.477
1775855251012,0.022,-0.876,-0.485
1775855251032,0.021,-0.871,-0.485
1775855251052,0.021,-0.868,-0.490
1775855251072,0.025,-0.868,-0.492
1775855251091,0.021,-0.875,-0.489
1775855251111,0.025,-0.877,-0.476
1775855251131,0.024,-0.864,-0.480
1775855251151,0.028,-0.873,-0.481
1775855251170,0.028,-0.867,-0.476
1775855251190,0.028,-0.872,-0.483
1775855251210,0.025,-0.874,-0.477
1775855251230,0.031,-0.858,-0.481
1775855251249,0.028,-0.858,-0.493
1775855251269,0.024,-0.869,-0.496
1775855251289,0.023,-0.872,-0.497
1775855251309,0.028,-0.869,-0.496
1775855251328,0.023,-0.862,-0.493
1775855251348,0.027,-0.864,-0.488
1775855251368,0.030,-0.856,-0.490
1775855251388,0.039,-0.862,-0.502
1775855251407,0.036,-0.867,-0.501
1775855251427,0.038,-0.862,-0.499
1775855251447,0.034,-0.858,-0.500
1775855251467,0.035,-0.858,-0.499
1775855251487,0.032,-0.872,-0.501
1775855251506,0.032,-0.865,-0.499
1775855251526,0.028,-0.868,-0.499
1775855251546,0.025,-0.865,-0.494
1775855251566,0.021,-0.867,-0.483
1775855251585,0.026,-0.872,-0.479
1775855251605,0.024,-0.872,-0.475
1775855251625,0.027,-0.863,-0.483
1775855251645,0.020,-0.872,-0.490
1775855251664,0.022,-0.872,-0.480
1775855251684,0.026,-0.872,-0.485
1775855251704,0.021,-0.859,-0.488
1775855251724,0.027,-0.860,-0.491
1775855251743,0.025,-0.869,-0.492
1775855251763,0.024,-0.875,-0.485
1775855251783,0.019,-0.867,-0.491
1775855251803,0.021,-0.871,-0.492
1775855251822,0.021,-0.871,-0.482
1775855251842,0.019,-0.858,-0.487
1775855251862,0.017,-0.873,-0.490
1775855251882,0.014,-0.880,-0.485
1775855251902,0.019,-0.881,-0.481
1775855251921,0.022,-0.866,-0.483
1775855251941,0.024,-0.857,-0.481
1775855251961,0.026,-0.862,-0.484
1775855251981,0.026,-0.867,-0.487
1775855252000,0.028,-0.874,-0.491
1775855252020,0.032,-0.856,-0.497
1775855252040,0.028,-0.858,-0.507
1775855252060,0.024,-0.866,-0.501
1775855252079,0.025,-0.868,-0.497
1775855252099,0.020,-0.864,-0.496
1775855252119,0.016,-0.868,-0.489
1775855252139,0.019,-0.866,-0.490
1775855252158,0.023,-0.869,-0.496
1775855252178,0.023,-0.870,-0.496
1775855252198,0.022,-0.866,-0.496
1775855252218,0.022,-0.862,-0.493
1775855252237,0.023,-0.867,-0.491
1775855252257,0.018,-0.868,-0.486
1775855252277,0.025,-0.862,-0.488
1775855252297,0.027,-0.864,-0.484
1775855252316,0.024,-0.867,-0.485
1775855252336,0.021,-0.872,-0.486
1775855252356,0.018,-0.864,-0.489
1775855252376,0.021,-0.867,-0.496
1775855252396,0.031,-0.876,-0.487
1775855252415,0.023,-0.861,-0.491
1775855252435,0.024,-0.857,-0.498
1775855252455,0.018,-0.867,-0.497
1775855252475,0.017,-0.869,-0.495
1775855252494,0.018,-0.871,-0.493
1775855252514,0.025,-0.861,-0.491
1775855252534,0.024,-0.862,-0.486
1775855252554,0.027,-0.864,-0.484
1775855252573,0.029,-0.868,-0.491
1775855252593,0.038,-0.865,-0.490
1775855252613,0.027,-0.854,-0.491
1775855252633,0.031,-0.858,-0.497
1775855252652,0.024,-0.864,-0.496
1775855252672,0.024,-0.867,-0.492
1775855252692,0.019,-0.858,-0.494
1775855252712,0.024,-0.867,-0.486
1775855252731,0.021,-0.869,-0.479
1775855252751,0.020,-0.864,-0.486
1775855252771,0.022,-0.864,-0.492
1775855252791,0.020,-0.868,-0.490
1775855252811,0.021,-0.867,-0.491
1775855252830,0.022,-0.868,-0.492
1775855252850,0.028,-0.867,-0.493
1775855252870,0.018,-0.858,-0.499
1775855252890,0.018,-0.859,-0.501
1775855252909,0.013,-0.869,-0.496
1775855252929,0.013,-0.862,-0.494
1775855252949,0.015,-0.869,-0.489
1775855252969,0.015,-0.871,-0.481
1775855252988,0.011,-0.843,-0.487
1775855253008,0.013,-0.854,-0.500
1775855253028,0.008,-0.868,-0.497
1775855253048,0.006,-0.864,-0.501
1775855253067,0.007,-0.862,-0.508
1775855253087,0.011,-0.858,-0.498
1775855253107,0.008,-0.861,-0.497
1775855253127,0.010,-0.857,-0.499
1775855253146,0.013,-0.861,-0.510
1775855253166,0.015,-0.856,-0.514
1775855253186,0.009,-0.847,-0.518
1775855253206,0.008,-0.852,-0.517
1775855253225,0.010,-0.853,-0.515
1775855253245,0.007,-0.856,-0.516
1775855253265,0.003,-0.854,-0.512
1775855253285,0.003,-0.850,-0.504
1775855253305,0.001,-0.862,-0.503
1775855253324,-0.004,-0.855,-0.501
1775855253344,-0.004,-0.853,-0.506
1775855253364,-0.007,-0.871,-0.501
1775855253384,-0.005,-0.873,-0.499
1775855253403,-0.009,-0.868,-0.497
1775855253423,-0.009,-0.863,-0.477
1775855253443,-0.016,-0.856,-0.447
1775855253463,-0.021,-0.857,-0.432
1775855253482,-0.022,-0.845,-0.426
1775855253502,-0.021,-0.843,-0.424
1775855253522,-0.024,-0.853,-0.424
1775855253542,-0.022,-0.849,-0.414
1775855253561,-0.028,-0.831,-0.425
1775855253581,-0.026,-0.811,-0.463
1775855253601,-0.029,-0.821,-0.482
1775855253621,-0.027,-0.821,-0.484
1775855253640,-0.032,-0.822,-0.503
1775855253660,-0.028,-0.798,-0.514
1775855253680,-0.021,-0.795,-0.525
1775855253700,-0.010,-0.776,-0.543
1775855253720,0.017,-0.758,-0.569
1775855253739,0.036,-0.749,-0.598
1775855253759,0.063,-0.706,-0.622
1775855253779,0.069,-0.690,-0.645
1775855253799,0.081,-0.686,-0.666
1775855253818,0.092,-0.666,-0.666
1775855253838,0.108,-0.728,-0.666
1775855253858,0.112,-0.704,-0.616
1775855253878,0.121,-0.687,-0.573
1775855253897,0.123,-0.731,-0.552
1775855253917,0.122,-0.692,-0.533
1775855253937,0.123,-0.660,-0.508
1775855253957,0.106,-0.633,-0.480
1775855253976,0.099,-0.628,-0.466
1775855253996,0.084,-0.597,-0.460
1775855254016,0.061,-0.552,-0.443
1775855254036,0.051,-0.589,-0.447
1775855254055,0.045,-0.524,-0.497
1775855254075,0.058,-0.477,-0.562
1775855254095,0.061,-0.473,-0.604
1775855254115,0.074,-0.470,-0.600
1775855254134,0.072,-0.443,-0.585
1775855254154,0.067,-0.382,-0.626
1775855254174,0.076,-0.389,-0.685
1775855254194,0.074,-0.327,-0.729
1775855254213,0.083,-0.275,-0.814
1775855254233,0.080,-0.367,-0.880
1775855254253,0.074,-0.359,-0.892
1775855254273,0.054,-0.387,-0.968
1775855254293,0.073,-0.469,-1.026
1775855254312,0.055,-0.484,-0.994
1775855254332,0.054,-0.462,-1.032
1775855254352,0.033,-0.503,-1.028
1775855254372,0.034,-0.560,-0.969
1775855254391,0.041,-0.565,-0.953
1775855254411,0.058,-0.557,-0.956
1775855254431,0.066,-0.567,-0.919
1775855254451,0.099,-0.508,-0.837
1775855254470,0.081,-0.437,-0.789
1775855254490,0.084,-0.521,-0.846
1775855254510,0.088,-0.454,-0.812
1775855254530,0.050,-0.333,-0.754
1775855254549,0.020,-0.304,-0.810
1775855254569,-0.013,-0.373,-0.788
1775855254589,-0.016,-0.345,-0.738
1775855254609,-0.045,-0.286,-0.818
1775855254628,-0.067,-0.327,-0.887
1775855254648,-0.055,-0.311,-0.889
1775855254668,-0.064,-0.247,-0.915
1775855254688,-0.077,-0.382,-0.952
1775855254707,-0.057,-0.427,-0.963
1775855254727,-0.076,-0.376,-1.006
1775855254747,-0.062,-0.408,-1.039
1775855254767,-0.030,-0.353,-1.015
1775855254786,-0.050,-0.292,-1.034
1775855254806,-0.028,-0.332,-1.051
1775855254826,-0.018,-0.403,-1.050
1775855254846,-0.008,-0.335,-1.052
1775855254865,-0.005,-0.252,-1.025
1775855254885,-0.014,-0.316,-0.989
1775855254905,-0.006,-0.320,-1.000
1775855254925,-0.022,-0.281,-1.011
1775855254944,-0.059,-0.248,-1.014
1775855254964,-0.080,-0.278,-1.063
1775855254984,-0.045,-0.486,-0.982
1775855255004,-0.037,-0.541,-0.887
1775855255024,-0.013,-0.320,-1.014
1775855255043,-0.014,-0.294,-1.117
1775855255063,0.043,-0.460,-1.054
1775855255083,0.108,-0.405,-0.970
1775855255103,0.109,-0.227,-0.967
1775855255122,0.092,-0.283,-1.002
1775855255142,0.086,-0.556,-1.014
1775855255162,0.090,-0.603,-1.002
1775855255182,0.097,-0.373,-0.988
1775855255201,0.104,-0.356,-1.011
1775855255221,0.097,-0.491,-1.021
1775855255241,0.142,-0.557,-0.991
1775855255261,0.144,-0.455,-0.982
1775855255280,0.176,-0.284,-1.076
1775855255300,0.144,-0.234,-1.073
1775855255320,0.125,-0.365,-0.870
1775855255340,0.112,-0.476,-0.792
1775855255359,0.116,-0.416,-0.935
1775855255379,0.095,-0.364,-1.087
1775855255399,0.090,-0.350,-1.179
1775855255419,0.074,-0.284,-1.136
1775855255438,0.110,-0.358,-1.086
1775855255458,0.135,-0.291,-1.182
1775855255478,0.067,-0.095,-1.336
1775855255498,0.028,-0.093,-1.301
1775855255517,0.056,-0.303,-1.054
1775855255537,0.089,-0.356,-0.872
1775855255557,0.149,-0.305,-0.913
1775855255577,0.158,-0.079,-0.999
1775855255596,0.126,-0.053,-0.929
1775855255616,0.117,-0.413,-0.735
1775855255636,0.110,-0.564,-0.645
1775855255656,0.121,-0.311,-0.829
1775855255676,0.096,-0.346,-0.979
1775855255695,0.061,-0.652,-0.944
1775855255715,0.031,-0.724,-0.945
1775855255735,-0.001,-0.475,-0.985
1775855255755,0.005,-0.316,-0.885
1775855255774,0.017,-0.396,-0.812
1775855255794,0.026,-0.324,-0.961
1775855255814,0.073,-0.168,-0.912
1775855255834,0.053,-0.133,-0.886
1775855255853,0.081,-0.328,-1.057
1775855255873,0.060,-0.268,-1.265
1775855255893,0.038,-0.147,-1.147
1775855255913,0.003,-0.229,-0.896
1775855255932,-0.032,-0.380,-0.999
1775855255952,-0.031,-0.369,-1.233
1775855255972,0.028,-0.341,-1.104
1775855255992,0.063,-0.266,-0.994
1775855256011,0.117,-0.159,-1.148
1775855256031,0.131,-0.221,-1.116
1775855256051,0.139,-0.223,-0.992
1775855256071,0.120,-0.096,-0.852
1775855256091,0.117,-0.232,-0.700
1775855256110,0.113,-0.022,-0.977
1775855256130,0.056,-0.151,-1.080
1775855256150,0.040,-0.276,-0.858
1775855256170,0.049,-0.300,-0.811
1775855256189,0.077,-0.277,-0.926
1775855256209,0.073,-0.399,-0.948
1775855256229,0.052,-0.345,-0.945
1775855256249,0.041,-0.204,-0.912
1775855256268,0.001,-0.318,-0.847
1775855256288,-0.027,-0.427,-0.757
1775855256308,-0.057,-0.396,-0.661
1775855256328,-0.044,-0.442,-0.546
1775855256347,-0.019,-0.253,-0.458
1775855256367,0.092,0.001,-0.417
1775855256387,0.051,-0.038,-0.326
1775855256407,0.023,-0.014,-0.434
1775855256426,0.134,-0.054,-0.660
1775855256446,0.109,-0.157,-0.671
1775855256466,0.099,-0.369,-0.654
1775855256486,0.118,-0.498,-0.917
1775855256506,0.082,-0.265,-0.868
1775855256525,0.062,-0.301,-0.631
1775855256545,0.053,-0.487,-0.719
1775855256565,0.048,-0.457,-0.886
1775855256585,0.018,-0.404,-1.040
1775855256604,-0.040,-0.199,-1.070
1775855256624,-0.091,-0.426,-0.889
1775855256644,-0.084,-0.665,-0.785
1775855256664,-0.029,-0.804,-0.801
1775855256683,0.083,-0.421,-0.934
1775855256703,0.086,-0.141,-1.061
1775855256723,0.077,-0.265,-1.167
1775855256743,0.104,-0.574,-1.072
1775855256762,0.085,-0.524,-0.850
1775855256782,-0.006,-0.286,-0.925
1775855256802,-0.030,-0.330,-1.120
1775855256822,-0.045,-0.549,-1.141
1775855256841,-0.029,-0.546,-1.003
1775855256861,-0.064,-0.528,-0.928
1775855256881,-0.070,-0.561,-1.293
1775855256901,-0.080,-0.474,-1.421
1775855256920,-0.079,-0.521,-1.086
1775855256940,-0.053,-0.581,-0.998
1775855256960,0.026,-0.554,-1.124
1775855256980,0.060,-0.519,-1.095
1775855257000,0.024,-0.376,-1.044
1775855257019,-0.026,-0.350,-0.979
1775855257039,-0.030,-0.518,-0.964
1775855257059,0.027,-0.576,-0.948
1775855257079,-0.003,-0.415,-0.929
1775855257098,-0.032,-0.305,-0.991
1775855257118,-0.034,-0.451,-0.911
1775855257138,-0.023,-0.520,-0.866
1775855257158,-0.006,-0.380,-0.888
1775855257177,-0.022,-0.392,-0.946
1775855257197,-0.012,-0.558,-1.089
1775855257217,0.008,-0.502,-1.135
1775855257237,-0.023,-0.441,-1.064
1775855257256,-0.029,-0.629,-1.183
1775855257276,-0.001,-0.601,-1.314
1775855257296,-0.045,-0.516,-1.252
1775855257316,-0.057,-0.680,-1.236
1775855257335,-0.024,-0.707,-1.480
1775855257355,-0.032,-0.617,-1.500
1775855257375,-0.038,-0.581,-1.320
1775855257395,-0.021,-0.644,-1.308
1775855257414,0.015,-0.595,-1.323
1775855257434,0.019,-0.481,-1.183
1775855257454,0.039,-0.424,-1.044
1775855257474,0.053,-0.423,-1.029
1775855257493,0.042,-0.371,-1.063
1775855257513,-0.009,-0.373,-0.991
1775855257533,-0.047,-0.484,-0.895
1775855257553,-0.031,-0.470,-0.910
1775855257572,-0.026,-0.375,-1.035
1775855257592,0.022,-0.286,-1.071
1775855257612,0.009,-0.338,-0.887
1775855257632,-0.007,-0.287,-0.748
1775855257651,0.010,-0.247,-0.660
1775855257671,0.015,-0.196,-0.503
1775855257691,0.041,-0.192,-0.329
1775855257711,0.008,-0.223,-0.203
1775855257731,-0.013,-0.151,-0.152
1775855257750,0.031,-0.173,-0.136
1775855257770,0.019,-0.225,-0.172
1775855257790,-0.010,-0.229,-0.309
1775855257810,0.010,-0.337,-0.445
1775855257829,0.023,-0.445,-0.571
1775855257849,0.024,-0.430,-0.698
1775855257869,-0.011,-0.398,-0.833
1775855257889,0.000,-0.417,-0.950
1775855257908,0.005,-0.403,-0.942
1775855257928,-0.012,-0.396,-0.968
1775855257948,-0.011,-0.471,-1.065
1775855257968,-0.024,-0.471,-0.968
1775855257987,-0.052,-0.321,-0.913
1775855258007,-0.023,-0.393,-0.996
1775855258027,-0.033,-0.491,-0.811
1775855258047,-0.029,-0.331,-0.733
1775855258066,-0.021,-0.237,-0.893
1775855258086,-0.037,-0.338,-0.807
1775855258106,-0.054,-0.379,-0.586
1775855258126,-0.057,-0.260,-0.512
1775855258145,-0.079,-0.149,-0.439
1775855258165,-0.062,-0.185,-0.315
1775855258185,-0.046,-0.304,-0.186
1775855258205,-0.027,-0.191,-0.120
1775855258224,0.062,-0.126,-0.220
1775855258244,0.079,-0.305,-0.441
1775855258264,0.064,-0.305,-0.828
1775855258284,0.064,-0.290,-1.176
1775855258304,0.029,-0.499,-1.025
1775855258323,-0.011,-0.649,-0.890
1775855258343,0.011,-0.504,-1.013
1775855258363,-0.018,-0.475,-0.984
1775855258383,-0.027,-0.515,-1.025
1775855258402,-0.009,-0.526,-1.114
1775855258422,-0.038,-0.453,-0.978
1775855258442,0.000,-0.509,-0.851
1775855258462,0.018,-0.510,-0.825
1775855258481,0.061,-0.393,-0.916
1775855258501,0.038,-0.271,-1.093
1775855258521,0.045,-0.301,-1.146
1775855258541,0.063,-0.421,-0.950
1775855258560,0.037,-0.446,-1.088
1775855258580,0.009,-0.278,-1.250
1775855258600,0.002,-0.289,-1.138
1775855258620,-0.007,-0.411,-1.193
1775855258640,-0.027,-0.456,-1.230
1775855258659,-0.023,-0.499,-1.119
1775855258679,0.023,-0.430,-1.130
1775855258699,0.029,-0.333,-1.215
1775855258719,0.065,-0.366,-1.139
1775855258738,0.083,-0.436,-1.075
1775855258758,0.088,-0.351,-1.174
1775855258778,0.079,-0.321,-1.177
1775855258798,0.083,-0.345,-1.080
1775855258817,0.087,-0.396,-1.114
1775855258837,0.069,-0.318,-1.028
1775855258857,0.087,-0.328,-0.920
1775855258877,0.116,-0.322,-0.916
1775855258896,0.090,-0.267,-0.949
1775855258916,0.079,-0.267,-0.910
1775855258936,0.080,-0.250,-0.920
1775855258956,0.053,-0.286,-0.993
1775855258975,0.024,-0.288,-1.006
1775855258995,0.039,-0.315,-1.057
1775855259015,0.027,-0.304,-1.198
1775855259035,0.003,-0.371,-1.217
1775855259054,-0.032,-0.405,-1.146
1775855259074,0.042,-0.440,-1.330
1775855259094,0.053,-0.468,-1.407
1775855259114,0.015,-0.376,-1.376
1775855259133,0.041,-0.448,-1.394
1775855259153,0.075,-0.481,-1.476
1775855259173,0.095,-0.422,-1.400
1775855259193,0.081,-0.402,-1.306
1775855259212,0.130,-0.375,-1.371
1775855259232,0.143,-0.366,-1.387
1775855259252,0.092,-0.379,-1.211
1775855259272,0.082,-0.429,-1.073
1775855259291,0.081,-0.397,-1.083
1775855259311,0.051,-0.333,-1.094
1775855259331,0.033,-0.341,-1.019
1775855259351,0.023,-0.356,-0.965
1775855259370,0.020,-0.344,-0.866
1775855259390,0.008,-0.216,-0.738
1775855259410,0.012,-0.112,-0.669
1775855259430,0.022,-0.087,-0.572
1775855259450,0.004,-0.129,-0.416
1775855259469,-0.006,-0.166,-0.313
1775855259489,0.005,-0.128,-0.322
1775855259509,-0.014,-0.182,-0.333
1775855259529,-0.044,-0.312,-0.333
1775855259548,-0.068,-0.279,-0.280
1775855259568,-0.029,-0.156,-0.372
1775855259588,0.014,-0.375,-0.571
1775855259608,0.042,-0.414,-0.575
1775855259627,-0.002,-0.280,-0.575
1775855259647,-0.012,-0.197,-0.821
1775855259667,0.058,-0.335,-1.101
1775855259687,-0.019,-0.337,-0.962
1775855259706,-0.012,-0.307,-1.048
1775855259726,-0.001,-0.434,-1.164
1775855259746,-0.020,-0.358,-0.971
1775855259766,-0.001,-0.279,-0.930
1775855259785,-0.004,-0.348,-0.966
1775855259805,-0.025,-0.277,-0.862
1775855259825,-0.023,-0.191,-0.841
1775855259864,-0.038,-0.317,-0.679
1775855259884,-0.042,-0.230,-0.647
1775855259904,-0.043,-0.169,-0.648
1775855259924,-0.065,-0.206,-0.501
1775855259943,-0.028,-0.266,-0.312
1775855259963,0.010,-0.281,-0.383
1775855259983,0.042,-0.249,-0.551
1775855260003,0.039,-0.177,-0.473
1775855260022,0.057,-0.299,-0.445
1775855260042,0.034,-0.340,-0.602
1775855260062,0.071,-0.272,-0.843
1775855260082,0.046,-0.390,-0.877
1775855260101,0.020,-0.391,-0.797
1775855260121,0.019,-0.330,-0.828
1775855260141,0.011,-0.366,-0.965
1775855260161,-0.017,-0.332,-0.991
1775855260180,-0.001,-0.311,-1.014
1775855260200,-0.034,-0.363,-1.100
1775855260220,-0.034,-0.427,-1.141
1775855260240,0.000,-0.474,-0.993
1775855260259,-0.004,-0.388,-1.046
1775855260279,-0.001,-0.137,-1.202
1775855260299,-0.001,-0.273,-1.343
1775855260319,-0.009,-0.383,-1.226
1775855260338,0.019,-0.362,-1.002
1775855260358,0.024,-0.391,-0.943
1775855260378,0.016,-0.227,-1.144
1775855260398,0.028,-0.176,-1.323
1775855260417,0.014,-0.213,-1.157
1775855260437,0.008,-0.303,-1.002
1775855260457,-0.014,-0.301,-1.047
1775855260477,-0.031,-0.231,-1.148
1775855260496,-0.017,-0.292,-1.145
1775855260516,-0.008,-0.381,-1.054
1775855260536,-0.007,-0.297,-1.081
1775855260556,-0.001,-0.216,-1.201
1775855260575,0.060,-0.321,-1.142
1775855260595,0.103,-0.397,-1.067
1775855260615,0.068,-0.200,-1.132
1775855260635,0.035,-0.188,-1.158
1775855260654,0.020,-0.226,-1.191
1775855260674,0.015,-0.318,-1.242
1775855260694,0.001,-0.331,-1.139
1775855260714,0.022,-0.304,-1.093
1775855260733,0.035,-0.194,-1.120
1775855260753,0.052,-0.244,-1.107
1775855260773,0.061,-0.260,-1.067
1775855260793,0.062,-0.211,-1.150
1775855260812,0.048,-0.301,-1.196
1775855260832,0.027,-0.293,-1.215
1775855260852,0.078,-0.320,-1.357
1775855260872,0.082,-0.338,-1.381
1775855260891,0.045,-0.260,-1.337
1775855260911,0.028,-0.316,-1.351
1775855260931,0.050,-0.334,-1.329
1775855260951,0.054,-0.292,-1.303
1775855260970,0.049,-0.324,-1.208
1775855260990,0.059,-0.334,-1.171
1775855261010,0.071,-0.287,-1.234
1775855261030,0.081,-0.254,-1.191
1775855261049,0.035,-0.290,-1.072
1775855261069,0.006,-0.279,-0.985
1775855261089,0.020,-0.288,-0.979
1775855261109,0.014,-0.256,-1.057
1775855261128,-0.004,-0.260,-0.980
1775855261148,-0.028,-0.349,-0.842
1775855261168,-0.031,-0.212,-0.710
1775855261188,-0.017,-0.087,-0.669
1775855261207,-0.011,-0.101,-0.621
1775855261227,-0.022,-0.176,-0.613
1775855261247,-0.050,-0.306,-0.678
1775855261267,-0.054,-0.180,-0.492
1775855261286,-0.027,-0.183,-0.341
1775855261306,-0.026,-0.221,-0.320
1775855261326,-0.085,-0.190,-0.298
1775855261346,-0.048,-0.274,-0.327
1775855261366,-0.048,-0.451,-0.433
1775855261385,-0.057,-0.348,-0.527
1775855261405,0.016,-0.465,-0.668
1775855261425,0.000,-0.580,-0.759
1775855261445,-0.025,-0.375,-0.856
1775855261464,0.027,-0.420,-1.060
1775855261484,-0.021,-0.677,-0.971
1775855261504,-0.042,-0.515,-0.776
1775855261524,0.004,-0.419,-0.925
1775855261543,-0.035,-0.529,-0.923
1775855261563,-0.060,-0.538,-0.734
1775855261583,-0.061,-0.458,-0.673
1775855261603,-0.072,-0.440,-0.579
1775855261622,-0.038,-0.460,-0.414
1775855261642,-0.022,-0.380,-0.294
1775855261662,-0.033,-0.151,-0.258
1775855261682,-0.018,-0.067,-0.256
1775855261701,0.032,-0.232,-0.217
1775855261721,-0.056,-0.429,-0.237
1775855261741,-0.009,-0.510,-0.318
1775855261761,-0.024,-0.649,-0.285
1775855261780,-0.088,-0.870,-0.466
1775855261800,-0.086,-1.011,-0.719
1775855261820,-0.048,-0.933,-0.712
1775855261840,-0.064,-0.969,-0.672
1775855261859,-0.027,-0.886,-0.585
1775855261879,-0.061,-0.892,-0.451
1775855261899,-0.085,-0.963,-0.494
1775855261919,-0.081,-1.030,-0.639
1775855261938,-0.088,-0.893,-0.539
1775855261958,-0.069,-0.964,-0.386
1775855261978,-0.059,-1.093,-0.466
1775855261998,-0.045,-0.950,-0.652
1775855262017,-0.012,-0.843,-0.670
1775855262037,-0.010,-0.944,-0.757
1775855262057,-0.041,-1.054,-0.684
1775855262077,-0.020,-0.945,-0.502
1775855262096,-0.097,-0.997,-0.575
1775855262116,-0.113,-1.148,-0.918
1775855262136,-0.088,-1.070,-0.951
1775855262156,-0.057,-1.131,-0.735
1775855262175,-0.026,-1.131,-0.712
1775855262195,0.017,-0.868,-0.694
1775855262215,0.021,-0.728,-0.611
1775855262235,-0.025,-0.909,-0.682
1775855262254,-0.037,-0.912,-0.732
1775855262274,-0.013,-0.775,-0.560
1775855262294,-0.025,-0.810,-0.486
1775855262314,-0.065,-0.833,-0.635
1775855262334,-0.094,-0.916,-0.602
1775855262353,-0.081,-0.911,-0.582
1775855262373,-0.076,-0.902,-0.658
1775855262393,-0.066,-0.908,-0.617
1775855262413,-0.043,-0.787,-0.599
1775855262432,-0.066,-0.926,-0.637
1775855262452,-0.065,-1.010,-0.718
1775855262472,-0.046,-0.918,-0.662
1775855262492,-0.072,-1.090,-0.621
1775855262511,-0.031,-1.150,-0.833
1775855262531,-0.055,-1.108,-0.950
1775855262551,-0.082,-1.110,-0.754
1775855262571,-0.096,-1.209,-0.852
1775855262590,-0.102,-1.217,-0.992
1775855262610,-0.083,-1.096,-0.825
1775855262630,-0.081,-1.091,-0.728
1775855262650,-0.064,-1.063,-0.769
1775855262669,-0.049,-0.969,-0.764
1775855262689,-0.047,-0.964,-0.677
1775855262709,-0.048,-0.951,-0.622
1775855262729,-0.080,-0.957,-0.729
1775855262748,-0.091,-0.909,-0.724
1775855262768,-0.101,-0.858,-0.587
1775855262788,-0.091,-0.872,-0.507
1775855262808,-0.107,-0.817,-0.530
1775855262827,-0.084,-0.711,-0.501
1775855262847,-0.077,-0.600,-0.412
1775855262867,-0.094,-0.486,-0.340
1775855262887,-0.058,-0.327,-0.350
1775855262906,-0.019,-0.314,-0.350
1775855262926,-0.016,-0.440,-0.263
1775855262946,-0.012,-0.343,-0.263
1775855262966,0.015,-0.266,-0.393
1775855262985,0.004,-0.325,-0.358
1775855263005,-0.050,-0.375,-0.262
1775855263025,-0.075,-0.476,-0.357
1775855263045,-0.064,-0.569,-0.458
1775855263065,-0.040,-0.679,-0.533
1775855263084,-0.077,-0.766,-0.546
1775855263104,-0.070,-0.593,-0.591
1775855263124,-0.031,-0.722,-0.673
1775855263144,-0.057,-0.909,-0.670
1775855263163,-0.068,-0.749,-0.662
1775855263183,-0.075,-0.642,-0.724
1775855263203,-0.094,-0.851,-0.667
1775855263223,-0.095,-0.786,-0.576
1775855263242,-0.099,-0.626,-0.582
1775855263262,-0.101,-0.673,-0.537
1775855263282,-0.084,-0.781,-0.432
1775855263302,-0.065,-0.570,-0.394
1775855263321,-0.088,-0.355,-0.359
1775855263341,-0.089,-0.232,-0.262
1775855263361,-0.059,-0.348,-0.114
1775855263381,-0.043,-0.394,0.015
1775855263401,0.009,-0.190,-0.012
1775855263420,0.059,-0.326,-0.120
1775855263440,0.071,-0.466,-0.297
1775855263460,-0.009,-0.487,-0.504
1775855263480,0.015,-0.642,-0.685
1775855263499,-0.029,-0.734,-0.778
1775855263539,-0.063,-0.913,-0.935
1775855263559,-0.059,-0.846,-0.990
1775855263578,-0.030,-0.763,-0.941
1775855263598,-0.053,-0.691,-0.774
1775855263618,-0.080,-0.826,-0.731
1775855263638,-0.047,-0.777,-0.835
1775855263657,-0.052,-0.870,-0.780
1775855263677,-0.079,-0.838,-0.902
1775855263697,-0.059,-0.993,-1.033
1775855263717,0.028,-0.912,-0.913
1775855263736,0.030,-0.778,-0.926
1775855263756,-0.012,-0.650,-1.155
1775855263776,-0.013,-0.745,-1.149
1775855263796,-0.072,-0.838,-0.967
1775855263816,-0.088,-0.764,-0.906
1775855263835,-0.106,-0.775,-0.930
1775855263855,-0.061,-0.902,-0.982
1775855263875,-0.061,-0.740,-1.094
1775855263895,-0.052,-0.690,-1.018
1775855263914,-0.042,-0.780,-0.949
1775855263934,-0.032,-0.741,-1.027
1775855263954,-0.035,-0.619,-0.980
1775855263974,-0.052,-0.666,-0.842
1775855263993,-0.053,-0.689,-0.842
1775855264013,-0.043,-0.618,-0.834
1775855264033,-0.038,-0.590,-0.765
1775855264053,-0.028,-0.611,-0.727
1775855264072,-0.010,-0.581,-0.796
1775855264092,0.013,-0.527,-0.723
1775855264112,-0.010,-0.499,-0.716
1775855264132,-0.040,-0.586,-0.845
1775855264151,-0.043,-0.595,-0.848
1775855264171,-0.078,-0.660,-0.790
1775855264191,-0.067,-0.714,-0.919
1775855264211,-0.079,-0.698,-1.015
1775855264231,-0.098,-0.787,-0.986
1775855264250,-0.057,-0.880,-1.109
1775855264270,-0.042,-0.930,-1.239
1775855264290,-0.033,-0.817,-1.197
1775855264310,-0.038,-0.848,-1.169
1775855264329,-0.043,-0.880,-1.206
1775855264349,-0.025,-0.836,-1.096
1775855264369,-0.017,-0.822,-0.955
1775855264408,-0.001,-0.722,-1.051
1775855264428,0.005,-0.677,-0.963
1775855264448,-0.046,-0.695,-0.907
1775855264468,-0.080,-0.648,-0.868
1775855264487,-0.103,-0.701,-0.817
1775855264507,-0.056,-0.634,-0.886
1775855264527,-0.062,-0.542,-1.005
1775855264547,-0.083,-0.571,-0.892
1775855264566,-0.083,-0.547,-0.786
1775855264586,-0.064,-0.562,-0.746
1775855264606,-0.043,-0.471,-0.625
1775855264626,-0.014,-0.336,-0.500
1775855264645,0.036,-0.311,-0.400
1775855264665,0.021,-0.274,-0.325
1775855264685,-0.042,-0.194,-0.270
1775855264705,-0.052,-0.090,-0.204
1775855264724,-0.020,-0.132,-0.206
1775855264744,-0.002,-0.333,-0.330
1775855264764,-0.053,-0.338,-0.304
1775855264784,-0.052,-0.272,-0.382
1775855264804,0.031,-0.433,-0.711
1775855264823,-0.007,-0.595,-0.826
1775855264843,-0.053,-0.380,-0.669
1775855264863,0.014,-0.447,-0.900
1775855264883,0.004,-0.579,-1.122
1775855264902,0.024,-0.479,-1.049
1775855264922,0.006,-0.541,-0.932
1775855264942,-0.008,-0.511,-0.922
1775855264962,-0.035,-0.421,-0.919
1775855264981,-0.053,-0.500,-0.872
1775855265001,-0.071,-0.596,-0.776
1775855265021,-0.085,-0.443,-0.712
1775855265041,-0.062,-0.410,-0.849
1775855265060,-0.059,-0.535,-0.839
1775855265080,-0.052,-0.424,-0.649
1775855265100,-0.012,-0.275,-0.611
1775855265120,0.021,-0.238,-0.530
1775855265140,0.019,-0.285,-0.373
1775855265159,-0.017,-0.195,-0.191
1775855265179,-0.023,-0.077,-0.127
1775855265199,0.040,-0.295,-0.225
1775855265219,-0.035,-0.435,-0.287
1775855265238,0.023,-0.280,-0.350
1775855265258,0.101,-0.434,-0.543
1775855265278,0.067,-0.514,-0.781
1775855265298,0.002,-0.282,-1.031
1775855265317,-0.006,-0.342,-1.107
1775855265337,0.009,-0.659,-0.919
1775855265357,-0.041,-0.670,-0.872
1775855265377,-0.005,-0.465,-1.086
1775855265396,-0.011,-0.465,-1.097
1775855265416,-0.026,-0.508,-1.149
1775855265436,-0.031,-0.491,-1.156
1775855265456,-0.020,-0.640,-1.052
1775855265475,0.037,-0.634,-1.044
1775855265495,0.086,-0.517,-1.044
1775855265515,0.109,-0.380,-0.978
1775855265535,0.083,-0.366,-0.864
1775855265554,0.037,-0.358,-1.150
1775855265574,-0.034,-0.424,-1.324
1775855265594,-0.037,-0.502,-0.997
1775855265614,-0.018,-0.650,-0.938
1775855265634,0.024,-0.555,-1.224
1775855265653,0.020,-0.401,-1.237
1775855265673,0.048,-0.515,-1.187
1775855265693,0.069,-0.545,-1.290
1775855265713,0.033,-0.420,-1.157
1775855265732,-0.006,-0.381,-1.013
1775855265752,0.026,-0.500,-1.051
1775855265772,0.065,-0.499,-1.093
1775855265792,0.052,-0.412,-1.033
1775855265811,0.024,-0.335,-1.017
1775855265851,0.003,-0.442,-1.044
1775855265871,0.007,-0.373,-0.985
1775855265890,0.020,-0.369,-0.915
1775855265910,0.028,-0.316,-0.864
1775855265930,0.041,-0.318,-0.819
1775855265950,0.026,-0.354,-0.774
1775855265969,0.033,-0.346,-0.897
1775855265989,0.028,-0.337,-0.962
1775855266009,-0.012,-0.348,-0.856
1775855266029,0.014,-0.426,-0.891
1775855266049,0.025,-0.361,-0.955
1775855266068,0.026,-0.320,-0.897
1775855266088,0.035,-0.397,-0.849
1775855266108,0.082,-0.427,-0.940
1775855266128,0.053,-0.336,-0.985
1775855266147,0.028,-0.396,-1.024
1775855266167,0.010,-0.495,-1.095
1775855266187,0.029,-0.474,-1.325
1775855266207,0.006,-0.539,-1.311
1775855266226,-0.018,-0.620,-1.182
1775855266246,0.017,-0.560,-1.316
1775855266266,0.051,-0.531,-1.410
1775855266286,0.038,-0.512,-1.264
1775855266305,0.014,-0.509,-1.230
1775855266325,0.017,-0.482,-1.299
1775855266345,0.029,-0.488,-1.201
1775855266365,0.040,-0.513,-1.131
1775855266385,0.015,-0.468,-1.126
1775855266404,0.001,-0.449,-1.097
1775855266424,0.003,-0.414,-1.052
1775855266444,0.020,-0.412,-1.038
1775855266464,-0.012,-0.410,-0.963
1775855266483,-0.032,-0.392,-0.917
1775855266503,-0.034,-0.372,-0.921
1775855266523,-0.033,-0.423,-0.893
1775855266543,-0.040,-0.411,-0.823
1775855266562,-0.043,-0.346,-0.701
1775855266582,-0.012,-0.181,-0.626
1775855266602,0.049,-0.098,-0.612
1775855266622,0.025,-0.246,-0.559
1775855266641,-0.007,-0.212,-0.457
1775855266661,-0.007,-0.202,-0.371
1775855266681,-0.028,-0.294,-0.315
1775855266701,-0.059,-0.326,-0.311
1775855266721,-0.039,-0.234,-0.348
1775855266740,-0.017,-0.229,-0.487
1775855266760,-0.044,-0.360,-0.588
1775855266780,-0.018,-0.385,-0.670
1775855266800,-0.002,-0.372,-0.785
1775855266819,-0.013,-0.320,-0.874
1775855266839,0.066,-0.405,-0.939
1775855266859,0.031,-0.378,-0.930
1775855266879,0.010,-0.272,-1.064
1775855266898,0.033,-0.416,-1.113
1775855266918,-0.035,-0.381,-0.928
1775855266938,-0.038,-0.278,-0.897
1775855266958,-0.018,-0.435,-0.934
1775855266977,-0.063,-0.386,-0.865
1775855266997,-0.052,-0.198,-0.883
1775855267017,-0.036,-0.303,-0.918
1775855267037,-0.032,-0.416,-0.752
1775855267057,-0.020,-0.286,-0.611
1775855267076,0.003,-0.195,-0.567
1775855267096,-0.010,-0.178,-0.428
1775855267116,-0.024,-0.131,-0.253
1775855267136,-0.013,-0.180,-0.223
1775855267155,-0.019,-0.271,-0.309
1775855267175,-0.015,-0.229,-0.438
1775855267195,0.076,-0.296,-0.503
1775855267215,0.043,-0.356,-0.474
1775855267234,0.003,-0.302,-0.780
1775855267254,0.060,-0.308,-1.110
1775855267274,-0.023,-0.424,-1.006
1775855267294,-0.071,-0.424,-0.998
1775855267313,-0.052,-0.464,-1.121
1775855267333,-0.046,-0.502,-1.063
1775855267353,-0.021,-0.420,-1.046
1775855267373,-0.041,-0.318,-1.035
1775855267393,-0.018,-0.507,-1.014
1775855267412,0.002,-0.513,-1.203
1775855267432,-0.028,-0.292,-1.345
1775855267452,-0.017,-0.323,-1.126
1775855267472,0.031,-0.510,-0.818
1775855267491,0.078,-0.439,-0.891
1775855267511,0.066,-0.154,-1.160
1775855267531,0.064,-0.282,-1.193
1775855267551,0.039,-0.350,-1.073
1775855267570,0.010,-0.292,-1.130
1775855267590,0.007,-0.474,-1.146
1775855267610,-0.025,-0.475,-1.120
1775855267630,-0.046,-0.298,-1.297
1775855267649,-0.043,-0.298,-1.402
1775855267669,-0.063,-0.390,-1.265
1775855267689,-0.026,-0.423,-1.209
1775855267709,-0.002,-0.364,-1.169
1775855267728,0.007,-0.281,-1.027
1775855267748,0.012,-0.254,-0.935
1775855267768,0.017,-0.308,-0.967
1775855267788,0.009,-0.298,-0.941
1775855267808,0.011,-0.264,-0.917
1775855267827,0.022,-0.308,-0.940
1775855267847,0.020,-0.317,-0.984
1775855267867,-0.032,-0.192,-1.017
1775855267887,-0.004,-0.284,-1.036
1775855267906,-0.004,-0.427,-1.071
1775855267926,-0.018,-0.259,-1.132
1775855267946,-0.026,-0.344,-1.176
1775855267966,-0.022,-0.421,-1.183
1775855267985,0.040,-0.432,-1.366
1775855268005,0.054,-0.387,-1.467
1775855268025,0.009,-0.376,-1.393
1775855268045,0.012,-0.379,-1.417
1775855268064,0.022,-0.411,-1.449
1775855268084,-0.007,-0.414,-1.309
1775855268104,-0.009,-0.391,-1.177
1775855268124,-0.015,-0.373,-1.205
1775855268143,-0.003,-0.329,-1.147
1775855268163,0.020,-0.348,-1.108
1775855268183,0.033,-0.379,-1.090
1775855268203,0.016,-0.354,-1.019
1775855268222,0.024,-0.366,-0.937
1775855268242,-0.009,-0.322,-0.904
1775855268262,0.001,-0.301,-0.877
1775855268282,-0.021,-0.361,-0.805
1775855268301,-0.031,-0.347,-0.755
1775855268321,-0.014,-0.232,-0.736
1775855268341,0.014,-0.183,-0.723
1775855268361,0.031,-0.245,-0.629
1775855268381,-0.006,-0.256,-0.511
1775855268400,0.002,-0.171,-0.457
1775855268420,0.008,-0.239,-0.403
1775855268440,0.014,-0.308,-0.349
1775855268460,0.018,-0.238,-0.287
1775855268479,-0.030,-0.179,-0.364
1775855268499,-0.024,-0.212,-0.553
1775855268519,0.001,-0.224,-0.701
1775855268539,-0.020,-0.320,-0.768
1775855268558,-0.062,-0.459,-0.774
1775855268578,-0.022,-0.350,-0.837
1775855268598,-0.025,-0.250,-0.936
1775855268618,-0.012,-0.315,-1.016
1775855268637,0.010,-0.497,-0.945
1775855268657,-0.021,-0.386,-0.862
1775855268677,0.000,-0.220,-1.022
1775855268697,0.016,-0.364,-1.093
1775855268716,-0.014,-0.434,-0.862
1775855268736,-0.011,-0.288,-0.858
1775855268756,0.023,-0.332,-0.979
1775855268776,-0.020,-0.372,-0.838
1775855268795,-0.018,-0.245,-0.807
1775855268815,0.000,-0.276,-0.907
1775855268835,0.008,-0.350,-0.826
1775855268855,0.001,-0.261,-0.728
1775855268874,0.004,-0.193,-0.696
1775855268894,-0.020,-0.239,-0.528
1775855268914,-0.063,-0.233,-0.276
1775855268934,-0.025,-0.160,-0.192
1775855268954,-0.015,-0.240,-0.305
1775855268973,-0.034,-0.301,-0.456
1775855268993,0.002,-0.201,-0.607
1775855269013,0.016,-0.309,-0.685
1775855269033,-0.034,-0.362,-0.783
1775855269052,-0.019,-0.279,-1.079
1775855269072,-0.020,-0.366,-1.161
1775855269092,-0.070,-0.454,-0.840
1775855269112,-0.046,-0.477,-0.766
1775855269131,-0.034,-0.412,-1.041
1775855269151,-0.047,-0.302,-1.171
1775855269171,-0.066,-0.426,-1.105
1775855269191,-0.019,-0.533,-1.068
1775855269210,-0.012,-0.518,-0.940
1775855269230,0.009,-0.394,-0.920
1775855269250,0.055,-0.294,-1.012
1775855269270,0.082,-0.322,-1.016
1775855269289,0.074,-0.383,-1.000
1775855269309,0.057,-0.275,-1.168
1775855269329,-0.031,-0.325,-1.019
1775855269349,-0.087,-0.476,-0.945
1775855269368,-0.056,-0.502,-1.090
1775855269388,0.003,-0.437,-1.015
1775855269408,0.066,-0.332,-1.004
1775855269428,0.083,-0.283,-1.074
1775855269448,0.019,-0.300,-1.133
1775855269467,-0.053,-0.242,-1.168
1775855269487,-0.079,-0.418,-1.121
1775855269507,-0.067,-0.549,-1.241
1775855269527,-0.078,-0.484,-1.298
1775855269546,-0.080,-0.317,-1.232
1775855269566,-0.053,-0.315,-1.225
1775855269586,-0.059,-0.282,-1.157
1775855269606,-0.067,-0.387,-1.024
1775855269625,-0.064,-0.390,-0.862
1775855269645,-0.041,-0.267,-0.918
1775855269665,-0.034,-0.308,-1.084
1775855269685,-0.050,-0.348,-1.027
1775855269704,-0.037,-0.354,-0.967
1775855269724,-0.032,-0.340,-1.006
1775855269744,-0.033,-0.297,-1.015
1775855269764,-0.057,-0.275,-1.000
1775855269783,-0.057,-0.332,-1.033
1775855269803,-0.056,-0.371,-1.073
1775855269823,-0.090,-0.418,-1.181
1775855269843,-0.079,-0.396,-1.276
1775855269862,-0.042,-0.399,-1.270
1775855269882,-0.026,-0.442,-1.300
1775855269902,-0.054,-0.398,-1.367
1775855269922,-0.057,-0.392,-1.328
1775855269941,-0.054,-0.428,-1.228
1775855269961,-0.060,-0.435,-1.251
1775855269981,-0.070,-0.441,-1.244
1775855270001,-0.071,-0.442,-1.164
1775855270020,-0.053,-0.453,-1.116
1775855270040,-0.031,-0.412,-1.055
1775855270060,-0.027,-0.414,-1.025
1775855270080,-0.032,-0.365,-1.000
1775855270100,-0.047,-0.391,-0.996
1775855270119,-0.049,-0.396,-1.002
1775855270139,-0.050,-0.419,-0.941
1775855270159,-0.040,-0.395,-0.850
1775855270179,-0.022,-0.361,-0.787
1775855270198,0.009,-0.357,-0.716
1775855270218,0.008,-0.250,-0.635
1775855270238,0.037,-0.209,-0.599
1775855270258,0.071,-0.181,-0.551
1775855270277,0.058,-0.181,-0.491
1775855270297,0.045,-0.137,-0.466
1775855270317,0.026,-0.122,-0.446
1775855270337,0.003,-0.207,-0.400
1775855270356,-0.031,-0.298,-0.400
1775855270376,-0.085,-0.298,-0.379
1775855270396,-0.072,-0.231,-0.539
1775855270416,-0.041,-0.245,-0.710
1775855270435,-0.055,-0.347,-0.681
1775855270455,-0.032,-0.445,-0.781
1775855270475,-0.022,-0.252,-0.963
1775855270495,-0.018,-0.119,-1.082
1775855270514,0.016,-0.236,-1.172
1775855270534,-0.004,-0.366,-1.105
1775855270554,-0.036,-0.231,-0.970
1775855270574,-0.001,-0.248,-1.024
1775855270593,-0.019,-0.309,-0.953
1775855270613,-0.055,-0.188,-0.856
1775855270633,-0.019,-0.238,-0.955
1775855270653,-0.002,-0.364,-0.936
1775855270673,-0.008,-0.227,-0.869
1775855270692,0.023,-0.161,-0.948
1775855270712,0.011,-0.308,-0.945
1775855270732,-0.007,-0.231,-0.857
1775855270752,0.006,-0.124,-0.903
1775855270771,-0.016,-0.169,-0.851
1775855270791,-0.034,-0.247,-0.652
1775855270811,-0.037,-0.259,-0.450
1775855270831,-0.009,-0.247,-0.317
1775855270850,-0.007,-0.232,-0.281
1775855270870,-0.015,-0.150,-0.403
1775855270890,0.030,-0.164,-0.465
1775855270910,-0.002,-0.363,-0.318
1775855270929,-0.047,-0.340,-0.432
1775855270949,-0.015,-0.167,-0.923
1775855270969,-0.023,-0.196,-1.203
1775855270989,-0.081,-0.504,-0.851
1775855271008,-0.088,-0.613,-0.668
1775855271028,-0.042,-0.465,-0.872
1775855271048,-0.042,-0.311,-1.181
1775855271068,-0.072,-0.331,-1.186
1775855271088,-0.080,-0.449,-1.100
1775855271107,-0.072,-0.505,-1.006
1775855271127,-0.018,-0.578,-0.825
1775855271147,-0.003,-0.450,-0.881
1775855271167,0.009,-0.183,-1.180
1775855271186,-0.009,-0.307,-1.200
1775855271206,-0.012,-0.459,-1.067
1775855271226,0.034,-0.507,-1.100
1775855271246,0.023,-0.337,-1.084
1775855271265,-0.027,-0.263,-1.164
1775855271285,-0.020,-0.413,-1.148
1775855271305,0.027,-0.474,-1.071
1775855271325,0.040,-0.352,-1.109
1775855271344,0.048,-0.328,-1.113
1775855271364,0.031,-0.362,-1.155
1775855271384,0.035,-0.332,-1.284
1775855271404,-0.013,-0.295,-1.192
1775855271423,-0.020,-0.390,-1.078
1775855271443,-0.017,-0.364,-1.157
1775855271463,-0.027,-0.336,-1.186
1775855271483,-0.066,-0.314,-1.096
1775855271502,-0.035,-0.412,-1.255
1775855271522,0.018,-0.414,-1.333
1775855271542,0.019,-0.364,-1.130
1775855271562,0.057,-0.307,-1.009
1775855271582,0.059,-0.238,-0.963
1775855271601,0.039,-0.215,-0.876
1775855271621,0.017,-0.219,-0.747
1775855271641,0.012,-0.258,-0.663
1775855271661,0.002,-0.260,-0.789
1775855271680,0.004,-0.233,-0.897
1775855271700,-0.014,-0.219,-0.824
1775855271720,-0.027,-0.347,-0.883
1775855271740,0.015,-0.383,-1.044
1775855271759,0.010,-0.346,-1.133
1775855271779,0.017,-0.317,-1.226
1775855271799,0.000,-0.407,-1.336
1775855271819,0.002,-0.495,-1.406
1775855271838,-0.004,-0.489,-1.360
1775855271858,0.012,-0.449,-1.323
1775855271878,-0.020,-0.483,-1.305
1775855271898,0.027,-0.463,-1.334
1775855271917,0.035,-0.435,-1.261
1775855271937,0.034,-0.404,-1.188
1775855271957,0.015,-0.392,-1.086
1775855271977,0.017,-0.366,-1.050
1775855271997,0.027,-0.378,-1.107
1775855272016,0.006,-0.321,-1.096
1775855272036,-0.015,-0.344,-1.016
1775855272056,-0.022,-0.377,-0.978
1775855272076,-0.028,-0.415,-0.977
1775855272095,-0.014,-0.425,-0.986
1775855272115,0.001,-0.375,-0.992
1775855272135,0.005,-0.328,-0.953
1775855272155,0.020,-0.333,-0.826
1775855272174,0.032,-0.275,-0.690
1775855272194,0.072,-0.187,-0.629
1775855272214,0.078,-0.185,-0.573
1775855272234,0.075,-0.231,-0.437
1775855272253,0.015,-0.232,-0.258
1775855272273,-0.024,-0.153,-0.196
1775855272293,-0.025,-0.160,-0.335
1775855272313,-0.058,-0.288,-0.478
1775855272332,-0.038,-0.363,-0.482
1775855272352,-0.030,-0.425,-0.569
1775855272372,-0.052,-0.330,-0.725
1775855272392,0.009,-0.313,-0.833
1775855272411,0.009,-0.462,-0.850
1775855272431,0.005,-0.347,-0.941
1775855272451,0.045,-0.275,-1.038
1775855272471,0.039,-0.435,-0.995
1775855272490,0.020,-0.399,-0.884
1775855272510,0.013,-0.240,-0.973
1775855272530,-0.013,-0.257,-1.051
1775855272550,-0.021,-0.369,-0.954
1775855272570,-0.041,-0.356,-0.895
1775855272589,-0.033,-0.210,-0.926
1775855272609,0.006,-0.341,-0.963
1775855272629,-0.018,-0.338,-0.884
1775855272649,-0.007,-0.189,-0.913
1775855272668,0.009,-0.264,-0.972
1775855272688,0.011,-0.358,-0.904
1775855272708,-0.017,-0.235,-0.865
1775855272728,0.013,-0.192,-0.930
1775855272747,0.019,-0.303,-0.853
1775855272767,0.012,-0.323,-0.757
1775855272787,0.008,-0.220,-0.724
1775855272807,-0.003,-0.215,-0.661
1775855272826,0.001,-0.290,-0.479
1775855272846,-0.012,-0.323,-0.267
1775855272866,-0.054,-0.230,-0.217
1775855272886,-0.028,-0.237,-0.399
1775855272905,-0.044,-0.358,-0.533
1775855272925,-0.052,-0.289,-0.476
1775855272945,-0.012,-0.304,-0.537
1775855272965,-0.040,-0.364,-0.785
1775855272984,-0.032,-0.314,-1.029
1775855273004,0.009,-0.377,-1.038
1775855273024,0.016,-0.526,-0.881
1775855273044,0.015,-0.379,-0.946
1775855273064,0.007,-0.174,-1.194
1775855273083,0.009,-0.244,-1.168
1775855273103,-0.015,-0.413,-0.954
1775855273123,0.016,-0.431,-0.897
1775855273143,0.050,-0.309,-0.848
1775855273162,0.053,-0.181,-0.972
1775855273182,0.051,-0.093,-1.208
1775855273202,0.046,-0.104,-1.230
1775855273222,0.023,-0.304,-1.085
1775855273241,0.031,-0.438,-1.025
1775855273261,0.053,-0.330,-1.168
1775855273281,0.029,-0.161,-1.336
1775855273301,-0.007,-0.093,-1.295
1775855273320,0.010,-0.289,-1.027
1775855273340,0.021,-0.326,-0.934
1775855273360,-0.003,-0.227,-1.050
1775855273380,-0.024,-0.184,-1.201
1775855273399,-0.032,-0.222,-1.335
1775855273419,-0.018,-0.338,-1.334
1775855273439,-0.043,-0.348,-1.270
1775855273459,-0.020,-0.205,-1.342
1775855273478,-0.019,-0.240,-1.407
1775855273498,-0.008,-0.277,-1.269
1775855273518,0.001,-0.202,-1.087
1775855273538,-0.001,-0.146,-1.000
1775855273558,0.004,-0.117,-0.922
1775855273577,-0.016,-0.157,-0.889
1775855273597,-0.007,-0.179,-0.911
1775855273617,0.002,-0.170,-0.879
1775855273637,-0.025,-0.150,-0.902
1775855273656,-0.053,-0.142,-0.978
1775855273676,-0.058,-0.159,-0.972
1775855273696,-0.064,-0.222,-1.004
1775855273716,-0.071,-0.306,-1.045
1775855273735,-0.065,-0.255,-1.076
1775855273755,-0.001,-0.255,-1.318
1775855273775,-0.002,-0.265,-1.490
1775855273795,-0.063,-0.281,-1.452
1775855273814,-0.041,-0.281,-1.400
1775855273834,-0.024,-0.304,-1.462
1775855273854,0.002,-0.334,-1.464
1775855273874,0.022,-0.337,-1.292
1775855273893,0.045,-0.265,-1.193
1775855273913,0.055,-0.216,-1.152
1775855273933,0.066,-0.222,-1.119
1775855273953,0.041,-0.246,-1.080
1775855273973,0.026,-0.253,-1.059
1775855273992,0.009,-0.243,-1.016
1775855274012,-0.002,-0.262,-0.958
1775855274032,-0.025,-0.305,-0.947
1775855274052,-0.023,-0.307,-0.949
1775855274071,-0.010,-0.370,-0.951
1775855274091,0.010,-0.370,-0.891
1775855274111,0.028,-0.280,-0.874
1775855274131,0.058,-0.270,-0.896
1775855274150,0.066,-0.300,-0.792
1775855274170,0.064,-0.230,-0.730
1775855274190,0.081,-0.185,-0.759
1775855274210,0.086,-0.248,-0.694
1775855274229,0.087,-0.275,-0.559
1775855274249,0.047,-0.257,-0.520
1775855274269,0.031,-0.202,-0.557
1775855274289,0.020,-0.237,-0.593
1775855274308,-0.035,-0.335,-0.586
1775855274328,-0.017,-0.330,-0.570
1775855274348,-0.030,-0.352,-0.562
1775855274368,-0.029,-0.294,-0.594
1775855274387,-0.026,-0.261,-0.635
1775855274407,-0.014,-0.307,-0.631
1775855274427,-0.006,-0.321,-0.760
1775855274447,0.010,-0.371,-0.918
1775855274467,-0.006,-0.422,-0.856
1775855274486,-0.004,-0.307,-0.874
1775855274506,0.046,-0.313,-1.070
1775855274526,0.017,-0.389,-1.020
1775855274546,-0.007,-0.314,-0.878
1775855274565,0.012,-0.313,-0.874
1775855274585,0.030,-0.423,-0.806
1775855274605,-0.011,-0.363,-0.753
1775855274625,0.011,-0.265,-0.910
1775855274644,0.025,-0.299,-0.958
1775855274664,0.010,-0.381,-0.876
1775855274684,0.012,-0.333,-0.985
1775855274704,0.011,-0.326,-1.088
1775855274723,-0.007,-0.378,-1.011
1775855274743,-0.018,-0.348,-0.930
1775855274763,-0.012,-0.314,-0.904
1775855274783,0.008,-0.375,-0.848
1775855274802,0.004,-0.406,-0.803
1775855274822,0.007,-0.300,-0.891
1775855274842,0.031,-0.298,-0.974
1775855274862,0.024,-0.430,-0.918
1775855274882,0.009,-0.366,-0.915
1775855274901,0.009,-0.297,-0.987
1775855274921,0.003,-0.377,-0.919
1775855274941,-0.013,-0.403,-0.827
1775855274961,-0.019,-0.347,-0.855
1775855274980,-0.013,-0.343,-0.882
1775855275020,-0.021,-0.352,-0.853
1775855275040,-0.014,-0.359,-0.834
1775855275059,-0.007,-0.368,-0.773
1775855275079,-0.016,-0.372,-0.758
1775855275099,-0.033,-0.274,-0.804
1775855275119,-0.062,-0.212,-0.719
1775855275138,-0.039,-0.384,-0.646
1775855275158,-0.039,-0.474,-0.550
1775855275178,-0.022,-0.356,-0.537
1775855275198,0.014,-0.297,-0.708
1775855275217,0.003,-0.286,-0.859
1775855275237,-0.015,-0.341,-0.836
1775855275257,-0.028,-0.344,-0.869
1775855275277,-0.013,-0.339,-0.947
1775855275297,-0.012,-0.433,-0.864
1775855275316,-0.013,-0.345,-0.660
1775855275336,-0.015,-0.300,-0.627
1775855275356,0.000,-0.301,-0.973
1775855275376,-0.011,-0.314,-1.262
1775855275395,-0.039,-0.273,-1.196
1775855275415,-0.039,-0.422,-1.040
1775855275435,-0.037,-0.382,-0.902
1775855275455,-0.016,-0.363,-0.925
1775855275474,-0.009,-0.323,-1.106
1775855275494,-0.006,-0.247,-1.032
1775855275514,0.000,-0.280,-0.931
1775855275534,0.011,-0.314,-1.049
1775855275553,-0.018,-0.223,-1.141
1775855275573,-0.058,-0.218,-1.126
1775855275593,-0.086,-0.270,-1.179
1775855275613,-0.066,-0.292,-1.128
1775855275632,-0.082,-0.255,-1.018
1775855275652,-0.074,-0.310,-0.956
1775855275672,-0.057,-0.312,-1.066
1775855275692,-0.034,-0.250,-1.280
1775855275712,-0.039,-0.287,-1.258
1775855275731,-0.032,-0.333,-1.219
1775855275751,0.005,-0.341,-1.253
1775855275771,0.009,-0.297,-1.338
1775855275791,0.030,-0.267,-1.335
1775855275810,0.039,-0.326,-1.207
1775855275830,0.053,-0.306,-1.215
1775855275850,0.050,-0.221,-1.239
1775855275870,0.001,-0.206,-1.096
1775855275889,-0.033,-0.231,-1.012
1775855275909,-0.037,-0.283,-1.053
1775855275929,-0.066,-0.308,-0.936
1775855275949,-0.066,-0.278,-0.820
1775855275968,-0.064,-0.328,-0.814
1775855275988,-0.049,-0.313,-0.871
1775855276008,-0.032,-0.290,-0.907
1775855276028,-0.014,-0.336,-0.935
1775855276047,-0.017,-0.341,-1.001
1775855276067,-0.023,-0.272,-1.028
1775855276087,-0.017,-0.286,-1.031
1775855276107,-0.011,-0.363,-0.987
1775855276127,-0.013,-0.339,-0.882
1775855276146,-0.011,-0.321,-0.883
1775855276166,-0.017,-0.307,-0.883
1775855276186,-0.017,-0.314,-0.847
1775855276206,-0.001,-0.398,-0.832
1775855276225,-0.018,-0.380,-0.839
1775855276245,-0.018,-0.305,-0.924
1775855276265,-0.009,-0.354,-0.977
1775855276285,-0.009,-0.434,-0.922
1775855276304,0.001,-0.354,-0.959
1775855276324,-0.001,-0.346,-0.998
1775855276344,-0.016,-0.334,-0.927
1775855276364,0.006,-0.385,-0.868
1775855276383,0.013,-0.371,-0.842
1775855276403,0.013,-0.322,-0.773
1775855276423,0.002,-0.315,-0.683
1775855276443,0.004,-0.338,-0.574
1775855276463,-0.007,-0.320,-0.508
1775855276482,0.018,-0.380,-0.581
1775855276502,-0.002,-0.374,-0.642
1775855276522,0.013,-0.322,-0.634
1775855276542,0.020,-0.388,-0.712
1775855276561,0.002,-0.373,-0.806
1775855276581,0.004,-0.354,-0.853
1775855276601,0.009,-0.354,-0.887
1775855276621,0.009,-0.369,-0.929
1775855276640,0.007,-0.408,-0.958
1775855276660,-0.001,-0.380,-0.935
1775855276680,-0.017,-0.334,-0.974
1775855276700,-0.016,-0.366,-0.973
1775855276719,-0.025,-0.448,-0.931
1775855276739,-0.031,-0.404,-0.951
1775855276759,-0.029,-0.323,-0.962
1775855276779,-0.034,-0.398,-0.916
1775855276799,-0.027,-0.445,-0.852
1775855276818,-0.023,-0.361,-0.851
1775855276838,-0.018,-0.317,-0.929
1775855276858,-0.021,-0.373,-0.900
1775855276878,-0.024,-0.408,-0.810
1775855276897,-0.027,-0.362,-0.839
1775855276917,-0.024,-0.362,-0.916
1775855276937,-0.015,-0.409,-0.859
1775855276957,-0.018,-0.405,-0.814
1775855276976,-0.004,-0.329,-0.868
1775855276996,-0.004,-0.374,-0.829
1775855277016,0.003,-0.442,-0.694
1775855277036,0.011,-0.401,-0.640
1775855277056,-0.012,-0.319,-0.719
1775855277075,0.015,-0.319,-0.791
1775855277095,0.019,-0.444,-0.702
1775855277115,-0.010,-0.410,-0.594
1775855277135,0.025,-0.239,-0.669
1775855277154,0.037,-0.301,-0.774
1775855277174,-0.028,-0.286,-0.743
1775855277194,-0.050,-0.200,-0.792
1775855277214,-0.079,-0.288,-0.960
1775855277233,-0.161,-0.365,-1.108
1775855277253,-0.239,-0.263,-1.006
1775855277273,-0.192,-0.380,-0.832
1775855277293,-0.149,-0.552,-0.629
1775855277312,-0.156,-0.364,-0.715
1775855277332,-0.124,-0.161,-1.058
1775855277352,-0.166,-0.138,-1.224
1775855277372,-0.251,-0.262,-1.136
1775855277391,-0.277,-0.421,-0.919
1775855277411,-0.261,-0.486,-0.672
1775855277431,-0.222,-0.308,-0.713
1775855277451,-0.197,-0.166,-0.953
1775855277471,-0.206,-0.189,-0.892
1775855277490,-0.202,-0.381,-0.772
1775855277510,-0.159,-0.351,-0.775
1775855277530,-0.127,-0.205,-0.840
1775855277550,-0.103,-0.294,-0.947
1775855277569,-0.123,-0.327,-0.922
1775855277589,-0.095,-0.273,-0.837
1775855277609,-0.051,-0.326,-0.889
1775855277629,-0.081,-0.242,-1.027
1775855277648,-0.147,-0.133,-1.102
1775855277668,-0.151,-0.247,-1.062
1775855277688,-0.062,-0.425,-1.118
1775855277708,0.007,-0.387,-1.166
1775855277728,0.002,-0.240,-1.132
1775855277747,-0.009,-0.137,-1.131
1775855277767,-0.017,-0.211,-1.230
1775855277787,-0.038,-0.196,-1.301
1775855277807,-0.111,-0.209,-1.200
1775855277826,-0.160,-0.268,-1.212
1775855277846,-0.130,-0.300,-1.311
1775855277866,-0.130,-0.280,-1.218
1775855277886,-0.106,-0.307,-1.095
1775855277905,-0.052,-0.232,-1.178
1775855277925,-0.038,-0.152,-1.313
1775855277945,-0.054,-0.137,-1.356
1775855277965,-0.121,-0.238,-1.267
1775855277984,-0.170,-0.279,-1.220
1775855278004,-0.170,-0.316,-1.207
1775855278024,-0.126,-0.318,-1.180
1775855278044,-0.076,-0.302,-1.139
1775855278064,-0.040,-0.258,-1.058
1775855278083,-0.014,-0.220,-0.973
1775855278103,-0.013,-0.215,-0.990
1775855278123,0.016,-0.201,-1.035
1775855278143,0.001,-0.209,-0.999
1775855278162,-0.040,-0.247,-1.009
1775855278182,-0.042,-0.284,-1.121
1775855278202,-0.062,-0.323,-1.132
1775855278222,-0.067,-0.263,-1.104
1775855278241,-0.044,-0.264,-1.060
1775855278261,-0.055,-0.292,-0.978
1775855278281,-0.034,-0.235,-0.953
1775855278301,-0.012,-0.279,-0.928
1775855278320,-0.007,-0.299,-0.874
1775855278340,-0.017,-0.215,-0.914
1775855278360,0.000,-0.267,-0.997
1775855278380,-0.008,-0.323,-1.005
1775855278400,-0.018,-0.288,-0.941
1775855278419,-0.008,-0.286,-0.938
1775855278439,-0.001,-0.336,-0.942
1775855278459,0.006,-0.365,-0.973
1775855278479,0.017,-0.273,-0.925
1775855278498,0.035,-0.295,-0.816
1775855278518,0.053,-0.319,-0.742
1775855278538,0.039,-0.295,-0.758
1775855278558,0.039,-0.255,-0.765
1775855278577,0.015,-0.238,-0.663
1775855278597,0.011,-0.226,-0.686
1775855278617,-0.001,-0.247,-0.786
1775855278637,-0.035,-0.314,-0.714
1775855278657,-0.040,-0.417,-0.585
1775855278676,-0.035,-0.356,-0.492
1775855278696,-0.042,-0.249,-0.573
1775855278716,-0.026,-0.248,-0.661
1775855278736,-0.021,-0.362,-0.637
1775855278755,-0.041,-0.339,-0.650
1775855278775,-0.066,-0.283,-0.841
1775855278795,-0.054,-0.326,-0.907
1775855278815,-0.055,-0.409,-0.903
1775855278834,-0.024,-0.436,-1.026
1775855278854,-0.061,-0.379,-1.046
1775855278874,-0.027,-0.313,-0.954
1775855278894,-0.014,-0.425,-0.928
1775855278913,-0.037,-0.313,-0.926
1775855278933,-0.038,-0.224,-0.926
1775855278953,-0.015,-0.358,-0.889
1775855278973,-0.033,-0.410,-0.811
1775855278993,-0.043,-0.252,-0.858
1775855279012,-0.034,-0.222,-0.933
1775855279032,-0.047,-0.360,-0.856
1775855279052,-0.062,-0.348,-0.805
1775855279072,-0.050,-0.244,-0.895
1775855279091,-0.069,-0.284,-0.913
1775855279111,-0.096,-0.329,-0.814
1775855279131,-0.110,-0.275,-0.803
1775855279151,-0.090,-0.337,-0.784
1775855279170,-0.076,-0.369,-0.819
1775855279190,-0.043,-0.405,-0.936
1775855279210,-0.002,-0.413,-0.926
1775855279230,0.057,-0.513,-0.841
1775855279250,0.039,-0.262,-0.794
1775855279269,0.037,-0.117,-0.927
1775855279289,0.063,-0.396,-0.925
1775855279309,0.081,-0.558,-0.735
1775855279329,0.079,-0.301,-0.726
1775855279348,0.088,-0.103,-0.891
1775855279368,0.078,-0.268,-0.781
1775855279388,0.080,-0.437,-0.665
1775855279408,0.067,-0.312,-0.803
1775855279427,0.055,-0.228,-0.774
1775855279447,0.157,-0.570,-0.630
1775855279467,0.162,-0.609,-0.698
1775855279487,0.153,-0.133,-0.912
1775855279506,0.122,-0.129,-0.972
1775855279526,0.067,-0.373,-0.658
1775855279546,0.005,-0.420,-0.512
1775855279566,-0.034,-0.360,-0.685
1775855279586,0.032,-0.343,-0.832
1775855279605,0.073,-0.348,-0.937
1775855279625,0.028,-0.263,-1.119
1775855279645,-0.033,-0.225,-1.121
1775855279665,-0.004,-0.444,-0.991
1775855279684,0.022,-0.466,-1.140
1775855279704,-0.030,-0.213,-1.351
1775855279724,-0.142,-0.104,-1.153
1775855279744,-0.135,-0.301,-0.886
1775855279763,-0.061,-0.502,-0.821
1775855279783,-0.006,-0.341,-0.913
1775855279803,0.039,-0.249,-1.115
1775855279823,0.069,-0.219,-1.295
1775855279843,0.039,-0.269,-1.377
1775855279862,-0.026,-0.260,-1.366
1775855279882,-0.029,-0.368,-1.244
1775855279902,-0.005,-0.384,-1.180
1775855279922,0.036,-0.250,-1.252
1775855279941,0.056,-0.202,-1.167
1775855279961,0.090,-0.326,-1.012
1775855279981,0.129,-0.241,-1.040
1775855280001,0.109,-0.058,-1.077
1775855280020,0.076,-0.074,-1.065
1775855280040,0.036,-0.150,-1.201
1775855280060,0.001,-0.237,-1.248
1775855280080,-0.078,-0.292,-1.147
1775855280099,-0.075,-0.277,-1.044
1775855280119,-0.013,-0.253,-1.091
1775855280139,0.016,-0.174,-1.162
1775855280159,-0.020,-0.143,-1.032
1775855280178,-0.014,-0.140,-0.836
1775855280198,-0.019,-0.157,-0.842
1775855280218,-0.022,-0.169,-0.985
1775855280238,-0.072,-0.207,-0.960
1775855280258,-0.079,-0.184,-0.913
1775855280277,-0.101,-0.306,-0.983
1775855280297,-0.141,-0.265,-1.009
1775855280317,-0.169,-0.235,-1.017
1775855280337,-0.156,-0.304,-1.087
1775855280356,-0.124,-0.261,-1.064
1775855280376,-0.137,-0.236,-0.995
1775855280396,-0.137,-0.203,-0.971
1775855280416,-0.100,-0.289,-1.007
1775855280435,-0.092,-0.297,-1.066
1775855280455,-0.093,-0.166,-1.112
1775855280475,-0.088,-0.244,-1.000
1775855280495,-0.069,-0.315,-0.983
1775855280514,-0.039,-0.337,-1.098
1775855280534,-0.004,-0.256,-1.141
1775855280554,0.024,-0.211,-1.150
1775855280574,0.000,-0.193,-1.202
1775855280593,-0.040,-0.209,-1.121
1775855280613,-0.027,-0.286,-0.995
1775855280633,-0.026,-0.393,-0.950
1775855280653,-0.040,-0.251,-1.015
1775855280672,-0.018,-0.175,-1.081
1775855280692,-0.022,-0.300,-0.999
1775855280712,-0.012,-0.248,-0.939
1775855280732,0.006,-0.263,-0.908
1775855280752,-0.005,-0.181,-0.792
1775855280771,-0.008,-0.146,-0.716
1775855280791,-0.037,-0.196,-0.638
1775855280811,-0.028,-0.254,-0.487
1775855280831,-0.054,-0.249,-0.401
1775855280850,-0.022,-0.216,-0.452
1775855280870,0.010,-0.263,-0.569
1775855280890,0.012,-0.278,-0.693
1775855280910,-0.023,-0.215,-0.736
1775855280929,0.025,-0.264,-0.713
1775855280949,0.053,-0.465,-0.741
1775855280969,0.054,-0.354,-0.834
1775855280989,0.030,-0.220,-0.894
1775855281008,0.021,-0.280,-0.926
1775855281028,-0.010,-0.313,-1.049
1775855281048,-0.010,-0.338,-1.075
1775855281068,-0.028,-0.395,-0.926
1775855281087,-0.027,-0.403,-0.902
1775855281107,-0.036,-0.310,-0.943
1775855281127,-0.043,-0.291,-0.914
1775855281147,-0.027,-0.351,-0.826
1775855281166,-0.019,-0.338,-0.805
1775855281186,-0.004,-0.234,-0.865
1775855281206,-0.012,-0.275,-0.818
1775855281226,-0.057,-0.235,-0.668
1775855281246,-0.042,-0.236,-0.584
1775855281265,-0.016,-0.374,-0.473
1775855281285,-0.031,-0.339,-0.264
1775855281305,-0.028,-0.150,-0.266
1775855281325,0.003,-0.092,-0.479
1775855281344,0.000,-0.265,-0.724
1775855281364,-0.013,-0.412,-0.774
1775855281384,0.009,-0.373,-0.734
1775855281404,-0.019,-0.337,-0.998
1775855281423,-0.038,-0.349,-1.302
1775855281443,-0.073,-0.322,-1.188
1775855281463,-0.039,-0.428,-0.933
1775855281483,-0.021,-0.521,-0.783
1775855281502,0.001,-0.267,-0.854
1775855281522,0.019,-0.109,-0.928
1775855281542,0.045,-0.277,-0.966
1775855281562,0.027,-0.314,-1.103
1775855281581,-0.029,-0.265,-1.295
1775855281601,-0.089,-0.216,-1.449
1775855281621,-0.099,-0.236,-1.487
1775855281641,-0.108,-0.285,-1.323
1775855281660,-0.098,-0.341,-1.194
1775855281680,-0.080,-0.324,-1.149
1775855281700,-0.072,-0.199,-0.963
1775855281720,-0.049,-0.197,-0.822
1775855281739,0.017,-0.287,-0.827
1775855281759,0.049,-0.233,-0.915
1775855281779,0.067,-0.164,-1.027
1775855281799,0.037,-0.123,-1.138
1775855281819,0.044,-0.256,-1.346
1775855281838,0.006,-0.307,-1.456
1775855281858,-0.022,-0.210,-1.518
1775855281878,-0.077,-0.294,-1.455
1775855281898,-0.134,-0.352,-1.381
1775855281917,-0.100,-0.254,-1.318
1775855281937,-0.020,-0.284,-1.264
1775855281957,0.009,-0.181,-1.172
1775855281977,0.009,-0.113,-1.130
1775855281996,0.010,-0.205,-1.026
1775855282016,0.010,-0.226,-0.820
1775855282036,0.018,-0.163,-0.695
1775855282056,0.047,-0.161,-0.688
1775855282075,0.041,-0.189,-0.691
1775855282095,0.019,-0.161,-0.660
1775855282115,0.011,-0.116,-0.707
1775855282135,0.032,-0.284,-0.943
1775855282154,0.020,-0.243,-1.108
1775855282174,-0.016,-0.157,-1.182
1775855282194,-0.066,-0.288,-1.272
1775855282214,-0.064,-0.373,-1.305
1775855282234,-0.082,-0.324,-1.172
1775855282253,-0.063,-0.290,-1.040
1775855282273,-0.050,-0.265,-0.983
1775855282293,-0.010,-0.193,-1.015
1775855282313,0.008,-0.184,-0.936
1775855282332,-0.003,-0.171,-0.870
1775855282352,-0.015,-0.212,-0.835
1775855282372,0.033,-0.292,-0.821
1775855282392,0.037,-0.210,-0.816
1775855282411,0.032,-0.082,-0.773
1775855282451,0.063,-0.326,-0.642
1775855282471,0.112,-0.229,-0.737
1775855282490,0.144,-0.230,-0.937
1775855282510,0.142,-0.154,-1.026
1775855282530,0.121,-0.158,-1.123
1775855282550,0.077,-0.226,-1.268
1775855282569,-0.018,-0.282,-1.336
1775855282589,-0.107,-0.291,-1.126
1775855282609,-0.228,-0.257,-0.821
1775855282629,-0.251,-0.191,-0.611
1775855282648,-0.225,-0.210,-0.497
1775855282668,-0.156,-0.358,-0.540
1775855282688,-0.085,-0.261,-0.749
1775855282708,-0.058,-0.090,-1.041
1775855282727,-0.072,-0.285,-1.197
1775855282747,-0.047,-0.458,-1.239
1775855282767,0.051,-0.522,-1.431
1775855282787,0.091,-0.503,-1.399
1775855282806,0.171,-0.294,-1.274
1775855282826,0.213,-0.199,-1.182
1775855282846,0.133,-0.152,-0.943
1775855282866,0.026,-0.220,-0.677
1775855282885,-0.027,-0.274,-0.507
1775855282905,-0.092,-0.280,-0.353
1775855282925,-0.093,-0.341,-0.447
1775855282945,-0.041,-0.522,-0.805
1775855282965,-0.038,-0.473,-0.955
1775855282984,-0.059,-0.340,-0.844
1775855283004,-0.017,-0.386,-0.761
1775855283024,0.009,-0.496,-0.618
1775855283044,0.015,-0.511,-0.488
1775855283063,0.066,-0.403,-0.544
1775855283083,0.087,-0.455,-0.562
1775855283103,0.051,-0.402,-0.625
1775855283123,0.050,-0.355,-0.929
1775855283142,0.043,-0.373,-1.065
1775855283162,-0.001,-0.446,-1.009
1775855283182,-0.022,-0.421,-1.105
1775855283202,-0.061,-0.452,-1.032
1775855283221,-0.061,-0.447,-0.908
1775855283241,-0.043,-0.405,-0.925
1775855283261,-0.050,-0.432,-0.900
1775855283281,-0.048,-0.435,-0.802
1775855283300,-0.001,-0.385,-0.853
1775855283320,0.012,-0.417,-0.910
1775855283340,-0.018,-0.403,-0.888
1775855283360,0.000,-0.399,-0.909
1775855283379,0.013,-0.400,-0.946
1775855283399,0.013,-0.398,-0.961
1775855283419,-0.016,-0.388,-0.930
1775855283439,-0.010,-0.412,-0.867
1775855283459,-0.007,-0.434,-0.871
1775855283478,0.005,-0.389,-0.875
1775855283498,-0.001,-0.396,-0.840
1775855283518,-0.012,-0.395,-0.844
1775855283538,-0.003,-0.405,-0.931
1775855283557,-0.012,-0.424,-0.912
1775855283577,-0.023,-0.421,-0.841
1775855283597,-0.026,-0.421,-0.826
1775855283617,-0.007,-0.397,-0.812
1775855283636,-0.013,-0.383,-0.725
1775855283656,-0.009,-0.400,-0.569
1775855283676,-0.004,-0.364,-0.427
1775855283696,-0.017,-0.232,-0.485
1775855283715,0.011,-0.289,-0.669
1775855283735,-0.050,-0.460,-0.667
1775855283755,-0.072,-0.433,-0.543
1775855283775,-0.088,-0.267,-0.709
1775855283794,-0.071,-0.310,-1.000
1775855283814,0.010,-0.556,-1.160
1775855283834,-0.016,-0.525,-1.014
1775855283854,0.050,-0.294,-0.971
1775855283873,0.126,-0.298,-1.083
1775855283893,0.065,-0.229,-1.036
1775855283913,0.015,-0.247,-0.919
1775855283933,-0.033,-0.376,-0.808
1775855283952,-0.054,-0.304,-0.858
1775855283972,-0.016,-0.304,-1.152
1775855283992,-0.049,-0.269,-1.270
1775855284012,-0.074,-0.297,-1.169
1775855284031,-0.038,-0.334,-1.181
1775855284051,-0.012,-0.217,-1.247
1775855284071,-0.031,-0.271,-1.031
1775855284091,-0.064,-0.410,-0.991
1775855284111,-0.025,-0.246,-0.953
1775855284130,0.004,-0.187,-0.861
1775855284150,0.011,-0.256,-0.944
1775855284170,0.032,-0.184,-1.448
1775855284190,-0.011,-0.323,-1.803
1775855284209,-0.082,-0.338,-1.703
1775855284229,-0.087,-0.359,-1.573
1775855284249,-0.032,-0.302,-1.491
1775855284269,0.015,-0.224,-1.190
1775855284288,0.043,-0.229,-0.886
1775855284308,0.070,-0.248,-0.656
1775855284328,0.026,-0.246,-0.458
1775855284348,0.000,-0.207,-0.463
1775855284367,0.061,-0.230,-0.784
1775855284387,0.056,-0.267,-1.116
1775855284407,0.023,-0.135,-1.234
1775855284427,-0.015,-0.269,-1.285
1775855284446,-0.066,-0.414,-1.184
1775855284466,-0.059,-0.332,-0.891
1775855284486,-0.041,-0.318,-0.658
1775855284506,-0.016,-0.269,-0.524
1775855284526,-0.010,-0.184,-0.609
1775855284545,0.019,-0.151,-0.752
1775855284565,-0.009,-0.256,-0.784
1775855284585,-0.005,-0.226,-1.075
1775855284605,0.027,-0.189,-1.440
1775855284624,0.000,-0.255,-1.577
1775855284644,0.005,-0.333,-1.321
1775855284664,-0.007,-0.309,-0.957
1775855284684,-0.006,-0.295,-0.624
1775855284703,0.026,-0.293,-0.375
1775855284723,0.044,-0.306,-0.254
1775855284743,0.028,-0.218,-0.242
1775855284763,0.019,-0.179,-0.441
1775855284782,0.042,-0.222,-0.776
1775855284802,0.004,-0.304,-1.048
1775855284822,-0.028,-0.299,-1.016
1775855284842,-0.022,-0.288,-1.163
1775855284862,-0.006,-0.377,-1.231
1775855284881,-0.018,-0.379,-0.938
1775855284901,-0.006,-0.306,-0.906
1775855284921,0.044,-0.220,-1.023
1775855284941,0.039,-0.313,-0.926
1775855284960,0.029,-0.318,-0.819
1775855284980,0.036,-0.263,-0.880
1775855285000,0.033,-0.254,-0.942
1775855285020,0.011,-0.305,-0.868
1775855285039,0.019,-0.335,-0.904
1775855285059,0.013,-0.268,-1.003
1775855285079,-0.009,-0.282,-0.976
1775855285099,0.003,-0.339,-0.943
1775855285118,0.045,-0.335,-0.916
1775855285138,0.043,-0.246,-0.932
1775855285158,0.052,-0.217,-0.966
1775855285178,0.057,-0.267,-0.998
1775855285197,0.037,-0.294,-0.977
1775855285217,0.028,-0.280,-0.911
1775855285237,0.011,-0.255,-0.876
1775855285257,0.005,-0.274,-0.843
1775855285277,-0.017,-0.325,-0.849
1775855285296,-0.006,-0.297,-0.905
1775855285316,-0.008,-0.339,-0.902
1775855285336,-0.002,-0.339,-0.843
1775855285356,-0.003,-0.318,-0.829
1775855285375,0.037,-0.292,-0.824
1775855285395,0.014,-0.163,-0.895
1775855285415,0.016,-0.280,-0.968
1775855285435,0.036,-0.303,-0.868
1775855285454,0.044,-0.232,-0.838
1775855285474,0.086,-0.347,-0.954
1775855285494,0.098,-0.275,-0.934
1775855285514,0.116,-0.260,-0.890
1775855285533,0.125,-0.277,-0.862
1775855285553,0.149,-0.193,-0.887
1775855285573,0.171,-0.143,-0.908
1775855285593,0.170,-0.186,-0.827
1775855285613,0.178,-0.170,-0.807
1775855285632,0.237,-0.161,-1.004
1775855285652,0.228,-0.215,-1.039
1775855285672,0.221,-0.183,-1.040
1775855285692,0.201,-0.217,-1.088
1775855285711,0.178,-0.291,-1.035
1775855285731,0.198,-0.486,-1.000
1775855285751,0.183,-0.360,-0.990
1775855285771,0.203,-0.242,-0.983
1775855285790,0.153,-0.208,-0.883
1775855285810,0.152,-0.227,-0.889
1775855285830,0.202,-0.239,-0.967
1775855285850,0.222,-0.257,-0.915
1775855285869,0.172,-0.214,-0.911
1775855285889,0.217,-0.248,-0.902
1775855285909,0.220,-0.281,-0.922
1775855285929,0.241,-0.344,-0.999
1775855285949,0.242,-0.333,-0.990
1775855285968,0.210,-0.281,-0.958
1775855285988,0.176,-0.314,-0.973
1775855286008,0.176,-0.256,-0.976
1775855286028,0.127,-0.230,-0.957
1775855286047,0.153,-0.318,-0.942
1775855286067,0.133,-0.303,-0.815
1775855286087,0.208,-0.236,-0.920
1775855286107,0.237,-0.230,-1.090
1775855286126,0.199,-0.408,-1.039
1775855286146,0.212,-0.208,-1.026
1775855286166,0.221,-0.089,-1.117
1775855286186,0.148,-0.275,-0.950
1775855286205,0.104,-0.215,-0.889
1775855286225,0.059,-0.057,-1.021
1775855286245,-0.005,-0.251,-0.942
1775855286265,0.030,-0.443,-0.950
1775855286284,0.088,-0.299,-1.058
1775855286304,0.093,-0.232,-0.971
1775855286324,0.045,-0.413,-0.936
1775855286344,0.082,-0.567,-0.994
1775855286364,0.108,-0.625,-0.865
1775855286383,0.175,-0.447,-0.950
1775855286403,0.207,-0.458,-1.041
1775855286423,0.173,-0.340,-0.919
1775855286443,0.150,-0.297,-0.749
1775855286462,0.145,-0.386,-0.778
1775855286482,0.117,-0.080,-0.947
1775855286502,0.152,0.218,-1.110
1775855286522,0.068,-0.155,-1.007
1775855286541,0.107,-0.361,-0.924
1775855286561,0.176,-0.175,-0.941
1775855286581,0.226,-0.031,-1.120
1775855286601,0.241,-0.318,-0.999
1775855286620,0.241,-0.163,-0.849
1775855286640,0.260,0.102,-1.141
1775855286660,0.240,-0.113,-1.174
1775855286680,0.190,-0.315,-1.048
1775855286699,0.168,-0.343,-1.138
1775855286719,0.206,-0.318,-1.235
1775855286739,0.224,-0.197,-1.220
1775855286759,0.237,-0.335,-1.280
1775855286779,0.176,-0.430,-1.277
1775855286798,0.135,-0.388,-1.210
1775855286818,0.086,-0.475,-1.202
1775855286838,0.047,-0.569,-1.103
1775855286858,0.053,-0.550,-1.093
1775855286877,0.096,-0.597,-1.144
1775855286897,0.107,-0.493,-1.058
1775855286917,0.076,-0.385,-1.064
1775855286937,0.015,-0.606,-1.091
1775855286956,-0.031,-0.705,-1.054
1775855286976,-0.010,-0.542,-1.038
1775855286996,0.016,-0.540,-1.161
1775855287016,0.084,-0.574,-1.282
1775855287035,0.114,-0.539,-1.232
1775855287055,0.124,-0.357,-1.208
1775855287075,0.069,-0.328,-1.192
1775855287095,0.028,-0.474,-1.107
1775855287114,-0.002,-0.327,-0.976
1775855287134,-0.013,-0.165,-0.999
1775855287154,-0.031,-0.334,-0.969
1775855287174,-0.059,-0.340,-0.862
1775855287193,-0.083,-0.215,-0.924
1775855287213,-0.063,-0.319,-1.076
1775855287233,-0.078,-0.408,-0.965
1775855287253,-0.104,-0.341,-0.846
1775855287273,-0.094,-0.356,-0.914
1775855287292,-0.092,-0.481,-0.951
1775855287312,-0.090,-0.377,-0.866
1775855287332,-0.091,-0.277,-0.782
1775855287352,-0.071,-0.257,-0.776
1775855287371,-0.116,-0.461,-0.784
1775855287391,-0.106,-0.403,-0.783
1775855287411,-0.114,-0.347,-0.724
1775855287431,-0.143,-0.380,-0.639
1775855287450,-0.123,-0.342,-0.722
1775855287470,-0.118,-0.461,-0.758
1775855287490,-0.122,-0.485,-0.653
1775855287510,-0.114,-0.392,-0.606
1775855287529,-0.115,-0.354,-0.626
1775855287549,-0.117,-0.346,-0.597
1775855287569,-0.106,-0.407,-0.574
1775855287589,-0.109,-0.419,-0.553
1775855287608,-0.118,-0.423,-0.582
1775855287628,-0.092,-0.633,-0.673
1775855287648,-0.096,-0.664,-0.563
1775855287668,-0.076,-0.403,-0.544
1775855287687,-0.037,-0.479,-0.635
1775855287707,-0.022,-0.586,-0.657
1775855287727,0.007,-0.579,-0.616
1775855287747,0.054,-0.484,-0.614
1775855287767,0.076,-0.408,-0.681
1775855287786,0.084,-0.518,-0.730
1775855287806,0.098,-0.510,-0.695
1775855287826,0.102,-0.491,-0.686
1775855287846,0.099,-0.480,-0.671
1775855287865,0.098,-0.532,-0.646
1775855287885,0.093,-0.522,-0.654
1775855287905,0.083,-0.545,-0.665
1775855287925,0.063,-0.578,-0.637
1775855287944,0.063,-0.602,-0.642
1775855287964,0.072,-0.593,-0.695
1775855287984,0.089,-0.590,-0.723
1775855288004,0.099,-0.619,-0.744
1775855288023,0.103,-0.580,-0.746
1775855288043,0.107,-0.564,-0.774
1775855288063,0.121,-0.559,-0.773
1775855288083,0.128,-0.561,-0.713
1775855288102,0.113,-0.623,-0.683
1775855288122,0.143,-0.585,-0.688
1775855288142,0.119,-0.604,-0.695
