absolute_timestamp,gyro_x,gyro_y,gyro_z
1775855247732,0.009,-0.042,-0.109
1775855247752,-0.003,-0.052,-0.098
1775855247772,-0.022,-0.057,-0.086
1775855247792,-0.037,-0.053,-0.066
1775855247811,-0.047,-0.058,-0.049
1775855247831,-0.045,-0.074,-0.041
1775855247851,-0.033,-0.098,-0.025
1775855247871,-0.016,-0.107,0.006
1775855247890,0.005,-0.104,0.033
1775855247910,0.027,-0.106,0.040
1775855247930,0.044,-0.115,0.033
1775855247950,0.045,-0.118,0.023
1775855247970,0.031,-0.113,0.014
1775855247989,0.014,-0.110,0.011
1775855248009,-0.001,-0.104,0.008
1775855248029,-0.013,-0.097,0.006
1775855248049,-0.022,-0.092,0.004
1775855248068,-0.021,-0.084,0.008
1775855248088,-0.020,-0.079,0.006
1775855248108,-0.016,-0.077,0.005
1775855248128,-0.020,-0.070,0.007
1775855248147,-0.035,-0.062,0.007
1775855248167,-0.051,-0.060,0.007
1775855248187,-0.062,-0.057,0.009
1775855248207,-0.062,-0.055,0.015
1775855248226,-0.059,-0.051,0.022
1775855248246,-0.064,-0.047,0.025
1775855248266,-0.074,-0.045,0.030
1775855248286,-0.093,-0.036,0.031
1775855248305,-0.114,-0.027,0.022
1775855248325,-0.132,-0.025,0.003
1775855248345,-0.149,-0.031,-0.011
1775855248365,-0.149,-0.049,-0.027
1775855248384,-0.129,-0.094,-0.058
1775855248404,-0.114,-0.161,-0.088
1775855248424,-0.121,-0.242,-0.117
1775855248444,-0.140,-0.334,-0.145
1775855248463,-0.175,-0.426,-0.178
1775855248483,-0.225,-0.521,-0.218
1775855248503,-0.286,-0.607,-0.254
1775855248523,-0.338,-0.658,-0.268
1775855248542,-0.365,-0.677,-0.264
1775855248562,-0.364,-0.675,-0.266
1775855248582,-0.335,-0.637,-0.268
1775855248602,-0.288,-0.575,-0.266
1775855248621,-0.234,-0.511,-0.260
1775855248641,-0.190,-0.455,-0.252
1775855248661,-0.165,-0.398,-0.239
1775855248681,-0.141,-0.344,-0.223
1775855248701,-0.116,-0.294,-0.208
1775855248720,-0.095,-0.248,-0.189
1775855248740,-0.085,-0.203,-0.169
1775855248760,-0.072,-0.154,-0.148
1775855248780,-0.048,-0.108,-0.132
1775855248799,-0.017,-0.071,-0.119
1775855248819,0.006,-0.040,-0.110
1775855248839,0.023,-0.027,-0.104
1775855248859,0.033,-0.025,-0.101
1775855248878,0.029,-0.025,-0.089
1775855248898,0.002,-0.018,-0.080
1775855248918,-0.018,-0.010,-0.071
1775855248938,-0.026,0.002,-0.080
1775855248957,-0.025,0.001,-0.100
1775855248977,-0.022,-0.012,-0.122
1775855248997,-0.022,-0.029,-0.137
1775855249017,-0.017,-0.042,-0.149
1775855249036,-0.001,-0.058,-0.159
1775855249056,0.015,-0.069,-0.165
1775855249076,0.026,-0.073,-0.165
1775855249096,0.035,-0.073,-0.163
1775855249115,0.041,-0.070,-0.158
1775855249135,0.042,-0.066,-0.151
1775855249155,0.043,-0.064,-0.146
1775855249175,0.042,-0.061,-0.135
1775855249194,0.042,-0.054,-0.123
1775855249214,0.044,-0.045,-0.108
1775855249234,0.049,-0.034,-0.094
1775855249254,0.054,-0.026,-0.083
1775855249273,0.054,-0.019,-0.074
1775855249293,0.052,-0.012,-0.064
1775855249313,0.054,-0.007,-0.053
1775855249333,0.057,-0.004,-0.045
1775855249352,0.058,-0.005,-0.040
1775855249372,0.058,-0.008,-0.035
1775855249392,0.057,-0.009,-0.032
1775855249412,0.054,-0.007,-0.029
1775855249431,0.057,0.002,-0.019
1775855249451,0.082,0.027,-0.016
1775855249471,0.139,0.090,-0.022
1775855249491,0.194,0.207,-0.031
1775855249510,0.227,0.338,-0.036
1775855249530,0.240,0.425,-0.032
1775855249550,0.224,0.461,-0.010
1775855249570,0.186,0.449,0.021
1775855249590,0.149,0.405,0.048
1775855249609,0.126,0.340,0.067
1775855249629,0.108,0.260,0.080
1775855249649,0.080,0.184,0.081
1775855249669,0.059,0.126,0.079
1775855249688,0.045,0.084,0.074
1775855249708,0.039,0.054,0.063
1775855249728,0.037,0.032,0.048
1775855249748,0.027,0.019,0.033
1775855249767,0.015,0.013,0.022
1775855249787,0.010,0.011,0.015
1775855249807,0.012,0.009,0.012
1775855249827,0.010,0.009,0.008
1775855249846,0.005,0.007,0.007
1775855249866,-0.004,0.005,0.009
1775855249886,-0.004,0.003,0.008
1775855249906,0.008,0.000,0.011
1775855249925,0.014,0.003,0.014
1775855249945,0.013,0.008,0.014
1775855249965,0.011,0.012,0.011
1775855249985,0.010,0.012,0.010
1775855250004,0.006,0.013,0.006
1775855250024,-0.003,0.012,0.003
1775855250044,-0.009,0.010,0.007
1775855250064,-0.011,0.006,0.009
1775855250083,-0.017,-0.005,0.005
1775855250103,-0.029,-0.024,0.001
1775855250123,-0.047,-0.053,-0.004
1775855250143,-0.068,-0.096,-0.006
1775855250163,-0.086,-0.151,-0.006
1775855250182,-0.102,-0.202,-0.012
1775855250202,-0.116,-0.232,-0.019
1775855250222,-0.132,-0.238,-0.020
1775855250242,-0.140,-0.244,-0.022
1775855250261,-0.139,-0.245,-0.024
1775855250281,-0.130,-0.234,-0.029
1775855250301,-0.113,-0.211,-0.034
1775855250321,-0.093,-0.178,-0.037
1775855250340,-0.070,-0.143,-0.036
1775855250360,-0.050,-0.115,-0.037
1775855250380,-0.034,-0.090,-0.038
1775855250400,-0.021,-0.067,-0.036
1775855250419,-0.011,-0.045,-0.031
1775855250439,-0.005,-0.033,-0.027
1775855250459,-0.000,-0.029,-0.021
1775855250479,0.000,-0.027,-0.018
1775855250498,-0.002,-0.021,-0.016
1775855250518,-0.008,-0.013,-0.014
1775855250538,-0.011,-0.013,-0.012
1775855250558,-0.011,-0.022,-0.011
1775855250578,-0.014,-0.026,-0.010
1775855250597,-0.015,-0.018,-0.006
1775855250617,-0.010,-0.010,-0.011
1775855250637,-0.006,-0.009,-0.018
1775855250657,-0.006,-0.008,-0.015
1775855250676,-0.009,-0.007,-0.016
1775855250696,-0.013,-0.008,-0.016
1775855250716,-0.019,-0.008,-0.016
1775855250736,-0.021,-0.006,-0.012
1775855250755,-0.018,-0.003,-0.009
1775855250775,-0.014,0.000,-0.005
1775855250795,-0.007,0.002,-0.003
1775855250815,-0.001,-0.001,-0.004
1775855250834,0.001,-0.004,-0.003
1775855250854,0.002,-0.006,0.000
1775855250874,0.001,-0.006,0.000
1775855250894,-0.002,-0.003,-0.000
1775855250914,-0.006,0.001,-0.001
1775855250953,-0.007,0.001,-0.005
1775855250973,-0.011,0.001,-0.004
1775855250993,-0.011,-0.001,-0.006
1775855251012,-0.008,-0.004,-0.007
1775855251032,-0.004,-0.006,-0.007
1775855251052,-0.001,-0.006,-0.006
1775855251072,0.000,-0.005,-0.005
1775855251091,-0.001,-0.002,-0.004
1775855251111,-0.002,-0.001,-0.005
1775855251131,0.001,-0.003,-0.006
1775855251151,0.002,-0.004,-0.005
1775855251170,0.000,-0.005,-0.005
1775855251190,-0.002,-0.005,-0.003
1775855251210,-0.004,-0.004,-0.005
1775855251230,-0.006,-0.005,-0.007
1775855251250,-0.005,-0.006,-0.002
1775855251269,-0.005,-0.004,0.003
1775855251289,-0.006,-0.001,0.002
1775855251309,-0.007,0.001,-0.001
1775855251329,-0.007,0.002,-0.004
1775855251348,-0.004,0.000,-0.004
1775855251368,-0.003,-0.002,-0.004
1775855251388,-0.004,-0.006,-0.004
1775855251408,-0.004,-0.007,-0.003
1775855251427,-0.001,-0.006,-0.003
1775855251447,0.002,-0.006,-0.001
1775855251467,0.004,-0.006,0.003
1775855251487,0.006,-0.004,0.006
1775855251506,0.005,-0.001,0.005
1775855251526,0.005,0.001,0.005
1775855251546,0.005,0.005,0.005
1775855251566,0.004,0.007,0.007
1775855251585,0.003,0.007,0.007
1775855251605,0.003,0.006,0.005
1775855251625,0.002,0.004,0.004
1775855251645,-0.000,0.003,0.005
1775855251664,-0.002,0.005,0.006
1775855251684,0.000,0.005,0.005
1775855251704,-0.000,0.003,0.003
1775855251724,-0.003,0.003,0.003
1775855251744,-0.005,0.005,0.005
1775855251763,-0.005,0.007,0.006
1775855251783,-0.003,0.006,0.006
1775855251803,-0.002,0.008,0.007
1775855251823,-0.003,0.009,0.006
1775855251842,-0.003,0.007,0.004
1775855251862,0.000,0.005,0.010
1775855251882,0.002,0.006,0.010
1775855251902,0.001,0.006,0.004
1775855251921,-0.003,0.004,-0.003
1775855251941,-0.005,0.001,-0.003
1775855251961,-0.006,0.001,-0.000
1775855251981,-0.008,0.000,0.000
1775855252000,-0.008,-0.001,0.000
1775855252020,-0.009,0.000,-0.001
1775855252040,-0.008,0.000,0.000
1775855252060,-0.009,0.004,0.003
1775855252080,-0.006,0.004,0.002
1775855252099,-0.004,0.005,0.001
1775855252119,-0.003,0.003,0.001
1775855252139,-0.001,0.000,0.000
1775855252159,0.000,-0.002,0.000
1775855252178,0.001,-0.003,-0.000
1775855252198,0.002,-0.003,-0.002
1775855252218,0.003,-0.002,-0.002
1775855252238,0.003,-0.001,-0.000
1775855252257,0.002,-0.000,-0.001
1775855252277,0.001,-0.000,-0.001
1775855252297,-0.001,0.000,-0.001
1775855252317,-0.002,-0.000,-0.001
1775855252336,-0.003,-0.002,-0.001
1775855252356,-0.003,-0.003,-0.003
1775855252376,-0.003,-0.005,-0.001
1775855252396,-0.002,-0.003,-0.002
1775855252415,-0.002,-0.004,-0.005
1775855252435,0.000,-0.005,-0.002
1775855252455,0.000,-0.003,0.000
1775855252475,-0.001,-0.002,0.000
1775855252494,-0.003,-0.001,-0.003
1775855252514,-0.002,-0.002,-0.007
1775855252534,-0.001,-0.002,-0.006
1775855252554,0.000,-0.004,-0.004
1775855252573,0.000,-0.007,-0.003
1775855252593,-0.000,-0.008,-0.003
1775855252613,-0.001,-0.008,-0.004
1775855252633,-0.000,-0.007,0.000
1775855252653,-0.001,-0.003,0.002
1775855252672,-0.001,0.000,0.003
1775855252692,-0.002,0.000,0.003
1775855252712,-0.004,0.002,0.003
1775855252732,-0.003,0.002,0.003
1775855252751,-0.004,-0.001,0.002
1775855252771,-0.005,-0.002,0.003
1775855252791,-0.006,-0.001,0.004
1775855252811,-0.006,-0.000,0.004
1775855252830,-0.006,-0.001,0.004
1775855252850,-0.006,-0.001,0.003
1775855252870,-0.005,-0.001,0.004
1775855252890,-0.004,0.000,0.007
1775855252909,-0.005,0.003,0.010
1775855252929,-0.006,0.005,0.009
1775855252949,-0.007,0.006,0.009
1775855252969,-0.006,0.005,0.008
1775855252988,-0.008,0.003,0.007
1775855253008,-0.008,0.002,0.011
1775855253028,-0.011,0.004,0.015
1775855253048,-0.012,0.006,0.012
1775855253067,-0.014,0.008,0.008
1775855253087,-0.016,0.009,0.007
1775855253107,-0.015,0.007,0.007
1775855253127,-0.014,0.002,0.005
1775855253147,-0.013,0.000,0.006
1775855253166,-0.013,-0.001,0.006
1775855253186,-0.013,-0.000,0.006
1775855253206,-0.011,0.001,0.010
1775855253226,-0.009,0.004,0.011
1775855253245,-0.010,0.005,0.010
1775855253265,-0.010,0.006,0.009
1775855253285,-0.010,0.005,0.009
1775855253305,-0.009,0.002,0.009
1775855253324,-0.010,0.000,0.007
1775855253344,-0.012,-0.001,0.006
1775855253364,-0.014,-0.000,0.009
1775855253384,-0.018,0.001,0.009
1775855253403,-0.022,0.003,0.008
1775855253423,-0.025,0.007,0.012
1775855253443,-0.024,0.009,0.016
1775855253463,-0.023,0.009,0.021
1775855253483,-0.031,0.009,0.024
1775855253502,-0.047,0.010,0.029
1775855253522,-0.066,0.017,0.033
1775855253542,-0.083,0.024,0.037
1775855253562,-0.101,0.028,0.037
1775855253581,-0.119,0.030,0.042
1775855253601,-0.135,0.037,0.053
1775855253621,-0.147,0.044,0.058
1775855253641,-0.155,0.047,0.058
1775855253660,-0.158,0.049,0.054
1775855253680,-0.159,0.052,0.055
1775855253700,-0.162,0.055,0.053
1775855253720,-0.162,0.058,0.053
1775855253739,-0.156,0.062,0.057
1775855253759,-0.150,0.068,0.062
1775855253779,-0.143,0.081,0.068
1775855253799,-0.133,0.098,0.077
1775855253818,-0.119,0.121,0.082
1775855253838,-0.107,0.144,0.086
1775855253858,-0.106,0.166,0.080
1775855253878,-0.105,0.177,0.076
1775855253897,-0.097,0.179,0.079
1775855253917,-0.102,0.172,0.073
1775855253937,-0.126,0.161,0.070
1775855253957,-0.137,0.146,0.073
1775855253977,-0.135,0.128,0.077
1775855253996,-0.148,0.117,0.077
1775855254016,-0.164,0.114,0.075
1775855254036,-0.158,0.109,0.069
1775855254056,-0.161,0.097,0.045
1775855254075,-0.178,0.085,0.031
1775855254095,-0.184,0.073,0.024
1775855254115,-0.170,0.060,0.020
1775855254135,-0.144,0.038,0.004
1775855254154,-0.122,0.008,-0.018
1775855254174,-0.109,-0.016,-0.022
1775855254194,-0.102,-0.028,-0.022
1775855254214,-0.121,-0.031,-0.024
1775855254233,-0.127,-0.022,-0.004
1775855254253,-0.125,-0.007,0.012
1775855254273,-0.111,-0.003,0.026
1775855254293,-0.080,0.000,0.040
1775855254312,-0.062,0.011,0.038
1775855254332,-0.056,0.005,0.029
1775855254352,-0.054,0.001,0.031
1775855254372,-0.058,0.006,0.030
1775855254391,-0.051,0.005,0.019
1775855254411,-0.042,0.005,0.013
1775855254431,-0.033,0.010,0.016
1775855254451,-0.033,0.013,0.011
1775855254470,-0.027,0.012,-0.005
1775855254490,-0.030,0.000,-0.000
1775855254510,-0.065,0.008,0.001
1775855254530,-0.087,0.021,0.007
1775855254549,-0.087,0.014,0.020
1775855254569,-0.072,0.020,0.036
1775855254589,-0.073,0.020,0.042
1775855254609,-0.076,0.001,0.036
1775855254628,-0.087,-0.005,0.043
1775855254648,-0.085,0.003,0.039
1775855254668,-0.083,0.003,0.035
1775855254688,-0.088,-0.001,0.044
1775855254708,-0.102,-0.009,0.035
1775855254727,-0.104,-0.021,0.015
1775855254747,-0.109,-0.020,0.010
1775855254767,-0.097,-0.010,0.005
1775855254787,-0.073,-0.009,-0.001
1775855254806,-0.065,-0.010,0.000
1775855254826,-0.058,-0.003,0.001
1775855254846,-0.057,0.005,-0.020
1775855254866,-0.045,0.016,-0.032
1775855254885,-0.034,0.017,-0.009
1775855254905,-0.028,0.012,-0.002
1775855254925,-0.027,0.012,-0.008
1775855254945,-0.023,0.015,-0.002
1775855254964,-0.020,0.014,0.012
1775855254984,-0.024,0.039,0.018
1775855255004,-0.042,0.043,0.000
1775855255024,-0.048,0.010,-0.061
1775855255043,-0.018,0.007,-0.042
1775855255063,0.004,0.052,-0.006
1775855255083,0.006,0.073,-0.021
1775855255103,0.013,0.048,-0.041
1775855255122,0.011,0.019,0.009
1775855255142,0.008,0.015,0.050
1775855255162,-0.009,0.023,0.015
1775855255182,-0.019,0.020,-0.043
1775855255201,-0.029,0.011,-0.027
1775855255221,-0.053,0.013,0.005
1775855255241,-0.067,0.023,-0.002
1775855255261,-0.063,0.025,-0.033
1775855255280,-0.062,0.017,-0.028
1775855255300,-0.053,0.037,0.003
1775855255320,-0.031,0.066,0.047
1775855255340,-0.030,0.055,0.056
1775855255359,-0.055,0.007,0.034
1775855255379,-0.085,-0.011,0.037
1775855255399,-0.102,0.008,0.052
1775855255419,-0.094,0.038,0.050
1775855255439,-0.069,0.036,0.040
1775855255458,-0.062,-0.004,0.008
1775855255478,-0.069,-0.026,-0.012
1775855255498,-0.076,0.017,0.031
1775855255518,-0.030,0.075,0.090
1775855255537,0.006,0.056,0.053
1775855255557,0.007,-0.022,-0.016
1775855255577,0.005,-0.065,-0.042
1775855255597,0.032,-0.038,0.015
1775855255616,0.041,0.004,0.084
1775855255636,0.015,-0.011,0.056
1775855255656,-0.039,-0.072,-0.024
1775855255676,-0.071,-0.079,-0.015
1775855255695,-0.081,-0.027,0.039
1775855255715,-0.059,0.004,0.025
1775855255735,-0.025,0.014,-0.031
1775855255755,0.024,0.019,-0.032
1775855255774,0.089,0.006,-0.012
1775855255794,0.076,-0.031,-0.076
1775855255814,-0.002,-0.017,-0.113
1775855255834,-0.009,-0.008,-0.069
1775855255854,-0.004,-0.035,-0.039
1775855255873,-0.039,-0.041,-0.081
1775855255893,-0.039,0.005,-0.053
1775855255913,0.071,0.022,0.020
1775855255933,0.123,-0.052,0.020
1775855255952,0.044,-0.128,-0.064
1775855255972,0.026,-0.096,-0.069
1775855255992,0.105,-0.070,-0.058
1775855256012,0.119,-0.086,-0.089
1775855256031,0.075,-0.065,-0.096
1775855256051,0.082,-0.033,-0.043
1775855256071,0.099,-0.030,-0.011
1775855256091,0.055,-0.026,0.025
1775855256110,-0.016,-0.058,-0.053
1775855256130,-0.003,-0.042,-0.015
1775855256150,0.055,0.032,0.029
1775855256170,0.042,0.041,-0.001
1775855256189,0.001,0.023,-0.045
1775855256209,0.035,0.017,-0.026
1775855256229,0.026,-0.001,-0.015
1775855256249,0.000,-0.010,-0.011
1775855256268,0.044,-0.000,0.005
1775855256288,0.065,0.012,0.017
1775855256308,0.037,0.023,0.011
1775855256328,-0.010,0.037,0.020
1775855256348,-0.042,0.051,0.003
1775855256367,-0.017,0.050,-0.047
1775855256387,0.086,0.040,-0.017
1775855256407,0.155,0.008,0.004
1775855256427,0.112,-0.010,0.034
1775855256446,0.077,0.033,0.067
1775855256466,0.089,0.046,0.044
1775855256486,0.056,0.004,0.005
1775855256506,0.061,0.035,-0.003
1775855256525,0.163,0.047,0.038
1775855256545,0.187,-0.019,0.046
1775855256565,0.099,-0.064,0.009
1775855256585,0.044,-0.085,0.033
1775855256604,0.052,-0.081,0.062
1775855256624,0.063,-0.026,0.118
1775855256644,0.055,0.006,0.127
1775855256664,0.043,-0.018,0.073
1775855256683,0.015,-0.089,-0.052
1775855256703,-0.021,-0.129,-0.081
1775855256723,0.000,-0.092,0.018
1775855256743,0.026,-0.012,0.092
1775855256763,0.034,0.013,0.055
1775855256782,0.016,-0.064,-0.006
1775855256802,0.011,-0.088,0.037
1775855256822,0.030,-0.026,0.098
1775855256842,0.015,0.019,0.079
1775855256861,-0.010,0.013,0.031
1775855256881,-0.051,-0.037,0.009
1775855256901,-0.105,-0.018,0.010
1775855256921,-0.081,0.063,0.047
1775855256940,-0.009,0.040,0.028
1775855256960,0.001,-0.017,-0.014
1775855256980,-0.008,-0.009,-0.015
1775855257000,0.005,0.013,-0.013
1775855257019,0.026,0.029,0.009
1775855257039,0.012,0.027,0.038
1775855257059,-0.003,0.014,0.027
1775855257079,0.008,0.010,-0.014
1775855257098,0.018,0.002,-0.026
1775855257118,0.019,0.028,0.008
1775855257138,0.013,0.037,0.009
1775855257158,-0.009,0.022,-0.022
1775855257177,-0.012,0.003,-0.011
1775855257197,-0.010,-0.030,0.009
1775855257217,-0.011,-0.033,0.005
1775855257237,0.012,-0.007,0.000
1775855257256,0.038,-0.020,0.005
1775855257276,0.015,-0.035,-0.012
1775855257296,-0.001,0.001,-0.012
1775855257316,0.008,0.005,0.011
1775855257336,0.012,-0.051,-0.010
1775855257355,0.001,-0.048,-0.021
1775855257375,0.009,-0.007,-0.004
1775855257395,0.025,-0.018,-0.010
1775855257415,0.033,-0.035,-0.038
1775855257434,0.018,-0.000,-0.058
1775855257454,-0.005,0.026,-0.059
1775855257474,-0.002,0.007,-0.037
1775855257494,-0.012,-0.005,-0.029
1775855257513,-0.055,0.021,-0.017
1775855257533,-0.052,0.028,0.000
1775855257553,-0.033,-0.015,-0.017
1775855257573,-0.067,-0.044,-0.046
1775855257592,-0.123,-0.020,-0.060
1775855257612,-0.136,0.042,-0.020
1775855257632,-0.135,0.065,-0.015
1775855257652,-0.151,0.067,-0.021
1775855257671,-0.163,0.083,-0.029
1775855257691,-0.157,0.096,-0.050
1775855257711,-0.140,0.075,-0.054
1775855257731,-0.113,0.046,-0.072
1775855257750,-0.101,0.015,-0.065
1775855257770,-0.039,-0.003,-0.031
1775855257790,0.017,-0.022,-0.014
1775855257810,0.070,-0.036,0.018
1775855257829,0.110,-0.032,0.036
1775855257849,0.102,-0.035,0.008
1775855257869,0.057,-0.044,-0.020
1775855257889,0.004,-0.045,-0.016
1775855257908,-0.024,-0.025,-0.010
1775855257928,-0.036,-0.015,0.001
1775855257948,-0.042,-0.032,0.024
1775855257968,-0.007,-0.020,0.030
1775855257987,0.047,-0.011,0.017
1775855258007,0.057,-0.016,0.034
1775855258027,0.049,0.027,0.044
1775855258047,0.052,0.011,0.002
1775855258067,0.033,-0.033,-0.007
1775855258086,0.002,-0.003,0.029
1775855258106,-0.004,0.022,0.026
1775855258126,0.002,-0.003,-0.013
1775855258146,0.023,-0.014,-0.019
1775855258165,0.067,0.003,0.010
1775855258185,0.108,0.017,0.013
1775855258205,0.124,0.006,-0.031
1775855258225,0.109,-0.036,-0.051
1775855258244,0.106,-0.047,-0.021
1775855258264,0.078,-0.045,-0.025
1775855258284,0.012,-0.014,-0.013
1775855258304,-0.018,0.079,0.050
1775855258323,0.001,0.101,0.057
1775855258343,0.000,0.038,-0.006
1775855258363,-0.006,0.020,-0.012
1775855258383,-0.020,0.007,0.001
1775855258402,-0.041,-0.005,0.007
1775855258422,-0.028,0.029,0.017
1775855258442,-0.006,0.032,0.023
1775855258462,0.013,0.004,-0.007
1775855258482,-0.006,-0.027,-0.036
1775855258501,-0.049,-0.042,-0.039
1775855258521,-0.085,-0.017,-0.007
1775855258541,-0.075,0.031,0.034
1775855258561,-0.059,-0.001,0.024
1775855258580,-0.089,-0.035,-0.002
1775855258600,-0.103,0.006,0.031
1775855258620,-0.088,0.029,0.060
1775855258640,-0.067,0.062,0.042
1775855258659,-0.039,0.097,0.013
1775855258679,-0.067,0.066,-0.019
1775855258699,-0.098,0.031,-0.036
1775855258719,-0.092,0.043,-0.018
1775855258738,-0.055,0.039,-0.013
1775855258758,-0.054,0.000,-0.031
1775855258778,-0.069,-0.001,-0.016
1775855258798,-0.049,0.027,0.014
1775855258817,-0.029,0.015,0.008
1775855258837,-0.021,0.022,-0.001
1775855258857,-0.006,0.034,0.003
1775855258877,-0.012,0.025,-0.001
1775855258897,-0.031,0.012,-0.010
1775855258916,-0.039,0.002,0.005
1775855258936,-0.032,-0.010,0.016
1775855258956,-0.020,-0.023,0.022
1775855258976,-0.001,-0.020,0.028
1775855258995,0.007,-0.021,0.026
1775855259015,0.010,-0.019,0.010
1775855259035,0.030,0.007,0.018
1775855259055,0.043,0.029,0.023
1775855259074,0.032,-0.003,0.000
1775855259094,0.024,-0.002,-0.013
1775855259114,0.032,0.009,-0.019
1775855259134,0.021,-0.011,-0.010
1775855259153,0.030,-0.045,-0.017
1775855259173,0.068,-0.057,-0.024
1775855259193,0.110,-0.066,-0.016
1775855259213,0.109,-0.083,-0.016
1775855259232,0.102,-0.064,-0.011
1775855259252,0.105,-0.010,0.007
1775855259272,0.103,0.019,0.022
1775855259292,0.056,0.006,0.012
1775855259311,-0.003,-0.004,0.005
1775855259331,-0.048,0.003,0.016
1775855259351,-0.088,0.007,0.010
1775855259371,-0.125,0.004,-0.007
1775855259390,-0.157,-0.007,-0.029
1775855259410,-0.190,-0.024,-0.034
1775855259430,-0.228,-0.014,-0.037
1775855259450,-0.252,0.007,-0.041
1775855259469,-0.249,0.007,-0.058
1775855259489,-0.226,-0.010,-0.066
1775855259509,-0.182,-0.014,-0.043
1775855259529,-0.113,-0.014,-0.013
1775855259548,-0.019,-0.024,-0.007
1775855259568,0.127,-0.045,0.010
1775855259588,0.240,-0.032,0.060
1775855259608,0.277,0.033,0.052
1775855259627,0.216,0.044,-0.007
1775855259647,0.101,0.003,-0.034
1775855259667,-0.009,-0.035,-0.009
1775855259687,-0.046,0.007,0.008
1775855259706,-0.042,-0.006,0.010
1775855259726,-0.061,-0.031,0.023
1775855259746,-0.023,0.008,0.016
1775855259766,0.050,-0.008,0.002
1775855259785,0.076,-0.013,0.011
1775855259805,0.063,0.009,0.001
1775855259825,0.051,0.002,-0.001
1775855259845,0.045,0.006,0.026
1775855259864,0.040,0.019,0.029
1775855259884,0.023,0.004,-0.004
1775855259904,-0.009,-0.006,-0.015
1775855259924,-0.009,0.018,0.012
1775855259943,0.048,0.033,0.028
1775855259963,0.106,0.001,0.005
1775855259983,0.066,-0.020,-0.031
1775855260003,0.043,0.018,-0.015
1775855260022,0.097,0.032,0.022
1775855260042,0.070,0.004,0.003
1775855260062,-0.028,-0.020,-0.029
1775855260082,-0.054,-0.003,0.004
1775855260102,-0.009,0.014,0.018
1775855260121,0.008,-0.018,-0.007
1775855260141,0.007,-0.058,0.001
1775855260161,0.007,-0.050,0.007
1775855260181,0.004,-0.038,0.020
1775855260200,-0.040,-0.029,0.027
1775855260220,-0.072,-0.005,0.032
1775855260240,-0.054,0.025,0.013
1775855260260,-0.021,-0.011,-0.027
1775855260279,-0.061,-0.058,-0.060
1775855260299,-0.083,-0.030,0.010
1775855260319,-0.088,0.038,0.046
1775855260339,-0.081,0.058,0.022
1775855260358,-0.054,0.013,-0.009
1775855260378,-0.013,-0.035,-0.033
1775855260398,-0.002,-0.015,-0.016
1775855260418,-0.030,0.063,0.019
1775855260437,-0.042,0.073,0.028
1775855260457,-0.042,0.035,0.018
1775855260477,-0.048,0.015,0.013
1775855260497,-0.071,0.020,0.032
1775855260516,-0.075,0.036,0.033
1775855260536,-0.059,0.018,-0.006
1775855260556,-0.043,0.002,-0.029
1775855260576,-0.030,0.026,-0.004
1775855260595,-0.022,0.041,-0.006
1775855260615,-0.043,0.020,-0.047
1775855260635,-0.047,0.012,-0.021
1775855260655,-0.047,0.010,0.017
1775855260674,-0.039,0.007,0.032
1775855260694,-0.003,0.025,0.029
1775855260714,0.016,0.019,0.005
1775855260734,0.017,0.005,-0.024
1775855260753,0.024,0.010,-0.009
1775855260773,0.029,0.010,-0.001
1775855260793,0.028,-0.010,-0.014
1775855260812,0.028,-0.014,0.001
1775855260832,0.027,-0.011,0.002
1775855260852,0.020,-0.033,-0.011
1775855260872,0.017,-0.029,-0.007
1775855260891,0.040,-0.023,-0.009
1775855260911,0.052,-0.040,0.000
1775855260931,0.068,-0.044,0.000
1775855260951,0.084,-0.051,-0.010
1775855260970,0.107,-0.048,-0.007
1775855260990,0.110,-0.052,-0.015
1775855261010,0.083,-0.060,-0.032
1775855261030,0.063,-0.028,-0.029
1775855261049,0.063,0.004,0.001
1775855261069,0.051,0.001,0.006
1775855261089,0.010,-0.021,0.012
1775855261109,-0.042,-0.036,0.001
1775855261129,-0.079,-0.008,-0.002
1775855261148,-0.076,0.017,-0.003
1775855261168,-0.072,-0.001,-0.030
1775855261188,-0.080,-0.037,-0.050
1775855261208,-0.076,-0.044,-0.030
1775855261227,-0.073,-0.026,-0.017
1775855261247,-0.071,-0.029,-0.016
1775855261267,0.018,-0.034,-0.024
1775855261287,0.188,-0.050,-0.002
1775855261306,0.361,-0.040,0.018
1775855261326,0.409,-0.004,0.022
1775855261366,0.262,0.046,0.056
1775855261385,0.232,0.044,0.012
1775855261405,0.171,0.017,0.006
1775855261425,0.101,0.012,-0.000
1775855261445,0.073,-0.009,-0.039
1775855261464,0.063,-0.044,-0.004
1775855261484,0.038,0.000,0.044
1775855261504,0.048,0.014,0.003
1775855261524,0.089,-0.055,-0.016
1775855261543,0.121,-0.034,0.023
1775855261563,0.168,0.008,0.034
1775855261583,0.206,-0.018,0.011
1775855261603,0.269,-0.016,0.010
1775855261622,0.399,-0.005,0.009
1775855261642,0.524,-0.021,-0.002
1775855261662,0.596,-0.038,-0.028
1775855261682,0.643,-0.032,-0.006
1775855261701,0.668,0.012,0.064
1775855261721,0.604,0.063,0.094
1775855261741,0.491,0.040,0.073
1775855261761,0.412,0.020,0.062
1775855261780,0.300,-0.016,0.068
1775855261800,0.176,-0.044,0.039
1775855261820,0.109,-0.016,0.003
1775855261840,0.121,-0.012,0.011
1775855261860,0.172,-0.027,-0.002
1775855261879,0.186,-0.017,0.012
1775855261899,0.148,-0.039,0.019
1775855261919,0.082,-0.039,0.022
1775855261939,0.035,0.030,0.005
1775855261958,0.014,0.059,0.000
1775855261978,-0.012,0.013,-0.004
1775855261998,-0.068,-0.030,-0.065
1775855262018,-0.074,0.001,-0.066
1775855262037,-0.061,0.026,-0.018
1775855262057,-0.044,0.055,0.018
1775855262077,-0.043,0.049,0.008
1775855262097,-0.077,-0.011,0.017
1775855262116,-0.101,-0.056,0.032
1775855262136,-0.086,-0.013,0.024
1775855262156,-0.045,0.044,0.010
1775855262176,-0.062,0.012,-0.006
1775855262195,-0.038,-0.002,-0.058
1775855262215,-0.025,-0.004,-0.025
1775855262235,-0.017,-0.027,0.030
1775855262255,0.013,-0.025,0.026
1775855262274,0.028,0.024,-0.004
1775855262294,0.014,0.039,0.007
1775855262314,-0.006,0.005,0.017
1775855262334,-0.007,0.020,0.036
1775855262353,-0.036,0.022,0.036
1775855262373,-0.023,-0.016,0.010
1775855262393,0.009,-0.019,-0.001
1775855262413,0.005,-0.011,-0.006
1775855262432,0.025,-0.013,0.024
1775855262452,0.008,-0.014,0.013
1775855262472,-0.000,0.011,-0.006
1775855262492,0.019,0.020,0.002
1775855262511,-0.016,-0.009,0.000
1775855262531,-0.025,-0.008,-0.011
1775855262551,0.006,0.021,0.021
1775855262571,0.012,-0.023,0.048
1775855262590,0.019,-0.062,0.038
1775855262610,0.063,-0.030,0.016
1775855262630,0.066,-0.021,0.018
1775855262650,0.019,-0.035,0.009
1775855262669,0.006,-0.038,-0.001
1775855262689,0.011,-0.033,0.009
1775855262709,-0.025,-0.031,0.016
1775855262729,-0.071,-0.040,0.014
1775855262748,-0.055,-0.026,0.011
1775855262768,-0.085,0.007,0.009
1775855262788,-0.155,0.024,0.003
1775855262808,-0.206,0.015,-0.022
1775855262828,-0.211,0.000,-0.042
1775855262847,-0.243,-0.009,-0.033
1775855262867,-0.276,-0.006,-0.033
1775855262887,-0.291,-0.008,-0.051
1775855262907,-0.302,0.008,-0.045
1775855262926,-0.250,0.043,-0.030
1775855262946,-0.193,0.034,-0.059
1775855262966,-0.150,0.004,-0.068
1775855262986,-0.047,0.013,-0.021
1775855263005,0.067,0.037,0.008
1775855263025,0.095,0.020,0.011
1775855263045,0.072,0.012,0.025
1775855263065,0.054,0.025,0.027
1775855263084,0.052,0.033,0.008
1775855263104,0.052,0.023,-0.029
1775855263124,0.041,0.005,0.004
1775855263144,0.015,0.012,0.028
1775855263163,-0.015,0.002,-0.003
1775855263183,-0.021,-0.020,0.010
1775855263203,0.016,-0.001,0.046
1775855263223,0.033,0.014,0.013
1775855263243,0.003,-0.005,-0.015
1775855263262,-0.007,-0.011,0.015
1775855263282,-0.004,-0.004,0.021
1775855263302,-0.021,-0.024,-0.034
1775855263322,-0.050,-0.042,-0.055
1775855263341,-0.037,-0.032,-0.032
1775855263361,0.024,-0.008,0.023
1775855263381,0.086,0.009,0.021
1775855263401,0.104,0.004,-0.063
1775855263420,0.090,0.001,-0.050
1775855263440,0.009,0.007,-0.009
1775855263460,-0.101,0.019,-0.024
1775855263480,-0.129,0.009,-0.005
1775855263499,-0.065,0.006,0.010
1775855263539,-0.051,-0.005,0.009
1775855263559,-0.093,-0.002,-0.033
1775855263579,-0.086,0.018,-0.030
1775855263598,-0.031,0.033,-0.006
1775855263618,0.030,0.005,0.023
1775855263638,-0.005,-0.023,0.007
1775855263658,-0.049,0.001,0.013
1775855263677,-0.092,-0.007,-0.006
1775855263697,-0.113,-0.007,-0.007
1775855263717,-0.147,0.009,-0.034
1775855263737,-0.146,-0.017,-0.061
1775855263756,-0.125,-0.056,-0.058
1775855263776,-0.088,-0.003,0.020
1775855263796,-0.091,0.062,0.062
1775855263816,-0.098,0.046,0.044
1775855263835,-0.060,0.003,0.023
1775855263855,-0.042,-0.003,0.021
1775855263875,-0.073,-0.003,-0.028
1775855263895,-0.083,0.023,-0.011
1775855263914,-0.060,0.031,0.017
1775855263934,-0.038,0.009,0.001
1775855263954,-0.021,0.017,-0.011
1775855263974,0.001,0.038,0.014
1775855263994,-0.007,0.021,0.015
1775855264013,-0.005,0.013,0.005
1775855264033,0.002,0.016,0.006
1775855264053,-0.005,0.013,0.002
1775855264073,-0.005,-0.007,-0.013
1775855264092,0.007,-0.000,-0.004
1775855264112,0.014,-0.009,0.001
1775855264132,0.011,-0.028,0.024
1775855264152,0.011,-0.010,0.037
1775855264171,0.017,0.014,0.031
1775855264191,-0.006,0.005,0.009
1775855264211,-0.013,0.015,-0.004
1775855264231,-0.006,0.035,0.006
1775855264250,-0.025,0.023,0.004
1775855264270,-0.015,0.000,-0.013
1775855264290,0.035,-0.021,-0.018
1775855264310,0.065,-0.037,0.008
1775855264329,0.058,-0.042,0.022
1775855264349,0.059,-0.024,0.015
1775855264369,0.052,-0.006,0.003
1775855264389,0.024,-0.020,-0.010
1775855264428,0.009,-0.029,0.003
1775855264448,-0.013,-0.003,0.015
1775855264468,-0.029,0.007,0.012
1775855264487,-0.047,-0.004,0.021
1775855264507,-0.102,-0.018,0.009
1775855264527,-0.142,-0.001,-0.016
1775855264547,-0.084,0.034,0.025
1775855264567,-0.102,0.037,0.022
1775855264586,-0.173,0.032,0.006
1775855264606,-0.272,0.051,-0.022
1775855264626,-0.354,0.065,-0.045
1775855264646,-0.398,0.074,-0.053
1775855264665,-0.421,0.068,-0.068
1775855264685,-0.425,0.041,-0.107
1775855264705,-0.338,0.009,-0.115
1775855264725,-0.166,-0.013,-0.064
1775855264744,-0.002,-0.012,-0.001
1775855264764,0.076,0.016,0.004
1775855264784,0.110,-0.010,0.001
1775855264804,0.098,-0.047,0.021
1775855264823,0.044,-0.018,0.017
1775855264843,0.033,0.020,-0.027
1775855264863,0.031,-0.026,-0.027
1775855264883,0.006,-0.028,-0.002
1775855264902,-0.031,0.012,-0.008
1775855264922,-0.038,0.017,0.004
1775855264942,0.013,-0.011,0.006
1775855264962,0.050,-0.013,0.008
1775855264982,0.053,0.009,0.046
1775855265001,0.041,0.025,0.052
1775855265021,0.026,0.011,0.009
1775855265041,0.002,-0.018,0.000
1775855265061,-0.022,0.005,0.014
1775855265080,-0.023,0.032,-0.012
1775855265100,-0.011,0.003,-0.039
1775855265120,0.012,-0.002,-0.021
1775855265140,0.041,0.025,0.004
1775855265159,0.058,0.054,-0.005
1775855265179,0.086,0.073,-0.007
1775855265199,0.122,0.092,0.039
1775855265219,0.122,0.132,0.030
1775855265238,0.059,0.129,-0.038
1775855265258,0.016,0.064,-0.030
1775855265278,0.000,-0.005,-0.023
1775855265298,-0.056,-0.055,-0.046
1775855265317,-0.081,-0.040,0.011
1775855265337,-0.016,0.018,0.076
1775855265357,0.023,0.012,0.037
1775855265377,-0.014,-0.039,-0.031
1775855265397,-0.044,-0.028,-0.007
1775855265416,-0.070,-0.015,0.012
1775855265436,-0.054,0.010,0.014
1775855265456,-0.006,0.065,0.042
1775855265476,-0.015,0.049,0.016
1775855265495,-0.053,0.009,-0.036
1775855265515,-0.080,-0.020,-0.047
1775855265535,-0.045,-0.029,-0.011
1775855265555,-0.016,-0.061,0.023
1775855265574,-0.052,-0.023,0.060
1775855265594,-0.069,0.082,0.088
1775855265614,-0.060,0.068,0.053
1775855265634,-0.072,-0.022,-0.021
1775855265653,-0.088,-0.014,-0.035
1775855265673,-0.089,0.027,0.006
1775855265693,-0.096,0.026,-0.006
1775855265713,-0.079,0.048,-0.028
1775855265732,-0.041,0.042,-0.013
1775855265752,-0.027,-0.006,0.004
1775855265772,-0.026,-0.030,-0.009
1775855265792,-0.014,-0.023,-0.023
1775855265811,-0.026,-0.028,-0.019
1775855265851,-0.036,-0.015,0.016
1775855265871,-0.036,-0.003,0.003
1775855265891,-0.008,-0.003,-0.005
1775855265910,0.035,-0.006,-0.006
1775855265930,0.054,0.000,0.003
1775855265950,0.032,0.013,0.014
1775855265970,-0.004,0.004,-0.000
1775855265989,-0.023,0.013,0.002
1775855266009,-0.025,0.038,0.018
1775855266029,-0.019,0.015,0.018
1775855266049,-0.004,-0.011,-0.004
1775855266068,0.020,-0.004,-0.006
1775855266088,0.034,0.000,0.000
1775855266108,0.041,-0.015,-0.005
1775855266128,0.020,-0.008,-0.016
1775855266148,0.009,0.010,0.002
1775855266167,0.018,0.010,0.019
1775855266187,0.001,-0.009,0.004
1775855266207,-0.011,0.011,0.010
1775855266227,0.020,0.022,0.020
1775855266246,0.048,-0.042,-0.005
1775855266266,0.055,-0.070,-0.017
1775855266286,0.062,-0.039,0.000
1775855266306,0.073,-0.052,0.005
1775855266325,0.074,-0.086,0.001
1775855266345,0.072,-0.067,0.010
1775855266365,0.060,-0.050,0.008
1775855266385,0.053,-0.049,-0.010
1775855266404,0.065,-0.045,-0.011
1775855266424,0.068,-0.033,-0.002
1775855266444,0.044,-0.020,0.008
1775855266464,0.010,0.004,0.009
1775855266483,0.010,0.007,0.003
1775855266503,-0.004,-0.009,-0.002
1775855266523,-0.058,-0.008,0.004
1775855266543,-0.138,-0.008,-0.014
1775855266563,-0.211,-0.004,-0.038
1775855266582,-0.243,-0.003,-0.062
1775855266602,-0.259,0.004,-0.060
1775855266622,-0.270,0.030,-0.026
1775855266642,-0.279,0.051,-0.033
1775855266661,-0.266,0.060,-0.035
1775855266681,-0.194,0.062,-0.015
1775855266701,-0.077,0.040,-0.012
1775855266721,0.042,0.009,-0.010
1775855266740,0.131,-0.017,0.012
1775855266760,0.180,-0.013,0.038
1775855266780,0.159,-0.013,0.023
1775855266800,0.091,-0.024,-0.010
1775855266820,0.039,-0.020,-0.026
1775855266839,-0.002,-0.010,-0.021
1775855266859,-0.013,0.002,-0.024
1775855266879,-0.041,-0.021,-0.027
1775855266899,-0.062,-0.030,0.011
1775855266918,-0.001,0.001,0.019
1775855266938,0.068,-0.001,0.014
1775855266958,0.077,-0.001,0.038
1775855266978,0.047,0.017,0.012
1775855266997,-0.000,-0.003,-0.019
1775855267017,-0.014,-0.008,0.014
1775855267037,-0.009,0.025,0.024
1775855267057,-0.004,0.016,-0.024
1775855267076,0.007,-0.019,-0.042
1775855267096,0.051,-0.014,-0.016
1775855267116,0.109,0.008,-0.001
1775855267136,0.157,0.010,0.015
1775855267155,0.155,0.014,0.020
1775855267175,0.083,0.028,-0.004
1775855267195,0.019,0.036,-0.007
1775855267215,0.031,0.040,-0.006
1775855267235,0.027,-0.018,-0.035
1775855267254,-0.022,-0.060,-0.012
1775855267274,-0.037,-0.013,0.045
1775855267294,-0.042,-0.010,0.042
1775855267314,-0.028,-0.030,0.041
1775855267333,-0.016,-0.007,0.038
1775855267353,-0.017,-0.001,0.004
1775855267373,-0.029,0.003,-0.014
1775855267393,-0.038,0.011,0.016
1775855267412,-0.066,-0.016,0.006
1775855267432,-0.077,-0.002,-0.043
1775855267452,-0.067,0.056,-0.014
1775855267472,-0.023,0.065,0.017
1775855267491,-0.017,-0.011,-0.023
1775855267511,-0.026,-0.055,-0.075
1775855267531,-0.052,-0.015,-0.021
1775855267551,-0.088,0.021,0.032
1775855267571,-0.092,0.008,0.029
1775855267590,-0.078,0.006,0.039
1775855267610,-0.067,-0.001,0.024
1775855267630,-0.073,-0.041,-0.005
1775855267650,-0.083,-0.027,0.013
1775855267669,-0.089,0.022,0.033
1775855267689,-0.060,0.017,0.024
1775855267709,-0.020,-0.005,0.002
1775855267729,0.011,0.001,-0.004
1775855267748,0.031,0.005,0.000
1775855267768,0.033,0.007,0.009
1775855267788,0.013,0.025,0.006
1775855267808,-0.020,0.032,-0.001
1775855267827,-0.038,0.022,0.001
1775855267847,-0.012,0.010,-0.001
1775855267867,0.010,-0.001,-0.005
1775855267887,0.011,-0.003,0.020
1775855267906,0.011,-0.002,0.018
1775855267926,0.024,-0.015,-0.020
1775855267946,0.046,-0.012,-0.001
1775855267966,0.050,0.001,0.011
1775855267985,0.040,-0.020,-0.019
1775855268005,0.016,-0.017,-0.034
1775855268025,0.014,0.000,-0.021
1775855268045,0.034,-0.019,-0.005
1775855268064,0.066,-0.033,0.001
1775855268084,0.087,-0.006,0.005
1775855268104,0.108,0.000,0.002
1775855268124,0.124,-0.024,-0.007
1775855268144,0.107,-0.023,-0.006
1775855268163,0.096,-0.015,0.000
1775855268183,0.100,-0.013,-0.001
1775855268203,0.104,-0.010,-0.008
1775855268223,0.085,-0.004,-0.002
1775855268242,0.059,0.000,0.001
1775855268262,0.008,0.008,0.012
1775855268282,-0.071,0.018,0.023
1775855268302,-0.144,0.018,0.010
1775855268321,-0.186,0.009,-0.015
1775855268341,-0.212,0.009,-0.022
1775855268361,-0.241,0.023,-0.012
1775855268381,-0.234,0.030,-0.023
1775855268400,-0.189,0.022,-0.039
1775855268420,-0.120,0.035,-0.012
1775855268440,-0.051,0.056,0.007
1775855268460,0.018,0.057,0.000
1775855268479,0.074,0.025,-0.007
1775855268499,0.069,-0.010,0.012
1775855268519,0.065,-0.008,0.046
1775855268539,0.096,0.009,0.067
1775855268558,0.099,0.024,0.054
1775855268578,0.074,0.009,-0.002
1775855268598,0.058,-0.012,-0.032
1775855268618,0.032,0.000,-0.004
1775855268637,-0.015,0.021,0.016
1775855268657,-0.006,0.004,-0.021
1775855268677,0.025,-0.055,-0.041
1775855268697,0.023,-0.047,0.006
1775855268717,0.029,0.010,0.027
1775855268736,0.037,-0.014,-0.005
1775855268756,0.029,-0.039,0.002
1775855268776,0.021,0.005,0.014
1775855268796,0.008,-0.004,-0.008
1775855268815,-0.003,-0.031,0.001
1775855268835,-0.008,-0.004,0.015
1775855268855,-0.013,0.008,-0.005
1775855268875,-0.020,-0.000,-0.015
1775855268894,-0.011,0.016,0.007
1775855268914,0.034,0.032,0.017
1775855268934,0.100,0.015,0.007
1775855268954,0.126,-0.013,0.010
1775855268973,0.090,-0.017,-0.005
1775855268993,0.022,-0.033,-0.026
1775855269013,0.001,-0.031,0.002
1775855269033,0.070,-0.024,0.016
1775855269052,0.061,-0.041,-0.016
1775855269072,-0.031,-0.008,0.010
1775855269092,-0.034,0.053,0.042
1775855269112,0.036,0.001,0.015
1775855269131,0.060,-0.061,-0.026
1775855269151,0.008,-0.028,-0.032
1775855269171,-0.015,0.041,0.013
1775855269191,-0.019,0.060,0.020
1775855269211,-0.024,0.042,-0.015
1775855269230,-0.016,-0.021,-0.071
1775855269250,-0.007,-0.087,-0.079
1775855269270,-0.012,-0.093,-0.045
1775855269290,-0.008,-0.084,-0.019
1775855269309,-0.009,-0.088,-0.032
1775855269329,-0.009,-0.030,-0.010
1775855269349,-0.009,-0.000,0.014
1775855269369,-0.011,-0.025,-0.025
1775855269388,-0.021,-0.015,-0.066
1775855269408,-0.034,-0.024,-0.093
1775855269428,-0.049,-0.050,-0.090
1775855269448,-0.022,-0.051,-0.050
1775855269467,-0.024,-0.040,-0.005
1775855269487,-0.033,-0.008,0.054
1775855269507,-0.060,-0.025,0.052
1775855269527,-0.092,-0.041,0.005
1775855269546,-0.082,-0.031,-0.022
1775855269566,-0.038,-0.025,-0.009
1775855269586,-0.009,-0.003,0.011
1775855269606,0.015,0.018,0.033
1775855269625,0.028,0.022,0.025
1775855269645,0.019,-0.012,-0.006
1775855269665,-0.013,-0.025,-0.000
1775855269685,-0.013,0.017,0.021
1775855269704,-0.008,0.027,0.018
1775855269724,-0.018,0.004,0.004
1775855269744,-0.010,-0.003,-0.004
1775855269764,0.012,-0.006,0.001
1775855269784,0.016,-0.016,0.019
1775855269803,0.017,-0.013,0.021
1775855269823,0.038,-0.003,0.008
1775855269843,0.029,0.000,-0.009
1775855269863,0.007,0.010,-0.016
1775855269882,0.011,0.010,-0.019
1775855269902,0.050,-0.002,-0.023
1775855269922,0.085,-0.014,-0.004
1775855269942,0.101,-0.018,0.021
1775855269961,0.111,-0.025,0.017
1775855269981,0.122,-0.021,0.010
1775855270001,0.123,-0.012,0.002
1775855270021,0.116,-0.009,-0.005
1775855270040,0.108,0.001,-0.011
1775855270060,0.092,0.006,-0.016
1775855270080,0.076,0.008,-0.011
1775855270100,0.063,0.012,0.005
1775855270119,0.038,0.023,0.020
1775855270139,-0.001,0.049,0.027
1775855270159,-0.055,0.065,0.021
1775855270179,-0.118,0.068,-0.004
1775855270198,-0.166,0.061,-0.015
1775855270218,-0.186,0.052,-0.027
1775855270238,-0.203,0.045,-0.020
1775855270258,-0.244,0.052,-0.010
1775855270277,-0.302,0.064,-0.013
1775855270297,-0.334,0.054,-0.010
1775855270317,-0.288,0.049,0.010
1775855270337,-0.188,0.072,0.060
1775855270357,-0.095,0.085,0.080
1775855270376,-0.020,0.069,0.072
1775855270396,0.043,0.021,0.056
1775855270416,0.045,0.010,0.058
1775855270436,0.018,0.037,0.063
1775855270455,-0.016,0.006,0.014
1775855270475,-0.080,-0.053,-0.070
1775855270495,-0.101,-0.065,-0.077
1775855270515,-0.052,-0.053,-0.019
1775855270534,-0.022,-0.021,0.009
1775855270554,0.013,-0.007,-0.009
1775855270574,0.063,-0.023,-0.007
1775855270594,0.079,0.006,0.002
1775855270613,0.068,0.023,-0.005
1775855270633,0.043,-0.003,0.007
1775855270653,0.028,0.009,0.009
1775855270673,0.024,0.007,-0.025
1775855270692,0.027,-0.021,-0.022
1775855270712,0.038,-0.009,0.014
1775855270732,0.026,0.001,-0.001
1775855270752,0.001,-0.024,-0.018
1775855270771,0.004,-0.012,0.016
1775855270791,0.029,0.024,0.042
1775855270811,0.069,0.029,0.036
1775855270831,0.121,0.011,0.022
1775855270850,0.174,-0.001,0.003
1775855270870,0.207,-0.010,-0.008
1775855270890,0.190,0.002,0.011
1775855270910,0.169,0.031,0.048
1775855270930,0.182,-0.016,0.010
1775855270949,0.142,-0.092,-0.036
1775855270969,0.035,-0.053,0.019
1775855270989,0.003,0.072,0.111
1775855271009,0.052,0.047,0.088
1775855271028,0.079,-0.062,-0.021
1775855271048,0.033,-0.091,-0.065
1775855271068,0.014,-0.037,-0.009
1775855271088,0.029,0.014,0.040
1775855271107,-0.000,0.020,0.023
1775855271127,-0.002,0.015,-0.010
1775855271147,0.027,-0.033,-0.060
1775855271167,0.009,-0.069,-0.096
1775855271186,-0.041,-0.008,-0.036
1775855271206,-0.064,0.055,0.020
1775855271226,-0.076,0.040,0.005
1775855271246,-0.071,0.029,-0.031
1775855271265,-0.058,0.016,-0.029
1775855271285,-0.075,0.028,0.020
1775855271305,-0.098,0.037,0.021
1775855271325,-0.110,0.008,-0.025
1775855271344,-0.094,-0.019,-0.027
1775855271364,-0.074,-0.037,-0.007
1775855271384,-0.076,-0.035,0.001
1775855271404,-0.049,0.016,0.013
1775855271424,-0.019,0.040,0.030
1775855271443,-0.022,0.021,0.015
1775855271463,-0.031,0.022,0.007
1775855271483,-0.044,0.035,0.016
1775855271503,-0.050,0.000,0.018
1775855271522,-0.051,-0.006,0.000
1775855271542,-0.020,0.042,-0.010
1775855271562,0.022,0.049,-0.017
1775855271582,0.045,0.039,-0.024
1775855271601,0.039,0.038,-0.013
1775855271621,0.036,0.036,0.012
1775855271641,0.054,0.018,0.027
1775855271661,0.058,-0.015,0.014
1775855271680,0.017,-0.018,0.006
1775855271700,-0.001,0.015,0.019
1775855271720,0.006,0.009,0.022
1775855271740,0.012,-0.017,-0.001
1775855271759,0.011,-0.015,-0.019
1775855271779,0.020,-0.010,-0.021
1775855271799,0.024,-0.005,-0.005
1775855271819,0.042,0.006,0.006
1775855271839,0.065,0.012,0.006
1775855271858,0.064,-0.000,-0.002
1775855271878,0.065,-0.016,-0.009
1775855271898,0.095,-0.042,-0.013
1775855271918,0.109,-0.040,-0.020
1775855271937,0.104,-0.031,-0.023
1775855271957,0.104,-0.031,-0.015
1775855271977,0.113,-0.042,-0.013
1775855271997,0.104,-0.049,-0.011
1775855272016,0.088,-0.024,-0.005
1775855272036,0.094,-0.002,0.017
1775855272056,0.087,0.001,0.030
1775855272076,0.062,-0.004,0.027
1775855272095,0.025,-0.011,0.015
1775855272115,-0.032,-0.012,-0.002
1775855272135,-0.108,0.005,-0.016
1775855272155,-0.187,0.035,-0.019
1775855272174,-0.252,0.051,-0.034
1775855272194,-0.310,0.048,-0.060
1775855272214,-0.369,0.046,-0.072
1775855272234,-0.399,0.052,-0.062
1775855272254,-0.346,0.042,-0.048
1775855272273,-0.195,0.017,-0.030
1775855272293,-0.030,-0.017,0.032
1775855272313,0.074,-0.007,0.091
1775855272333,0.136,0.022,0.107
1775855272352,0.167,0.018,0.076
1775855272372,0.146,0.005,0.027
1775855272392,0.109,0.004,0.012
1775855272412,0.071,0.018,0.012
1775855272431,0.033,0.003,-0.037
1775855272451,-0.027,-0.025,-0.042
1775855272471,-0.049,-0.018,0.001
1775855272491,-0.006,-0.007,-0.003
1775855272510,0.044,-0.029,-0.022
1775855272530,0.045,-0.023,0.007
1775855272550,0.027,0.011,0.034
1775855272570,0.017,0.013,0.016
1775855272589,0.030,-0.005,-0.007
1775855272609,0.041,-0.002,0.006
1775855272629,0.024,0.015,-0.002
1775855272649,0.007,-0.010,-0.028
1775855272668,-0.002,-0.025,-0.008
1775855272688,0.010,-0.001,0.002
1775855272708,0.012,-0.001,-0.029
1775855272728,-0.008,-0.018,-0.030
1775855272748,-0.013,-0.001,-0.001
1775855272767,-0.005,0.008,-0.010
1775855272787,-0.013,-0.010,-0.032
1775855272807,-0.018,-0.018,-0.020
1775855272827,0.000,-0.007,0.010
1775855272846,0.053,0.000,0.018
1775855272866,0.121,-0.011,0.006
1775855272886,0.135,-0.026,0.002
1775855272906,0.063,0.006,0.018
1775855272925,0.008,0.042,0.010
1775855272945,0.055,0.016,0.012
1775855272965,0.043,-0.011,0.004
1775855272985,-0.062,-0.014,-0.011
1775855273004,-0.137,0.010,0.006
1775855273024,-0.096,0.029,0.016
1775855273044,-0.029,-0.015,-0.045
1775855273064,-0.049,-0.052,-0.072
1775855273083,-0.082,0.009,0.002
1775855273103,-0.063,0.074,0.052
1775855273123,-0.050,0.031,0.014
1775855273143,-0.043,-0.035,-0.053
1775855273162,-0.039,-0.085,-0.081
1775855273182,-0.042,-0.103,-0.060
1775855273202,-0.051,-0.045,0.005
1775855273222,-0.065,0.023,0.048
1775855273241,-0.078,0.011,0.024
1775855273261,-0.094,-0.060,-0.036
1775855273281,-0.101,-0.083,-0.058
1775855273301,-0.082,-0.029,-0.021
1775855273321,-0.059,0.044,0.039
1775855273340,-0.031,0.028,0.025
1775855273360,-0.037,-0.031,-0.018
1775855273380,-0.071,-0.047,-0.011
1775855273400,-0.112,-0.014,0.019
1775855273419,-0.127,0.034,0.039
1775855273439,-0.120,0.051,0.018
1775855273459,-0.080,0.011,-0.019
1775855273479,-0.065,-0.017,-0.008
1775855273498,-0.046,-0.005,0.012
1775855273518,0.005,-0.004,0.004
1775855273538,0.043,-0.012,-0.001
1775855273558,0.044,-0.001,0.004
1775855273577,0.036,0.014,0.017
1775855273597,0.016,0.014,0.019
1775855273617,-0.007,0.021,0.018
1775855273637,0.004,0.014,0.016
1775855273656,0.023,-0.002,0.019
1775855273676,0.013,0.001,0.032
1775855273696,0.010,0.009,0.035
1775855273716,0.026,0.013,0.023
1775855273735,0.046,0.010,-0.008
1775855273755,0.032,-0.016,-0.039
1775855273775,0.021,-0.005,-0.038
1775855273795,0.044,0.022,-0.025
1775855273815,0.080,0.008,-0.010
1775855273834,0.100,-0.021,-0.004
1775855273854,0.123,-0.017,-0.007
1775855273874,0.154,0.010,-0.011
1775855273894,0.161,0.002,-0.028
1775855273913,0.147,-0.011,-0.029
1775855273933,0.131,-0.002,-0.017
1775855273953,0.113,0.011,0.005
1775855273973,0.091,0.020,0.013
1775855273992,0.073,0.032,0.018
1775855274012,0.058,0.043,0.026
1775855274032,0.052,0.039,0.020
1775855274052,0.055,0.023,0.012
1775855274071,0.055,0.003,0.004
1775855274091,0.035,-0.010,-0.014
1775855274111,0.016,-0.022,-0.043
1775855274131,-0.011,-0.024,-0.053
1775855274150,-0.040,0.001,-0.046
1775855274170,-0.058,0.009,-0.052
1775855274190,-0.078,0.010,-0.049
1775855274210,-0.099,0.035,-0.023
1775855274230,-0.097,0.064,-0.007
1775855274249,-0.085,0.059,-0.013
1775855274269,-0.089,0.035,-0.004
1775855274289,-0.100,0.018,0.027
1775855274309,-0.075,0.022,0.054
1775855274328,-0.012,0.015,0.049
1775855274348,0.076,0.008,0.038
1775855274368,0.155,0.000,0.023
1775855274388,0.170,0.005,0.018
1775855274407,0.147,0.027,0.025
1775855274427,0.124,0.017,0.023
1775855274447,0.053,0.002,0.013
1775855274467,-0.013,0.015,0.004
1775855274486,-0.013,-0.003,-0.023
1775855274506,-0.013,-0.047,-0.022
1775855274526,-0.025,-0.035,-0.001
1775855274546,-0.008,-0.023,-0.003
1775855274565,0.043,-0.035,0.010
1775855274585,0.088,-0.013,0.026
1775855274605,0.099,0.002,-0.002
1775855274625,0.048,-0.025,-0.033
1775855274645,-0.013,-0.014,-0.007
1775855274664,-0.027,0.010,0.018
1775855274684,-0.020,-0.018,0.001
1775855274704,-0.037,-0.030,0.000
1775855274724,-0.040,-0.006,0.011
1775855274743,-0.001,0.001,0.004
1775855274763,0.048,-0.005,0.005
1775855274783,0.072,-0.000,0.020
1775855274803,0.066,-0.004,0.007
1775855274822,0.025,-0.031,-0.026
1775855274842,-0.018,-0.040,-0.017
1775855274862,-0.017,-0.018,0.012
1775855274882,-0.003,-0.021,-0.002
1775855274901,0.001,-0.035,-0.010
1775855274921,0.008,-0.021,0.013
1775855274941,0.023,-0.015,0.016
1775855274961,0.031,-0.031,-0.001
1775855274980,0.020,-0.033,0.000
1775855275000,0.004,-0.019,0.006
1775855275040,-0.003,-0.012,-0.006
1775855275060,-0.007,-0.007,-0.003
1775855275079,0.000,-0.016,-0.010
1775855275099,0.006,-0.024,-0.022
1775855275119,0.023,0.000,0.002
1775855275139,0.045,0.023,0.046
1775855275158,0.055,0.032,0.038
1775855275178,0.043,0.011,-0.013
1775855275198,-0.006,-0.029,-0.034
1775855275218,-0.071,-0.036,-0.019
1775855275237,-0.095,-0.018,0.007
1775855275257,-0.053,-0.011,0.017
1775855275277,-0.019,-0.001,0.020
1775855275297,-0.027,0.030,0.022
1775855275316,-0.038,0.040,0.001
1775855275336,0.003,0.005,-0.014
1775855275356,0.013,-0.043,-0.016
1775855275376,-0.089,-0.040,-0.014
1775855275395,-0.197,0.004,0.001
1775855275415,-0.184,0.013,0.032
1775855275435,-0.053,-0.005,0.022
1775855275455,0.057,-0.024,-0.005
1775855275475,0.027,-0.041,-0.038
1775855275494,-0.075,-0.021,-0.042
1775855275514,-0.105,-0.022,-0.015
1775855275534,-0.073,-0.048,-0.014
1775855275554,-0.079,-0.047,-0.023
1775855275573,-0.075,-0.022,0.003
1775855275593,-0.044,-0.012,0.028
1775855275613,-0.040,0.021,0.037
1775855275633,-0.030,0.052,0.020
1775855275652,0.018,0.058,0.017
1775855275672,0.033,0.038,0.005
1775855275692,-0.010,0.014,-0.017
1775855275712,-0.053,0.029,-0.005
1775855275731,-0.059,0.034,-0.005
1775855275751,-0.056,0.006,-0.021
1775855275771,-0.045,-0.022,-0.037
1775855275791,-0.038,-0.029,-0.032
1775855275810,0.001,-0.018,-0.010
1775855275830,0.047,-0.032,-0.020
1775855275850,0.067,-0.036,-0.028
1775855275870,0.076,0.001,0.005
1775855275889,0.097,0.018,0.033
1775855275909,0.095,0.014,0.036
1775855275929,0.082,0.036,0.034
1775855275949,0.089,0.039,0.024
1775855275969,0.105,0.020,0.016
1775855275988,0.101,0.004,0.001
1775855276008,0.064,-0.003,-0.011
1775855276028,0.031,-0.007,-0.013
1775855276048,0.013,-0.016,-0.022
1775855276067,0.019,-0.016,-0.023
1775855276087,0.046,-0.007,-0.005
1775855276107,0.065,0.004,0.010
1775855276127,0.068,0.013,0.005
1775855276146,0.062,0.002,0.001
1775855276166,0.052,-0.002,0.008
1775855276186,0.050,0.007,0.019
1775855276206,0.042,0.013,0.022
1775855276226,0.029,0.013,0.003
1775855276245,0.021,-0.002,-0.010
1775855276265,0.015,0.009,0.004
1775855276285,-0.003,0.038,0.014
1775855276305,-0.025,0.032,-0.009
1775855276324,-0.021,0.023,-0.014
1775855276344,0.011,0.037,0.000
1775855276364,0.033,0.044,0.017
1775855276384,0.032,0.039,0.013
1775855276403,0.015,0.035,-0.002
1775855276423,0.014,0.033,-0.003
1775855276443,0.031,0.038,0.010
1775855276463,0.051,0.038,0.011
1775855276482,0.048,0.017,0.008
1775855276502,0.006,-0.003,-0.010
1775855276522,-0.021,-0.015,-0.015
1775855276542,0.005,-0.037,-0.007
1775855276561,0.018,-0.044,-0.010
1775855276581,-0.021,-0.045,-0.013
1775855276601,-0.050,-0.041,-0.010
1775855276621,-0.039,-0.026,-0.002
1775855276641,-0.017,-0.017,0.006
1775855276660,0.001,-0.014,0.006
1775855276680,0.016,-0.017,0.000
1775855276700,0.013,-0.001,0.018
1775855276720,0.000,0.012,0.029
1775855276739,-0.009,-0.003,0.003
1775855276759,-0.005,-0.013,-0.006
1775855276779,0.010,-0.003,0.015
1775855276799,0.021,-0.003,0.015
1775855276818,0.024,-0.021,-0.013
1775855276838,0.021,-0.037,-0.020
1775855276858,0.005,-0.026,0.001
1775855276878,0.000,-0.015,0.006
1775855276897,0.005,-0.031,-0.012
1775855276917,0.003,-0.042,-0.018
1775855276937,-0.012,-0.030,-0.016
1775855276957,-0.015,-0.035,-0.029
1775855276977,-0.017,-0.055,-0.045
1775855276996,-0.022,-0.053,-0.035
1775855277016,-0.008,-0.048,-0.032
1775855277036,0.019,-0.074,-0.064
1775855277056,0.020,-0.106,-0.090
1775855277075,-0.023,-0.117,-0.083
1775855277095,-0.049,-0.105,-0.073
1775855277115,-0.015,-0.120,-0.100
1775855277135,0.007,-0.158,-0.119
1775855277154,-0.000,-0.157,-0.084
1775855277174,-0.032,-0.112,-0.063
1775855277194,-0.054,-0.095,-0.047
1775855277214,-0.060,-0.078,-0.008
1775855277234,-0.102,-0.037,0.006
1775855277253,-0.145,0.007,0.008
1775855277273,-0.127,-0.008,0.039
1775855277293,-0.043,-0.053,0.038
1775855277313,0.033,-0.126,-0.045
1775855277332,0.004,-0.178,-0.088
1775855277352,-0.051,-0.113,-0.031
1775855277372,-0.067,0.016,0.049
1775855277392,-0.052,0.096,0.083
1775855277411,-0.012,0.106,0.066
1775855277451,0.003,-0.010,-0.028
1775855277471,-0.007,0.033,0.027
1775855277490,-0.010,0.065,0.077
1775855277510,-0.015,0.044,0.045
1775855277530,-0.000,0.034,0.014
1775855277550,0.001,0.051,0.034
1775855277570,-0.039,0.073,0.043
1775855277589,-0.072,0.069,0.041
1775855277609,-0.057,0.043,0.041
1775855277629,-0.051,0.030,0.007
1775855277649,-0.095,0.034,0.003
1775855277668,-0.113,0.052,0.050
1775855277688,-0.125,0.042,0.060
1775855277708,-0.119,0.023,0.010
1775855277728,-0.100,0.016,-0.037
1775855277747,-0.090,0.007,-0.021
1775855277767,-0.068,-0.003,0.019
1775855277787,-0.097,-0.002,0.031
1775855277807,-0.110,0.013,0.054
1775855277826,-0.066,-0.001,0.067
1775855277846,-0.009,-0.018,0.043
1775855277866,0.011,0.022,0.016
1775855277886,0.002,0.040,-0.001
1775855277906,0.010,-0.003,-0.027
1775855277925,0.031,-0.019,-0.046
1775855277945,0.027,0.015,-0.020
1775855277965,0.044,0.058,0.029
1775855277985,0.039,0.070,0.045
1775855278004,0.035,0.060,0.033
1775855278024,0.057,0.045,0.004
1775855278044,0.057,0.030,-0.025
1775855278064,0.056,0.029,-0.041
1775855278083,0.074,0.032,-0.042
1775855278103,0.091,0.027,-0.039
1775855278123,0.073,0.025,-0.023
1775855278143,0.042,0.041,0.004
1775855278162,0.032,0.045,0.017
1775855278182,0.020,0.027,0.020
1775855278202,0.031,0.024,0.024
1775855278222,0.057,0.019,0.008
1775855278242,0.068,0.018,0.004
1775855278261,0.073,0.025,0.003
1775855278281,0.073,0.021,-0.007
1775855278301,0.061,0.015,-0.008
1775855278321,0.052,0.018,-0.010
1775855278340,0.055,0.008,-0.022
1775855278360,0.057,0.012,-0.004
1775855278380,0.033,0.034,0.013
1775855278400,0.016,0.042,0.007
1775855278419,0.020,0.031,0.010
1775855278439,0.036,0.024,0.010
1775855278459,0.032,0.018,0.000
1775855278479,0.021,0.024,-0.011
1775855278499,0.036,0.040,0.000
1775855278518,0.048,0.035,0.000
1775855278538,0.030,0.010,-0.012
1775855278558,-0.013,-0.002,-0.013
1775855278578,-0.026,0.016,-0.001
1775855278597,-0.015,0.019,0.006
1775855278617,-0.052,0.013,0.010
1775855278637,-0.128,0.028,0.021
1775855278657,-0.098,0.025,0.029
1775855278676,0.033,0.003,0.014
1775855278696,0.137,-0.024,-0.002
1775855278716,0.156,-0.024,0.011
1775855278736,0.117,0.003,0.032
1775855278755,0.067,0.015,0.020
1775855278775,0.021,-0.003,0.006
1775855278795,-0.010,0.009,0.023
1775855278815,-0.014,0.023,0.035
1775855278835,-0.027,0.002,0.016
1775855278854,-0.059,-0.006,-0.004
1775855278874,-0.045,-0.001,-0.003
1775855278894,0.024,-0.006,0.018
1775855278914,0.056,-0.003,0.001
1775855278933,0.022,-0.006,0.003
1775855278953,0.009,0.007,0.048
1775855278973,0.010,0.022,0.048
1775855278993,-0.002,0.002,0.011
1775855279012,-0.000,-0.003,0.028
1775855279032,0.009,0.032,0.072
1775855279052,-0.005,0.038,0.058
1775855279072,-0.021,0.013,0.034
1775855279091,-0.002,0.027,0.062
1775855279111,0.016,0.066,0.088
1775855279131,0.011,0.074,0.083
1775855279151,0.011,0.088,0.095
1775855279171,0.007,0.095,0.086
1775855279190,-0.048,0.072,0.058
1775855279210,-0.109,0.055,0.030
1775855279230,-0.076,0.047,0.023
1775855279250,0.010,0.034,-0.005
1775855279269,0.037,0.016,0.007
1775855279289,-0.007,0.043,0.076
1775855279309,-0.026,0.076,0.083
1775855279329,-0.011,0.030,0.009
1775855279348,0.002,-0.014,-0.005
1775855279368,0.023,0.037,0.070
1775855279388,0.059,0.076,0.100
1775855279408,0.032,0.033,0.046
1775855279428,-0.040,0.015,0.037
1775855279447,-0.029,0.016,0.071
1775855279467,0.005,-0.038,0.020
1775855279487,0.006,-0.103,-0.088
1775855279507,0.001,-0.091,-0.036
1775855279526,0.038,0.006,0.068
1775855279546,0.084,0.009,0.059
1775855279566,0.066,-0.055,-0.001
1775855279586,-0.041,-0.092,-0.033
1775855279605,-0.115,-0.105,-0.042
1775855279625,-0.092,-0.120,-0.042
1775855279645,-0.060,-0.093,-0.014
1775855279665,-0.061,-0.063,0.017
1775855279685,-0.063,-0.086,-0.023
1775855279704,-0.073,-0.087,-0.075
1775855279724,-0.069,-0.001,-0.034
1775855279744,-0.027,0.055,0.031
1775855279764,0.001,0.024,0.017
1775855279783,-0.017,-0.031,-0.069
1775855279803,-0.088,-0.080,-0.108
1775855279823,-0.131,-0.070,-0.081
1775855279843,-0.145,-0.013,-0.040
1775855279862,-0.155,0.051,-0.027
1775855279882,-0.147,0.080,-0.021
1775855279902,-0.133,0.053,-0.043
1775855279922,-0.110,0.007,-0.079
1775855279941,-0.067,0.009,-0.075
1775855279961,-0.039,0.010,-0.057
1775855279981,-0.023,-0.020,-0.088
1775855280001,-0.000,-0.020,-0.102
1775855280021,0.006,0.007,-0.057
1775855280040,-0.023,0.011,-0.014
1775855280060,-0.039,0.030,0.013
1775855280080,-0.029,0.052,0.014
1775855280100,-0.004,0.031,-0.018
1775855280119,0.020,-0.010,-0.052
1775855280139,0.050,-0.017,-0.075
1775855280159,0.075,0.017,-0.057
1775855280179,0.095,0.034,-0.032
1775855280198,0.095,0.013,-0.019
1775855280218,0.063,-0.007,-0.015
1775855280238,0.030,0.010,0.015
1775855280258,-0.003,0.015,0.033
1775855280277,-0.018,-0.014,0.042
1775855280297,-0.013,-0.038,0.030
1775855280317,0.004,-0.062,0.033
1775855280337,0.027,-0.079,0.038
1775855280356,0.030,-0.064,0.018
1775855280376,0.020,-0.040,0.013
1775855280396,0.007,-0.042,0.020
1775855280416,0.013,-0.052,0.026
1775855280436,0.018,-0.051,0.003
1775855280455,0.018,-0.035,-0.012
1775855280475,0.023,0.002,0.022
1775855280495,0.034,0.003,0.023
1775855280515,0.009,-0.025,-0.017
1775855280534,-0.029,-0.039,-0.048
1775855280554,-0.019,-0.042,-0.042
1775855280574,0.015,-0.032,-0.020
1775855280594,0.029,0.018,0.018
1775855280613,0.030,0.062,0.045
1775855280633,0.031,0.059,0.039
1775855280653,0.014,0.029,-0.016
1775855280673,-0.028,0.013,-0.020
1775855280692,-0.033,0.041,0.022
1775855280712,-0.036,0.043,0.011
1775855280732,-0.041,0.028,0.001
1775855280752,-0.008,0.041,0.010
1775855280771,0.037,0.058,0.025
1775855280791,0.064,0.080,0.043
1775855280811,0.064,0.099,0.044
1775855280831,0.055,0.085,0.013
1775855280850,0.036,0.042,-0.017
1775855280870,0.043,0.008,-0.012
1775855280890,0.080,-0.005,-0.011
1775855280910,0.091,-0.009,-0.009
1775855280929,0.086,-0.000,0.017
1775855280949,0.113,-0.002,0.024
1775855280969,0.100,-0.023,-0.030
1775855280989,0.027,-0.043,-0.058
1775855281009,-0.017,-0.039,-0.025
1775855281028,-0.012,-0.029,0.000
1775855281048,-0.016,-0.009,0.020
1775855281068,-0.021,0.016,0.035
1775855281088,-0.004,0.001,0.015
1775855281107,0.020,-0.013,-0.010
1775855281127,0.026,-0.005,-0.003
1775855281147,0.011,0.000,0.009
1775855281167,-0.008,-0.013,-0.008
1775855281186,-0.039,-0.039,-0.037
1775855281206,-0.051,-0.031,-0.028
1775855281226,-0.026,-0.011,-0.013
1775855281246,0.012,-0.018,0.006
1775855281265,0.054,-0.015,0.022
1775855281285,0.109,-0.006,-0.006
1775855281305,0.154,-0.029,-0.041
1775855281325,0.146,-0.044,-0.025
1775855281344,0.058,0.000,0.017
1775855281364,-0.043,0.042,0.033
1775855281384,-0.059,0.031,0.012
1775855281404,-0.065,-0.038,-0.017
1775855281423,-0.095,-0.061,-0.016
1775855281443,-0.126,-0.010,0.004
1775855281463,-0.087,0.022,0.027
1775855281483,0.012,0.002,0.008
1775855281502,0.049,-0.040,-0.067
1775855281522,0.010,-0.063,-0.063
1775855281542,-0.015,-0.042,0.010
1775855281562,-0.061,-0.033,0.010
1775855281582,-0.145,-0.039,-0.010
1775855281601,-0.200,-0.034,0.000
1775855281621,-0.197,-0.012,0.024
1775855281641,-0.104,0.047,0.041
1775855281661,-0.032,0.077,0.031
1775855281680,-0.041,0.068,0.000
1775855281700,0.001,0.067,-0.018
1775855281720,0.053,0.061,-0.019
1775855281740,0.018,0.033,-0.022
1775855281759,-0.051,-0.020,-0.055
1775855281779,-0.058,-0.068,-0.063
1775855281799,-0.051,-0.066,-0.043
1775855281819,-0.048,-0.049,-0.002
1775855281838,-0.052,-0.008,0.010
1775855281858,-0.110,0.025,0.003
1775855281878,-0.119,0.060,0.021
1775855281898,-0.045,0.056,0.024
1775855281917,0.011,0.025,-0.008
1775855281937,0.011,-0.003,-0.027
1775855281957,0.010,-0.009,-0.047
1775855281977,0.011,-0.012,-0.048
1775855281997,0.034,0.010,-0.014
1775855282016,0.090,0.031,0.004
1775855282036,0.116,0.016,-0.016
1775855282056,0.092,-0.010,-0.031
1775855282076,0.049,-0.013,-0.029
1775855282095,0.022,-0.002,-0.023
1775855282115,0.008,-0.004,-0.026
1775855282135,-0.013,-0.022,-0.009
1775855282155,-0.041,-0.022,-0.009
1775855282174,-0.085,-0.013,0.001
1775855282194,-0.092,0.000,0.036
1775855282214,-0.035,0.013,0.037
1775855282234,0.007,0.028,0.015
1775855282253,0.028,0.027,-0.001
1775855282273,0.047,0.016,-0.022
1775855282293,0.037,0.006,-0.043
1775855282313,-0.005,0.012,-0.031
1775855282332,-0.031,0.010,-0.012
1775855282352,-0.032,0.004,-0.005
1775855282372,0.009,-0.000,-0.002
1775855282392,0.036,-0.008,-0.025
1775855282411,0.036,-0.001,-0.030
1775855282451,0.031,0.012,-0.001
1775855282471,0.029,-0.021,-0.048
1775855282490,0.046,-0.056,-0.061
1775855282510,0.014,-0.047,-0.063
1775855282530,-0.031,-0.026,-0.038
1775855282550,-0.031,-0.019,-0.000
1775855282570,-0.033,-0.006,0.013
1775855282589,-0.032,0.036,0.031
1775855282609,0.041,0.065,0.041
1775855282629,0.115,0.045,0.030
1775855282649,0.154,0.005,0.042
1775855282668,0.155,-0.036,0.047
1775855282688,0.132,-0.075,0.011
1775855282708,0.101,-0.076,-0.006
1775855282728,0.077,-0.010,0.057
1775855282747,0.086,0.065,0.089
1775855282767,0.029,0.052,0.028
1775855282787,-0.050,0.034,-0.037
1775855282807,-0.038,-0.003,-0.095
1775855282826,0.088,-0.060,-0.082
1775855282846,0.229,-0.029,-0.021
1775855282866,0.275,0.030,0.029
1775855282886,0.278,0.062,0.047
1775855282905,0.266,0.078,0.044
1775855282925,0.239,0.060,0.052
1775855282945,0.142,0.031,0.035
1775855282965,0.021,0.024,-0.001
1775855282984,-0.058,0.032,-0.025
1775855283004,-0.058,0.031,0.003
1775855283024,-0.024,0.034,0.024
1775855283044,-0.022,0.017,0.002
1775855283063,-0.039,-0.036,-0.039
1775855283083,0.044,-0.052,-0.027
1775855283103,0.150,-0.049,-0.013
1775855283123,0.107,-0.069,-0.020
1775855283142,0.011,-0.050,0.007
1775855283162,-0.031,-0.002,0.038
1775855283182,-0.085,0.003,0.039
1775855283202,-0.125,0.015,0.038
1775855283222,-0.056,0.011,0.032
1775855283241,0.038,-0.003,0.026
1775855283261,0.051,0.006,0.023
1775855283281,0.027,0.014,0.004
1775855283301,0.008,-0.004,-0.022
1775855283320,-0.014,-0.002,-0.022
1775855283340,-0.038,0.013,-0.014
1775855283360,-0.045,-0.004,-0.013
1775855283380,-0.035,-0.019,-0.012
1775855283399,-0.017,-0.020,-0.006
1775855283419,0.001,-0.010,0.000
1775855283439,0.018,0.001,0.014
1775855283459,0.023,0.000,0.008
1775855283478,0.012,-0.001,0.000
1775855283498,0.004,0.004,0.005
1775855283518,-0.004,0.001,0.010
1775855283538,-0.020,-0.009,0.008
1775855283557,-0.032,-0.001,0.010
1775855283577,-0.029,0.005,0.007
1775855283597,-0.007,-0.004,-0.001
1775855283617,0.003,-0.014,-0.008
1775855283636,0.009,-0.011,-0.008
1775855283656,0.008,-0.010,-0.002
1775855283676,0.016,-0.013,-0.014
1775855283696,0.031,-0.025,-0.025
1775855283715,-0.012,-0.020,0.001
1775855283735,-0.112,0.023,0.039
1775855283755,-0.114,0.020,0.021
1775855283775,-0.027,-0.029,-0.007
1775855283795,-0.000,0.003,0.017
1775855283814,-0.117,0.082,0.039
1775855283834,-0.247,0.113,-0.001
1775855283854,-0.278,0.024,-0.084
1775855283874,-0.145,-0.088,-0.062
1775855283893,-0.009,-0.055,-0.007
1775855283913,-0.009,-0.006,0.030
1775855283933,-0.006,0.017,0.060
1775855283953,-0.024,0.009,0.025
1775855283972,-0.077,-0.012,0.005
1775855283992,-0.147,0.009,0.008
1775855284012,-0.201,0.042,0.012
1775855284032,-0.159,0.022,0.012
1775855284051,-0.057,0.000,-0.002
1775855284071,-0.007,0.038,0.016
1775855284091,-0.023,0.024,0.014
1775855284111,0.002,-0.018,-0.023
1775855284130,0.060,-0.030,-0.018
1775855284150,0.049,-0.030,-0.006
1775855284170,-0.023,-0.057,-0.032
1775855284190,-0.094,-0.035,-0.012
1775855284209,-0.173,0.020,0.000
1775855284229,-0.151,0.012,-0.005
1775855284249,-0.022,-0.055,-0.037
1775855284269,0.100,-0.029,-0.048
1775855284289,0.115,0.012,-0.040
1775855284308,0.126,0.026,-0.028
1775855284328,0.141,0.031,-0.021
1775855284348,0.140,0.011,-0.021
1775855284368,0.096,-0.025,-0.028
1775855284387,0.026,-0.043,-0.040
1775855284407,-0.130,-0.033,-0.055
1775855284427,-0.218,-0.027,-0.010
1775855284447,-0.084,-0.022,0.048
1775855284466,0.110,-0.012,0.035
1775855284486,0.171,-0.015,-0.000
1775855284506,0.182,-0.009,-0.037
1775855284526,0.145,0.007,-0.061
1775855284545,0.061,0.040,-0.055
1775855284565,-0.038,0.080,-0.026
1775855284585,-0.203,0.058,-0.025
1775855284605,-0.317,0.029,-0.026
1775855284624,-0.310,0.008,-0.008
1775855284644,-0.234,0.018,0.007
1775855284664,-0.112,0.038,0.010
1775855284684,0.068,0.048,0.011
1775855284704,0.226,0.043,0.001
1775855284723,0.296,0.026,0.006
1775855284743,0.247,0.006,0.000
1775855284763,0.156,-0.008,0.009
1775855284783,0.100,-0.016,0.025
1775855284802,-0.014,-0.003,0.024
1775855284822,-0.156,0.034,0.017
1775855284842,-0.198,0.000,-0.007
1775855284862,-0.100,-0.018,0.002
1775855284881,0.051,0.030,0.017
1775855284901,0.090,0.015,-0.008
1775855284921,0.058,-0.006,-0.028
1775855284941,0.028,0.022,-0.001
1775855284960,0.025,0.031,0.007
1775855284980,0.016,0.004,0.006
1775855285000,0.014,-0.000,0.015
1775855285020,0.014,0.021,0.029
1775855285039,-0.006,0.013,0.018
1775855285059,-0.035,-0.002,0.001
1775855285079,-0.024,0.018,0.014
1775855285099,-0.004,0.021,0.012
1775855285119,0.005,0.005,-0.003
1775855285138,0.018,-0.010,-0.018
1775855285158,0.013,-0.017,-0.012
1775855285178,-0.004,-0.011,0.003
1775855285198,-0.003,0.001,0.010
1775855285217,0.022,0.014,0.012
1775855285237,0.032,0.013,0.012
1775855285257,0.014,0.006,0.020
1775855285277,0.003,-0.005,0.017
1775855285296,-0.008,-0.017,0.003
1775855285316,-0.017,-0.006,-0.008
1775855285336,-0.007,0.011,-0.023
1775855285356,0.060,0.020,-0.034
1775855285375,0.115,0.036,-0.021
1775855285395,0.125,0.072,-0.020
1775855285415,0.099,0.123,-0.010
1775855285435,0.047,0.181,-0.008
1775855285455,-0.005,0.182,-0.023
1775855285474,-0.067,0.144,-0.004
1775855285494,-0.073,0.141,0.000
1775855285514,-0.037,0.137,-0.002
1775855285534,-0.015,0.125,0.015
1775855285553,-0.001,0.106,0.000
1775855285573,0.002,0.102,0.011
1775855285593,0.002,0.113,0.027
1775855285613,0.013,0.102,0.029
1775855285632,0.031,0.064,0.032
1775855285652,0.018,0.057,0.042
1775855285672,-0.035,0.059,0.046
1775855285692,-0.083,0.062,0.040
1775855285711,-0.114,0.076,0.044
1775855285731,-0.108,0.072,0.070
1775855285751,-0.093,0.045,0.009
1775855285771,-0.093,0.028,-0.006
1775855285791,-0.083,0.031,0.003
1775855285810,-0.032,0.025,0.020
1775855285830,0.003,0.004,0.004
1775855285850,-0.008,0.021,0.005
1775855285870,-0.005,0.008,-0.023
1775855285889,-0.013,-0.002,-0.004
1775855285909,0.012,-0.008,-0.016
1775855285929,0.012,-0.031,-0.030
1775855285949,-0.004,-0.054,-0.038
1775855285968,-0.012,-0.063,-0.028
1775855285988,-0.004,-0.053,0.001
1775855286008,0.000,-0.028,0.004
1775855286028,0.017,-0.011,-0.001
1775855286047,-0.009,-0.001,0.016
1775855286067,0.000,0.015,0.005
1775855286087,-0.003,-0.019,0.000
1775855286107,-0.027,-0.034,-0.004
1775855286127,-0.069,-0.012,0.015
1775855286146,-0.062,-0.003,0.019
1775855286166,-0.030,-0.012,0.037
1775855286186,-0.013,0.017,0.084
1775855286206,0.008,-0.008,0.068
1775855286225,-0.000,-0.035,0.040
1775855286245,-0.026,-0.007,0.083
1775855286265,-0.058,-0.034,0.079
1775855286285,-0.043,-0.081,-0.019
1775855286304,-0.017,-0.065,-0.052
1775855286324,-0.042,-0.054,-0.014
1775855286344,-0.079,-0.066,-0.017
1775855286364,-0.072,-0.044,-0.053
1775855286383,-0.042,-0.057,-0.114
1775855286403,-0.035,-0.040,-0.092
1775855286423,0.011,0.016,-0.067
1775855286443,0.040,0.047,-0.040
1775855286462,0.031,0.049,-0.011
1775855286482,-0.000,0.038,-0.016
1775855286502,0.025,0.013,-0.015
1775855286522,0.049,0.001,0.080
1775855286542,0.078,-0.041,0.051
1775855286561,0.084,-0.056,-0.053
1775855286581,0.073,-0.071,-0.063
1775855286601,0.056,-0.028,0.003
1775855286621,0.090,0.008,-0.023
1775855286640,0.099,-0.054,-0.069
1775855286660,0.055,-0.036,0.003
1775855286680,0.059,0.011,0.055
1775855286700,0.077,-0.017,0.029
1775855286719,0.068,-0.039,-0.012
1775855286739,0.079,-0.011,-0.034
1775855286759,0.065,0.029,-0.007
1775855286798,0.012,0.122,0.016
1775855286818,0.024,0.124,0.032
1775855286838,0.033,0.117,0.047
1775855286858,0.054,0.083,0.023
1775855286877,0.072,0.011,0.002
1775855286897,0.093,-0.028,-0.012
1775855286917,0.064,-0.088,-0.023
1775855286937,0.023,-0.143,0.021
1775855286957,-0.007,-0.171,0.043
1775855286976,-0.009,-0.200,-0.011
1775855286996,-0.007,-0.256,-0.025
1775855287016,-0.001,-0.278,-0.035
1775855287036,0.005,-0.239,-0.064
1775855287055,0.003,-0.189,-0.105
1775855287075,0.034,-0.146,-0.095
1775855287095,0.078,-0.111,-0.062
1775855287115,0.062,-0.101,-0.082
1775855287134,0.029,-0.108,-0.101
1775855287154,0.092,-0.110,-0.066
1775855287174,0.122,-0.098,-0.054
1775855287194,0.061,-0.122,-0.070
1775855287213,0.032,-0.145,-0.056
1775855287233,0.094,-0.108,-0.026
1775855287253,0.083,-0.089,-0.044
1775855287273,0.018,-0.107,-0.066
1775855287292,0.088,-0.112,-0.081
1775855287312,0.177,-0.106,-0.103
1775855287332,0.151,-0.112,-0.111
1775855287352,0.076,-0.124,-0.105
1775855287371,0.107,-0.127,-0.089
1775855287391,0.215,-0.139,-0.086
1775855287411,0.222,-0.135,-0.085
1775855287431,0.185,-0.123,-0.073
1775855287450,0.114,-0.133,-0.093
1775855287470,0.065,-0.117,-0.091
1775855287490,0.094,-0.083,-0.097
1775855287510,0.097,-0.075,-0.123
1775855287530,0.077,-0.075,-0.139
1775855287549,0.043,-0.065,-0.143
1775855287569,0.032,-0.053,-0.129
1775855287589,0.059,-0.044,-0.108
1775855287609,0.073,-0.033,-0.090
1775855287628,0.056,-0.017,-0.062
1775855287648,0.039,0.027,-0.053
1775855287668,0.068,0.052,-0.082
1775855287688,0.091,0.063,-0.051
1775855287707,0.076,0.079,-0.039
1775855287727,0.069,0.081,-0.056
1775855287747,0.086,0.063,-0.070
1775855287767,0.104,0.051,-0.068
1775855287786,0.083,0.056,-0.042
1775855287806,0.062,0.067,-0.046
1775855287826,0.084,0.070,-0.045
1775855287846,0.095,0.077,-0.040
1775855287865,0.078,0.084,-0.025
1775855287885,0.061,0.083,-0.020
1775855287905,0.065,0.079,-0.003
1775855287925,0.069,0.077,0.010
1775855287944,0.068,0.065,0.014
1775855287964,0.064,0.052,-0.000
1775855287984,0.063,0.052,-0.010
1775855288004,0.068,0.051,-0.013
1775855288023,0.067,0.051,-0.024
1775855288043,0.073,0.050,-0.025
1775855288063,0.079,0.049,-0.013
1775855288083,0.106,0.059,-0.006
1775855288102,0.120,0.049,-0.002
1775855288122,0.085,0.034,-0.006
1775855288142,0.059,0.024,0.001
