absolute_timestamp,accel_x,accel_y,accel_z
1775855243519816895,-1.349552,3.038885,9.092726
1775855243521977624,-1.363909,3.043670,9.020942
1775855243524138353,-1.344766,3.048456,8.977871
1775855243526299031,-1.320838,3.058027,8.934800
1775855243528459708,-1.282553,3.072384,8.934800
1775855243530620437,-1.234697,3.086741,8.953942
1775855243532781114,-1.196411,3.086741,8.930014
1775855243534941843,-1.148555,3.101098,8.920443
1775855243537102520,-1.091127,3.091527,8.930014
1775855243539263197,-1.062413,3.086741,8.906086
1775855243541423926,-1.028914,3.091527,8.920443
1775855243543584656,-0.995414,3.058027,8.963513
1775855243545745333,-0.971486,3.043670,9.001799
1775855243547906062,-0.976272,3.024528,9.040084
1775855243550066739,-1.004985,3.043670,9.083155
1775855243552227468,-1.014557,3.062813,9.116654
1775855243554388145,-1.024128,3.081956,9.107083
1775855243556548874,-0.995414,3.086741,9.174082
1775855243558709551,-0.952343,3.077170,9.241081
1775855243560870228,-0.928415,3.029314,9.360723
1775855243563030906,-0.856631,2.976671,9.461221
1775855243565191635,-0.789631,2.909672,9.528220
1775855243567352312,-0.698704,2.852245,9.585648
1775855243569513041,-0.626920,2.813959,9.528220
1775855243571673718,-0.540778,2.775674,9.442079
1775855243573834447,-0.440279,2.723032,9.284152
1775855243575995124,-0.344566,2.670390,9.135797
1775855243578155853,-0.253639,2.608177,9.040084
1775855243580316531,-0.229711,2.555535,8.920443
1775855243582477260,-0.253639,2.474179,8.915657
1775855243584637937,-0.339781,2.392823,8.949157
1775855243586798666,-0.473779,2.297110,8.982656
1775855243588959343,-0.636491,2.210968,9.001799
1775855243591120020,-0.818345,2.158326,9.001799
1775855243593280749,-0.952343,2.177469,9.020942
1775855243595441426,-1.086342,2.249253,8.997013
1775855243597602156,-1.186840,2.335395,8.982656
1775855243599762833,-1.263410,2.440679,8.973084
1775855243601923562,-1.272982,2.589034,9.020942
1775855243604084239,-1.244268,2.751746,9.121440
1775855243606244968,-1.196411,2.900101,9.226724
1775855243608405645,-1.119841,3.062813,9.399008
1775855243610566322,-1.014557,3.220739,9.628718
1775855243612727051,-0.918844,3.321238,9.858429
1775855243614887728,-0.794417,3.407379,10.107283
1775855243617048458,-0.703490,3.431308,10.322637
1775855243619209135,-0.641276,3.416951,10.399207
1775855243621369864,-0.622134,3.369094,10.346565
1775855243623530541,-0.650848,3.321238,10.183853
1775855243625691270,-0.665205,3.230311,9.973285
1775855243627851947,-0.698704,3.139383,9.791430
1775855243630012624,-0.780060,3.014956,9.580862
1775855243632173353,-0.842274,2.914458,9.355937
1775855243634334031,-0.899701,2.813959,9.198010
1775855243636494760,-0.928415,2.751746,9.064013
1775855243638655489,-0.942772,2.732604,8.977871
1775855243640816166,-0.909273,2.775674,8.953942
1775855243642976843,-0.847059,2.828316,8.944371
1775855243645137572,-0.765703,2.900101,8.973084
1775855243647298249,-0.660419,2.943172,8.992228
1775855243649458978,-0.559920,3.034099,9.054440
1775855243651619656,-0.445065,3.125026,9.131011
1775855243653780385,-0.344566,3.230311,9.193225
1775855243655941062,-0.301496,3.311666,9.279366
1775855243658101739,-0.282353,3.373880,9.355937
1775855243660262468,-0.282353,3.431308,9.403793
1775855243662423145,-0.306281,3.460021,9.446864
1775855243664583874,-0.311067,3.483950,9.509077
1775855243666744551,-0.344566,3.469593,9.566504
1775855243668905281,-0.368495,3.440879,9.614362
1775855243671065958,-0.411565,3.388237,9.619147
1775855243673226687,-0.416351,3.311666,9.647861
1775855243675387364,-0.454636,3.259024,9.614362
1775855243677548041,-0.449851,3.215954,9.600004
1775855243679708770,-0.449851,3.182454,9.623933
1775855243681869447,-0.473779,3.196811,9.604790
1775855243684030176,-0.516850,3.211168,9.552148
1775855243686190906,-0.540778,3.225525,9.523434
1775855243688351583,-0.559920,3.225525,9.475577
1775855243690512260,-0.636491,3.201597,9.442079
1775855243692672989,-0.674776,3.206382,9.327223
1775855243694833666,-0.717847,3.230311,9.169296
1775855243696994343,-0.698704,3.282953,9.006584
1775855243699155072,-0.693919,3.364309,8.886943
1775855243701315801,-0.631705,3.421736,8.805588
1775855243703476478,-0.583849,3.493521,8.762517
1775855243705637156,-0.540778,3.550949,8.748159
1775855243707797885,-0.516850,3.608377,8.748159
1775855243709958562,-0.464208,3.646662,8.767303
1775855243712119291,-0.430708,3.675375,8.776874
1775855243714279968,-0.397209,3.684947,8.786445
1775855243716440697,-0.339781,3.704089,8.815159
1775855243718601374,-0.349352,3.732803,8.824730
1775855243720762103,-0.334995,3.737589,8.786445
1775855243722922781,-0.301496,3.747160,8.743374
1775855243725083510,-0.291924,3.756732,8.738588
1775855243727244187,-0.229711,3.742375,8.743374
1775855243729404916,-0.210568,3.761517,8.729017
1775855243731565593,-0.162712,3.718446,8.772088
1775855243733726322,-0.186640,3.661019,8.796016
1775855243735886999,-0.205783,3.617948,8.877372
1775855243738047676,-0.258425,3.570091,8.973084
1775855243740208406,-0.320638,3.512664,9.044869
1775855243742369083,-0.378066,3.469593,9.092726
1775855243744529812,-0.449851,3.460021,9.107083
1775855243746690489,-0.502493,3.464807,9.111869
1775855243748851218,-0.550349,3.450450,9.087940
1775855243751011895,-0.588634,3.474379,9.044869
1775855243753172572,-0.574277,3.493521,9.020942
1775855243755333301,-0.550349,3.498307,9.011370
1775855243757493978,-0.535992,3.507878,9.016156
1775855243759654708,-0.478565,3.503092,9.020942
1775855243761815385,-0.411565,3.483950,9.040084
1775855243763976114,-0.358923,3.474379,9.217153
1775855243766136791,-0.301496,3.440879,9.561719
1775855243768297520,-0.282353,3.421736,9.930214
1775855243770458197,-0.277567,3.402594,10.260424
1775855243772618874,-0.263211,3.421736,10.418350
1775855243774779603,-0.253639,3.464807,10.456635
1775855243776940281,-0.248854,3.493521,10.418350
1775855243779101010,-0.224925,3.541378,10.327422
1775855243781261687,-0.205783,3.565306,10.226924
1775855243783422416,-0.186640,3.603591,10.054641
1775855243785583093,-0.172283,3.617948,9.872787
1775855243787743822,-0.172283,3.603591,9.705289
1775855243789904499,-0.200997,3.584448,9.571291
1775855243792065228,-0.210568,3.584448,9.442079
1775855243794225906,-0.224925,3.541378,9.370294
1775855243796386583,-0.267996,3.493521,9.317652
1775855243798547312,-0.334995,3.464807,9.317652
1775855243800707989,-0.378066,3.416951,9.327223
1775855243802868718,-0.440279,3.402594,9.341579
1775855243805029395,-0.473779,3.364309,9.360723
1775855243807190072,-0.526421,3.340380,9.355937
1775855243809350801,-0.593420,3.316452,9.437292
1775855243811511478,-0.646062,3.321238,9.456435
1775855243813672208,-0.689133,3.302095,9.384650
1775855243815832885,-0.732204,3.297310,9.303294
1775855243817993614,-0.784846,3.326024,9.231510
1775855243820154291,-0.823131,3.364309,9.164511
1775855243822315020,-0.861416,3.383451,9.078369
1775855243824475697,-0.866202,3.407379,8.977871
1775855243826636426,-0.856631,3.436093,8.867801
1775855243828797103,-0.808774,3.440879,8.719446
1775855243830957781,-0.770489,3.474379,8.618947
1775855243833118510,-0.708275,3.522235,8.532805
1775855243835279187,-0.641276,3.570091,8.513663
1775855243837439916,-0.598206,3.560520,8.575876
1775855243839600593,-0.612563,3.546163,8.733803
1775855243841761270,-0.655633,3.536592,8.930014
1775855243843921999,-0.713061,3.507878,9.054440
1775855243846082728,-0.765703,3.483950,9.159725
1775855243848243406,-0.818345,3.464807,9.288938
1775855243850404083,-0.837488,3.450450,9.389436
1775855243852564812,-0.837488,3.474379,9.485149
1775855243854725489,-0.789631,3.512664,9.537791
1775855243856886166,-0.727418,3.574877,9.547362
1775855243859046895,-0.698704,3.651447,9.537791
1775855243861207572,-0.698704,3.670590,9.528220
1775855243863368301,-0.684347,3.718446,9.470792
1775855243865528978,-0.650848,3.742375,9.413364
1775855243867689708,-0.655633,3.747160,9.375079
1775855243869850385,-0.631705,3.742375,9.346365
1775855243872011114,-0.622134,3.756732,9.312865
1775855243874171791,-0.612563,3.737589,9.288938
1775855243876332520,-0.641276,3.694518,9.269794
1775855243878493197,-0.693919,3.646662,9.260223
1775855243880653926,-0.756132,3.603591,9.308080
1775855243882814603,-0.803988,3.570091,9.403793
1775855243884975333,-0.813560,3.565306,9.556933
1775855243887136010,-0.794417,3.546163,9.690931
1775855243889296739,-0.751346,3.574877,9.762716
1775855243891457416,-0.722632,3.603591,9.801002
1775855243893618093,-0.660419,3.632305,9.796216
1775855243895778822,-0.598206,3.675375,9.705289
1775855243897939551,-0.569492,3.684947,9.609575
1775855243900100176,-0.507278,3.675375,9.480363
1775855243902260906,-0.497707,3.646662,9.432507
1775855243904421583,-0.488136,3.651447,9.379865
1775855243906582312,-0.464208,3.641876,9.341579
1775855243908742989,-0.440279,3.632305,9.274581
1775855243910903718,-0.421137,3.637090,9.202796
1775855243913064447,-0.435494,3.646662,9.154940
1775855243915225124,-0.440279,3.670590,9.135797
1775855243917385801,-0.459422,3.680161,9.111869
1775855243919546531,-0.502493,3.661019,9.097511
1775855243921707208,-0.512064,3.632305,9.097511
1775855243923867885,-0.535992,3.598805,9.087940
1775855243926028614,-0.555135,3.574877,9.140582
1775855243928189291,-0.559920,3.560520,9.150154
1775855243930350020,-0.526421,3.560520,9.140582
1775855243932510697,-0.497707,3.555734,9.174082
1775855243934671426,-0.483350,3.546163,9.174082
1775855243936832103,-0.492921,3.574877,9.150154
1775855243938992833,-0.512064,3.627519,9.121440
1775855243941153510,-0.512064,3.637090,9.121440
1775855243943314239,-0.512064,3.646662,9.102298
1775855243945474916,-0.464208,3.632305,9.073584
1775855243947635645,-0.382852,3.637090,9.011370
1775855243949796322,-0.306281,3.632305,8.958728
1775855243951956999,-0.200997,3.632305,8.925228
1775855243954117676,-0.157926,3.651447,8.915657
1775855243956278406,-0.124427,3.637090,8.906086
1775855243958439135,-0.124427,3.632305,8.939586
1775855243960599812,-0.119641,3.622734,8.997013
1775855243962760541,-0.148355,3.627519,9.059227
1775855243964921218,-0.172283,3.651447,9.154940
1775855243967081947,-0.196211,3.656233,9.221938
1775855243969242624,-0.244068,3.670590,9.255438
1775855243971403301,-0.272782,3.694518,9.312865
1775855243973564031,-0.354138,3.747160,9.312865
1775855243975724708,-0.468993,3.809374,9.375079
1775855243977885437,-0.593420,3.885944,9.413364
1775855243980046114,-0.665205,3.948157,9.432507
1775855243982206791,-0.717847,3.996014,9.432507
1775855243984367520,-0.732204,4.034299,9.394221
1775855243986528197,-0.756132,4.058227,9.355937
1775855243988688926,-0.741775,4.125226,9.341579
1775855243990849603,-0.799203,4.173083,9.360723
1775855243993010333,-0.870987,4.273581,9.437292
1775855243995171010,-0.823131,4.297510,9.384650
1775855243997331739,-0.799203,4.335794,9.317652
1775855243999492416,-0.794417,4.378865,9.298509
1775855244001653093,-0.803988,4.393222,9.260223
1775855244003813822,-0.856631,4.503292,9.303294
1775855244005974499,-0.985843,4.929214,9.600004
1775855244008135228,-0.952343,4.733003,9.513863
1775855244010295906,-0.885344,4.512864,9.384650
1775855244012456635,-0.866202,4.283153,9.322437
1775855244014617312,-0.842274,4.096512,9.312865
1775855244016778041,-0.847059,3.900301,9.389436
1775855244018938718,-0.875773,3.737589,9.418150
1775855244021099395,-0.880559,3.627519,9.446864
1775855244023260124,-0.880559,3.546163,9.365508
1775855244025420801,-0.861416,3.464807,9.293723
1775855244027581531,-0.856631,3.402594,9.260223
1775855244029742208,-0.813560,3.359523,9.178867
1775855244031902937,-0.789631,3.326024,9.102298
1775855244034063614,-0.732204,3.306881,8.997013
1775855244036224343,-0.650848,3.292524,8.915657
1775855244038385020,-0.602991,3.292524,8.867801
1775855244040545697,-0.540778,3.268596,8.805588
1775855244042706426,-0.497707,3.259024,8.772088
1775855244044867103,-0.454636,3.244668,8.772088
1775855244047027833,-0.440279,3.225525,8.772088
1775855244049188510,-0.425922,3.182454,8.791230
1775855244051349239,-0.406780,3.148955,8.786445
1775855244053509916,-0.401994,3.134598,8.786445
1775855244055670593,-0.363709,3.125026,8.810373
1775855244057831322,-0.339781,3.158526,8.815159
1775855244059991999,-0.296710,3.158526,8.819944
1775855244062152728,-0.263211,3.153740,8.858230
1775855244064313458,-0.263211,3.153740,8.891729
1775855244066474135,-0.263211,3.158526,8.920443
1775855244068634812,-0.248854,3.187240,8.949157
1775855244070795541,-0.253639,3.220739,8.939586
1775855244072956218,-0.229711,3.225525,8.963513
1775855244075116947,-0.229711,3.254239,8.944371
1775855244077277624,-0.200997,3.278167,8.944371
1775855244079438353,-0.181855,3.326024,8.953942
1775855244081599031,-0.110070,3.354737,8.939586
1775855244083759760,-0.071785,3.393023,8.925228
1775855244085920437,-0.043071,3.436093,8.953942
1775855244088081166,-0.033500,3.450450,8.977871
1775855244090241791,-0.033500,3.464807,8.977871
1775855244092402520,-0.047856,3.474379,8.977871
1775855244094563249,-0.086142,3.455236,8.977871
1775855244096723926,-0.110070,3.440879,8.977871
1775855244098884656,-0.129212,3.455236,8.982656
1775855244101045333,-0.148355,3.440879,8.973084
1775855244103206062,-0.153141,3.436093,8.982656
1775855244105366739,-0.124427,3.450450,8.973084
1775855244107527416,-0.081356,3.493521,8.963513
1775855244109688145,-0.052642,3.517449,8.963513
1775855244111848822,0.000000,3.570091,8.939586
1775855244114009551,0.028714,3.617948,8.968299
1775855244116170228,0.071785,3.684947,8.963513
1775855244118330958,0.071785,3.766303,8.977871
1775855244120491635,0.047856,3.828516,8.977871
1775855244122652312,0.047856,3.914658,9.025727
1775855244124813041,0.019143,3.933800,9.030513
1775855244126973770,0.000000,4.000800,9.040084
1775855244129134447,-0.019143,4.053442,9.016156
1775855244131295124,-0.014357,4.110869,9.006584
1775855244133455853,-0.023928,4.139583,8.973084
1775855244135616531,-0.062213,4.173083,8.949157
1775855244137777208,-0.081356,4.187439,8.915657
1775855244139937937,-0.110070,4.067799,8.867801
1775855244142098614,-0.071785,3.570091,8.628518
1775855244144259291,0.038285,3.756732,8.609376
1775855244146420020,0.167498,3.938586,8.666803
1775855244148580697,0.248854,4.110869,8.819944
1775855244150741426,0.315853,4.216154,8.963513
1775855244152902156,0.306281,4.283153,9.020942
1775855244155062833,0.263211,4.321438,9.049655
1775855244157223510,0.234497,4.283153,9.030513
1775855244159384239,0.181855,4.264010,8.992228
1775855244161544968,0.162712,4.316652,8.949157
1775855244163705645,0.153141,4.369294,8.944371
1775855244165866322,0.105284,4.378865,8.958728
1775855244168027051,0.090927,4.278367,8.977871
1775855244170187728,0.071785,4.144369,8.987442
1775855244172348406,0.086142,4.015156,8.910872
1775855244174509135,0.129212,3.924229,8.839087
1775855244176669864,0.162712,3.890730,8.805588
1775855244178830541,0.181855,3.900301,8.858230
1775855244180991270,0.157926,3.909872,8.915657
1775855244183151947,0.066999,3.938586,8.958728
1775855244185312624,0.000000,3.914658,9.020942
1775855244187473301,-0.105284,3.890730,9.073584
1775855244189634031,-0.196211,3.881158,9.102298
1775855244191794760,-0.263211,3.909872,9.121440
1775855244193955437,-0.334995,3.957729,9.145369
1775855244196116166,-0.378066,4.043870,9.164511
1775855244198276843,-0.425922,4.120440,9.154940
1775855244200437520,-0.449851,4.201797,9.131011
1775855244202598249,-0.449851,4.268795,9.097511
1775855244204758978,-0.473779,4.302295,9.044869
1775855244206919656,-0.488136,4.287938,9.001799
1775855244209080333,-0.483350,4.249653,8.944371
1775855244211241010,-0.483350,4.182654,8.901300
1775855244213401739,-0.445065,4.182654,8.877372
1775855244215562468,-0.421137,4.187439,8.863015
1775855244217723145,-0.445065,4.134798,8.867801
1775855244219883822,-0.478565,4.125226,8.886943
1775855244222044551,-0.550349,4.072584,8.920443
1775855244224205228,-0.612563,4.019942,8.939586
1775855244226365958,-0.684347,3.967300,8.949157
1775855244228526635,-0.756132,3.962514,8.934800
1775855244230687364,-0.803988,3.952943,8.891729
1775855244232848093,-0.885344,3.952943,8.819944
1775855244235008770,-0.952343,3.972085,8.738588
1775855244237169447,-1.004985,3.924229,8.657232
1775855244239330176,-1.024128,3.866802,8.556734
1775855244241490853,-1.033699,3.804588,8.475378
1775855244243651583,-1.028914,3.737589,8.441878
1775855244245812260,-1.028914,3.684947,8.403593
1775855244247972937,-1.014557,3.632305,8.394022
1775855244250133666,-1.004985,3.594020,8.336594
1775855244252294343,-1.004985,3.565306,8.341380
1775855244254455020,-0.990629,3.579663,8.341380
1775855244256615749,-0.957129,3.560520,8.341380
1775855244258776478,-0.914058,3.579663,8.379665
1775855244260937156,-0.861416,3.608377,8.451449
1775855244263097833,-0.818345,3.603591,8.528020
1775855244265258562,-0.813560,3.617948,8.580662
1775855244267419239,-0.803988,3.627519,8.604590
1775855244269579968,-0.780060,3.617948,8.618947
1775855244271740645,-0.760918,3.617948,8.638090
1775855244273901374,-0.722632,3.617948,8.642876
1775855244276062051,-0.655633,3.641876,8.657232
1775855244278222781,-0.564706,3.684947,8.652447
1775855244280383458,-0.454636,3.742375,8.662018
1775855244282544135,-0.354138,3.785445,8.647661
1775855244284704864,-0.272782,3.842873,8.638090
1775855244286865541,-0.215354,3.905087,8.609376
1775855244289026270,-0.167498,3.938586,8.628518
1775855244291186947,-0.133998,4.005585,8.685946
1775855244293347676,-0.090927,4.048656,8.810373
1775855244295508353,-0.043071,4.091727,8.891729
1775855244297669031,0.009571,4.153940,8.982656
1775855244299829760,0.071785,4.206582,9.030513
1775855244301990437,0.157926,4.264010,9.083155
1775855244304151166,0.220140,4.297510,9.169296
1775855244306311843,0.287139,4.316652,9.202796
1775855244308472572,0.339781,4.326223,9.217153
1775855244310633249,0.387637,4.302295,9.221938
1775855244312793978,0.421137,4.287938,9.221938
1775855244314954656,0.445065,4.273581,9.198010
1775855244317115333,0.454636,4.254439,9.159725
1775855244319276062,0.478565,4.287938,9.107083
1775855244321436739,0.502493,4.292724,9.102298
1775855244323597468,0.516850,4.302295,9.116654
1775855244325758145,0.526421,4.326223,9.102298
1775855244327918822,0.540778,4.316652,9.140582
1775855244330079551,0.583849,4.316652,9.126225
1775855244332240281,0.612563,4.307081,9.083155
1775855244334400958,0.631705,4.297510,9.073584
1775855244336561687,0.669990,4.278367,9.059227
1775855244338722364,0.717847,4.268795,9.049655
1775855244340883093,0.760918,4.244867,9.020942
1775855244343043770,0.756132,4.220939,9.020942
1775855244345204447,0.736989,4.177868,9.006584
1775855244347365176,0.679562,4.130012,8.987442
1775855244349525853,0.598206,4.048656,8.958728
1775855244351686583,0.531207,3.981657,8.934800
1775855244353847260,0.459422,3.895515,8.891729
1775855244356007989,0.440279,3.814159,8.877372
1775855244358168666,0.425922,3.728018,8.839087
1775855244360329343,0.435494,3.651447,8.805588
1775855244362490072,0.430708,3.579663,8.767303
1775855244364650749,0.445065,3.517449,8.729017
1775855244366811478,0.435494,3.469593,8.657232
1775855244368972156,0.425922,3.426522,8.623733
1775855244371132885,0.397209,3.416951,8.566305
1775855244373293562,0.382852,3.445665,8.518449
1775855244375454239,0.378066,3.493521,8.475378
1775855244377614968,0.401994,3.565306,8.441878
1775855244379775645,0.401994,3.651447,8.456235
1775855244381936374,0.406780,3.742375,8.461020
1775855244384097051,0.411565,3.795017,8.523234
1775855244386257728,0.435494,3.876373,8.585447
1775855244388418458,0.473779,3.919444,8.657232
1775855244390579187,0.550349,3.996014,8.724232
1775855244392739864,0.626920,4.019942,8.805588
1775855244394900593,0.703490,4.034299,8.863015
1775855244397061270,0.741775,4.039084,8.882157
1775855244399221947,0.780060,4.048656,8.896515
1775855244401382676,0.813560,4.039084,8.848659
1775855244403543353,0.827917,4.029513,8.815159
1775855244405704083,0.827917,4.029513,8.729017
1775855244407864760,0.832702,3.991228,8.705089
1775855244410025489,0.827917,3.967300,8.618947
1775855244412186166,0.818345,3.933800,8.566305
1775855244414346895,0.818345,3.895515,8.494520
1775855244416507572,0.823131,3.833302,8.446664
1775855244418668249,0.823131,3.780660,8.417950
1775855244420828978,0.823131,3.708875,8.403593
1775855244422989656,0.794417,3.641876,8.374879
1775855244425150385,0.751346,3.574877,8.365308
1775855244427311062,0.717847,3.512664,8.374879
1775855244429471739,0.655633,3.450450,8.370093
1775855244431632468,0.579063,3.388237,8.346166
1775855244433793145,0.512064,3.340380,8.341380
1775855244435953874,0.468993,3.278167,8.331808
1775855244438114551,0.416351,3.254239,8.298309
1775855244440275281,0.392423,3.235096,8.260024
1775855244442435958,0.358923,3.244668,8.197810
1775855244444596687,0.334995,3.239882,8.169097
1775855244446757364,0.320638,3.263810,8.102098
1775855244448918093,0.325424,3.287738,8.049456
1775855244451078770,0.344566,3.326024,8.011170
1775855244453239447,0.368495,3.364309,7.977671
1775855244455400176,0.401994,3.407379,7.939385
1775855244457560853,0.478565,3.450450,7.905886
1775855244459721531,0.545564,3.479164,7.925029
1775855244461882260,0.626920,3.512664,7.977671
1775855244464042989,0.727418,3.541378,8.011170
1775855244466203666,0.818345,3.560520,8.035098
1775855244468364343,0.909273,3.560520,8.073383
1775855244470525072,0.961915,3.560520,8.145168
1775855244472685749,1.009771,3.536592,8.212168
1775855244474846478,1.038485,3.488735,8.274381
1775855244477007156,1.067199,3.479164,8.317451
1775855244479167885,1.076770,3.440879,8.336594
1775855244481328562,1.071985,3.378666,8.360522
1775855244483489291,1.081556,3.316452,8.331808
1775855244485649968,1.057628,3.249453,8.341380
1775855244487810697,1.019342,3.187240,8.341380
1775855244489971374,0.971486,3.105884,8.336594
1775855244492132103,0.890130,3.010171,8.298309
1775855244494292781,0.784846,2.919244,8.264810
1775855244496453510,0.703490,2.847459,8.183454
1775855244498614187,0.588634,2.785246,8.097312
1775855244500774864,0.473779,2.751746,8.054241
1775855244502935593,0.416351,2.742175,8.035098
1775855244505096270,0.387637,2.804388,8.001599
1775855244507256999,0.411565,2.904887,8.035098
1775855244509417676,0.483350,3.024528,8.063812
1775855244511578353,0.550349,3.163311,8.121240
1775855244513739031,0.588634,3.268596,8.178668
1775855244515899760,0.602991,3.349952,8.240881
1775855244518060489,0.612563,3.397808,8.303095
1775855244520221166,0.612563,3.421736,8.374879
1775855244522381895,0.626920,3.440879,8.398808
1775855244524542572,0.674776,3.450450,8.413164
1775855244526703301,0.741775,3.469593,8.451449
1775855244528863978,0.827917,3.488735,8.417950
1775855244531024656,0.894916,3.527021,8.398808
1775855244533185385,0.928415,3.536592,8.355737
1775855244535346062,0.961915,3.555734,8.307880
1775855244537506791,0.981057,3.536592,8.269595
1775855244539667468,1.004985,3.517449,8.197810
1775855244541828197,1.014557,3.503092,8.145168
1775855244543988874,1.062413,3.460021,8.068598
1775855244546149551,1.081556,3.407379,7.996813
1775855244548310281,1.110270,3.326024,7.968100
1775855244550470958,1.105484,3.244668,7.920243
1775855244552631687,1.067199,3.148955,7.948957
1775855244554792364,1.038485,3.086741,7.968100
1775855244556953093,0.985843,3.029314,8.020741
1775855244559113770,0.918844,2.991028,8.068598
1775855244561274499,0.847059,2.952743,8.140383
1775855244563435176,0.751346,2.943172,8.207381
1775855244565595906,0.626920,2.933601,8.240881
1775855244567756583,0.535992,2.924029,8.288737
1775855244569917260,0.468993,2.947958,8.322237
1775855244572077989,0.435494,2.952743,8.322237
1775855244574238666,0.421137,2.995814,8.331808
1775855244576399395,0.440279,3.062813,8.365308
1775855244578560072,0.478565,3.144169,8.379665
1775855244580720801,0.507278,3.239882,8.408379
1775855244582881478,0.545564,3.349952,8.398808
1775855244585042208,0.540778,3.469593,8.394022
1775855244587202885,0.574277,3.608377,8.413164
1775855244589363562,0.626920,3.756732,8.394022
1775855244591524291,0.689133,3.905087,8.408379
1775855244593684968,0.736989,4.067799,8.398808
1775855244595845697,0.799203,4.216154,8.370093
1775855244598006374,0.847059,4.311866,8.374879
1775855244600167103,0.923630,4.388437,8.379665
1775855244602327781,0.961915,4.426722,8.384451
1775855244604488458,0.981057,4.460221,8.422736
1775855244606649187,0.981057,4.407579,8.427522
1775855244608809916,0.937986,4.364509,8.432307
1775855244610970593,0.933201,4.311866,8.432307
1775855244613131322,0.957129,4.283153,8.389236
1775855244615291999,1.000200,4.254439,8.346166
1775855244617452676,1.019342,4.244867,8.312666
1775855244619613406,1.057628,4.230510,8.293523
1775855244621774083,1.086342,4.225725,8.274381
1775855244623934760,1.124627,4.225725,8.269595
1775855244626095489,1.177269,4.249653,8.255239
1775855244628256166,1.282553,4.287938,8.269595
1775855244630416895,1.392623,4.340580,8.283952
1775855244632577572,1.497907,4.374080,8.355737
1775855244634738301,1.636691,4.436293,8.494520
1775855244636899031,1.751546,4.469793,8.633304
1775855244639059708,1.842473,4.508078,8.748159
1775855244641220385,1.904687,4.536792,8.858230
1775855244643381062,1.942972,4.546363,8.968299
1775855244645541791,1.952543,4.532006,9.059227
1775855244647702520,1.966900,4.512864,9.145369
1775855244649863197,1.976472,4.469793,9.226724
1775855244652023926,1.966900,4.393222,9.284152
1775855244654184603,1.942972,4.321438,9.312865
1775855244656345281,1.928615,4.201797,9.274581
1775855244658506010,1.919044,4.115655,9.193225
1775855244660666687,1.890330,4.024728,9.111869
1775855244662827416,1.871187,3.938586,9.044869
1775855244664988093,1.880759,3.876373,8.992228
1775855244667148770,1.875973,3.799802,8.949157
1775855244669309499,1.895115,3.771089,8.934800
1775855244671470228,1.919044,3.751946,8.930014
1775855244673630906,1.952543,3.771089,8.963513
1775855244675791583,2.005185,3.814159,8.977871
1775855244677952312,2.043471,3.833302,8.997013
1775855244680112989,2.081756,3.847659,9.030513
1775855244682273666,2.110470,3.842873,9.035298
1775855244684434395,2.143969,3.838088,9.044869
1775855244686595124,2.182254,3.847659,9.068798
1775855244688755801,2.277967,3.842873,9.126225
1775855244690916478,2.359323,3.852444,9.183653
1775855244693077208,2.459822,3.871587,9.221938
1775855244695237937,2.560320,3.881158,9.241081
1775855244697398614,2.651248,3.871587,9.279366
1775855244699559291,2.737389,3.847659,9.284152
1775855244701720020,2.799603,3.814159,9.288938
1775855244703880697,2.852245,3.756732,9.279366
1775855244706041374,2.871387,3.723232,9.312865
1775855244708202103,2.904887,3.684947,9.308080
1775855244710362781,2.909672,3.637090,9.308080
1775855244712523510,2.909672,3.613162,9.293723
1775855244714684187,2.890530,3.637090,9.284152
1775855244716844916,2.871387,3.661019,9.269794
1775855244719005593,2.837888,3.723232,9.265009
1775855244721166322,2.857030,3.799802,9.284152
1775855244723326999,2.852245,3.852444,9.322437
1775855244725487676,2.880959,3.919444,9.341579
1775855244727648406,2.900101,3.972085,9.355937
1775855244729809135,2.909672,4.010371,9.379865
1775855244731969812,2.895315,4.039084,9.408579
1775855244734130541,2.842673,4.034299,9.489935
1775855244736291218,2.756532,4.015156,9.518648
1775855244738451895,2.641676,4.005585,9.609575
1775855244740612624,2.522035,3.981657,9.686146
1775855244742773301,2.411965,3.972085,9.714860
1775855244744934031,2.340181,3.972085,9.757931
1775855244747094708,2.316252,3.929015,9.738789
1775855244749255437,2.388037,3.885944,9.700503
1775855244751416114,2.488536,3.847659,9.638289
1775855244753576791,2.608177,3.766303,9.542577
1775855244755737520,2.732604,3.713661,9.466006
1775855244757898197,2.833102,3.670590,9.408579
1775855244760058926,2.943172,3.627519,9.327223
1775855244762219656,3.053242,3.603591,9.241081
1775855244764380281,3.096313,3.536592,9.116654
1775855244766541010,3.115455,3.503092,9.035298
1775855244768701739,3.144169,3.464807,8.939586
1775855244770862416,3.144169,3.436093,8.848659
1775855244773023145,3.153740,3.421736,8.815159
1775855244775183822,3.139383,3.407379,8.781659
1775855244777344499,3.148955,3.373880,8.805588
1775855244779505228,3.168097,3.340380,8.848659
1775855244781665906,3.192025,3.297310,8.925228
1775855244783826635,3.263810,3.239882,8.939586
1775855244785987312,3.349952,3.192025,8.997013
1775855244788148041,3.436093,3.148955,9.011370
1775855244790308718,3.507878,3.101098,9.049655
1775855244792469447,3.541378,3.058027,9.164511
1775855244794630124,3.546163,3.000600,9.231510
1775855244796790801,3.426522,2.866601,9.346365
1775855244798951531,3.148955,2.421536,9.633504
1775855244801112208,2.579463,1.631905,10.403993
1775855244803272937,1.789831,0.890130,11.691332
1775855244805433614,1.746760,1.100698,11.586047
1775855244807594343,2.167897,1.741975,10.691132
1775855244809755020,2.818745,2.569891,9.647861
1775855244811915697,3.589234,3.397808,8.729017
1775855244814076426,4.206582,3.976871,8.178668
1775855244816237103,4.594220,4.254439,7.915457
1775855244818397833,4.761717,4.264010,7.891529
1775855244820558510,4.728218,4.091727,8.030313
1775855244822719239,4.565506,3.795017,8.216953
1775855244824879916,4.354937,3.483950,8.379665
1775855244827040645,4.163511,3.163311,8.432307
1775855244829201322,4.000800,2.895315,8.417950
1775855244831361999,3.838088,2.656033,8.465807
1775855244833522728,3.689733,2.435894,8.537591
1775855244835683458,3.598805,2.268396,8.537591
1775855244837844135,3.570091,2.196611,8.480164
1775855244840004812,3.598805,2.206182,8.394022
1775855244842165541,3.689733,2.263610,8.303095
1775855244844326270,3.799802,2.397608,8.173882
1775855244846486895,3.885944,2.550749,7.958528
1775855244848647624,3.919444,2.746960,7.398608
1775855244850808353,4.000800,2.986243,7.240681
1775855244852969031,3.996014,3.105884,7.604390
1775855244855129708,3.909872,3.206382,7.968100
1775855244857290437,3.871587,3.287738,8.130812
1775855244859451114,3.876373,3.364309,8.126026
1775855244861611843,3.914658,3.440879,8.039884
1775855244863772520,4.024728,3.503092,7.920243
1775855244865933249,4.149155,3.550949,7.767102
1775855244868093926,4.240082,3.622734,7.604390
1775855244870254656,4.369294,3.704089,7.427321
1775855244872415333,4.465007,3.766303,7.226325
1775855244874576010,4.555934,3.857230,7.054041
1775855244876736739,4.589434,3.929015,6.872187
1775855244878897416,4.603791,3.976871,6.685546
1775855244881058145,4.570291,4.043870,6.532406
1775855244883218822,4.465007,4.106084,6.580262
1775855244885379551,4.273581,4.130012,6.661618
1775855244887540228,4.048656,4.153940,6.833901
1775855244889700958,3.785445,4.158726,7.125826
1775855244891861635,3.436093,4.120440,7.451250
1775855244894022364,3.091527,4.005585,7.824530
1775855244896183041,2.746960,3.838088,8.140383
1775855244898343718,2.464607,3.646662,8.341380
1775855244900504447,2.263610,3.460021,8.432307
1775855244902665176,2.110470,3.292524,8.355737
1775855244904825853,2.076970,3.153740,8.197810
1775855244906986531,2.143969,3.048456,7.886744
1775855244909147260,2.273181,2.971886,7.546963
1775855244911307937,2.488536,2.909672,7.207182
1775855244913468666,2.679961,2.876173,6.920043
1775855244915629343,2.871387,2.833102,6.685546
1775855244917790020,3.014956,2.746960,6.527620
1775855244919950749,3.125026,2.617748,6.494121
1775855244922111426,3.192025,2.478964,6.460621
1775855244924272156,3.278167,2.354537,6.446264
1775855244926432833,3.349952,2.244468,6.484550
1775855244928593562,3.431308,2.177469,6.580262
1775855244930754239,3.574877,2.148755,6.656833
1775855244932914968,3.728018,2.206182,6.685546
1775855244935075645,3.876373,2.311467,6.675975
1775855244937236322,4.039084,2.445465,6.647261
1775855244939397051,4.216154,2.565106,6.671189
1775855244941557781,4.326223,2.665604,6.752545
1775855244943718458,4.354937,2.713461,6.915257
1775855244945879187,4.321438,2.761317,7.149754
1775855244948039864,4.225725,2.766103,7.379465
1775855244950200541,4.134798,2.770889,7.642675
1775855244952361270,4.024728,2.775674,7.896315
1775855244954521947,3.914658,2.818745,8.078169
1775855244956682676,3.823730,2.871387,8.173882
1775855244958843353,3.737589,2.938386,8.193025
1775855244961004031,3.708875,3.014956,8.154739
1775855244963164760,3.732803,3.125026,8.044670
1775855244965325437,3.761517,3.225525,7.910672
1775855244967486166,3.766303,3.349952,7.786245
1775855244969646843,3.713661,3.450450,7.676175
1775855244971807572,3.613162,3.560520,7.570891
1775855244973968249,3.498307,3.656233,7.465607
1775855244976128978,3.407379,3.747160,7.355537
1775855244978289656,3.369094,3.838088,7.245467
1775855244980450333,3.416951,3.890730,7.106683
1775855244982611062,3.503092,3.948157,6.972685
1775855244984771791,3.555734,3.948157,6.771688
1775855244986932468,3.627519,3.914658,6.575477
1775855244989093145,3.737589,3.833302,6.518049
1775855244991253874,3.895515,3.737589,6.431907
1775855244993414603,4.120440,3.637090,6.384051
1775855244995575281,4.316652,3.531806,6.350551
1775855244997735958,4.508078,3.397808,6.345766
1775855244999896635,4.694718,3.297310,6.374479
1775855245002057364,4.905286,3.172883,6.427122
1775855245004218093,5.101498,3.096313,6.565906
1775855245006378770,5.335995,3.053242,6.747760
1775855245008539447,5.508278,3.053242,6.910472
1775855245010700176,5.680561,3.038885,7.140183
1775855245012860906,5.804988,3.072384,7.379465
1775855245015021583,5.962914,3.125026,7.633104
1775855245017182260,6.130412,3.187240,7.905886
1775855245019342989,6.278767,3.273381,8.169097
1775855245021503666,6.431907,3.388237,8.470592
1775855245023664395,6.532406,3.483950,8.743374
1775855245025825072,6.522834,3.440879,9.341579
1775855245027985801,6.374479,3.306881,10.179068
1775855245030146478,6.120841,3.134598,11.040483
1775855245032307156,5.718846,2.943172,11.428121
1775855245034467885,5.077569,2.742175,11.188839
1775855245036628562,4.374080,2.478964,10.614561
1775855245038789291,3.833302,2.258825,10.088140
1775855245040950020,3.560520,2.067399,9.686146
1775855245043110697,3.503092,2.009971,9.322437
1775855245045271374,3.617948,1.986043,9.001799
1775855245047432051,3.790231,2.005185,8.595019
1775855245049592781,3.948157,1.981257,8.207381
1775855245051753510,4.086941,1.914258,7.939385
1775855245053914187,4.197011,1.780260,7.781459
1775855245056074864,4.206582,1.588834,7.776674
1775855245058235593,4.192225,1.344766,7.848458
1775855245060396270,4.197011,1.071985,7.891529
1775855245062556999,4.292724,0.861416,7.896315
1775855245064717676,4.498507,0.732204,7.810173
1775855245066878353,4.756931,0.679562,7.724031
1775855245069039083,4.957929,0.684347,7.676175
1775855245071199760,5.096712,0.741775,7.714460
1775855245073360489,5.182854,0.808774,7.867601
1775855245075521166,5.283352,0.866202,8.020741
1775855245077681895,5.398208,0.942772,8.149954
1775855245079842572,5.522635,1.038485,8.221739
1775855245082003301,5.546563,1.095913,8.327023
1775855245084163978,5.594419,1.158126,8.346166
1775855245086324708,5.647061,1.205983,8.298309
1775855245088485437,5.589633,1.225125,8.236095
1775855245090646114,5.498706,1.239482,8.260024
1775855245092806791,5.407779,1.210768,8.183454
1775855245094967468,5.312066,1.196411,8.135597
1775855245097128197,5.173283,1.143769,8.145168
1775855245099288926,5.082355,1.100698,8.059027
1775855245101449603,5.029713,1.028914,8.001599
1775855245103610281,5.000999,0.961915,7.939385
1775855245105771010,5.039285,0.928415,7.891529
1775855245107931687,5.120640,0.875773,7.829316
1775855245110092416,5.235496,0.880559,7.781459
1775855245112253145,5.340780,0.880559,7.733603
1775855245114413822,5.489135,0.923630,7.685746
1775855245116574499,5.627919,0.957129,7.671390
1775855245118735228,5.742774,1.014557,7.685746
1775855245120895906,5.838487,1.071985,7.752745
1775855245123056635,5.905486,1.119841,7.795816
1775855245125217312,5.962914,1.158126,7.891529
1775855245127377989,5.977271,1.177269,7.996813
1775855245129538718,5.929415,1.186840,8.116454
1775855245131699395,5.843273,1.177269,8.264810
1775855245133860124,5.699704,1.167697,8.494520
1775855245136020801,5.541777,1.196411,8.700303
1775855245138181531,5.331209,1.205983,8.958728
1775855245140342208,5.029713,1.220340,9.241081
1775855245142502937,4.761717,1.220340,9.499506
1775855245144663614,4.517649,1.162912,9.710074
1775855245146824343,4.292724,1.057628,9.848858
1775855245148985020,4.115655,0.933201,9.949356
1775855245151145749,3.919444,0.727418,9.963714
1775855245153306426,3.699304,0.540778,9.920643
1775855245155467156,3.393023,0.339781,9.891929
1775855245157627833,3.148955,0.114855,9.848858
1775855245159788510,3.024528,-0.062213,9.810573
1775855245161949239,3.014956,-0.205783,9.791430
1775855245164109916,3.014956,-0.330210,9.834501
1775855245166270593,3.019742,-0.468993,9.872787
1775855245168431322,3.043670,-0.579063,9.863214
1775855245170592051,3.058027,-0.665205,9.853643
1775855245172752728,2.976671,-0.717847,9.762716
1775855245174913406,2.775674,-0.722632,9.552148
1775855245177074135,2.675176,-0.669990,9.121440
1775855245179234812,2.579463,-0.545564,8.398808
1775855245181395541,2.536392,-0.435494,7.508677
1775855245183556218,2.335395,-0.387637,7.604390
1775855245185716895,2.124826,-0.354138,8.398808
1775855245187877624,1.966900,-0.244068,8.901300
1775855245190038353,1.847259,-0.234497,9.274581
1775855245192199031,1.718047,-0.282353,9.600004
1775855245194359708,1.488336,0.019143,8.719446
1775855245196520437,1.406980,0.540778,6.020342
1775855245198681114,1.426122,1.483550,3.933800
1775855245200841843,1.531407,2.785246,1.741975
1775855245203002520,1.698904,4.350152,-0.062213
1775855245205163249,1.837688,5.967700,-0.157926
1775855245207323978,1.603191,7.546963,1.024128
1775855245209484656,1.158126,8.729017,2.823531
1775855245211645333,0.952343,9.265009,5.154140
1775855245213806010,1.057628,9.346365,7.580462
1775855245215966739,0.875773,9.355937,9.839287
1775855245218127416,0.780060,8.949157,11.921042
1775855245220288145,1.234697,7.700103,13.208381
1775855245222448874,2.636891,5.761917,13.811373
1775855245224609551,3.378666,4.101298,14.328222
1775855245226770228,3.062813,2.943172,14.907285
1775855245228930958,2.622534,1.904687,14.787644
1775855245231091635,2.383251,0.981057,14.065011
1775855245233252312,2.459822,0.224925,13.289737
1775855245235413041,2.852245,-0.378066,12.437892
1775855245237573770,3.421736,-0.794417,11.648261
1775855245239734447,4.077370,-0.976272,10.930414
1775855245241895176,4.685147,-1.000200,10.332209
1775855245244055853,5.077569,-0.875773,9.944571
1775855245246216531,5.134997,-0.588634,9.791430
1775855245248377260,4.910072,-0.244068,9.944571
1775855245250537937,4.560720,0.167498,10.322637
1775855245252698666,4.201797,0.622134,10.724631
1775855245254859343,3.871587,1.086342,10.681561
1775855245257020072,3.560520,1.531407,10.375279
1775855245259180749,3.302095,2.033899,10.021141
1775855245261341478,3.062813,2.565106,9.719646
1775855245263502156,2.833102,3.077170,9.451650
1775855245265662833,2.651248,3.546163,9.221938
1775855245267823562,2.608177,3.976871,9.049655
1775855245269984239,2.723032,4.287938,8.920443
1775855245272144968,3.024528,4.465007,8.800801
1775855245274305645,3.488735,4.532006,8.733803
1775855245276466374,4.010371,4.532006,8.595019
1775855245278627051,4.584648,4.465007,8.470592
1775855245280787728,5.111069,4.374080,8.408379
1775855245282948458,5.532206,4.273581,8.432307
1775855245285109187,5.843273,4.158726,8.451449
1775855245287269864,6.001199,4.072584,8.475378
1775855245289430593,6.053841,3.991228,8.518449
1775855245291591270,6.015556,3.948157,8.523234
1775855245293751947,5.862415,3.943372,8.571091
1775855245295912676,5.675776,3.976871,8.614161
1775855245298073353,5.469993,4.039084,8.642876
1775855245300234083,5.230711,4.086941,8.599805
1775855245302394812,5.039285,4.134798,8.513663
1775855245304555489,4.857430,4.192225,8.451449
1775855245306716166,4.713861,4.211368,8.432307
1775855245308876895,4.575077,4.235296,8.446664
1775855245311037572,4.460221,4.273581,8.456235
1775855245313198301,4.335794,4.283153,8.518449
1775855245315358978,4.240082,4.283153,8.618947
1775855245317519708,4.163511,4.297510,8.786445
1775855245319680385,4.086941,4.297510,8.973084
1775855245321841114,4.058227,4.302295,9.150154
1775855245324001791,3.986443,4.283153,9.284152
1775855245326162520,3.909872,4.259224,9.355937
1775855245328323197,3.828516,4.197011,9.432507
1775855245330483926,3.747160,4.182654,9.504292
1775855245332644603,3.704089,4.163511,9.494720
1775855245334805281,3.651447,4.201797,9.513863
1775855245336966010,3.507878,4.240082,9.523434
1775855245339126687,3.148955,4.244867,9.571291
1775855245341287416,2.507678,4.244867,9.643075
1775855245343448093,1.895115,4.264010,9.796216
1775855245345608822,1.722832,4.297510,9.949356
1775855245347769499,1.981257,4.225725,9.930214
1775855245349930176,2.411965,4.039084,9.753145
1775855245352090906,2.627319,3.780660,9.556933
1775855245354251583,2.550749,3.531806,9.317652
1775855245356412312,2.368894,3.330809,9.040084
1775855245358572989,2.292324,3.215954,8.767303
1775855245360733718,2.368894,3.201597,8.508878
1775855245362894395,2.512464,3.254239,8.307880
1775855245365055124,2.603391,3.378666,8.164310
1775855245367215801,2.622534,3.565306,8.082955
1775855245369376531,2.627319,3.790231,7.968100
1775855245371537208,2.703890,4.005585,7.843673
1775855245373697885,2.799603,4.235296,7.714460
1775855245375858614,2.871387,4.417150,7.556534
1775855245378019343,2.928815,4.589434,7.350751
1775855245380180020,3.062813,4.756931,7.164111
1775855245382340697,3.268596,4.924429,7.116254
1775855245384501426,3.522235,5.072784,7.111469
1775855245386662103,3.804588,5.216353,7.101898
1775855245388822833,4.096512,5.292923,7.101898
1775855245390983510,4.364509,5.345566,7.111469
1775855245393144187,4.613362,5.393422,7.154540
1775855245395304916,4.785645,5.441278,7.216753
1775855245397465645,4.881358,5.465207,7.278966
1775855245399626322,4.910072,5.469993,7.393822
1775855245401787051,4.895715,5.460421,7.513463
1775855245403947728,4.857430,5.422136,7.604390
1775855245406108458,4.790431,5.388637,7.719246
1775855245408269135,4.723432,5.326423,7.757531
1775855245410429812,4.622933,5.264210,7.743174
1775855245412590541,4.517649,5.187640,7.724031
1775855245414751218,4.426722,5.077569,7.613962
1775855245416911947,4.364509,4.996214,7.561319
1775855245419072624,4.321438,4.919643,7.527820
1775855245421233353,4.273581,4.871787,7.441679
1775855245423394031,4.216154,4.852644,7.446464
1775855245425554760,4.144369,4.862216,7.451250
1775855245427715437,4.039084,4.871787,7.470392
1775855245429876166,3.943372,4.890930,7.503892
1775855245432036843,3.852444,4.905286,7.566105
1775855245434197520,3.761517,4.890930,7.609176
1775855245436358249,3.637090,4.857430,7.680961
1775855245438518926,3.464807,4.838287,7.724031
1775855245440679656,3.330809,4.776074,7.743174
1775855245442840333,3.196811,4.752146,7.791030
1775855245445001062,3.105884,4.747360,7.767102
1775855245447161739,3.086741,4.733003,7.752745
1775855245449322468,3.077170,4.742575,7.704889
1775855245451483145,3.105884,4.761717,7.671390
1775855245453643822,3.153740,4.804788,7.647461
1775855245455804551,3.215954,4.823930,7.642675
1775855245457965281,3.273381,4.833502,7.609176
1775855245460125958,3.349952,4.871787,7.604390
1775855245462286687,3.402594,4.910072,7.642675
1775855245464447364,3.421736,4.934000,7.676175
1775855245466608041,3.407379,4.905286,7.738389
1775855245468768770,3.369094,4.828716,7.886744
1775855245470929447,3.211168,4.613362,8.537591
1775855245473090176,3.201597,4.560720,8.374879
1775855245475250853,3.225525,4.584648,8.245667
1775855245477411583,3.235096,4.622933,8.202596
1775855245479572260,3.230311,4.656433,8.183454
1775855245481732989,3.206382,4.661219,8.149954
1775855245483893666,3.187240,4.622933,8.078169
1775855245486054343,3.215954,4.575077,7.953743
1775855245488215072,3.215954,4.522435,7.757531
1775855245490375801,3.201597,4.532006,7.628319
1775855245492536478,3.153740,4.579863,7.523035
1775855245494697208,3.153740,4.608576,7.427321
1775855245496857885,3.177669,4.656433,7.317252
1775855245499018562,3.235096,4.699504,7.226325
1775855245501179291,3.287738,4.785645,7.154540
1775855245503339968,3.345166,4.862216,7.082755
1775855245505500697,3.388237,4.948357,7.111469
1775855245507661374,3.407379,5.063213,7.097112
1775855245509822051,3.393023,5.154140,7.106683
1775855245511982781,3.393023,5.249853,7.149754
1775855245514143510,3.397808,5.307281,7.164111
1775855245516304187,3.407379,5.340780,7.202396
1775855245518464864,3.421736,5.335995,7.293324
1775855245520625593,3.464807,5.335995,7.350751
1775855245522786270,3.531806,5.312066,7.379465
1775855245524946999,3.574877,5.288138,7.398608
1775855245527107676,3.603591,5.245067,7.436893
1775855245529268406,3.622734,5.201996,7.503892
1775855245531429083,3.608377,5.149354,7.570891
1775855245533589812,3.579663,5.125426,7.666604
1775855245535750489,3.498307,5.087141,7.704889
1775855245537911218,3.393023,5.048856,7.752745
1775855245540071895,3.302095,5.039285,7.810173
1775855245542232572,3.278167,5.015356,7.853244
1775855245544393301,3.306881,4.967500,7.858029
1775855245546554031,3.235096,4.914858,7.824530
1775855245548714708,3.177669,4.857430,7.810173
1775855245550875437,3.081956,4.809574,7.800602
1775855245553036114,2.986243,4.776074,7.800602
1775855245555196791,2.933601,4.752146,7.747960
1775855245557357520,2.895315,4.766503,7.685746
1775855245559518197,2.861816,4.780859,7.633104
1775855245561678926,2.866601,4.800002,7.518249
1775855245563839603,2.833102,4.819145,7.446464
1775855245566000333,2.794817,4.833502,7.389036
1775855245568161010,2.775674,4.862216,7.345965
1775855245570321739,2.727818,4.867001,7.298109
1775855245572482416,2.723032,4.876573,7.231110
1775855245574643145,2.770889,4.871787,7.197610
1775855245576803822,2.785246,4.862216,7.207182
1775855245578964551,2.780460,4.852644,7.216753
1775855245581125228,2.766103,4.847859,7.211967
1775855245583285958,2.794817,4.857430,7.221539
1775855245585446635,2.904887,4.881358,7.245467
1775855245587607312,3.034099,4.910072,7.250253
1775855245589768041,3.096313,4.943572,7.269395
1775855245591928770,3.125026,4.977071,7.293324
1775855245594089447,3.144169,5.024928,7.341180
1775855245596250124,3.163311,5.034499,7.412964
1775855245598410853,3.125026,5.053641,7.441679
1775855245600571531,3.091527,5.067998,7.422536
1775855245602732260,3.053242,5.048856,7.422536
1775855245604892937,3.034099,5.034499,7.403393
1775855245607053666,3.029314,5.015356,7.403393
1775855245609214343,3.077170,5.015356,7.369894
1775855245611375020,3.096313,5.024928,7.331609
1775855245613535749,3.115455,5.034499,7.322037
1775855245615696426,3.125026,5.044070,7.283752
1775855245617857156,3.115455,5.029713,7.274181
1775855245620017885,3.105884,5.044070,7.240681
1775855245622178562,3.110669,5.034499,7.168897
1775855245624339239,3.153740,5.024928,7.101898
1775855245626499968,3.206382,5.034499,7.044470
1775855245628660645,3.235096,5.053641,6.967899
1775855245630821322,3.235096,5.082355,6.972685
1775855245632982051,3.225525,5.120640,6.953543
1775855245635142728,3.225525,5.168497,6.929615
1775855245637303458,3.187240,5.206782,6.920043
1775855245639464135,3.172883,5.245067,6.876972
1775855245641624864,3.172883,5.245067,6.786045
1775855245643785541,3.196811,5.249853,6.704689
1775855245645946270,3.263810,5.292923,6.618547
1775855245648106947,3.364309,5.345566,6.532406
1775855245650267676,3.450450,5.426922,6.479764
1775855245652428353,3.522235,5.541777,6.484550
1775855245654589083,3.570091,5.603991,6.541977
1775855245656749760,3.579663,5.661418,6.628119
1775855245658910489,3.560520,5.675776,6.733403
1775855245661071218,3.507878,5.651847,6.819544
1775855245663231895,3.483950,5.623133,6.872187
1775855245665392572,3.464807,5.556134,6.953543
1775855245667553301,3.464807,5.498706,6.953543
1775855245669714031,3.450450,5.441278,6.996614
1775855245671874708,3.402594,5.364708,7.006185
1775855245674035385,3.321238,5.259424,7.020542
1775855245676196114,3.206382,5.168497,7.030113
1775855245678356791,3.172883,5.115855,7.020542
1775855245680517520,3.206382,5.106284,7.015756
1775855245682678197,3.249453,5.115855,6.958328
1775855245684838874,3.278167,5.149354,6.896115
1775855245686999603,3.263810,5.173283,6.853044
1775855245689160281,3.302095,5.216353,6.824330
1775855245691321010,3.326024,5.245067,6.805188
1775855245693481687,3.335595,5.268995,6.752545
1775855245695642416,3.335595,5.254639,6.733403
1775855245697803093,3.369094,5.278567,6.704689
1775855245699963822,3.393023,5.316852,6.671189
1775855245702124499,3.440879,5.364708,6.647261
1775855245704285228,3.503092,5.402994,6.623333
1775855245706445906,3.613162,5.465207,6.628119
1775855245708606635,3.694518,5.536992,6.656833
1775855245710767312,3.775874,5.570491,6.742974
1775855245712927989,3.809374,5.613562,6.800402
1775855245715088718,3.833302,5.613562,6.886544
1775855245717249447,3.818945,5.632705,6.963114
1775855245719410124,3.814159,5.632705,7.077970
1775855245721570853,3.862016,5.647061,7.149754
1775855245723731531,3.943372,5.656633,7.188039
1775855245725892260,3.976871,5.651847,7.154540
1775855245728052937,3.981657,5.632705,7.168897
1775855245730213614,3.919444,5.613562,7.168897
1775855245732374343,3.871587,5.584848,7.173682
1775855245734535020,3.866802,5.560920,7.130611
1775855245736695749,3.862016,5.536992,7.097112
1775855245738856426,3.885944,5.527421,7.063612
1775855245741017156,3.862016,5.517849,7.034899
1775855245743177833,3.751946,5.522635,6.987042
1775855245745338562,3.665804,5.517849,6.967899
1775855245747499239,3.613162,5.503492,6.939186
1775855245749659968,3.541378,5.493921,6.920043
1775855245751820645,3.488735,5.484350,6.924829
1775855245753981374,3.493521,5.474778,6.924829
1775855245756142051,3.517449,5.479564,6.924829
1775855245758302728,3.603591,5.469993,6.915257
1775855245760463458,3.689733,5.460421,6.910472
1775855245762624135,3.780660,5.460421,6.920043
1775855245764784864,3.838088,5.460421,6.934400
1775855245766945541,3.900301,5.465207,6.934400
1775855245769106270,3.943372,5.503492,6.967899
1775855245771266947,3.967300,5.513063,6.996614
1775855245773427676,3.976871,5.546563,6.987042
1775855245775588353,3.981657,5.575277,6.982256
1775855245777749083,4.201797,5.613562,6.934400
1775855245779909760,3.785445,5.642276,6.996614
1775855245782070489,3.747160,5.656633,6.814759
1775855245784231166,3.852444,5.637490,6.752545
1775855245786391843,3.823730,5.623133,6.757331
1775855245788552572,3.876373,5.704489,6.723832
1775855245790713301,3.814159,5.785845,6.642476
1775855245792873978,3.723232,5.804988,6.575477
1775855245795034708,3.665804,5.800202,6.565906
1775855245797195385,3.627519,5.776274,6.498906
1775855245799356114,3.579663,5.752346,6.465407
1775855245801516791,3.483950,5.718846,6.489335
1775855245803677468,3.407379,5.714060,6.565906
1775855245805838197,3.388237,5.690132,6.666404
1775855245807998874,3.431308,5.666204,6.757331
1775855245810159603,3.503092,5.647061,6.857830
1775855245812320281,3.608377,5.589633,6.934400
1775855245814481010,3.718446,5.546563,7.030113
1775855245816641687,3.771089,5.498706,7.073184
1775855245818802416,3.799802,5.460421,7.154540
1775855245820963093,3.775874,5.460421,7.259824
1775855245823123822,3.728018,5.460421,7.374680
1775855245825284499,3.694518,5.508278,7.460821
1775855245827445228,3.675375,5.551349,7.499106
1775855245829605906,3.684947,5.570491,7.518249
1775855245831766635,3.689733,5.560920,7.508677
1775855245833927312,3.661019,5.584848,7.527820
1775855245836088041,3.684947,5.603991,7.494320
1775855245838248718,3.675375,5.613562,7.441679
1775855245840409395,3.689733,5.627919,7.369894
1775855245842570124,3.732803,5.627919,7.298109
1775855245844730801,3.771089,5.647061,7.274181
1775855245846891531,3.866802,5.666204,7.245467
1775855245849052208,3.943372,5.685347,7.197610
1775855245851212937,4.015156,5.704489,7.144969
1775855245853373614,4.091727,5.747560,7.116254
1775855245855534343,4.134798,5.809773,7.068398
1775855245857695020,4.110869,5.852844,7.030113
1775855245859855749,4.115655,5.910272,6.977471
1775855245862016426,4.110869,5.967700,6.943971
1775855245864177156,4.072584,5.982057,6.896115
1775855245866337833,4.043870,5.991628,6.843473
1775855245868498510,4.005585,5.986842,6.838687
1775855245870659239,4.000800,5.953343,6.814759
1775855245872819968,3.962514,5.905486,6.795616
1775855245874980645,3.881158,5.857630,6.819544
1775855245877141322,3.809374,5.795416,6.829116
1775855245879302051,3.761517,5.766703,6.843473
1775855245881462781,3.785445,5.742774,6.843473
1775855245883623458,3.833302,5.752346,6.790831
1775855245885784135,3.823730,5.747560,6.747760
1775855245887944812,3.814159,5.752346,6.752545
1775855245890105541,3.766303,5.737988,6.776474
1775855245892266270,3.699304,5.742774,6.795616
1775855245894426947,3.661019,5.733203,6.776474
1775855245896587676,3.661019,5.757131,6.771688
1775855245898748353,3.656233,5.757131,6.766902
1775855245900909083,3.665804,5.761917,6.762117
1775855245903069760,3.680161,5.771488,6.790831
1775855245905230489,3.708875,5.800202,6.805188
1775855245907391166,3.713661,5.809773,6.838687
1775855245909551895,3.689733,5.814559,6.867401
1775855245911712572,3.665804,5.804988,6.924829
1775855245913873301,3.637090,5.800202,6.977471
1775855245916033978,3.613162,5.828916,7.073184
1775855245918194656,3.594020,5.848059,7.154540
1775855245920355385,3.570091,5.809773,7.240681
1775855245922516062,3.598805,5.781060,7.298109
1775855245924676791,3.641876,5.728417,7.336394
1775855245926837468,3.665804,5.690132,7.355537
1775855245928998197,3.708875,5.627919,7.365108
1775855245931158874,3.742375,5.589633,7.341180
1775855245933319603,3.766303,5.551349,7.331609
1775855245935480281,3.766303,5.513063,7.288538
1775855245937640958,3.775874,5.465207,7.278966
1775855245939801687,3.766303,5.441278,7.264609
1775855245941962416,3.761517,5.393422,7.250253
1775855245944123093,3.732803,5.393422,7.235896
1775855245946283822,3.737589,5.383851,7.202396
1775855245948444499,3.775874,5.398208,7.159325
1775855245950605176,3.809374,5.412565,7.121040
1775855245952765906,3.866802,5.450850,7.058827
1775855245954926583,3.900301,5.513063,7.010970
1775855245957087312,3.900301,5.551349,6.948757
1775855245959247989,3.914658,5.618348,6.939186
1775855245961408718,3.938586,5.675776,6.915257
1775855245963569395,3.914658,5.718846,6.848258
1775855245965730124,3.876373,5.757131,6.786045
1775855245967890801,3.842873,5.781060,6.728617
1775855245970051531,3.799802,5.776274,6.666404
1775855245972212208,3.809374,5.781060,6.604190
1775855245974372937,3.804588,5.785845,6.522834
1775855245976533614,3.790231,5.757131,6.470192
1775855245978694343,3.780660,5.752346,6.398408
1775855245980855020,3.751946,5.742774,6.350551
1775855245983015697,3.627519,5.699704,6.336195
1775855245985176426,3.546163,5.661418,6.326623
1775855245987337156,3.527021,5.618348,6.283552
1775855245989497833,3.574877,5.608776,6.269196
1775855245991658562,3.651447,5.603991,6.211768
1775855245993819239,3.775874,5.632705,6.168697
1775855245995979968,3.885944,5.670990,6.130412
1775855245998140645,3.986443,5.699704,6.125626
1775855246000301374,4.063013,5.723632,6.111269
1775855246002462051,4.101298,5.747560,6.125626
1775855246004622781,4.101298,5.761917,6.111269
1775855246006783458,4.096512,5.757131,6.106483
1775855246008944187,4.091727,5.728417,6.106483
1775855246011104864,4.072584,5.690132,6.101698
1775855246013265541,4.082155,5.647061,6.111269
1775855246015426270,4.086941,5.594419,6.096912
1775855246017586947,4.072584,5.546563,6.072984
1775855246019747676,4.072584,5.522635,6.092126
1775855246021908353,4.134798,5.517849,6.125626
1775855246024069031,4.216154,5.527421,6.178268
1775855246026229760,3.766303,5.503492,6.178268
1775855246028390489,4.106084,5.589633,6.307480
1775855246030551166,4.488935,5.536992,6.388836
1775855246032711843,4.354937,5.484350,6.451050
1775855246034872572,4.340580,5.522635,6.565906
1775855246037033249,4.316652,5.546563,6.608976
1775855246039193978,4.249653,5.498706,6.628119
1775855246041354656,4.283153,5.493921,6.652047
1775855246043515385,4.331009,5.498706,6.637690
1775855246045676114,4.359723,5.536992,6.642476
1775855246047836791,4.359723,5.589633,6.680761
1775855246049997520,4.354937,5.651847,6.671189
1775855246052158197,4.331009,5.718846,6.714260
1775855246054318874,4.302295,5.781060,6.728617
1775855246056479603,4.278367,5.828916,6.680761
1775855246058640281,4.273581,5.862415,6.666404
1775855246060801010,4.273581,5.900701,6.628119
1775855246062961687,4.273581,5.938986,6.585048
1775855246065122416,4.264010,5.953343,6.599405
1775855246067283093,4.268795,5.972486,6.585048
1775855246069443822,4.264010,5.972486,6.585048
1775855246071604499,4.249653,5.972486,6.594619
1775855246073765228,4.268795,5.986842,6.599405
1775855246075925906,4.244867,5.986842,6.565906
1775855246078086635,4.264010,6.001199,6.561120
1775855246080247312,4.307081,6.020342,6.518049
1775855246082407989,4.340580,6.039485,6.518049
1775855246084568718,4.374080,6.068198,6.513263
1775855246086729395,4.402794,6.096912,6.551548
1775855246088890124,4.436293,6.139983,6.565906
1775855246091050853,4.412365,6.159125,6.628119
1775855246093211531,4.393222,6.159125,6.647261
1775855246095372208,4.321438,6.159125,6.695118
1775855246097532937,4.240082,6.130412,6.733403
1775855246099693614,4.197011,6.120841,6.771688
1775855246101854343,4.144369,6.106483,6.781260
1775855246104015020,4.091727,6.068198,6.838687
1775855246106175749,4.086941,6.034698,6.843473
1775855246108336426,4.015156,6.015556,6.872187
1775855246110497156,3.919444,5.991628,6.857830
1775855246112657833,3.866802,5.972486,6.862615
1775855246114818510,3.847659,5.943771,6.857830
1775855246116979239,3.828516,5.919843,6.819544
1775855246119139968,3.814159,5.915058,6.819544
1775855246121300645,3.775874,5.891129,6.833901
1775855246123461322,3.728018,5.876772,6.824330
1775855246125622051,3.661019,5.857630,6.833901
1775855246127782728,3.555734,5.819345,6.853044
1775855246129943458,3.464807,5.785845,6.910472
1775855246132104187,3.393023,5.795416,6.943971
1775855246134264864,3.359523,5.785845,6.972685
1775855246136425593,3.378666,5.781060,6.982256
1775855246138586270,3.407379,5.776274,7.015756
1775855246140746947,3.440879,5.795416,7.049255
1775855246142907676,3.440879,5.781060,7.121040
1775855246145068353,3.431308,5.757131,7.202396
1775855246147229031,3.445665,5.757131,7.264609
1775855246149389760,3.464807,5.776274,7.336394
1775855246151550437,3.474379,5.757131,7.408179
1775855246153711166,3.493521,5.742774,7.460821
1775855246155871895,3.527021,5.733203,7.489535
1775855246158032572,3.531806,5.714060,7.503892
1775855246160193301,3.522235,5.694918,7.551748
1775855246162353978,3.483950,5.670990,7.566105
1775855246164514656,3.479164,5.637490,7.556534
1775855246166675385,3.445665,5.599205,7.527820
1775855246168836062,3.431308,5.594419,7.513463
1775855246170996791,3.393023,5.551349,7.499106
1775855246173157468,3.364309,5.532206,7.489535
1775855246175318197,3.311666,5.489135,7.484749
1775855246177478874,3.278167,5.441278,7.479964
1775855246179639603,3.220739,5.417350,7.489535
1775855246181800281,3.177669,5.369494,7.479964
1775855246183961010,3.158526,5.345566,7.460821
1775855246186121687,3.105884,5.331209,7.460821
1775855246188282416,3.091527,5.297709,7.470392
1775855246190443093,3.058027,5.259424,7.460821
1775855246192603822,3.048456,5.240282,7.470392
1775855246194764499,3.029314,5.230711,7.518249
1775855246196925176,3.053242,5.225924,7.523035
1775855246199085906,3.072384,5.221139,7.508677
1775855246201246583,3.086741,5.211568,7.527820
1775855246203407312,3.067599,5.211568,7.532606
1775855246205568093,3.053242,5.230711,7.518249
1775855246207728718,3.029314,5.245067,7.503892
1775855246209889447,3.019742,5.240282,7.484749
1775855246212050124,3.029314,5.254639,7.441679
1775855246214210801,3.034099,5.249853,7.412964
1775855246216371531,3.072384,5.268995,7.412964
1775855246218532208,3.120241,5.297709,7.432107
1775855246220692937,3.163311,5.321638,7.465607
1775855246222853614,3.192025,5.331209,7.523035
1775855246225014343,3.235096,5.364708,7.532606
1775855246227175020,3.206382,5.383851,7.566105
1775855246229335749,3.215954,5.407779,7.590034
1775855246231496426,3.201597,5.426922,7.618747
1775855246233657156,3.196811,5.426922,7.599605
1775855246235817833,3.172883,5.417350,7.642675
1775855246237978562,3.172883,5.417350,7.642675
1775855246240139239,3.177669,5.402994,7.637890
1775855246242299916,3.182454,5.383851,7.657032
1775855246244460645,3.172883,5.359923,7.690532
1775855246246621322,3.148955,5.331209,7.714460
1775855246248782051,3.129812,5.283352,7.762317
1775855246250942781,3.120241,5.264210,7.805387
1775855246253103458,3.120241,5.245067,7.824530
1775855246255264135,3.115455,5.240282,7.834101
1775855246257424864,3.115455,5.225924,7.829316
1775855246259585593,3.096313,5.230711,7.800602
1775855246261746270,3.091527,5.216353,7.757531
1775855246263906947,3.101098,5.225924,7.724031
1775855246266067676,3.115455,5.211568,7.657032
1775855246268228353,3.153740,5.240282,7.556534
1775855246270389083,3.201597,5.273781,7.446464
1775855246272549760,3.259024,5.292923,7.336394
1775855246274710489,3.364309,5.335995,7.255038
1775855246276871166,3.460021,5.379066,7.211967
1775855246279031843,3.541378,5.426922,7.207182
1775855246281192624,3.594020,5.484350,7.221539
1775855246283353301,3.608377,5.532206,7.293324
1775855246285513978,3.598805,5.580062,7.326823
1775855246287674656,3.584448,5.603991,7.374680
1775855246289835385,3.560520,5.613562,7.412964
1775855246291996114,3.541378,5.608776,7.379465
1775855246294156791,3.550949,5.575277,7.331609
1775855246296317520,3.517449,5.532206,7.322037
1775855246298478197,3.503092,5.479564,7.288538
1775855246300638926,3.474379,5.446064,7.278966
1775855246302799603,3.412165,5.412565,7.269395
1775855246304960333,3.311666,5.383851,7.250253
1775855246307121010,3.230311,5.359923,7.245467
1775855246309281687,3.134598,5.345566,7.207182
1775855246311442416,3.077170,5.350351,7.159325
1775855246313603093,3.024528,5.374279,7.073184
1775855246315763822,3.010171,5.393422,6.967899
1775855246317924499,3.019742,5.402994,6.876972
1775855246320085228,3.019742,5.417350,6.781260
1775855246322245906,3.019742,5.422136,6.723832
1775855246324406635,3.010171,5.422136,6.656833
1775855246326567312,2.991028,5.431707,6.594619
1775855246328728041,3.014956,5.455636,6.508478
1775855246330888718,3.019742,5.455636,6.446264
1775855246333049447,3.053242,5.484350,6.374479
1775855246335210124,3.115455,5.484350,6.331409
1775855246337370801,3.158526,5.474778,6.307480
1775855246339531531,3.187240,5.469993,6.269196
1775855246341692260,3.158526,5.460421,6.254838
1775855246343852937,3.144169,5.469993,6.192625
1775855246346013614,3.115455,5.489135,6.125626
1775855246348174343,3.086741,5.517849,5.982057
1775855246350335020,3.077170,5.551349,5.809773
1775855246352495749,3.067599,5.608776,5.690132
1775855246354656426,3.096313,5.651847,5.532206
1775855246356817156,3.163311,5.699704,5.412565
1775855246358977833,3.225525,5.714060,5.273781
1775855246361138562,3.297310,5.714060,5.182854
1775855246363299239,3.369094,5.685347,5.130212
1775855246365459968,3.436093,5.632705,5.130212
1775855246367620645,3.517449,5.580062,5.125426
1775855246369781374,3.560520,5.527421,5.197211
1775855246371942051,3.579663,5.465207,5.297709
1775855246374102781,3.584448,5.393422,5.465207
1775855246376263458,3.579663,5.335995,5.675776
1775855246378424135,3.550949,5.273781,5.948557
1775855246380584864,3.483950,5.254639,6.302695
1775855246382745593,3.474379,5.426922,6.824330
1775855246384906270,3.622734,5.331209,6.853044
1775855246387066947,3.780660,5.235496,6.762117
1775855246389227676,3.890730,5.120640,6.742974
1775855246391388406,3.933800,5.005785,6.671189
1775855246393549083,3.905087,4.919643,6.585048
1775855246395709760,3.838088,4.876573,6.498906
1775855246397870489,3.771089,4.843073,6.436693
1775855246400031218,3.761517,4.804788,6.446264
1775855246402191895,3.766303,4.780859,6.522834
1775855246404352572,3.828516,4.761717,6.589834
1775855246406513249,3.890730,4.766503,6.699903
1775855246408673978,4.005585,4.776074,6.757331
1775855246410834708,4.115655,4.776074,6.781260
1775855246412995385,4.230510,4.780859,6.786045
1775855246415156114,4.340580,4.737789,6.695118
1775855246417316791,4.450650,4.651647,6.599405
1775855246419477520,4.646862,4.579863,6.527620
1775855246421638197,4.890930,4.570291,6.479764
1775855246423798874,5.163711,4.532006,6.345766
1775855246425959603,5.364708,4.503292,5.943771
1775855246428120333,5.527421,4.508078,5.173283
1775855246430281010,5.728417,4.417150,4.914858
1775855246432441687,5.871987,4.326223,5.139783
1775855246434602416,5.929415,4.206582,5.206782
1775855246436763145,5.958128,4.015156,5.154140
1775855246438923822,5.986842,3.814159,5.072784
1775855246441084499,6.058627,3.565306,4.967500
1775855246443245228,6.029913,3.330809,4.862216
1775855246445405906,6.049056,3.125026,4.737789
1775855246447566635,6.044270,2.952743,4.622933
1775855246449727312,6.034698,2.780460,4.488935
1775855246451888041,5.991628,2.656033,4.369294
1775855246454048718,5.929415,2.550749,4.307081
1775855246456209395,5.867201,2.459822,4.211368
1775855246458370124,5.843273,2.392823,4.115655
1775855246460530801,5.857630,2.335395,3.962514
1775855246462691531,5.924629,2.268396,3.842873
1775855246464852260,6.039485,2.244468,3.684947
1775855246467012937,6.211768,2.225325,3.555734
1775855246469173614,6.388836,2.215754,3.416951
1775855246471334343,6.441479,2.206182,3.349952
1775855246473495020,6.379265,2.201397,3.282953
1775855246475655749,6.178268,2.206182,3.259024
1775855246477816426,5.958128,2.249253,3.311666
1775855246479977156,5.781060,2.354537,3.397808
1775855246482137833,5.666204,2.478964,3.483950
1775855246484298562,5.642276,2.617748,3.570091
1775855246486459239,5.666204,2.766103,3.637090
1775855246488619968,5.699704,2.933601,3.723232
1775855246490780645,5.819345,3.072384,3.804588
1775855246492941374,5.915058,3.215954,3.804588
1775855246495102051,6.025127,3.340380,3.790231
1775855246497262781,6.178268,3.455236,3.723232
1775855246499423458,6.321837,3.570091,3.617948
1775855246501584187,6.446264,3.665804,3.503092
1775855246503744864,6.561120,3.737589,3.340380
1775855246505905541,6.618547,3.804588,3.239882
1775855246508066270,6.642476,3.857230,3.187240
1775855246510226947,6.637690,3.852444,3.120241
1775855246512387676,6.661618,3.838088,3.043670
1775855246514548353,6.709475,3.795017,2.857030
1775855246516709083,6.747760,3.766303,2.646462
1775855246518869760,6.795616,3.694518,2.450250
1775855246521030489,6.867401,3.603591,2.277967
1775855246523191166,6.934400,3.522235,2.072184
1775855246525351895,7.034899,3.450450,1.847259
1775855246527512572,7.121040,3.354737,1.617548
1775855246529673249,7.207182,3.287738,1.416551
1775855246531833978,7.255038,3.192025,1.196411
1775855246533994708,7.293324,3.067599,1.024128
1775855246536155385,7.255038,2.928815,0.899701
1775855246538316062,7.159325,2.732604,0.880559
1775855246540476791,7.063612,2.550749,0.827917
1775855246542637520,6.977471,2.392823,0.756132
1775855246544798197,6.920043,2.234896,0.641276
1775855246546958874,6.857830,2.120041,0.507278
1775855246549119603,6.857830,2.019542,0.378066
1775855246551280281,6.862615,1.986043,0.177069
1775855246553441010,6.905686,2.024328,0.047856
1775855246555601739,6.915257,2.038685,-0.043071
1775855246557762416,6.939186,2.105684,-0.086142
1775855246559923093,6.958328,2.191826,-0.086142
1775855246562083822,6.991828,2.273181,-0.038285
1775855246564244499,7.020542,2.378466,-0.038285
1775855246566405228,7.044470,2.507678,0.004786
1775855246568565906,7.058827,2.627319,0.052642
1775855246570726635,7.073184,2.732604,0.143569
1775855246572886895,7.073184,2.842673,0.234497
1775855246575048666,7.020542,2.967100,0.382852
1775855246577213249,6.958328,3.101098,0.593420
1775855246579369447,6.896115,3.263810,0.765703
1775855246581530124,6.824330,3.436093,0.985843
1775855246583690801,6.776474,3.646662,1.196411
1775855246585851531,6.771688,3.866802,1.397408
1775855246588012208,6.786045,4.096512,1.612762
1775855246590172937,6.771688,4.297510,1.813760
1775855246592333666,6.766902,4.479364,1.990828
1775855246594494343,6.762117,4.637290,2.182254
1775855246596655072,6.747760,4.785645,2.349752
1775855246598815749,6.742974,4.929214,2.522035
1775855246600976426,6.733403,5.039285,2.713461
1775855246603137156,6.680761,5.158926,3.024528
1775855246605297833,6.580262,5.245067,3.402594
1775855246607458562,6.474978,5.312066,3.761517
1775855246609619239,6.350551,5.350351,4.010371
1775855246611779916,6.221339,5.417350,4.163511
1775855246613940645,6.101698,5.493921,4.096512
1775855246616101374,6.034698,5.599205,3.914658
1775855246618262051,6.029913,5.733203,3.622734
1775855246620422781,6.101698,5.857630,3.297310
1775855246622583458,6.183053,5.972486,2.995814
1775855246624744135,6.273981,6.049056,2.727818
1775855246626904864,6.336195,6.039485,2.780460
1775855246629065541,6.340980,5.934200,2.981457
1775855246631226270,6.350551,5.843273,3.206382
1775855246633386999,6.374479,5.742774,3.383451
1775855246635547676,6.479764,5.656633,3.416951
1775855246637708353,6.589834,5.570491,3.311666
1775855246639869083,6.704689,5.465207,3.014956
1775855246642029812,6.814759,5.359923,2.517249
1775855246644190489,6.881758,5.192425,1.957329
1775855246646351218,6.876972,5.024928,1.435694
1775855246648511895,6.809973,4.790431,0.995414
1775855246650672572,6.776474,4.560720,0.574277
1775855246652833301,6.714260,4.345366,0.277567
1775855246654993978,6.656833,4.130012,0.066999
1775855246657154708,6.628119,3.933800,-0.043071
1775855246659315385,6.613762,3.751946,0.000000
1775855246661476114,6.671189,3.637090,0.110070
1775855246663636791,6.766902,3.531806,0.267996
1775855246665797520,6.881758,3.450450,0.406780
1775855246667958197,7.010970,3.388237,0.468993
1775855246670118874,7.168897,3.316452,0.492921
1775855246672279603,7.350751,3.249453,0.440279
1775855246674440281,7.551748,3.192025,0.334995
1775855246676601010,7.752745,3.172883,0.239282
1775855246678761739,7.977671,3.201597,0.133998
1775855246680922416,8.236095,3.306881,0.028714
1775855246683083093,8.456235,3.426522,-0.043071
1775855246685243822,8.657232,3.584448,-0.052642
1775855246687404499,8.786445,3.718446,-0.028714
1775855246689565228,8.891729,3.828516,0.028714
1775855246691725906,9.044869,3.972085,0.033500
1775855246693886635,9.131011,4.082155,-0.004786
1775855246696047312,9.140582,4.149155,0.047856
1775855246698208041,9.054440,4.187439,0.234497
1775855246700368718,8.953942,4.216154,0.378066
1775855246702529447,8.934800,4.283153,0.397209
1775855246704690124,8.944371,4.340580,0.330210
1775855246706850853,8.982656,4.398008,0.215354
1775855246709011531,8.997013,4.450650,0.133998
1775855246711172260,9.025727,4.498507,0.090927
1775855246713332937,9.116654,4.541577,-0.028714
1775855246715493614,9.217153,4.575077,-0.119641
1775855246717654343,9.274581,4.570291,-0.057428
1775855246719815072,9.346365,4.555934,-0.014357
1775855246721975749,9.451650,4.541577,-0.100499
1775855246724136426,9.561719,4.512864,-0.200997
1775855246726297156,9.643075,4.479364,-0.282353
1775855246728457833,9.686146,4.450650,-0.373280
1775855246730618562,9.729217,4.431508,-0.497707
1775855246732779239,9.810573,4.445865,-0.598206
1775855246734939968,9.872787,4.465007,-0.655633
1775855246737100645,9.954143,4.479364,-0.679562
1775855246739261374,9.963714,4.493721,-0.598206
1775855246741422051,9.963714,4.517649,-0.411565
1775855246743582781,9.896714,4.560720,-0.205783
1775855246745743458,9.748360,4.594220,-0.038285
1775855246747904187,9.628718,4.637290,0.114855
1775855246750064864,9.533006,4.646862,0.244068
1775855246752225593,9.466006,4.675575,0.296710
1775855246754386270,9.365508,4.699504,0.325424
1775855246756546999,9.293723,4.752146,0.210568
1775855246758707676,9.245867,4.857430,0.167498
1775855246760868406,9.221938,5.015356,0.210568
1775855246763029083,9.226724,5.225924,0.244068
1775855246765189812,9.221938,5.407779,0.239282
1775855246767350489,9.245867,5.570491,0.263211
1775855246769511218,9.279366,5.737988,0.401994
1775855246771671895,9.351151,5.881558,0.440279
1775855246773832572,9.432507,6.034698,0.291924
1775855246775993301,9.556933,6.226124,0.148355
1775855246778153978,9.690931,6.407979,0.100499
1775855246780314708,9.858429,6.613762,0.004786
1775855246782475385,9.939785,6.805188,-0.244068
1775855246784636114,9.992428,6.987042,-0.387637
1775855246786796791,10.040284,7.221539,-0.459422
1775855246788957520,10.126426,7.451250,-0.512064
1775855246791118249,10.179068,7.704889,-0.531207
1775855246793278926,10.202995,7.992028,-0.483350
1775855246795439603,10.207782,8.298309,-0.392423
1775855246797600333,10.188639,8.623733,-0.320638
1775855246799761010,10.078569,8.920443,-0.267996
1775855246801921739,9.868001,9.169296,-0.095713
1775855246804082416,9.686146,9.370294,0.124427
1775855246806243145,9.375079,9.509077,0.425922
1775855246808403822,9.030513,9.623933,0.770489
1775855246810564551,8.681161,9.743574,0.971486
1775855246812725228,8.379665,9.868001,1.119841
1775855246814885958,8.130812,10.006784,1.263410
1775855246817046635,7.901100,10.140782,1.406980
1775855246819207312,7.685746,10.246066,1.497907
1775855246821368041,7.513463,10.308280,1.497907
1775855246823528770,7.398608,10.317851,1.421337
1775855246825689447,7.369894,10.289138,1.272982
1775855246827850176,7.389036,10.193424,1.138984
1775855246830010853,7.479964,10.068997,1.019342
1775855246832171583,7.580462,9.906285,0.918844
1775855246834332260,7.676175,9.719646,0.832702
1775855246836492989,7.757531,9.499506,0.851845
1775855246838653666,7.877172,9.293723,0.866202
1775855246840814395,7.996813,9.111869,0.918844
1775855246842980489,8.078169,8.949157,1.004985
1775855246845141478,8.126026,8.776874,1.038485
1775855246847314447,8.130812,8.642876,1.071985
1775855246849487416,8.078169,8.518449,1.134198
1775855246851622156,7.987242,8.389236,1.091127
1775855246853777520,7.939385,9.016156,2.139184
1775855246855938093,7.752745,8.489735,0.933201
1775855246858098718,7.733603,8.417950,0.775275
1775855246860259239,7.776674,8.618947,0.660419
1775855246862419812,7.810173,8.982656,0.598206
1775855246864580333,7.925029,9.619147,0.315853
1775855246866740801,8.068598,10.451849,-0.684347
1775855246868901218,8.236095,10.930414,-1.129412
1775855246871061635,8.437093,11.318051,-1.569692
1775855246873222051,8.685946,11.557333,-1.670190
1775855246875382468,8.858230,11.428121,-1.182054
1775855246877542781,8.824730,10.954342,-0.468993
1775855246879703145,8.781659,10.308280,0.267996
1775855246881863458,8.528020,9.489935,1.057628
1775855246884023770,8.106883,8.709874,1.871187
1775855246886184031,7.853244,8.154739,2.426322
1775855246888344291,7.561319,7.580462,2.727818
1775855246890504551,7.274181,6.963114,3.053242
1775855246892664812,7.006185,6.345766,3.474379
1775855246894825020,6.786045,5.661418,4.149155
1775855246896985228,6.652047,5.240282,5.106284
1775855246899145385,6.738189,5.206782,5.848059
1775855246901305541,6.809973,5.661418,6.259624
1775855246903465697,6.996614,6.833901,6.384051
1775855246905625853,7.465607,7.714460,6.762117
1775855246907785958,8.178668,8.025527,6.685546
1775855246909946114,8.963513,8.054241,6.460621
1775855246912106218,9.475577,8.475378,6.044270
1775855246914266322,9.772287,9.107083,5.474778
1775855246916426426,9.844072,9.662218,4.809574
1775855246918586478,9.815358,9.896714,4.139583
1775855246920746531,9.643075,10.006784,3.613162
1775855246922906583,9.370294,10.241281,3.302095
1775855246925066635,9.020942,10.475778,3.120241
1775855246927226687,8.709874,10.681561,2.962314
1775855246929386687,8.494520,10.839486,2.794817
1775855246931555124,8.303095,10.978271,2.799603
1775855246933728301,8.145168,11.126625,2.895315
1775855246935901426,8.054241,11.231910,2.933601
1775855246938074603,8.006385,11.337193,2.890530
1775855246940247833,8.006385,11.485549,2.876173
1775855246942421010,8.025527,11.633904,2.871387
1775855246944598510,8.015956,11.777473,2.833102
1775855246946759499,8.030313,11.892328,2.861816
1775855246948920489,8.212168,11.959328,2.737389
1775855246951117208,8.322237,12.016755,2.804388
1775855246953288770,8.437093,11.964113,2.708675
1775855246955462520,8.566305,11.748759,2.699104
1775855246957636270,8.652447,11.538191,2.718246
1775855246959809968,8.781659,11.303694,2.502892
1775855246962026583,8.949157,10.978271,2.469393
1775855246964217051,9.164511,10.633704,2.316252
1775855246966376999,9.389436,10.236495,2.244468
1775855246968537312,9.585648,9.762716,2.234896
1775855246970697728,9.777073,9.298509,2.210968
1775855246972858249,9.930214,8.882157,2.105684
1775855246975018874,10.049855,8.532805,1.986043
1775855246977181687,10.088140,8.092526,1.976472
1775855246979340281,10.097712,7.628319,1.981257
1775855246981500958,10.107283,7.125826,1.852045
1775855246983661687,10.145568,6.690332,1.579263
1775855246985822364,10.179068,6.149554,1.507478
1775855246987983093,10.169497,5.575277,1.488336
1775855246990143822,10.174282,5.125426,1.430908
1775855246992304499,10.207782,4.761717,1.177269
1775855246994465228,10.222138,4.393222,0.947558
1775855246996625906,10.202995,4.010371,0.856631
1775855246998786583,10.164711,3.536592,0.894916
1775855247000947312,10.131211,3.110669,0.942772
1775855247003108041,10.083355,2.794817,0.885344
1775855247005268718,10.068997,2.608177,0.598206
1775855247007429395,10.040284,2.555535,0.191426
1775855247009590124,9.997213,2.545963,-0.296710
1775855247011750801,9.939785,2.550749,-0.780060
1775855247013911531,9.848858,2.474179,-1.076770
1775855247016072208,9.757931,2.383251,-1.325624
1775855247018232937,9.681360,2.139184,-1.560120
1775855247020393614,9.705289,1.818545,-1.804188
1775855247022554343,9.848858,1.335195,-2.057827
1775855247024715020,10.054641,0.928415,-2.273181
1775855247026875749,10.217353,1.119841,-2.493321
1775855247029036426,10.269995,1.622334,-2.670390
1775855247031197103,10.131211,2.005185,-2.665604
1775855247033357833,9.872787,2.225325,-2.560320
1775855247035518510,9.671789,2.574677,-2.579463
1775855247037679239,9.504292,3.259024,-2.756532
1775855247039839916,9.226724,3.986443,-2.770889
1775855247042000645,8.652447,4.613362,-2.579463
1775855247044161322,5.733203,4.603791,-2.474179
1775855247046322051,6.460621,5.819345,0.062213
1775855247048482728,7.925029,7.039684,1.962115
1775855247050643458,9.303294,8.341380,0.923630
1775855247052804135,9.408579,8.666803,-0.717847
1775855247054964864,9.413364,8.714660,-2.129612
1775855247057125541,9.442079,8.853444,-3.101098
1775855247059286270,9.351151,8.982656,-3.412165
1775855247061446947,9.097511,9.006584,-3.287738
1775855247063607624,8.743374,8.944371,-2.938386
1775855247065768353,8.331808,8.901300,-2.378466
1775855247067929083,7.968100,8.882157,-1.823331
1775855247070089760,7.652247,8.858230,-1.316052
1775855247072250489,7.398608,8.834301,-0.985843
1775855247074411166,7.144969,8.776874,-0.818345
1775855247076571895,7.001399,8.709874,-0.770489
1775855247078732572,6.958328,8.638090,-0.765703
1775855247080893301,7.039684,8.623733,-0.870987
1775855247083053978,7.149754,8.618947,-0.947558
1775855247085214708,7.245467,8.618947,-1.076770
1775855247087375385,7.317252,8.623733,-1.162912
1775855247089536062,7.322037,8.623733,-1.205983
1775855247091696791,7.245467,8.618947,-1.220340
1775855247093857520,7.097112,8.585447,-1.177269
1775855247096018197,6.967899,8.504091,-1.191626
1775855247098178926,6.905686,8.417950,-1.282553
1775855247100339603,6.790831,8.322237,-1.186840
1775855247102500333,6.479764,8.269595,-1.048056
1775855247104661010,6.063413,8.269595,-0.995414
1775855247106821687,5.651847,8.288737,-0.971486
1775855247108982416,5.350351,8.370093,-1.014557
1775855247111143093,5.197211,8.437093,-1.091127
1775855247113303822,5.134997,8.470592,-1.244268
1775855247115464499,5.101498,8.494520,-1.411765
1775855247117625228,5.024928,8.628518,-1.746760
1775855247119785906,4.895715,8.671589,-2.024328
1775855247121946635,4.709075,8.518449,-1.550549
1775855247124107312,4.579863,8.312666,-0.981057
1775855247126268041,4.584648,8.092526,-0.540778
1775855247128428718,4.713861,7.934600,-0.320638
1775855247130589447,4.967500,7.829316,-0.234497
1775855247132750124,5.216353,7.676175,-0.186640
1775855247134910801,5.412565,7.489535,-0.148355
1775855247137071531,5.556134,7.307680,-0.105284
1775855247139232208,5.647061,7.121040,-0.038285
1775855247141392937,5.704489,6.967899,0.081356
1775855247143553666,5.704489,6.843473,0.124427
1775855247145714343,5.690132,6.747760,0.143569
1775855247147875020,5.718846,6.628119,0.220140
1775855247150035749,5.776274,6.570691,0.320638
1775855247152196478,5.891129,6.484550,0.416351
1775855247154357156,6.077769,6.479764,0.449851
1775855247156517885,6.264410,6.489335,0.368495
1775855247158678562,6.398408,6.422336,0.267996
1775855247160839239,6.474978,6.331409,0.258425
1775855247162999968,6.489335,6.206982,0.344566
1775855247165160645,6.465407,6.077769,0.440279
1775855247167321374,6.446264,5.982057,0.545564
1775855247169482051,6.474978,5.905486,0.440279
1775855247171642781,6.580262,5.871987,0.124427
1775855247173803510,6.814759,5.967700,-0.253639
1775855247175964187,6.742974,5.871987,-0.569492
1775855247178124864,6.762117,5.809773,-0.736989
1775855247180285593,6.752545,5.718846,-0.870987
1775855247182446270,6.374479,4.321438,-1.028914
1775855247184606999,6.250053,4.450650,-0.665205
1775855247186767676,6.494121,4.637290,-1.306481
1775855247188928406,7.006185,5.149354,-1.914258
1775855247191089083,7.369894,5.627919,-2.053042
1775855247193249812,7.542177,5.771488,-1.904687
1775855247195410489,7.010970,3.742375,-0.086142
1775855247197571166,6.953543,3.397808,0.157926
1775855247199731895,7.159325,3.316452,-0.995414
1775855247201892624,7.436893,3.326024,-1.952543
1775855247204053301,7.647461,3.416951,-2.129612
1775855247206214031,7.819745,3.388237,-2.344966
1775855247208374708,7.910672,3.292524,-2.230111
1775855247210535385,7.987242,3.306881,-2.043471
1775855247212696114,8.011170,3.412165,-1.789831
1775855247214856791,8.049456,3.565306,-1.430908
1775855247217017520,8.054241,3.656233,-1.100698
1775855247219178197,7.948957,3.579663,-0.861416
1775855247221338926,7.891529,3.570091,-0.660419
1775855247223499603,7.848458,3.555734,-0.492921
1775855247225660281,7.843673,3.527021,-0.382852
1775855247227821010,7.920243,3.493521,-0.282353
1775855247229981739,7.972885,3.570091,-0.239282
1775855247232142416,7.992028,3.560520,-0.038285
1775855247234303145,8.068598,3.632305,-0.033500
1775855247236463822,8.126026,3.871587,-0.105284
1775855247238624551,8.183454,4.110869,-0.119641
1775855247240785228,8.298309,4.307081,-0.253639
1775855247242945958,8.422736,4.579863,-0.325424
1775855247245106635,8.465807,4.981857,-0.401994
1775855247247267312,8.504091,5.374279,-0.411565
1775855247249428041,8.494520,5.728417,-0.502493
1775855247251588718,8.551949,6.183053,-0.751346
1775855247253749447,8.269595,6.829116,-0.904487
1775855247255910176,8.082955,7.776674,-1.134198
1775855247258070853,7.743174,9.255438,-1.488336
1775855247260231583,7.905886,10.198210,-1.866402
1775855247262392260,7.063612,11.045269,-1.722832
1775855247264552937,6.221339,11.763116,-1.464407
1775855247266713666,5.230711,12.495320,-1.024128
1775855247268874343,4.661219,12.782458,-0.473779
1775855247271035072,5.201996,11.217552,0.205783
1775855247273195801,3.287738,10.083355,1.741975
1775855247275356478,2.837888,9.561719,3.364309
1775855247277517208,2.837888,9.188439,4.316652
1775855247279677885,2.938386,9.150154,4.431508
1775855247281838562,3.254239,9.059227,4.297510
1775855247283999291,3.675375,8.973084,3.967300
1775855247286159968,4.225725,8.867801,3.416951
1775855247288320697,4.996214,8.724232,2.732604
1775855247290481374,5.833702,8.465807,2.057827
1775855247292642103,6.608976,8.346166,1.277767
1775855247294802781,7.422536,8.173882,0.607777
1775855247296963510,8.126026,8.015956,-0.028714
1775855247299124187,8.834301,7.891529,-0.818345
1775855247301284916,9.523434,7.724031,-1.866402
1775855247303445593,9.958928,7.628319,-3.799802
1775855247305606322,9.958928,7.762317,-6.920043
1775855247307766999,10.284351,7.824530,-8.255239
1775855247309927676,10.920842,7.652247,-6.939186
1775855247312088406,10.887343,7.278966,-5.283352
1775855247314249135,10.624132,6.996614,-3.732803
1775855247316409812,10.198210,6.719046,-2.569891
1775855247318570541,9.595219,6.503692,-0.957129
1775855247320731218,8.805588,6.551548,0.760918
1775855247322891895,7.791030,7.068398,3.412165
1775855247325052624,6.565906,7.767102,5.943771
1775855247327213301,5.302495,8.551949,7.657032
1775855247329374031,4.115655,9.279366,8.738588
1775855247331534708,3.148955,9.848858,9.451650
1775855247333695385,2.512464,10.155139,9.690931
1775855247335856114,1.861616,10.327422,9.346365
1775855247338016843,1.311267,10.470992,8.992228
1775855247340177520,0.842274,10.609776,8.547162
1775855247342338249,0.421137,10.748559,7.881958
1775855247344498926,0.330210,10.772488,7.154540
1775855247346659656,0.473779,10.595419,6.226124
1775855247348820333,0.598206,10.413564,5.259424
1775855247350981062,0.751346,10.341780,4.522435
1775855247353141739,0.957129,10.279566,3.885944
1775855247355302468,1.186840,10.313066,3.388237
1775855247357463145,1.440479,10.427921,3.053242
1775855247359623822,1.665405,10.552348,2.833102
1775855247361784551,1.962115,10.681561,2.684747
1775855247363945228,2.268396,10.753345,2.589034
1775855247366105958,2.574677,10.815558,2.560320
1775855247368266687,2.857030,10.872986,2.502892
1775855247370427364,3.153740,10.844273,2.517249
1775855247372588093,3.464807,10.753345,2.526821
1775855247374748770,3.708875,10.743773,2.584249
1775855247376909447,4.039084,10.810773,2.699104
1775855247379070176,4.354937,10.849058,2.895315
1775855247381230853,4.541577,10.360922,3.072384
1775855247383391583,4.627719,9.561719,3.268596
1775855247385552260,4.661219,8.829515,3.421736
1775855247387712989,4.685147,8.317451,3.421736
1775855247389873666,4.680361,7.719246,3.469593
1775855247392034395,4.666004,7.451250,3.455236
1775855247394195072,4.742575,7.652247,2.938386
1775855247396355801,4.785645,7.570891,2.656033
1775855247398516478,4.737789,7.676175,2.297110
1775855247400677156,4.579863,7.762317,1.818545
1775855247402837885,4.532006,7.795816,1.344766
1775855247404998614,4.823930,7.652247,1.105484
1775855247407159291,4.809574,6.929615,1.004985
1775855247409319968,4.895715,6.939186,0.847059
1775855247411480697,4.957929,7.068398,0.660419
1775855247413641374,5.187640,7.010970,0.349352
1775855247415802103,5.235496,7.389036,0.023928
1775855247417962781,5.364708,7.786245,-0.253639
1775855247420123510,5.551349,8.111669,-0.516850
1775855247422284187,5.781060,8.379665,-0.713061
1775855247424444916,6.197411,8.231310,-0.866202
1775855247426605593,6.508478,7.647461,-0.952343
1775855247428766322,6.355337,7.575676,-1.062413
1775855247430926999,5.982057,7.302895,-0.966700
1775855247433087728,5.934200,6.695118,-0.961915
1775855247435248406,5.996414,6.326623,-0.861416
1775855247437409135,6.092126,6.460621,-0.847059
1775855247439569812,6.216553,6.580262,-0.818345
1775855247441730541,6.393622,6.795616,-0.775275
1775855247443891218,6.460621,7.063612,-0.923630
1775855247446051947,6.541977,7.422536,-1.205983
1775855247448212624,6.742974,7.594819,-1.014557
1775855247450373301,7.082755,7.843673,-1.028914
1775855247452534031,7.465607,8.135597,-1.153340
1775855247454694760,7.743174,8.413164,-1.239482
1775855247456855437,7.901100,8.609376,-1.129412
1775855247459016114,8.020741,8.666803,-0.899701
1775855247461176843,8.063812,8.709874,-0.593420
1775855247463337520,7.982456,8.705089,-0.244068
1775855247465498249,7.853244,8.599805,0.138784
1775855247467658978,7.652247,8.513663,0.521635
1775855247469819656,7.398608,8.413164,0.832702
1775855247471980385,7.092326,8.327023,1.062413
1775855247474141062,6.719046,8.269595,1.272982
1775855247476301739,6.379265,8.178668,1.473979
1775855247478462468,6.025127,8.202596,1.574477
1775855247480623197,5.699704,8.212168,1.732404
1775855247482783874,5.402994,8.164310,1.808974
1775855247484944551,5.087141,8.164310,1.880759
1775855247487105281,4.733003,8.231310,1.866402
1775855247489266010,4.335794,8.255239,1.770689
1775855247491426687,3.905087,8.236095,1.607977
1775855247493587364,3.498307,8.226524,1.440479
1775855247495748093,3.153740,8.173882,1.387837
1775855247497908770,2.857030,8.188239,1.296910
1775855247500069499,2.689533,8.197810,1.392623
1775855247502230176,2.617748,8.236095,1.660619
1775855247504390853,2.627319,8.312666,1.981257
1775855247506551583,2.656033,8.403593,2.292324
1775855247508712312,2.603391,8.389236,2.464607
1775855247510872989,2.598605,8.456235,2.641676
1775855247513033718,2.598605,8.580662,2.689533
1775855247515194395,2.593820,8.719446,2.766103
1775855247517355124,2.531606,8.853444,2.746960
1775855247519515801,2.440679,8.992228,2.751746
1775855247521676478,2.373680,9.087940,2.718246
1775855247523837208,2.268396,9.092726,2.536392
1775855247525997885,2.134398,9.140582,2.239682
1775855247528158614,1.871187,8.848659,1.990828
1775855247530319291,1.808974,8.743374,1.813760
1775855247532480020,1.952543,8.992228,1.794617
1775855247534640697,2.081756,9.226724,1.799403
1775855247536801426,2.134398,9.422935,1.818545
1775855247538962103,2.163112,9.547362,1.804188
1775855247541122833,2.206182,9.676575,1.722832
1775855247543283510,2.220539,9.767502,1.708475
1775855247545444239,2.177469,9.805787,1.665405
1775855247547604916,2.143969,9.863214,1.703690
1775855247549765645,2.120041,9.930214,1.761117
1775855247551926322,2.053042,10.001999,1.914258
1775855247554087051,1.928615,10.126426,2.062613
1775855247556247728,1.804188,10.164711,2.148755
1775855247558408406,1.703690,10.179068,2.100898
1775855247560569135,1.550549,10.145568,1.938186
1775855247562729812,1.406980,10.112068,1.770689
1775855247564890541,1.162912,10.241281,1.550549
1775855247567051270,0.995414,10.380065,1.292124
1775855247569211947,1.172483,10.241281,1.091127
1775855247571372676,1.665405,10.045070,0.832702
1775855247573533353,2.225325,9.872787,0.684347
1775855247575694083,2.656033,9.643075,0.626920
1775855247577854760,2.981457,9.437292,0.636491
1775855247580015437,3.220739,9.255438,0.722632
1775855247582176166,3.316452,9.092726,0.847059
1775855247584336843,3.302095,8.953942,0.928415
1775855247586497572,3.268596,8.877372,0.961915
1775855247588658249,3.196811,8.848659,1.024128
1775855247590818978,3.201597,8.853444,1.081556
1775855247592979708,3.211168,8.910872,1.153340
1775855247595140385,3.273381,9.001799,1.177269
1775855247597301062,3.259024,9.035298,1.186840
1775855247599461791,2.756532,8.796016,1.076770
1775855247601622520,1.852045,8.437093,0.928415
1775855247603783145,1.354338,8.193025,0.794417
1775855247605943874,1.445265,7.910672,0.875773
1775855247608104603,1.689333,7.259824,1.086342
1775855247610265281,2.096113,6.690332,1.263410
1775855247612425958,2.598605,6.168697,1.497907
1775855247614586687,3.273381,5.613562,1.598405
1775855247616747364,3.440879,5.268995,1.454836
1775855247618908093,3.349952,5.292923,1.411765
1775855247621068822,3.555734,5.230711,1.469193
1775855247623229551,3.728018,5.417350,1.622334
1775855247625390176,3.531806,5.876772,1.871187
1775855247627550906,3.215954,6.474978,2.043471
1775855247629711635,2.991028,7.054041,2.282753
1775855247631872312,2.847459,7.599605,2.493321
1775855247634033041,2.794817,8.059027,2.660819
1775855247636193718,2.828316,8.417950,2.761317
1775855247638354395,2.952743,8.796016,2.775674
1775855247640515124,3.120241,9.073584,2.723032
1775855247642675801,3.326024,9.303294,2.622534
1775855247644836531,3.498307,9.442079,2.493321
1775855247646997208,3.646662,9.552148,2.330609
1775855247649157937,3.785445,9.600004,2.191826
1775855247651318614,3.919444,9.566504,2.139184
1775855247653479291,3.962514,9.533006,2.100898
1775855247655640072,3.943372,9.547362,2.029114
1775855247657800749,3.900301,9.556933,2.038685
1775855247659961426,3.814159,9.523434,2.124826
1775855247662122156,3.675375,9.442079,2.234896
1775855247664282833,3.455236,9.389436,2.306681
1775855247666443562,3.196811,9.303294,2.349752
1775855247668604239,2.895315,9.174082,2.368894
1775855247670764968,2.560320,9.040084,2.388037
1775855247672925645,2.239682,8.786445,2.311467
1775855247675086374,2.062613,8.537591,2.239682
1775855247677247051,1.909472,8.374879,2.536392
1775855247679407781,1.746760,8.207381,2.866601
1775855247681568458,1.588834,8.035098,2.976671
1775855247683729135,1.536192,7.776674,2.938386
1775855247685889864,1.469193,7.585248,2.708675
1775855247688050593,1.507478,7.432107,2.517249
1775855247690211270,1.555335,7.269395,2.287539
1775855247692371947,1.636691,7.226325,1.995614
1775855247694532676,1.679762,7.087541,1.856830
1775855247696693406,1.612762,7.020542,1.775474
1775855247698854083,1.426122,6.900900,1.875973
1775855247701014812,1.172483,6.766902,2.053042
1775855247703175489,0.928415,6.570691,2.354537
1775855247705336218,0.655633,6.503692,2.598605
1775855247707496895,0.421137,6.417551,2.785246
1775855247709657624,0.263211,6.340980,2.890530
1775855247711818301,0.205783,6.254838,2.823531
1775855247713978978,0.282353,6.149554,2.478964
1775855247716139708,0.464208,6.068198,2.105684
1775855247718300385,0.660419,6.001199,1.727618
1775855247720461114,0.818345,5.977271,1.392623
1775855247722621791,0.923630,5.919843,1.201197
1775855247724782520,0.923630,5.800202,1.009771
1775855247726943197,0.851845,5.493921,0.665205
1775855247729103926,0.531207,4.766503,-0.133998
1775855247731264603,0.306281,4.292724,-0.492921
1775855247733425333,0.330210,4.689932,-0.349352
1775855247735586010,0.224925,4.943572,-0.057428
1775855247737746739,-0.133998,4.986642,0.129212
1775855247739907416,-0.459422,5.283352,0.349352
1775855247742068145,-0.679562,5.656633,0.349352
1775855247744228822,-0.660419,6.025127,0.253639
1775855247746389551,-0.473779,6.369694,0.445065
1775855247748550228,-0.177069,6.144769,0.842274
1775855247750710958,0.038285,5.374279,1.383052
1775855247752871635,0.105284,4.326223,2.148755
1775855247755032312,0.167498,3.531806,2.943172
1775855247757193041,0.110070,3.359523,3.641876
1775855247759353770,0.086142,3.651447,4.378865
1775855247761514447,0.282353,4.287938,4.704289
1775855247763675124,0.689133,5.173283,4.790431
1775855247765835853,1.191626,5.828916,4.642076
1775855247767996531,1.588834,6.331409,4.364509
1775855247770157260,1.895115,6.790831,4.091727
1775855247772317937,2.191826,7.436893,3.933800
1775855247774478666,2.445465,7.925029,3.871587
1775855247776639343,2.517249,8.121240,3.747160
1775855247778800072,2.464607,8.236095,3.646662
1775855247780960749,2.383251,8.331808,3.728018
1775855247783121478,2.172683,8.374879,3.728018
1775855247785282156,1.952543,8.551949,3.651447
1775855247787442885,1.665405,8.681161,3.393023
1775855247789603562,1.473979,8.886943,3.062813
1775855247791764291,1.320838,9.183653,3.168097
1775855247793924968,1.249053,9.604790,3.259024
1775855247796085697,1.205983,9.906285,3.177669
1775855247798246426,1.158126,9.944571,2.876173
1775855247800407103,1.134198,10.068997,2.732604
1775855247802567781,1.091127,10.116854,2.550749
1775855247804728510,1.000200,9.949356,2.455036
1775855247806889187,0.823131,9.623933,2.076970
1775855247809049916,0.602991,9.442079,1.780260
1775855247811210593,0.311067,9.250652,1.569692
1775855247813371322,0.009571,9.126225,1.531407
1775855247815531999,-0.253639,9.087940,1.459622
1775855247817692728,-0.382852,9.217153,1.464407
1775855247819853406,-0.397209,9.394221,1.660619
1775855247822014135,-0.210568,9.619147,1.880759
1775855247824174812,-0.004786,9.834501,2.072184
1775855247826335541,0.157926,10.131211,2.517249
1775855247828496218,0.315853,10.403993,2.967100
1775855247830656947,0.378066,10.604990,3.393023
1775855247832817624,0.416351,10.887343,3.876373
1775855247834978353,-0.047856,10.805987,4.441079
1775855247837139031,-0.196211,11.026127,4.484149
1775855247839299760,-0.114855,11.251052,4.737789
1775855247841460437,0.129212,11.538191,4.637290
1775855247843621166,0.598206,11.935399,4.867001
1775855247845781843,0.995414,12.327823,5.067998
1775855247847942520,1.244268,12.744173,5.216353
1775855247850103249,1.416551,13.074383,5.091927
1775855247852263978,1.483550,13.256237,4.819145
1775855247854424656,1.598405,13.414164,4.555934
1775855247856585385,1.761117,13.533805,4.465007
1775855247858746062,1.909472,13.734802,4.536792
1775855247860906739,1.990828,13.811373,4.354937
1775855247863067468,1.942972,13.691731,4.307081
1775855247865228197,1.928615,13.438092,4.436293
1775855247867388874,1.785046,13.117454,4.709075
1775855247869549551,1.718047,12.705888,4.996214
1775855247871710281,1.349552,12.055040,4.924429
1775855247873870958,0.976272,11.552547,4.938786
1775855247876031687,0.780060,11.059627,4.914858
1775855247878192364,0.684347,10.346565,4.943572
1775855247880353093,-0.267996,8.839087,4.177868
1775855247882513770,-1.210768,7.513463,3.378666
1775855247884674499,-1.387837,6.604190,3.369094
1775855247886835176,-1.048056,6.178268,3.416951
1775855247888995906,-0.736989,6.379265,4.048656
1775855247891156583,0.148355,7.609176,4.646862
1775855247893317312,1.220340,9.360723,5.737988
1775855247895477989,2.143969,10.978271,6.278767
1775855247897638718,2.842673,12.447463,6.738189
1775855247899799447,3.407379,13.792230,7.087541
1775855247901960124,3.996014,15.194424,6.910472
1775855247904120801,4.393222,16.228123,6.484550
1775855247906281531,5.120640,17.649460,5.704489
1775855247908442208,5.982057,19.511076,5.589633
1775855247910602885,6.312266,20.023140,4.354937
1775855247912763614,6.273981,19.865213,2.770889
1775855247914924291,6.345766,19.621145,1.665405
1775855247917085020,6.139983,18.898514,1.110270
1775855247919245749,5.589633,17.577675,0.492921
1775855247921406426,5.063213,15.854843,0.440279
1775855247923567156,4.426722,14.132010,0.837488
1775855247925727833,3.785445,12.581462,1.196411
1775855247927888562,3.139383,11.136196,1.569692
1775855247930049239,2.641676,10.231709,1.966900
1775855247932209916,2.354537,9.518648,2.277967
1775855247934370645,2.263610,9.102298,2.426322
1775855247936531322,2.354537,9.097511,2.531606
1775855247938692051,2.560320,9.260223,2.579463
1775855247940852781,2.656033,9.169296,2.598605
1775855247943013458,2.670390,9.451650,2.684747
1775855247945174135,2.526821,9.657433,2.589034
1775855247947334864,2.273181,9.614362,2.665604
1775855247949495593,2.134398,9.461221,3.000600
1775855247951656270,2.057827,9.107083,3.804588
1775855247953816947,1.741975,8.920443,4.225725
1775855247955977624,1.569692,9.126225,4.450650
1775855247958138406,1.464407,8.585447,4.455436
1775855247960299083,1.497907,8.370093,4.316652
1775855247962459760,1.698904,8.059027,4.876573
1775855247964620489,1.277767,8.240881,5.240282
1775855247966781166,0.440279,8.255239,5.661418
1775855247968941895,-0.837488,8.671589,5.393422
1775855247971102624,-1.612762,8.585447,4.924429
1775855247973263301,-1.660619,8.355737,4.455436
1775855247975423978,-1.445265,8.149954,4.067799
1775855247977584708,-1.383052,7.944171,3.699304
1775855247979745437,-1.612762,7.757531,3.431308
1775855247981906114,-2.033899,7.618747,3.263810
1775855247984066843,-2.565106,7.484749,3.105884
1775855247986227520,-3.105884,7.379465,2.909672
1775855247988388197,-3.483950,7.393822,2.818745
1775855247990548926,-3.785445,7.408179,2.919244
1775855247992709603,-4.177868,7.652247,2.986243
1775855247994870333,-4.359723,7.719246,3.067599
1775855247997031010,-4.249653,7.570891,2.885744
1775855247999191739,-4.460221,7.590034,2.742175
1775855248001352468,-4.699504,7.853244,2.780460
1775855248003513145,-4.637290,7.125826,2.502892
1775855248005673822,-4.804788,7.030113,2.579463
1775855248007834551,-5.158926,7.633104,2.325824
1775855248009995228,-5.149354,7.499106,2.024328
1775855248012155958,-5.560920,8.006385,2.038685
1775855248014316635,-5.757131,8.389236,1.962115
1775855248016477312,-5.374279,8.097312,1.584049
1775855248018638041,-5.058427,7.642675,1.148555
1775855248020798770,-5.106284,7.982456,0.875773
1775855248022959447,-5.230711,8.360522,0.626920
1775855248025120176,-5.178068,8.532805,0.320638
1775855248027280853,-5.163711,8.839087,0.043071
1775855248029441583,-5.288138,9.446864,-0.095713
1775855248031602260,-5.034499,10.523634,0.435494
1775855248033762989,-4.244867,11.868401,0.717847
1775855248035923666,-3.531806,11.533405,0.287139
1775855248038084395,-2.852245,10.509277,0.488136
1775855248040245072,-2.478964,10.447063,1.813760
1775855248042405801,-2.512464,10.025927,2.014757
1775855248044566478,-2.608177,9.470792,2.158326
1775855248046727208,-2.675176,9.317652,2.029114
1775855248048887885,-2.737389,9.389436,2.033899
1775855248051048614,-2.579463,9.537791,2.220539
1775855248053209291,-2.335395,9.394221,2.627319
1775855248055370020,-2.182254,9.403793,3.062813
1775855248057530697,-2.005185,9.504292,3.450450
1775855248059691426,-1.866402,9.274581,3.589234
1775855248061852103,-1.660619,9.231510,3.694518
1775855248064012833,-1.440479,9.016156,3.866802
1775855248066173510,-1.153340,8.843872,3.919444
1775855248068334239,-0.780060,8.714660,3.996014
1775855248070494916,-0.430708,8.561520,3.986443
1775855248072655645,-0.153141,8.384451,3.895515
1775855248074816322,0.138784,8.279166,3.852444
1775855248076977051,0.244068,8.087741,3.661019
1775855248079137728,1.641476,8.427522,3.536592
1775855248081298458,6.422336,9.083155,3.885944
1775855248083459135,4.685147,8.236095,3.230311
1775855248085619864,2.804388,7.671390,2.684747
1775855248087780541,1.191626,7.456035,2.234896
1775855248089941270,-0.153141,7.436893,1.741975
1775855248092101947,-1.239482,7.513463,1.253839
1775855248094262676,-2.201397,7.747960,0.751346
1775855248096423353,-2.847459,7.886744,0.564706
1775855248098584083,-3.349952,7.939385,0.449851
1775855248100744760,-3.737589,8.111669,0.435494
1775855248102905489,-3.967300,8.250452,0.497707
1775855248105066166,-4.058227,8.398808,0.612563
1775855248107226895,-4.082155,8.547162,0.722632
1775855248109387572,-3.919444,8.528020,0.808774
1775855248111548301,-3.297310,8.331808,0.526421
1775855248113708978,-2.986243,8.800801,0.741775
1775855248115869708,-2.967100,9.131011,1.201197
1775855248118030385,-3.072384,9.470792,1.517050
1775855248120191114,-2.995814,9.537791,1.588834
1775855248122351791,-2.876173,9.638289,1.531407
1775855248124512520,-2.660819,9.891929,1.454836
1775855248126673197,-2.311467,10.116854,1.349552
1775855248128833926,-2.287539,10.035499,1.258625
1775855248130994603,-2.230111,9.777073,1.124627
1775855248133155281,-2.210968,9.705289,1.153340
1775855248135316010,-2.234896,9.690931,1.091127
1775855248137476739,-2.268396,9.638289,1.105484
1775855248139637416,-2.407180,9.667004,1.124627
1775855248141798145,-2.364109,9.777073,1.052842
1775855248143958822,-2.349752,9.724431,1.095913
1775855248146119499,-2.359323,9.652647,1.196411
1775855248148280228,-2.402394,9.633504,1.272982
1775855248150440906,-2.440679,9.667004,1.311267
1775855248152601635,-2.440679,9.710074,1.292124
1775855248154762364,-2.459822,9.714860,1.272982
1775855248156923041,-2.435894,9.676575,1.244268
1775855248159083718,-2.407180,9.643075,1.239482
1775855248161244447,-2.407180,9.600004,1.138984
1775855248163405176,-2.388037,9.556933,1.062413
1775855248165565853,-2.440679,9.556933,0.947558
1775855248167726583,-2.349752,9.140582,0.713061
1775855248169887260,-2.124826,8.283952,0.421137
1775855248172047989,-2.129612,8.690732,0.512064
1775855248174208666,-2.187040,9.040084,0.650848
1775855248176369343,-2.234896,9.341579,0.689133
1775855248178530072,-2.349752,9.643075,0.665205
1775855248180690801,-2.364109,9.868001,0.602991
1775855248182851478,-2.378466,9.810573,0.459422
1775855248185012208,-2.431108,9.734002,0.196211
1775855248187172885,-2.359323,9.595219,0.177069
1775855248189333614,-2.321038,9.466006,0.138784
1775855248191494291,-2.263610,9.442079,0.014357
1775855248193654968,-2.091327,9.489935,-0.038285
1775855248195815697,-2.072184,9.528220,0.071785
1775855248197976426,-2.225325,9.585648,0.148355
1775855248200137103,-2.402394,9.566504,0.200997
1775855248202297833,-2.545963,9.461221,0.215354
1775855248204458510,-2.694318,9.403793,0.229711
1775855248206619239,-2.809174,9.403793,0.191426
1775855248208779916,-2.928815,9.437292,0.114855
1775855248210940645,-2.986243,9.509077,0.043071
1775855248213101322,-3.038885,9.633504,-0.014357
1775855248215261999,-3.048456,9.767502,-0.062213
1775855248217422728,-3.067599,9.868001,-0.081356
1775855248219583458,-2.933601,9.241081,-0.291924
1775855248221744135,-2.785246,9.040084,-0.516850
1775855248223904864,-2.756532,9.997213,-0.186640
1775855248226065541,-2.943172,10.528419,0.062213
1775855248228226270,-3.091527,10.782059,0.162712
1775855248230386947,-3.235096,10.648061,0.186640
1775855248232547624,-3.388237,10.494920,0.210568
1775855248234708353,-3.469593,10.317851,0.191426
1775855248236869083,-3.507878,10.068997,0.229711
1775855248239029760,-3.550949,9.911072,0.186640
1775855248241190489,-3.555734,9.834501,0.167498
1775855248243351166,-3.546163,9.810573,0.133998
1775855248245511895,-3.483950,9.848858,0.105284
1775855248247672572,-3.388237,9.915857,0.110070
1775855248249833249,-3.306881,9.982856,0.114855
1775855248251993978,-3.235096,10.040284,0.129212
1775855248254154656,-3.043670,10.322637,0.224925
1775855248256315385,-2.933601,10.284351,0.277567
1775855248258476114,-3.019742,10.140782,0.196211
1775855248260636791,-3.067599,10.035499,0.153141
1775855248262797520,-3.067599,10.030712,0.071785
1775855248264958197,-3.010171,10.088140,0.047856
1775855248267118926,-2.904887,10.202995,0.033500
1775855248269279603,-2.828316,10.313066,0.019143
1775855248271440333,-2.756532,10.447063,-0.019143
1775855248273601010,-2.675176,10.566705,-0.081356
1775855248275761739,-2.612962,10.705488,-0.129212
1775855248277922468,-2.555535,10.882557,-0.220140
1775855248280083145,-2.517249,11.021341,-0.330210
1775855248282243822,-2.493321,11.188839,-0.430708
1775855248284404551,-2.493321,11.327622,-0.521635
1775855248286565228,-2.493321,11.466406,-0.559920
1775855248288725958,-2.498107,11.562119,-0.535992
1775855248290886635,-2.517249,11.657832,-0.488136
1775855248293047312,-2.526821,11.748759,-0.368495
1775855248295208041,-2.531606,11.796616,-0.186640
1775855248297368770,-2.555535,11.801401,-0.009571
1775855248299529447,-2.560320,11.787045,0.181855
1775855248301690176,-2.574677,11.743974,0.401994
1775855248303850853,-2.593820,11.643475,0.622134
1775855248306011583,-2.603391,11.504691,0.770489
1775855248308172260,-2.612962,11.370693,0.937986
1775855248310332989,-2.622534,11.193624,1.071985
1775855248312493666,-2.617748,11.054841,1.182054
1775855248314654395,-2.574677,10.930414,1.239482
1775855248316815072,-2.493321,10.810773,1.239482
1775855248318975801,-2.426322,10.671989,1.239482
1775855248321136478,-2.335395,10.566705,1.196411
1775855248323297208,-2.268396,10.437492,1.134198
1775855248325457885,-2.134398,10.332209,1.067199
1775855248327618614,-2.038685,10.236495,0.961915
1775855248329779343,-1.919044,10.140782,0.823131
1775855248331940020,-1.818545,10.088140,0.703490
1775855248334100697,-1.708475,10.040284,0.636491
1775855248336261426,-1.660619,9.997213,0.526421
1775855248338422103,-1.584049,9.982856,0.464208
1775855248340582833,-1.512264,9.963714,0.392423
1775855248342743510,-1.464407,9.973285,0.373280
1775855248344904239,-1.416551,9.992428,0.363709
1775855248347064916,-1.392623,10.030712,0.378066
1775855248349225645,-1.368695,10.073783,0.397209
1775855248351386322,-1.335195,10.092926,0.411565
1775855248353547051,-1.296910,10.131211,0.445065
1775855248355707728,-1.272982,10.159925,0.473779
1775855248357868458,-1.244268,10.193424,0.526421
1775855248360029187,-1.215554,10.212567,0.521635
1775855248362189864,-1.158126,10.222138,0.598206
1775855248364350593,-1.119841,10.236495,0.641276
1775855248366511270,-1.062413,10.236495,0.693919
1775855248368671999,-0.995414,10.246066,0.722632
1775855248370832676,-0.914058,10.250853,0.751346
1775855248372993353,-0.823131,10.236495,0.799203
1775855248375154083,-0.746561,10.222138,0.847059
1775855248377314760,-0.622134,10.169497,0.851845
1775855248379475489,-0.507278,10.116854,0.880559
1775855248381636218,-0.368495,10.025927,0.885344
1775855248383796895,-0.239282,9.939785,0.832702
1775855248385957624,-0.100499,9.853643,0.784846
1775855248388118301,0.028714,9.724431,0.713061
1775855248390278978,0.177069,9.600004,0.650848
1775855248392439708,0.334995,9.499506,0.574277
1775855248394600437,0.516850,9.489935,0.550349
1775855248396761114,0.693919,9.499506,0.483350
1775855248398921843,0.894916,9.389436,0.416351
1775855248401082520,1.100698,9.303294,0.473779
1775855248403243249,1.282553,9.231510,0.478565
1775855248405403926,1.421337,9.159725,0.473779
1775855248407564656,1.493121,9.188439,0.339781
1775855248409725333,1.694118,9.020942,0.435494
1775855248411886062,1.866402,8.992228,0.564706
1775855248414046739,2.005185,9.030513,0.540778
1775855248416207416,2.124826,9.049655,0.555135
1775855248418368145,2.230111,9.078369,0.535992
1775855248420528874,2.321038,9.111869,0.507278
1775855248422689551,2.344966,9.135797,0.334995
1775855248424850281,2.421536,9.078369,0.564706
1775855248427010958,2.450250,9.107083,0.665205
1775855248429171687,2.440679,9.116654,0.746561
1775855248431332364,2.426322,9.145369,0.827917
1775855248433493093,2.364109,9.188439,0.952343
1775855248435653770,2.287539,9.236296,1.062413
1775855248437814499,2.220539,9.293723,1.182054
1775855248439975176,2.134398,9.370294,1.330409
1775855248442135906,2.062613,9.461221,1.473979
1775855248444296583,1.986043,9.547362,1.536192
1775855248446457312,1.928615,9.647861,1.713261
1775855248448618041,1.871187,9.762716,1.828117
1775855248450778718,1.794617,9.882358,1.914258
1775855248452939395,1.751546,10.030712,1.966900
1775855248455100124,1.746760,10.169497,2.024328
1775855248457260801,1.732404,10.308280,2.033899
1775855248459421531,1.741975,10.451849,2.038685
1775855248461582260,1.741975,10.600204,2.024328
1775855248463742937,1.765903,10.762917,1.981257
1775855248465903666,1.799403,10.916057,1.933401
1775855248468064343,1.852045,11.016556,1.727618
1775855248470225020,1.904687,11.131411,1.842473
1775855248472385749,1.928615,11.212767,1.832902
1775855248474546478,1.971686,11.294123,1.813760
1775855248476707156,2.019542,11.375479,1.789831
1775855248478867885,2.024328,11.432906,1.775474
1775855248481028562,2.043471,11.452049,1.751546
1775855248483189291,2.062613,11.461620,1.732404
1775855248485349968,2.057827,11.456835,1.718047
1775855248487510697,2.053042,11.413764,1.727618
1775855248489671374,2.029114,11.365908,1.722832
1775855248491832103,1.995614,11.284552,1.770689
1775855248493992781,1.947758,11.174481,1.770689
1775855248496153458,1.914258,11.064412,1.780260
1775855248498314187,1.842473,10.959127,1.799403
1775855248500474916,1.765903,10.820344,1.823331
1775855248502635593,1.674976,10.686346,1.847259
1775855248504796322,1.588834,10.547563,1.842473
1775855248506956999,1.478764,10.418350,1.866402
1775855248509117728,1.363909,10.265209,1.899901
1775855248511278406,1.249053,10.116854,1.914258
1775855248513439135,1.124627,9.992428,1.942972
1775855248515599812,0.995414,9.848858,1.957329
1775855248517760541,0.832702,9.686146,1.947758
1775855248519921218,0.717847,9.566504,1.952543
1775855248522081947,0.579063,9.461221,1.923829
1775855248524242624,0.445065,9.351151,1.909472
1775855248526403353,0.330210,9.279366,1.899901
1775855248528564031,0.191426,9.198010,1.890330
1775855248530724760,0.086142,9.135797,1.861616
1775855248532885437,-0.014357,9.083155,1.832902
1775855248535046166,-0.114855,9.059227,1.756332
1775855248537206895,-0.172283,9.035298,1.698904
1775855248539367572,-0.234497,9.030513,1.665405
1775855248541528301,-0.291924,9.020942,1.588834
1775855248543688978,-0.325424,9.025727,1.531407
1775855248545849656,-0.354138,9.016156,1.478764
1775855248548010385,-0.354138,9.025727,1.416551
1775855248550171062,-0.339781,9.040084,1.373480
1775855248552331791,-0.296710,9.054440,1.344766
1775855248554492468,-0.248854,9.059227,1.320838
1775855248556653197,-0.210568,9.073584,1.272982
1775855248558813874,-0.148355,9.087940,1.215554
1775855248560974603,-0.076570,9.102298,1.186840
1775855248563135281,0.004786,9.126225,1.134198
1775855248565296010,0.081356,9.159725,1.091127
1775855248567456687,0.162712,9.198010,1.052842
1775855248569617416,0.229711,9.231510,1.004985
1775855248571778145,0.301496,9.255438,0.976272
1775855248573938822,0.358923,9.303294,0.928415
1775855248576099499,0.406780,9.336794,0.904487
1775855248578260228,0.440279,9.389436,0.880559
1775855248580420958,0.478565,9.427721,0.851845
1775855248582581635,0.483350,9.475577,0.832702
1775855248584742364,0.488136,9.537791,0.803988
1775855248586903041,0.449851,9.600004,0.789631
1775855248589063770,0.421137,9.662218,0.780060
1775855248591224447,0.387637,9.686146,0.775275
1775855248593385176,0.339781,9.738789,0.770489
1775855248595545906,0.306281,9.762716,0.765703
1775855248597706583,0.234497,9.786645,0.780060
1775855248599867260,0.167498,9.815358,0.794417
1775855248602027989,0.114855,9.824930,0.813560
1775855248604188718,0.038285,9.848858,0.856631
1775855248606349395,-0.023928,9.853643,0.885344
1775855248608510072,-0.066999,9.844072,0.899701
1775855248610670801,-0.138784,9.848858,0.904487
1775855248612831478,-0.177069,9.853643,0.933201
1775855248614992208,-0.224925,9.839287,0.942772
1775855248617152937,-0.277567,9.844072,0.990629
1775855248619313614,-0.330210,9.824930,1.000200
1775855248621474343,-0.349352,9.815358,1.009771
1775855248623635020,-0.368495,9.796216,1.033699
1775855248625795749,-0.397209,9.777073,1.028914
1775855248627956426,-0.406780,9.757931,1.038485
1775855248630117156,-0.425922,9.714860,1.024128
1775855248632277833,-0.435494,9.710074,1.043271
1775855248634438510,-0.459422,9.662218,1.043271
1775855248636599239,-0.454636,9.638289,1.024128
1775855248638759968,-0.430708,9.595219,1.033699
1775855248640920645,-0.430708,9.547362,1.038485
1775855248643081374,-0.440279,9.518648,1.019342
1775855248645242103,-0.430708,9.489935,1.009771
1775855248647402781,-0.430708,9.456435,1.014557
1775855248649563458,-0.440279,9.451650,1.000200
1775855248651724187,-0.449851,9.437292,0.990629
1775855248653884916,-0.449851,9.413364,0.961915
1775855248656045593,-0.454636,9.413364,0.942772
1775855248658206322,-0.445065,9.408579,0.942772
1775855248660366999,-0.454636,9.408579,0.942772
1775855248662528614,-0.445065,9.408579,0.923630
1775855248664690228,-0.468993,9.403793,0.899701
1775855248666851843,-0.473779,9.413364,0.890130
1775855248669013458,-0.483350,9.422935,0.861416
1775855248671175072,-0.492921,9.432507,0.842274
1775855248673336687,-0.492921,9.456435,0.818345
1775855248675498301,-0.516850,9.461221,0.794417
1775855248677659916,-0.545564,9.494720,0.789631
1775855248679821531,-0.545564,9.485149,0.794417
1775855248681983145,-0.569492,9.494720,0.799203
1775855248684144760,-0.583849,9.480363,0.799203
1775855248686306374,-0.598206,9.480363,0.847059
1775855248688467989,-0.631705,9.480363,0.847059
1775855248690629603,-0.626920,9.475577,0.890130
1775855248692791218,-0.641276,9.466006,0.942772
1775855248694952833,-0.655633,9.461221,0.966700
1775855248697114447,-0.650848,9.446864,1.014557
1775855248699276062,-0.655633,9.446864,1.062413
1775855248701437676,-0.646062,9.432507,1.071985
1775855248703599291,-0.650848,9.446864,1.071985
1775855248705741739,-0.660419,9.437292,1.100698
1775855248707902520,-0.655633,9.456435,1.086342
1775855248710063197,-0.650848,9.427721,1.067199
1775855248712223874,-0.641276,9.451650,1.071985
1775855248714384603,-0.617348,9.442079,1.062413
1775855248716545333,-0.598206,9.456435,1.071985
1775855248718706010,-0.579063,9.470792,1.067199
1775855248720866739,-0.555135,9.513863,1.048056
1775855248723027416,-0.540778,9.518648,1.024128
1775855248725188145,-0.507278,9.552148,1.009771
1775855248727348822,-0.507278,9.585648,0.971486
1775855248729509551,-0.502493,9.619147,0.947558
1775855248731670228,-0.497707,9.647861,0.947558
1775855248733830958,-0.507278,9.671789,0.947558
1775855248735991687,-0.507278,9.681360,0.909273
1775855248738152364,-0.526421,9.738789,0.909273
1775855248740313093,-0.521635,9.748360,0.899701
1775855248742473770,-0.540778,9.791430,0.856631
1775855248744634499,-0.550349,9.824930,0.856631
1775855248746795176,-0.559920,9.848858,0.842274
1775855248748955906,-0.583849,9.877572,0.813560
1775855248751116583,-0.593420,9.887143,0.832702
1775855248753277260,-0.607777,9.896714,0.794417
1775855248755437989,-0.622134,9.911072,0.827917
1775855248757598718,-0.622134,9.906285,0.837488
1775855248759759395,-0.617348,9.896714,0.856631
1775855248761920124,-0.607777,9.896714,0.885344
1775855248764080801,-0.622134,9.882358,0.923630
1775855248766241531,-0.593420,9.863214,0.957129
1775855248768402208,-0.569492,9.834501,0.966700
1775855248770562937,-0.550349,9.834501,0.995414
1775855248772723614,-0.535992,9.810573,1.043271
1775855248774884343,-0.526421,9.796216,1.052842
1775855248777045020,-0.521635,9.781859,1.067199
1775855248779205749,-0.507278,9.786645,1.086342
1775855248781366426,-0.478565,9.772287,1.100698
1775855248783527156,-0.478565,9.772287,1.110270
1775855248785687885,-0.483350,9.767502,1.095913
1775855248787848562,-0.468993,9.777073,1.100698
1775855248790009291,-0.468993,9.781859,1.076770
1775855248792169968,-0.478565,9.777073,1.048056
1775855248794330645,-0.488136,9.781859,1.014557
1775855248796491374,-0.478565,9.801002,0.995414
1775855248798652051,-0.478565,9.815358,0.976272
1775855248800812781,-0.473779,9.805787,0.942772
1775855248802973510,-0.473779,9.791430,0.928415
1775855248805134187,-0.459422,9.786645,0.904487
1775855248807294916,-0.464208,9.772287,0.890130
1775855248809455593,-0.449851,9.757931,0.885344
1775855248811616322,-0.425922,9.738789,0.832702
1775855248813776999,-0.387637,9.734002,0.837488
1775855248815937728,-0.373280,9.719646,0.803988
1775855248818098458,-0.344566,9.690931,0.751346
1775855248820259135,-0.325424,9.657433,0.717847
1775855248822419864,-0.296710,9.667004,0.689133
1775855248824580541,-0.287139,9.657433,0.646062
1775855248826741218,-0.263211,9.647861,0.617348
1775855248828901947,-0.258425,9.652647,0.569492
1775855248831062676,-0.239282,9.633504,0.535992
1775855248833223353,-0.229711,9.643075,0.473779
1775855248835384031,-0.224925,9.652647,0.421137
1775855248837544760,-0.234497,9.671789,0.406780
1775855248839705489,-0.239282,9.690931,0.344566
1775855248841866218,-0.248854,9.724431,0.291924
1775855248844026895,-0.244068,9.738789,0.239282
1775855248846187572,-0.253639,9.767502,0.205783
1775855248848348301,-0.263211,9.791430,0.167498
1775855248850508978,-0.263211,9.805787,0.133998
1775855248852669708,-0.272782,9.820144,0.110070
1775855248854830385,-0.282353,9.824930,0.148355
1775855248856991114,-0.301496,9.839287,0.148355
1775855248859151791,-0.311067,9.839287,0.200997
1775855248861312520,-0.344566,9.834501,0.258425
1775855248863473197,-0.354138,9.844072,0.334995
1775855248865633926,-0.382852,9.844072,0.406780
1775855248867794656,-0.406780,9.801002,0.488136
1775855248869955333,-0.435494,9.777073,0.574277
1775855248872116062,-0.445065,9.762716,0.631705
1775855248874276739,-0.459422,9.743574,0.698704
1775855248876437468,-0.473779,9.724431,0.756132
1775855248878598197,-0.473779,9.705289,0.794417
1775855248880758874,-0.459422,9.681360,0.837488
1775855248882919551,-0.459422,9.662218,0.875773
1775855248885080281,-0.435494,9.657433,0.890130
1775855248887241010,-0.430708,9.657433,0.885344
1775855248889401687,-0.421137,9.657433,0.875773
1775855248891562416,-0.416351,9.652647,0.847059
1775855248893723093,-0.397209,9.676575,0.813560
1775855248895883822,-0.392423,9.681360,0.756132
1775855248898044499,-0.387637,9.695718,0.736989
1775855248900205228,-0.368495,9.714860,0.698704
1775855248902365906,-0.382852,9.743574,0.684347
1775855248904526635,-0.373280,9.762716,0.631705
1775855248906687312,-0.378066,9.757931,0.569492
1775855248908848041,-0.378066,9.796216,0.512064
1775855248911008718,-0.378066,9.810573,0.464208
1775855248913169447,-0.373280,9.824930,0.382852
1775855248915330176,-0.387637,9.834501,0.320638
1775855248917490853,-0.387637,9.824930,0.258425
1775855248919651583,-0.401994,9.853643,0.229711
1775855248921812260,-0.411565,9.839287,0.196211
1775855248923972989,-0.421137,9.863214,0.172283
1775855248926133666,-0.430708,9.824930,0.200997
1775855248928294343,-0.421137,9.815358,0.210568
1775855248930455072,-0.435494,9.824930,0.215354
1775855248932615801,-0.449851,9.805787,0.253639
1775855248934776478,-0.445065,9.786645,0.277567
1775855248936937208,-0.464208,9.781859,0.320638
1775855248939097885,-0.459422,9.753145,0.368495
1775855248941258614,-0.473779,9.729217,0.421137
1775855248943419291,-0.483350,9.695718,0.445065
1775855248945580020,-0.478565,9.686146,0.497707
1775855248947740749,-0.468993,9.667004,0.531207
1775855248949901426,-0.473779,9.662218,0.555135
1775855248952062103,-0.473779,9.657433,0.579063
1775855248954222833,-0.454636,9.662218,0.583849
1775855248956383562,-0.435494,9.667004,0.650848
1775855248958544239,-0.416351,9.676575,0.631705
1775855248960704968,-0.378066,9.695718,0.612563
1775855248962865697,-0.363709,9.710074,0.598206
1775855248965026374,-0.339781,9.729217,0.583849
1775855248967187051,-0.325424,9.757931,0.531207
1775855248969347781,-0.291924,9.777073,0.492921
1775855248971508458,-0.291924,9.791430,0.449851
1775855248973669187,-0.282353,9.810573,0.392423
