time,seconds_elapsed,z,y,x
1773522816828638000,0.077637939453125,-0.8101654052734375,-0.27825927734375,-0.0160064697265625
1773522816838677000,0.087677001953125,-0.7680206298828125,-0.23773193359375,0.030670166015625
1773522816848715000,0.097715087890625,-0.6887969970703125,-0.25360107421875,0.0205841064453125
1773522816858753000,0.1077529296875,-0.670623779296875,-0.1629638671875,-0.028778076171875
1773522816868790800,0.117790771484375,-0.642730712890625,-0.1313323974609375,-0.0511016845703125
1773522816878829000,0.1278291015625,-0.556976318359375,-0.1771240234375,-0.0605621337890625
1773522816888866800,0.13786669921875,-0.5721893310546875,-0.2671051025390625,-0.0749664306640625
1773522816898905000,0.147905029296875,-0.7787933349609375,-0.3463592529296875,-0.102142333984375
1773522816908944400,0.1579443359375,-0.902130126953125,-0.399566650390625,-0.1200103759765625
1773522816918982400,0.167982421875,-0.824798583984375,-0.38427734375,-0.1535186767578125
1773522816929020400,0.1780205078125,-0.6941070556640625,-0.359832763671875,-0.147552490234375
1773522816939058400,0.188058349609375,-0.642181396484375,-0.3294219970703125,-0.061279296875
1773522816949096400,0.198096435546875,-1.40997314453125,-0.3224945068359375,0.128997802734375
1773522816959134500,0.208134521484375,-1.8939971923828125,-0.343963623046875,0.3265533447265625
1773522816969172500,0.21817236328125,-0.7142791748046875,-0.35748291015625,0.2427520751953125
1773522816979211500,0.22821142578125,-0.579681396484375,-0.296600341796875,0.2655029296875
1773522816989249500,0.23824951171875,-0.67559814453125,-0.219329833984375,0.1898956298828125
1773522816999287300,0.248287353515625,-0.7902069091796875,-0.1394195556640625,0.3211822509765625
1773522817009325600,0.25832568359375,-0.92620849609375,-0.165618896484375,0.4683380126953125
1773522817019363300,0.26836328125,-0.8435516357421875,-0.2900543212890625,0.6486968994140625
1773522817029401600,0.278401611328125,-0.8119354248046875,-0.3451690673828125,0.6540679931640625
1773522817039439400,0.288439453125,-0.8329010009765625,-0.2825469970703125,0.5528411865234375
1773522817049477600,0.2984775390625,-0.943023681640625,-0.1836700439453125,0.4359588623046875
1773522817059516400,0.308516357421875,-0.9566802978515625,-0.14495849609375,0.39141845703125
1773522817069554700,0.3185546875,-0.91015625,-0.1029205322265625,0.477508544921875
1773522817079592400,0.328592529296875,-0.9455718994140625,-0.08856201171875,0.449493408203125
1773522817089630500,0.33863037109375,-0.8653411865234375,-0.120941162109375,0.3323516845703125
1773522817099668500,0.34866845703125,-0.7547454833984375,-0.1470184326171875,0.29534912109375
1773522817109706500,0.35870654296875,-0.7545623779296875,-0.142486572265625,0.296539306640625
1773522817119744500,0.36874462890625,-0.7091827392578125,-0.0737152099609375,0.2503509521484375
1773522817129783300,0.378783203125,-0.5698394775390625,0.064544677734375,0.083770751953125
1773522817139821600,0.388821533203125,-0.5206451416015625,0.276092529296875,-0.1219635009765625
1773522817149859300,0.398859375,-0.415008544921875,0.5033111572265625,-0.2663726806640625
1773522817159897600,0.408897705078125,-0.343536376953125,0.6306304931640625,-0.3112945556640625
1773522817169935400,0.418935302734375,-0.3458404541015625,0.619110107421875,-0.2673492431640625
1773522817179973400,0.428973388671875,-0.369354248046875,0.59796142578125,-0.2177276611328125
1773522817190011400,0.439011474609375,-0.3806304931640625,0.630096435546875,-0.1601104736328125
1773522817200050700,0.44905078125,-0.3778533935546875,0.703704833984375,-0.1318817138671875
1773522817210088400,0.45908837890625,-0.3386383056640625,0.826171875,-0.138397216796875
1773522817220126500,0.46912646484375,-0.28839111328125,0.9530029296875,-0.1325836181640625
1773522817230164500,0.47916455078125,-0.251434326171875,1.0318145751953125,-0.1147003173828125
1773522817240202500,0.489202392578125,-0.2571563720703125,1.164886474609375,-0.020416259765625
1773522817250240500,0.499240478515625,-0.249725341796875,1.2826690673828125,0.0697174072265625
1773522817260278500,0.509278564453125,-0.2891998291015625,1.3984832763671875,0.1185150146484375
1773522817270317600,0.519317626953125,-0.3453521728515625,1.6021881103515625,0.1519317626953125
1773522817280355300,0.529355224609375,-0.4287109375,1.7605743408203125,0.2386474609375
1773522817290393600,0.5393935546875,-0.5418548583984375,1.79193115234375,0.45648193359375
1773522817300431600,0.549431640625,-0.5923004150390625,1.818145751953125,0.730621337890625
1773522817310469400,0.559469482421875,-0.63702392578125,1.91632080078125,0.97015380859375
1773522817320507600,0.569507568359375,-0.6947479248046875,2.0127716064453125,1.160125732421875
1773522817330545400,0.57954541015625,-0.7313079833984375,1.994110107421875,1.41290283203125
1773522817340584400,0.58958447265625,-0.74517822265625,1.925933837890625,1.655975341796875
1773522817350622500,0.59962255859375,-0.7509765625,1.9806671142578125,1.810699462890625
1773522817360660500,0.609660400390625,-0.7701568603515625,2.01287841796875,1.8679351806640625
1773522817370698500,0.619698486328125,-0.7764434814453125,1.935821533203125,1.8725128173828125
1773522817380736500,0.629736572265625,-0.7676849365234375,1.86798095703125,1.8315887451171875
1773522817390774500,0.6397744140625,-0.8102874755859375,1.8260955810546875,1.8117828369140625
1773522817400812300,0.649812255859375,-0.854583740234375,1.67364501953125,1.887786865234375
1773522817410851600,0.6598515625,-0.8736572265625,1.506927490234375,1.8999176025390625
1773522817420889300,0.669889404296875,-0.86383056640625,1.431854248046875,1.8076934814453125
1773522817430927600,0.679927734375,-0.8498687744140625,1.3848114013671875,1.6832427978515625
1773522817440965400,0.68996533203125,-0.82989501953125,1.335174560546875,1.5935516357421875
1773522817451003600,0.700003662109375,-0.854400634765625,1.212066650390625,1.59423828125
1773522817461041400,0.71004150390625,-0.917083740234375,1.0514984130859375,1.627349853515625
1773522817471079700,0.72007958984375,-0.9852294921875,0.988555908203125,1.55426025390625
1773522817481118500,0.730118408203125,-1.0371246337890625,0.952056884765625,1.4394989013671875
1773522817491156500,0.740156494140625,-1.1098480224609375,0.9015350341796875,1.1441650390625
1773522817501194500,0.750194580078125,-1.3383026123046875,0.7177886962890625,0.874176025390625
1773522817511232300,0.760232177734375,-1.3590545654296875,0.5097198486328125,0.67462158203125
1773522817521270500,0.7702705078125,-1.2413787841796875,0.5242919921875,0.3866424560546875
1773522817531308300,0.780308349609375,-1.0145416259765625,0.5720367431640625,0.1475830078125
1773522817541346600,0.7903466796875,-0.8123016357421875,0.5681610107421875,0.0946502685546875
1773522817551385300,0.80038525390625,-0.743438720703125,0.4922943115234375,0.2987213134765625
1773522817561423600,0.810423583984375,-0.7155914306640625,0.4980621337890625,0.5782623291015625
1773522817571461400,0.82046142578125,-0.554473876953125,0.49444580078125,0.8234100341796875
1773522817581499600,0.830499755859375,-0.31732177734375,0.5868682861328125,0.9213409423828125
1773522817591537400,0.840537353515625,-0.0525665283203125,0.70330810546875,0.96368408203125
1773522817601575400,0.850575439453125,0.2274017333984375,0.7541961669921875,0.94110107421875
1773522817611614500,0.860614501953125,0.4459381103515625,0.7567596435546875,0.95928955078125
1773522817621652500,0.870652587890625,0.52679443359375,0.7002410888671875,0.8980865478515625
1773522817631690500,0.8806904296875,0.47930908203125,0.7185211181640625,0.584259033203125
1773522817641728500,0.890728515625,0.3698272705078125,0.682281494140625,0.295074462890625
1773522817651766500,0.9007666015625,0.2458953857421875,0.6098175048828125,0.0939178466796875
1773522817661804500,0.910804443359375,0.036163330078125,0.4576873779296875,0.0765838623046875
1773522817671842600,0.920842529296875,-0.1456298828125,0.514984130859375,-0.063446044921875
1773522817681881300,0.93088134765625,-0.255157470703125,0.6212615966796875,-0.1300506591796875
1773522817691919600,0.940919677734375,-0.3949127197265625,0.6385955810546875,0.0601959228515625
1773522817701957400,0.950957275390625,-0.3267059326171875,0.44024658203125,0.3791046142578125
1773522817711995400,0.960995361328125,-0.3380279541015625,0.27081298828125,0.6663665771484375
1773522817722033400,0.971033447265625,-0.4146881103515625,0.239410400390625,0.7626800537109375
1773522817732071400,0.981071533203125,-0.405548095703125,0.390594482421875,0.790435791015625
1773522817742110500,0.9911103515625,-0.20391845703125,0.5103302001953125,0.849517822265625
1773522817752148500,1.0011484375,-0.0256195068359375,0.4219970703125,0.8675537109375
1773522817762186500,1.0111865234375,0.1833648681640625,0.542938232421875,0.8737945556640625
1773522817772224500,1.021224609375,0.2979888916015625,0.7657470703125,0.8794403076171875
1773522817782262500,1.031262451171875,0.3381195068359375,0.8859710693359375,0.80364990234375
1773522817792300500,1.041300537109375,0.358154296875,0.9657135009765625,0.662139892578125
1773522817802338300,1.05133837890625,0.389190673828125,1.03662109375,0.5175933837890625
1773522817812377300,1.06137744140625,0.307159423828125,1.035888671875,0.4273223876953125
1773522817822415600,1.07141552734375,0.064239501953125,1.096771240234375,0.3612518310546875
1773522817832453400,1.081453369140625,-0.260223388671875,1.237823486328125,0.3305511474609375
1773522817842491400,1.091491455078125,-0.380615234375,1.151885986328125,0.488861083984375
1773522817852529400,1.101529296875,-0.4352569580078125,0.9160919189453125,0.596160888671875
1773522817862567400,1.1115673828125,-0.6156463623046875,0.4858551025390625,0.6248779296875
1773522817872606500,1.1216064453125,-0.4919586181640625,0.3648834228515625,0.5370941162109375
1773522817882644500,1.13164453125,-0.5877227783203125,0.48870849609375,0.5104522705078125
1773522817892682500,1.1416826171875,-0.545684814453125,0.64422607421875,0.4832611083984375
1773522817902720500,1.151720458984375,-0.4018707275390625,1.0396270751953125,0.4878387451171875
1773522817912757800,1.1617578125,-0.21026611328125,1.3912353515625,0.557861328125
1773522817922795800,1.171795654296875,-0.0630950927734375,1.347015380859375,0.672576904296875
1773522817932834800,1.181834716796875,0.0491790771484375,1.0586090087890625,0.833648681640625
1773522817942872800,1.191872802734375,0.038421630859375,0.6356201171875,0.904022216796875
1773522817952910800,1.201910888671875,0.025177001953125,0.4539031982421875,0.8274688720703125
1773522817962948900,1.211948974609375,-0.1139068603515625,0.524932861328125,0.7479400634765625
1773522817972986600,1.221986572265625,-0.2419281005859375,0.6429595947265625,0.61773681640625
1773522817983025000,1.23202490234375,-0.374420166015625,0.70281982421875,0.5593719482421875
1773522817993064000,1.24206396484375,-0.336639404296875,0.6798553466796875,0.52142333984375
1773522818003102000,1.25210205078125,-0.353424072265625,0.781524658203125,0.507598876953125
1773522818013139700,1.2621396484375,-0.376220703125,0.8993072509765625,0.5173797607421875
1773522818023178000,1.272177978515625,-0.374725341796875,0.79296875,0.418609619140625
1773522818033215700,1.2822158203125,-0.386383056640625,0.7885284423828125,0.3841705322265625
1773522818043254000,1.29225390625,-0.2127227783203125,0.8385772705078125,0.4339447021484375
1773522818053292800,1.302292724609375,-0.065948486328125,0.827056884765625,0.477081298828125
1773522818063330800,1.312330810546875,-0.226226806640625,0.864288330078125,0.5106658935546875
1773522818073368800,1.322368896484375,-0.301361083984375,0.8502197265625,0.488525390625
1773522818083406800,1.33240673828125,-0.294036865234375,0.79638671875,0.4698944091796875
1773522818093444900,1.34244482421875,-0.3030548095703125,0.76171875,0.45635986328125
1773522818103482600,1.352482666015625,-0.3564300537109375,0.7909088134765625,0.4456939697265625
1773522818113522000,1.36252197265625,-0.3734588623046875,0.8268890380859375,0.45758056640625
1773522818123559700,1.3725595703125,-0.33221435546875,0.8377685546875,0.46649169921875
1773522818133598000,1.382597900390625,-0.33984375,0.824371337890625,0.463897705078125
1773522818143635700,1.3926357421875,-0.32830810546875,0.8228912353515625,0.4681854248046875
1773522818153674000,1.402674072265625,-0.3626861572265625,0.8786468505859375,0.486236572265625
1773522818163711700,1.412711669921875,-0.4290008544921875,0.966522216796875,0.4970703125
1773522818173750800,1.422750732421875,-0.4351043701171875,0.9696502685546875,0.5306549072265625
1773522818183788800,1.432788818359375,-0.445770263671875,0.897674560546875,0.607940673828125
1773522818193826800,1.442826904296875,-0.4146881103515625,0.83770751953125,0.62420654296875
1773522818203864800,1.45286474609375,-0.3567352294921875,0.859130859375,0.5687103271484375
1773522818213902600,1.462902587890625,-0.330535888671875,0.9304046630859375,0.5129852294921875
1773522818223940900,1.47294091796875,-0.298309326171875,0.98046875,0.4829254150390625
1773522818233979600,1.482979736328125,-0.3130035400390625,0.9628448486328125,0.47607421875
1773522818244018000,1.493017822265625,-0.3175201416015625,0.8762969970703125,0.463226318359375
1773522818254055700,1.5030556640625,-0.2801971435546875,0.81329345703125,0.408935546875
1773522818264094000,1.513093994140625,-0.331268310546875,0.825225830078125,0.351654052734375
1773522818274131700,1.523131591796875,-0.4491119384765625,0.8543701171875,0.3147430419921875
1773522818284170000,1.533169921875,-0.502227783203125,0.876556396484375,0.29278564453125
1773522818294208800,1.543208740234375,-0.4456634521484375,0.8016510009765625,0.250152587890625
1773522818304246800,1.553246826171875,-0.331268310546875,0.7399139404296875,0.158905029296875
1773522818314284800,1.563284912109375,-0.32232666015625,0.6936798095703125,0.1449737548828125
1773522818324322800,1.57332275390625,-0.2869720458984375,0.627227783203125,0.152618408203125
1773522818334360800,1.58336083984375,-0.276641845703125,0.6719207763671875,0.218353271484375
1773522818344398800,1.59339892578125,-0.2862091064453125,0.6986541748046875,0.26739501953125
1773522818354438000,1.60343798828125,-0.2705230712890625,0.718902587890625,0.2890472412109375
1773522818364475600,1.6134755859375,-0.2030181884765625,0.782867431640625,0.322509765625
1773522818374514000,1.623513916015625,-0.2568206787109375,0.910369873046875,0.3389739990234375
1773522818384551700,1.6335517578125,-0.3306884765625,1.0494232177734375,0.334716796875
1773522818394590000,1.64358984375,-0.3333282470703125,0.997894287109375,0.26422119140625
1773522818404627700,1.653627685546875,-0.3636474609375,0.975006103515625,0.2421722412109375
1773522818414667000,1.6636669921875,-0.28448486328125,0.9600372314453125,0.244232177734375
1773522818424704800,1.673704833984375,-0.144989013671875,0.929107666015625,0.2590179443359375
1773522818434743000,1.683742919921875,-0.06585693359375,0.9369964599609375,0.2596588134765625
1773522818444780800,1.69378076171875,-0.0515289306640625,0.9863433837890625,0.232269287109375
1773522818454818800,1.70381884765625,-0.1420440673828125,1.085968017578125,0.2336273193359375
1773522818464857900,1.71385791015625,-0.2256622314453125,1.1522064208984375,0.2210693359375
1773522818474895600,1.7238955078125,-0.2855987548828125,1.153900146484375,0.1644287109375
1773522818484934000,1.733933837890625,-0.3707427978515625,1.211822509765625,0.0919647216796875
1773522818494971600,1.7439716796875,-0.4044952392578125,1.3043212890625,0.0316619873046875
1773522818505010000,1.754010009765625,-0.409332275390625,1.3056488037109375,-0.03558349609375
1773522818515047700,1.764047607421875,-0.3549652099609375,1.161590576171875,-0.0645599365234375
1773522818525087000,1.7740869140625,-0.3134002685546875,0.9857940673828125,-0.04583740234375
1773522818535124700,1.784124755859375,-0.33233642578125,0.90087890625,-0.0087890625
1773522818545163000,1.7941630859375,-0.366912841796875,0.8805389404296875,-0.0008087158203125
1773522818555200800,1.80420068359375,-0.3997802734375,0.9114990234375,-0.0174102783203125
1773522818565238800,1.81423876953125,-0.42633056640625,0.910247802734375,-0.0323486328125
1773522818575277800,1.82427783203125,-0.322174072265625,0.900482177734375,-0.0449371337890625
1773522818585315600,1.834315673828125,-0.1982574462890625,0.88250732421875,-0.031158447265625
1773522818595353900,1.844353759765625,-0.102294921875,0.9021759033203125,0.001251220703125
1773522818605391600,1.8543916015625,-0.07293701171875,0.9790802001953125,0.02410888671875
1773522818615430000,1.864429931640625,-0.13079833984375,1.0419769287109375,0.016845703125
1773522818625468000,1.874468017578125,-0.1357879638671875,1.076904296875,0.057037353515625
1773522818635507000,1.8845068359375,-0.1177825927734375,1.0530853271484375,0.081573486328125
1773522818645544700,1.894544677734375,-0.1952667236328125,1.0068206787109375,0.1181640625
1773522818655583000,1.9045830078125,-0.2395477294921875,0.959228515625,0.159393310546875
1773522818665620700,1.914620849609375,-0.2540130615234375,0.9090728759765625,0.1785888671875
1773522818675658800,1.92465869140625,-0.204071044921875,0.9250946044921875,0.1745147705078125
1773522818685697800,1.93469775390625,-0.2064361572265625,0.8826751708984375,0.1605377197265625
1773522818695735800,1.94473583984375,-0.3005218505859375,0.8622894287109375,0.1203155517578125
1773522818705773800,1.95477392578125,-0.3564910888671875,0.87396240234375,0.03021240234375
1773522818715811800,1.964811767578125,-0.308868408203125,0.898101806640625,0.0286102294921875
1773522818725849900,1.974849853515625,-0.23944091796875,0.8950042724609375,0.0693511962890625
1773522818735888000,1.984887939453125,-0.2232818603515625,0.89508056640625,0.087738037109375
1773522818745927000,1.994927001953125,-0.2108917236328125,0.880340576171875,0.0819244384765625
1773522818755964700,2.004964599609375,-0.169525146484375,0.8629608154296875,0.077178955078125
1773522818766003000,2.0150029296875,-0.1048431396484375,0.8945465087890625,0.108123779296875
1773522818776040700,2.025040771484375,-0.0578460693359375,0.9029693603515625,0.1190948486328125
1773522818786079000,2.035078857421875,-0.1898345947265625,0.9434814453125,0.1292877197265625
1773522818796116700,2.04511669921875,-0.1414642333984375,0.9853057861328125,0.1213836669921875
1773522818806156000,2.055156005859375,-0.167572021484375,0.9450836181640625,0.1237945556640625
1773522818816193800,2.06519384765625,-0.18603515625,0.98956298828125,0.1297149658203125
1773522818826231800,2.075231689453125,-0.07208251953125,0.9787750244140625,0.08349609375
1773522818836269800,2.085269775390625,-0.024139404296875,1.0020294189453125,0.072265625
1773522818846307800,2.095307861328125,-0.0139312744140625,0.99969482421875,0.099365234375
1773522818856347000,2.105346923828125,-0.0666656494140625,0.980316162109375,0.124725341796875
1773522818866384600,2.115384521484375,-0.1034088134765625,0.9280242919921875,0.1139678955078125
1773522818876423000,2.1254228515625,-0.1145172119140625,0.8891143798828125,0.111236572265625
1773522818886460700,2.135460693359375,-0.0653228759765625,0.8396148681640625,0.1131744384765625
1773522818896499000,2.1454990234375,0.0255126953125,0.7650146484375,0.0980072021484375
1773522818906538200,2.155538330078125,-0.01263427734375,0.6494903564453125,0.043701171875
1773522818916576300,2.165576171875,-0.035400390625,0.48468017578125,-0.0325927734375
1773522818926614300,2.1756142578125,-0.0300750732421875,0.3071136474609375,-0.0604248046875
1773522818936652300,2.18565234375,-0.00604248046875,0.292327880859375,-0.055267333984375
1773522818946690300,2.195690185546875,0.07672119140625,0.3893280029296875,-0.0743408203125
1773522818956728300,2.205728271484375,0.167449951171875,0.5532379150390625,-0.0891571044921875
1773522818966767400,2.215767333984375,0.2124786376953125,0.7270050048828125,-0.1012420654296875
1773522818976805000,2.22580517578125,0.3143463134765625,0.9557952880859375,-0.14044189453125
1773522818986843100,2.235843017578125,0.46759033203125,1.2747955322265625,-0.2254486083984375
1773522818996881200,2.245881103515625,0.594329833984375,1.6183929443359375,-0.32696533203125
1773522819006919200,2.255919189453125,0.546173095703125,1.8749237060546875,-0.382598876953125
1773522819016958200,2.265958251953125,0.3733673095703125,1.97894287109375,-0.421539306640625
1773522819026996200,2.275996337890625,-0.0446319580078125,1.8662109375,-0.4541015625
1773522819037034200,2.2860341796875,-0.5730743408203125,1.6243133544921875,-0.462615966796875
1773522819047072300,2.296072265625,-0.5452117919921875,1.4057159423828125,-0.4434814453125
1773522819057110300,2.3061103515625,-0.2274932861328125,1.2545013427734375,-0.3601531982421875
1773522819067149000,2.316149169921875,-0.034515380859375,1.113616943359375,-0.3200531005859375
1773522819077187300,2.326187255859375,0.0063934326171875,0.9576873779296875,-0.30712890625
1773522819087225000,2.33622509765625,-0.0120849609375,0.7884979248046875,-0.274383544921875
1773522819097263400,2.346263427734375,-0.0062255859375,0.7103118896484375,-0.233489990234375
1773522819107301000,2.356301025390625,0.0111083984375,0.740753173828125,-0.2003021240234375
1773522819117339100,2.366339111328125,-0.00079345703125,0.8509063720703125,-0.1927642822265625
1773522819127378200,2.376378173828125,-0.0177154541015625,0.97625732421875,-0.1915435791015625
1773522819137416200,2.386416259765625,0.2369384765625,1.155670166015625,-0.115814208984375
1773522819147454200,2.3964541015625,0.794708251953125,1.3866729736328125,-0.0160369873046875
1773522819157492200,2.4064921875,0.7241973876953125,1.3567962646484375,0.0085601806640625
1773522819167530200,2.4165302734375,0.5547637939453125,1.22393798828125,0.096832275390625
1773522819177569000,2.426569091796875,0.2791900634765625,1.0948333740234375,0.1322479248046875
1773522819187607300,2.436607177734375,0.073089599609375,0.95233154296875,0.1538543701171875
1773522819197645300,2.446645263671875,-0.11053466796875,0.903106689453125,0.1542816162109375
1773522819207683300,2.456683349609375,-0.8427581787109375,1.07965087890625,0.2347564697265625
1773522819217721300,2.466721435546875,-1.62451171875,1.357666015625,0.2388153076171875
1773522819227760400,2.476760498046875,-1.11956787109375,1.245849609375,0.1011505126953125
1773522819237798100,2.486798095703125,-0.53717041015625,1.0491485595703125,0.0118408203125
1773522819247836200,2.496836181640625,-0.212738037109375,0.9496002197265625,-0.0107421875
1773522819257874200,2.506874267578125,-0.0452423095703125,0.909759521484375,-0.0032806396484375
1773522819267912200,2.516912109375,-0.0123138427734375,0.9402313232421875,0.0039215087890625
1773522819277951200,2.526951171875,-0.06988525390625,1.033935546875,0.014312744140625
1773522819287989200,2.5369892578125,-0.144744873046875,1.12738037109375,0.0291290283203125
1773522819298027300,2.54702734375,-0.115386962890625,1.170745849609375,0.016326904296875
1773522819308065300,2.557065185546875,-0.0192413330078125,1.1601409912109375,-0.0113372802734375
1773522819318103300,2.567103271484375,0.097259521484375,1.1336669921875,-0.0466156005859375
1773522819328141300,2.577141357421875,0.2142333984375,1.11553955078125,-0.0874786376953125
1773522819338180400,2.587180419921875,0.30596923828125,1.097137451171875,-0.118804931640625
1773522819348218000,2.597218017578125,0.395751953125,1.1032867431640625,-0.1486663818359375
1773522819358256400,2.60725634765625,0.4361572265625,1.10394287109375,-0.17626953125
1773522819368294100,2.617294189453125,0.4071197509765625,1.0475921630859375,-0.1858673095703125
1773522819378332200,2.627332275390625,0.3529510498046875,0.96380615234375,-0.19427490234375
1773522819388371200,2.63737109375,0.269622802734375,0.88897705078125,-0.1977691650390625
1773522819398409200,2.6474091796875,0.209625244140625,0.8444061279296875,-0.20123291015625
1773522819408447200,2.657447265625,0.1666717529296875,0.8318939208984375,-0.20794677734375
1773522819418485200,2.6674853515625,0.1184844970703125,0.86468505859375,-0.2083892822265625
1773522819428523300,2.677523193359375,0.0772857666015625,0.92987060546875,-0.2061767578125
1773522819438562000,2.68756201171875,0.0394439697265625,1.0032806396484375,-0.2040863037109375
1773522819448600300,2.697600341796875,0.0064697265625,1.06317138671875,-0.2030181884765625
1773522819458638000,2.70763818359375,-0.017822265625,1.09356689453125,-0.2041168212890625
1773522819468676400,2.71767626953125,-0.0361175537109375,1.09393310546875,-0.2066497802734375
1773522819478714000,2.727714111328125,-0.0507354736328125,1.05828857421875,-0.20953369140625
1773522819488753400,2.73775341796875,-0.052337646484375,1.00457763671875,-0.209381103515625
1773522819498791200,2.747791259765625,-0.0440521240234375,0.957916259765625,-0.202972412109375
1773522819508829200,2.7578291015625,-0.0307464599609375,0.9405670166015625,-0.195953369140625
1773522819518867200,2.7678671875,-0.0175018310546875,0.9393157958984375,-0.1945953369140625
1773522819528905200,2.7779052734375,-0.0054168701171875,0.942230224609375,-0.1932220458984375
1773522819538944300,2.7879443359375,-0.0000457763671875,0.9495849609375,-0.190826416015625
1773522819548982000,2.79798193359375,0.0052642822265625,0.9597930908203125,-0.1861724853515625
1773522819559020300,2.808020263671875,0.01239013671875,0.9672088623046875,-0.18084716796875
1773522819569058300,2.818058349609375,0.029144287109375,0.976226806640625,-0.171051025390625
1773522819579096300,2.828096435546875,0.0532684326171875,0.986358642578125,-0.15911865234375
1773522819589135000,2.838135009765625,0.06536865234375,0.9951019287109375,-0.147369384765625
1773522819599173400,2.84817333984375,0.0623016357421875,0.998199462890625,-0.1389312744140625
1773522819609211100,2.858211181640625,0.0556640625,1.0002899169921875,-0.1339569091796875
1773522819619249400,2.86824951171875,0.0525360107421875,1.010955810546875,-0.133514404296875
1773522819629287200,2.878287109375,0.0527801513671875,1.0226898193359375,-0.134246826171875
1773522819639326200,2.888326171875,0.0566253662109375,1.031524658203125,-0.132415771484375
1773522819649364200,2.8983642578125,0.0676116943359375,1.025848388671875,-0.126678466796875
1773522819659402200,2.90840234375,0.079864501953125,1.001068115234375,-0.12158203125
1773522819669440300,2.918440185546875,0.0855865478515625,0.974029541015625,-0.115325927734375
1773522819679478300,2.928478271484375,0.07843017578125,0.95751953125,-0.1104583740234375
1773522819689517300,2.938517333984375,0.060638427734375,0.9464874267578125,-0.11053466796875
1773522819699555000,2.94855517578125,0.037353515625,0.94903564453125,-0.1118316650390625
1773522819709593300,2.95859326171875,0.01202392578125,0.9588623046875,-0.1151275634765625
1773522819719631000,2.968631103515625,-0.00640869140625,0.972198486328125,-0.123046875
1773522819729669400,2.97866943359375,-0.0160980224609375,0.98455810546875,-0.137603759765625
1773522819739708200,2.988708251953125,-0.0157470703125,0.996063232421875,-0.1557769775390625
1773522819749746400,2.998746337890625,-0.0128936767578125,1.010772705078125,-0.175567626953125
1773522819759784200,3.0087841796875,-0.00848388671875,1.0242767333984375,-0.1956024169921875
1773522819769822200,3.018822265625,-0.0023193359375,1.0303497314453125,-0.213470458984375
1773522819779860200,3.028860107421875,0.0060882568359375,1.0295867919921875,-0.2285919189453125
1773522819789899000,3.03889892578125,0.02056884765625,1.0214691162109375,-0.2383880615234375
1773522819799937300,3.048937255859375,0.0383453369140625,1.010009765625,-0.241302490234375
1773522819809975000,3.05897509765625,0.05462646484375,0.99993896484375,-0.242279052734375
1773522819820013300,3.069013427734375,0.0677337646484375,0.99017333984375,-0.2399749755859375
1773522819830051000,3.079051025390625,0.0666351318359375,0.9819488525390625,-0.2382965087890625
1773522819840090400,3.08909033203125,0.0654449462890625,0.991119384765625,-0.228668212890625
1773522819850128100,3.099128173828125,0.0677032470703125,1.0172576904296875,-0.2080535888671875
1773522819860166400,3.10916650390625,0.0689544677734375,1.0247802734375,-0.1826019287109375
1773522819870204200,3.1192041015625,0.0624542236328125,1.0116729736328125,-0.155029296875
1773522819880242200,3.1292421875,0.05615234375,0.99420166015625,-0.1310577392578125
1773522819890281200,3.13928125,0.05242919921875,0.9861907958984375,-0.1109771728515625
1773522819900319200,3.1493193359375,0.0507965087890625,0.98455810546875,-0.096466064453125
1773522819910357000,3.15935693359375,0.0467529296875,0.9819183349609375,-0.0857391357421875
1773522819920395000,3.16939501953125,0.0474700927734375,0.9766082763671875,-0.0789947509765625
1773522819930433000,3.17943310546875,0.0537109375,0.967529296875,-0.076751708984375
1773522819940471800,3.189471923828125,0.05975341796875,0.9669342041015625,-0.0802459716796875
1773522819950510000,3.199510009765625,0.066558837890625,0.97747802734375,-0.0912933349609375
1773522819960547800,3.2095478515625,0.071533203125,0.98980712890625,-0.1036529541015625
1773522819970585900,3.2195859375,0.0749359130859375,0.99603271484375,-0.1104583740234375
1773522819980624000,3.229623779296875,0.0785980224609375,0.9921112060546875,-0.114044189453125
1773522819990663200,3.2396630859375,0.0802459716796875,0.982391357421875,-0.114959716796875
1773522820000701000,3.249700927734375,0.0820770263671875,0.9771881103515625,-0.1132659912109375
1773522820010739000,3.259739013671875,0.0836181640625,0.9822845458984375,-0.1092376708984375
1773522820020777000,3.26977685546875,0.0842742919921875,0.9910888671875,-0.10357666015625
1773522820030815000,3.27981494140625,0.0846099853515625,0.998260498046875,-0.096710205078125
1773522820040854000,3.28985400390625,0.082427978515625,1.00091552734375,-0.0868988037109375
1773522820050891800,3.299891845703125,0.079864501953125,1.0016632080078125,-0.079071044921875
1773522820060930000,3.309929931640625,0.0804595947265625,0.994873046875,-0.0689544677734375
1773522820070967800,3.3199677734375,0.0834503173828125,0.9775543212890625,-0.067596435546875
1773522820081006000,3.330006103515625,0.08428955078125,0.9667205810546875,-0.0642547607421875
1773522820091044900,3.340044921875,0.090911865234375,0.9777679443359375,-0.0647735595703125
1773522820101083100,3.350083251953125,0.1084747314453125,0.9871673583984375,-0.0860748291015625
1773522820111121000,3.360120849609375,0.116607666015625,1.0224151611328125,-0.115142822265625
1773522820121159000,3.370158935546875,0.11895751953125,1.0628204345703125,-0.15826416015625
1773522820131197000,3.380197021484375,0.1142578125,1.0857391357421875,-0.215667724609375
1773522820141235700,3.390235595703125,0.0992889404296875,1.11041259765625,-0.2796783447265625
1773522820151274000,3.40027392578125,0.071197509765625,1.1223907470703125,-0.3442535400390625
1773522820161311700,3.410311767578125,0.010589599609375,1.1190338134765625,-0.4187469482421875
1773522820171350000,3.42035009765625,-0.1270904541015625,1.1188812255859375,-0.5237884521484375
1773522820181387800,3.4303876953125,-0.530548095703125,1.1528167724609375,-0.7812957763671875
1773522820191427000,3.440427001953125,-0.937744140625,1.2022705078125,-1.067840576171875
1773522820201464800,3.45046484375,-0.74395751953125,1.12274169921875,-1.0062713623046875
1773522820211503000,3.460503173828125,-0.4430694580078125,1.000457763671875,-0.8021697998046875
1773522820221540900,3.470540771484375,-0.2342987060546875,1.0617218017578125,-0.647918701171875
1773522820231580000,3.480579833984375,-0.106231689453125,1.1620330810546875,-0.5721435546875
1773522820241618000,3.490617919921875,-0.0268707275390625,1.1670989990234375,-0.514068603515625
1773522820251656000,3.500656005859375,-0.0155181884765625,1.1222686767578125,-0.45745849609375
1773522820261694000,3.51069384765625,-0.0354156494140625,1.0761566162109375,-0.3895263671875
1773522820271732000,3.52073193359375,-0.077301025390625,1.0389251708984375,-0.3272552490234375
1773522820281771000,3.53077099609375,-0.0991058349609375,0.9999542236328125,-0.2889251708984375
1773522820291808800,3.540808837890625,-0.0982818603515625,0.955535888671875,-0.268768310546875
1773522820301847000,3.550846923828125,-0.1005096435546875,0.9157867431640625,-0.2545318603515625
1773522820311884800,3.560884765625,-0.0943756103515625,0.8719635009765625,-0.2418975830078125
1773522820321923000,3.570923095703125,-0.0706329345703125,0.8155059814453125,-0.246856689453125
1773522820331961900,3.5809619140625,-0.0307159423828125,0.7584686279296875,-0.26934814453125
1773522820342000000,3.591000244140625,-0.002197265625,0.7180328369140625,-0.29339599609375
1773522820352038000,3.601037841796875,0.0259552001953125,0.6949920654296875,-0.313262939453125
1773522820362076200,3.611076171875,0.039215087890625,0.688446044921875,-0.30780029296875
1773522820372114000,3.621114013671875,0.0400238037109375,0.68304443359375,-0.280426025390625
1773522820382153000,3.631153076171875,0.0221099853515625,0.676666259765625,-0.24310302734375
1773522820392191000,3.64119091796875,-0.0121307373046875,0.6665496826171875,-0.1904144287109375
1773522820402228700,3.651228759765625,-0.050567626953125,0.66473388671875,-0.127410888671875
1773522820412267000,3.66126708984375,-0.0880889892578125,0.6823883056640625,-0.05950927734375
1773522820422304800,3.6713046875,-0.127166748046875,0.726470947265625,0.0067596435546875
1773522820432344000,3.681343994140625,-0.1654052734375,0.77655029296875,0.0584869384765625
1773522820442381800,3.6913818359375,-0.17559814453125,0.806549072265625,0.0927581787109375
1773522820452420000,3.701420166015625,-0.1645660400390625,0.81866455078125,0.106536865234375
1773522820462457900,3.711457763671875,-0.12750244140625,0.8237457275390625,0.098876953125
1773522820472497000,3.721496826171875,-0.06256103515625,0.8287353515625,0.077484130859375
1773522820482535000,3.731534912109375,0.0081024169921875,0.839447021484375,0.0482635498046875
1773522820492573000,3.741572998046875,0.0561065673828125,0.8519744873046875,0.0248260498046875
1773522820502611000,3.75161083984375,0.070068359375,0.884735107421875,0.0130157470703125
1773522820512648700,3.761648681640625,0.065216064453125,0.9284820556640625,0.007598876953125
1773522820522688000,3.77168798828125,0.056488037109375,0.9657440185546875,0.0140533447265625
1773522820532726000,3.78172607421875,0.070465087890625,1.0059661865234375,0.0174560546875
1773522820542764000,3.791763916015625,0.0963287353515625,1.0606842041015625,-0.0060882568359375
1773522820552801800,3.8018017578125,0.0912933349609375,1.140838623046875,-0.0282745361328125
1773522820562840000,3.811840087890625,0.0366973876953125,1.2862396240234375,-0.0360870361328125
1773522820572878800,3.82187890625,-0.0783538818359375,1.5344085693359375,-0.041351318359375
1773522820582916900,3.831916748046875,-0.25384521484375,1.875518798828125,-0.0797119140625
1773522820592955000,3.841954833984375,-0.7706756591796875,2.0943450927734375,-0.2896270751953125
1773522820602993000,3.851992919921875,-1.5548858642578125,1.945892333984375,-0.453277587890625
1773522820613031000,3.862031005859375,-1.8039398193359375,1.473388671875,-0.461639404296875
1773522820623070000,3.872070068359375,-1.2247772216796875,0.9944000244140625,-0.41156005859375
1773522820633108000,3.88210791015625,-0.46453857421875,0.7453155517578125,-0.293853759765625
1773522820643146000,3.89214599609375,-0.04461669921875,0.6843719482421875,-0.21575927734375
1773522820653184000,3.90218408203125,0.104248046875,0.648590087890625,-0.191375732421875
1773522820663221800,3.9122216796875,0.17474365234375,0.6024932861328125,-0.18572998046875
1773522820673260800,3.9222607421875,0.2688446044921875,0.548736572265625,-0.196929931640625
1773522820683298800,3.932298828125,0.3327484130859375,0.5151824951171875,-0.2227020263671875
1773522820693337000,3.942337158203125,0.3177337646484375,0.536163330078125,-0.2530364990234375
1773522820703374800,3.952374755859375,0.3042449951171875,0.6124114990234375,-0.274810791015625
1773522820713414000,3.962413818359375,0.3044586181640625,0.7406158447265625,-0.2860565185546875
1773522820723452000,3.972451904296875,0.302032470703125,0.88592529296875,-0.2965240478515625
1773522820733490000,3.982489990234375,0.28924560546875,1.035491943359375,-0.30609130859375
1773522820743528000,3.99252783203125,0.25579833984375,1.1750640869140625,-0.3063201904296875
1773522820753566000,4.00256591796875,0.1840362548828125,1.3006744384765625,-0.28924560546875
1773522820763605000,4.01260498046875,0.0908966064453125,1.4055938720703125,-0.24359130859375
1773522820773643000,4.02264306640625,0.0121917724609375,1.440216064453125,-0.1731414794921875
1773522820783681000,4.032680908203125,-0.036529541015625,1.3643035888671875,-0.0945892333984375
1773522820793719000,4.042718994140625,-0.081268310546875,1.2264556884765625,-0.036285400390625
1773522820803757000,4.052757080078125,-0.1266937255859375,1.1053466796875,0.0040435791015625
1773522820813796000,4.062796142578125,-0.1935577392578125,1.00958251953125,0.0059051513671875
1773522820823833900,4.072833740234375,-0.3181304931640625,0.95184326171875,-0.0706787109375
1773522820833872000,4.082871826171875,-0.4270172119140625,0.912841796875,-0.1658172607421875
1773522820843910000,4.092909912109375,-0.4115447998046875,0.9084625244140625,-0.22894287109375
1773522820853949000,4.102948974609375,-0.283203125,0.932037353515625,-0.2686004638671875
1773522820863987000,4.112987060546875,-0.108306884765625,0.9637908935546875,-0.3086395263671875
1773522820874025000,4.12302490234375,0.0512847900390625,0.9843597412109375,-0.3515472412109375
1773522820884063000,4.13306298828125,0.1475067138671875,0.996673583984375,-0.373504638671875
1773522820894101000,4.14310107421875,0.17498779296875,0.9936676025390625,-0.37652587890625
1773522820904140000,4.15314013671875,0.15362548828125,0.9752349853515625,-0.36248779296875
1773522820914178600,4.163178466796875,0.1267852783203125,0.949737548828125,-0.335174560546875
1773522820924216800,4.173216796875,0.1079864501953125,0.9261322021484375,-0.3040008544921875
1773522820934254600,4.183254638671875,0.0821075439453125,0.899658203125,-0.2633056640625
1773522820944292900,4.19329296875,0.052093505859375,0.90594482421875,-0.22747802734375
1773522820954331600,4.20333154296875,0.018768310546875,0.9218597412109375,-0.2017669677734375
1773522820964369700,4.21336962890625,-0.0083465576171875,0.9407501220703125,-0.18414306640625
1773522820974407700,4.22340771484375,-0.023223876953125,0.968902587890625,-0.1757049560546875
1773522820984445700,4.23344580078125,-0.0218353271484375,1.0079345703125,-0.172027587890625
1773522820994483700,4.243483642578125,-0.01605224609375,1.0553741455078125,-0.167083740234375
1773522821004522800,4.253522705078125,-0.0081329345703125,1.1015625,-0.1595916748046875
1773522821014560800,4.263560791015625,0.0014495849609375,1.134796142578125,-0.14447021484375
1773522821024598500,4.2735986328125,0.015228271484375,1.14154052734375,-0.1221923828125
1773522821034636800,4.28363671875,0.02642822265625,1.128082275390625,-0.1010894775390625
1773522821044675600,4.293675537109375,0.0167694091796875,1.0960540771484375,-0.0816497802734375
1773522821054713600,4.303713623046875,-0.0007781982421875,1.06103515625,-0.0740966796875
1773522821064751600,4.313751708984375,-0.018218994140625,1.023834228515625,-0.070404052734375
1773522821074790000,4.323789794921875,-0.020477294921875,0.9938507080078125,-0.0698089599609375
1773522821084827600,4.33382763671875,-0.0081939697265625,0.9727630615234375,-0.07196044921875
1773522821094866700,4.34386669921875,0.0090179443359375,0.9643402099609375,-0.072113037109375
1773522821104904700,4.35390478515625,0.02850341796875,0.973541259765625,-0.0712890625
1773522821114942700,4.363942626953125,0.046630859375,0.9652862548828125,-0.0820770263671875
1773522821124980700,4.373980712890625,0.0655975341796875,0.952606201171875,-0.09588623046875
1773522821135018500,4.3840185546875,0.0994873046875,0.971038818359375,-0.1044769287109375
1773522821145057800,4.394057861328125,0.1391754150390625,0.9954986572265625,-0.1166839599609375
1773522821155095600,4.404095458984375,0.169525146484375,1.0027008056640625,-0.1353759765625
1773522821165133800,4.4141337890625,0.17535400390625,0.9854888916015625,-0.1504058837890625
1773522821175171600,4.424171630859375,0.1588897705078125,0.9590911865234375,-0.154876708984375
1773522821185210600,4.434210693359375,0.14703369140625,0.927886962890625,-0.1566314697265625
1773522821195248600,4.44424853515625,0.1427764892578125,0.896087646484375,-0.167236328125
1773522821205286700,4.45428662109375,0.139404296875,0.877349853515625,-0.1916046142578125
1773522821215324700,4.46432470703125,0.1246490478515625,0.883087158203125,-0.2197265625
1773522821225362700,4.47436279296875,0.08953857421875,0.896636962890625,-0.243896484375
1773522821235401700,4.484401611328125,0.0464935302734375,0.906768798828125,-0.2667999267578125
1773522821245439700,4.494439697265625,0.0071563720703125,0.90960693359375,-0.28509521484375
1773522821255477800,4.504477783203125,-0.023223876953125,0.9024810791015625,-0.3103790283203125
1773522821265515800,4.514515869140625,-0.04168701171875,0.905731201171875,-0.3495635986328125
1773522821275553800,4.5245537109375,-0.05743408203125,0.921539306640625,-0.3951263427734375
1773522821285592800,4.5345927734375,-0.0875091552734375,0.9570465087890625,-0.459136962890625
1773522821295630600,4.544630615234375,-0.1482086181640625,1.025482177734375,-0.5383758544921875
1773522821305668600,4.554668701171875,-0.2169189453125,1.0964202880859375,-0.56732177734375
1773522821315706600,4.56470654296875,-0.2583770751953125,1.101531982421875,-0.4994049072265625
1773522821325745700,4.57474560546875,-0.2675933837890625,1.076171875,-0.4028778076171875
1773522821335783700,4.58478369140625,-0.2306365966796875,1.0803070068359375,-0.349456787109375
1773522821345821700,4.59482177734375,-0.1572265625,1.0743560791015625,-0.3265228271484375
1773522821355859700,4.604859619140625,-0.0718841552734375,1.0361480712890625,-0.2997283935546875
1773522821365897700,4.614897705078125,-0.0099945068359375,0.9900360107421875,-0.2704315185546875
1773522821375936800,4.624936767578125,0.0087738037109375,0.938507080078125,-0.24383544921875
1773522821385974500,4.634974609375,-0.0003509521484375,0.891937255859375,-0.232635498046875
1773522821396012800,4.6450126953125,-0.020233154296875,0.86376953125,-0.2494354248046875
1773522821406050600,4.655050537109375,-0.043853759765625,0.869140625,-0.2890167236328125
1773522821416089900,4.66508984375,-0.089508056640625,0.9133148193359375,-0.338348388671875
1773522821426127600,4.675127685546875,-0.1663055419921875,0.9880218505859375,-0.3815155029296875
1773522821436165600,4.68516552734375,-0.25225830078125,1.059417724609375,-0.3968505859375
1773522821446203600,4.69520361328125,-0.3225555419921875,1.0989532470703125,-0.3721160888671875
1773522821456241700,4.70524169921875,-0.3684539794921875,1.1187286376953125,-0.3330078125
1773522821466280700,4.71528076171875,-0.39794921875,1.1080474853515625,-0.2958831787109375
1773522821476318700,4.725318603515625,-0.40728759765625,1.0789947509765625,-0.25250244140625
1773522821486356700,4.735356689453125,-0.389984130859375,1.0484619140625,-0.213653564453125
1773522821496394800,4.745394775390625,-0.354156494140625,1.0169830322265625,-0.1858367919921875
1773522821506433800,4.755433837890625,-0.320343017578125,0.98333740234375,-0.159210205078125
1773522821516471600,4.765471435546875,-0.3079986572265625,0.9628143310546875,-0.1292877197265625
1773522821526509800,4.775509765625,-0.2851104736328125,0.942413330078125,-0.09698486328125
1773522821536547600,4.785547607421875,-0.2414093017578125,0.918304443359375,-0.07421875
1773522821546585900,4.7955859375,-0.19091796875,0.9024200439453125,-0.06988525390625
1773522821556624600,4.805624755859375,-0.15960693359375,0.8770294189453125,-0.07904052734375
1773522821566663000,4.815662841796875,-0.1623992919921875,0.860626220703125,-0.1027069091796875
1773522821576700700,4.82570068359375,-0.2073211669921875,0.857025146484375,-0.135528564453125
1773522821586738700,4.83573876953125,-0.268096923828125,0.87054443359375,-0.1690673828125
1773522821596777700,4.84577783203125,-0.290802001953125,0.875701904296875,-0.1905670166015625
1773522821606815500,4.8558154296875,-0.2570953369140625,0.8564300537109375,-0.188446044921875
1773522821616853800,4.865853759765625,-0.2015533447265625,0.8340911865234375,-0.1765899658203125
1773522821626891500,4.8758916015625,-0.1634979248046875,0.81475830078125,-0.1643524169921875
1773522821636929800,4.8859296875,-0.157257080078125,0.8045806884765625,-0.1608123779296875
1773522821646968600,4.895968505859375,-0.162689208984375,0.8250885009765625,-0.1722564697265625
1773522821657006800,4.9060068359375,-0.1556396484375,0.8484039306640625,-0.175262451171875
1773522821667044600,4.916044677734375,-0.1370391845703125,0.857635498046875,-0.1642608642578125
1773522821677083000,4.926082763671875,-0.1282501220703125,0.850830078125,-0.1560211181640625
1773522821687120600,4.93612060546875,-0.13006591796875,0.8495941162109375,-0.15972900390625
1773522821697159700,4.94615966796875,-0.1508331298828125,0.862823486328125,-0.179840087890625
1773522821707197700,4.95619775390625,-0.1686859130859375,0.8843231201171875,-0.2001495361328125
1773522821717235700,4.966235595703125,-0.16790771484375,0.90557861328125,-0.213592529296875
1773522821727273700,4.976273681640625,-0.163116455078125,0.9228973388671875,-0.2237701416015625
1773522821737312800,4.986312744140625,-0.170867919921875,0.9379425048828125,-0.2272491455078125
1773522821747350800,4.996350830078125,-0.1905517578125,0.9533538818359375,-0.2278900146484375
1773522821757388500,5.006388427734375,-0.2198028564453125,0.96173095703125,-0.224395751953125
1773522821767426800,5.0164267578125,-0.257232666015625,0.9635009765625,-0.2227020263671875
1773522821777464600,5.026464599609375,-0.301666259765625,0.96087646484375,-0.2263336181640625
1773522821787503600,5.036503662109375,-0.344207763671875,0.9614410400390625,-0.236419677734375
1773522821797541600,5.046541748046875,-0.379913330078125,0.9618682861328125,-0.25244140625
1773522821807579600,5.05657958984375,-0.38739013671875,0.969390869140625,-0.270111083984375
1773522821817617700,5.06661767578125,-0.3639373779296875,0.9735565185546875,-0.2895965576171875
1773522821827656700,5.07665673828125,-0.310455322265625,0.9724578857421875,-0.3097991943359375
1773522821837694700,5.08669482421875,-0.2354583740234375,0.9752349853515625,-0.3342437744140625
1773522821847732700,5.096732666015625,-0.1644134521484375,0.974609375,-0.351959228515625
1773522821857770800,5.106770751953125,-0.113739013671875,0.9681396484375,-0.35382080078125
1773522821867808500,5.11680859375,-0.0858612060546875,0.945709228515625,-0.3369293212890625
1773522821877847600,5.12684765625,-0.0793914794921875,0.91656494140625,-0.3096160888671875
1773522821887885600,5.136885498046875,-0.0919189453125,0.8918609619140625,-0.2812042236328125
1773522821897923600,5.146923583984375,-0.1153564453125,0.878143310546875,-0.2532806396484375
1773522821907961600,5.156961669921875,-0.12908935546875,0.877288818359375,-0.2323150634765625
1773522821918004000,5.16700390625,-0.1576080322265625,0.9078521728515625,-0.2083587646484375
1773522821928042200,5.177042236328125,-0.1802825927734375,0.9723663330078125,-0.205047607421875
1773522821938080000,5.187080078125,-0.22015380859375,1.0630340576171875,-0.2080078125
1773522821948118300,5.1971181640625,-0.26123046875,1.1499786376953125,-0.219512939453125
1773522821958156000,5.207156005859375,-0.2670745849609375,1.1884307861328125,-0.2285003662109375
1773522821968195000,5.217195068359375,-0.2535247802734375,1.1691741943359375,-0.2170867919921875
1773522821978233000,5.227233154296875,-0.198577880859375,1.11370849609375,-0.207794189453125
1773522821988271000,5.23727099609375,-0.0997161865234375,1.04150390625,-0.2003021240234375
1773522821998309000,5.24730908203125,-0.0207672119140625,0.973846435546875,-0.2072296142578125
1773522822008347100,5.25734716796875,-0.0255126953125,0.9338531494140625,-0.2543182373046875
1773522822018386200,5.26738623046875,-0.0878143310546875,0.91748046875,-0.334991455078125
1773522822028424000,5.277423828125,-0.158721923828125,0.9107818603515625,-0.411651611328125
1773522822038462200,5.287462158203125,-0.210235595703125,0.89910888671875,-0.4561767578125
1773522822048500000,5.2975,-0.2595977783203125,0.8758544921875,-0.4630126953125
1773522822058539300,5.307539306640625,-0.2890167236328125,0.8530120849609375,-0.4369049072265625
1773522822068577000,5.317576904296875,-0.2978668212890625,0.83843994140625,-0.38934326171875
1773522822078615300,5.327615234375,-0.32989501953125,0.8528594970703125,-0.3838653564453125
1773522822088653000,5.337653076171875,-0.3522796630859375,0.87921142578125,-0.39959716796875
1773522822098691000,5.347691162109375,-0.3308258056640625,0.8645172119140625,-0.3988189697265625
1773522822108730000,5.357730224609375,-0.33306884765625,0.8383941650390625,-0.4145355224609375
1773522822118768000,5.36776806640625,-0.3209381103515625,0.8314971923828125,-0.4222564697265625
1773522822128806100,5.37780615234375,-0.274566650390625,0.7846527099609375,-0.39617919921875
1773522822138844000,5.387843994140625,-0.198150634765625,0.7144775390625,-0.33477783203125
1773522822148883200,5.39788330078125,-0.094085693359375,0.6494903564453125,-0.2315826416015625
1773522822158921000,5.4079208984375,-0.0176544189453125,0.5943603515625,-0.118072509765625
1773522822168959200,5.417959228515625,-0.0411529541015625,0.5504150390625,-0.0792236328125
1773522822178997000,5.4279970703125,-0.133544921875,0.52362060546875,-0.06243896484375
1773522822189035300,5.43803515625,-0.242431640625,0.5659332275390625,0.0192413330078125
1773522822199074000,5.448073974609375,-0.3036956787109375,0.6997833251953125,0.1133270263671875
1773522822209112000,5.458112060546875,-0.3514862060546875,0.8951873779296875,0.167755126953125
1773522822219150000,5.468150146484375,-0.3516845703125,1.09918212890625,0.20574951171875
1773522822229188000,5.47818798828125,-0.3388671875,1.2577972412109375,0.2110595703125
1773522822239227100,5.48822705078125,-0.337890625,1.3790435791015625,0.1577911376953125
1773522822249265200,5.49826513671875,-0.3791961669921875,1.4360809326171875,0.0557403564453125
1773522822259303200,5.50830322265625,-0.463409423828125,1.4116973876953125,-0.088897705078125
1773522822269341000,5.5183408203125,-0.5655517578125,1.305816650390625,-0.2217864990234375
1773522822279379200,5.528379150390625,-0.5584869384765625,1.1125335693359375,-0.2154693603515625
1773522822289418200,5.538418212890625,-0.446685791015625,0.879638671875,-0.1513671875
1773522822299456000,5.5484560546875,-0.42022705078125,0.6798553466796875,-0.176910400390625
1773522822309494000,5.558493896484375,-0.570037841796875,0.51776123046875,-0.2014923095703125
1773522822319532000,5.568531982421875,-0.6838226318359375,0.44158935546875,-0.126068115234375
1773522822329571000,5.578571044921875,-0.5753936767578125,0.4848785400390625,-0.116241455078125
1773522822339609000,5.588609130859375,-0.3664093017578125,0.664276123046875,-0.1971282958984375
1773522822349647000,5.598647216796875,-0.3233489990234375,0.717529296875,-0.296722412109375
1773522822359685000,5.60868505859375,-0.528350830078125,0.6450042724609375,-0.29052734375
1773522822369723100,5.61872314453125,-0.6501617431640625,0.6964263916015625,-0.1309051513671875
1773522822379762200,5.62876220703125,-0.609222412109375,0.874908447265625,0.0094757080078125
1773522822389800200,5.63880029296875,-0.5941925048828125,0.9313507080078125,0.0267333984375
1773522822399838200,5.648838134765625,-0.6781768798828125,0.9225921630859375,-0.0316619873046875
1773522822409876200,5.658876220703125,-0.7915496826171875,0.8904571533203125,-0.064666748046875
1773522822419915300,5.668915283203125,-0.827545166015625,0.8341522216796875,-0.0652923583984375
1773522822429953000,5.678953125,-0.7710723876953125,0.7494354248046875,-0.05242919921875
1773522822439991000,5.688990966796875,-0.7538299560546875,0.6922607421875,-0.0443878173828125
1773522822450029000,5.699029052734375,-0.8307342529296875,0.680816650390625,-0.0537872314453125
1773522822460067000,5.709067138671875,-0.854827880859375,0.710906982421875,-0.01739501953125
1773522822470106000,5.719106201171875,-0.8491973876953125,0.7486724853515625,-0.000732421875
1773522822480144100,5.72914404296875,-0.79144287109375,0.765380859375,-0.02850341796875
1773522822490182100,5.73918212890625,-0.8197479248046875,0.7513885498046875,-0.0611419677734375
1773522822500220200,5.74922021484375,-0.7862396240234375,0.7024688720703125,-0.0878753662109375
1773522822510259200,5.75925927734375,-0.7134552001953125,0.7137451171875,-0.1068267822265625
1773522822520297000,5.769296875,-0.7081298828125,0.6580047607421875,-0.19940185546875
1773522822530335200,5.779335205078125,-0.8029022216796875,0.62921142578125,-0.257354736328125
1773522822540373000,5.789373046875,-0.7965545654296875,0.6814422607421875,-0.2599029541015625
1773522822550412300,5.799412353515625,-0.75335693359375,0.71234130859375,-0.2761688232421875
1773522822560450000,5.809449951171875,-0.7160186767578125,0.6947174072265625,-0.333587646484375
1773522822570488300,5.81948828125,-0.719512939453125,0.6656341552734375,-0.40423583984375
1773522822580526000,5.829526123046875,-0.79931640625,0.657623291015625,-0.4505767822265625
1773522822590564000,5.839564208984375,-0.8510894775390625,0.6408538818359375,-0.4749603271484375
1773522822600603100,5.84960302734375,-0.7844085693359375,0.6079559326171875,-0.4313201904296875
1773522822610641000,5.859640869140625,-0.7580718994140625,0.612945556640625,-0.3364105224609375
1773522822620679200,5.86967919921875,-0.8080902099609375,0.6687469482421875,-0.2756805419921875
1773522822630717000,5.879717041015625,-0.8706512451171875,0.73260498046875,-0.3027801513671875
1773522822640756200,5.889756103515625,-0.8656463623046875,0.7572021484375,-0.247772216796875
1773522822650794000,5.8997939453125,-0.9140777587890625,0.7759246826171875,-0.17291259765625
1773522822660832300,5.909832275390625,-0.8108978271484375,0.724395751953125,-0.2666778564453125
1773522822670870000,5.9198701171875,-0.74444580078125,0.6417083740234375,-0.3235931396484375
1773522822680908300,5.929908203125,-0.7353515625,0.603271484375,-0.2959442138671875
1773522822690947000,5.939947021484375,-0.705841064453125,0.5662689208984375,-0.297576904296875
1773522822700985000,5.949985107421875,-0.696533203125,0.531158447265625,-0.32867431640625
1773522822711023000,5.960023193359375,-0.6742095947265625,0.52581787109375,-0.338409423828125
1773522822721060900,5.970060791015625,-0.66522216796875,0.54833984375,-0.333831787109375
1773522822731100200,5.98010009765625,-0.6645050048828125,0.588836669921875,-0.3365020751953125
1773522822741138200,5.99013818359375,-0.681976318359375,0.621978759765625,-0.325531005859375
1773522822751176200,6.00017626953125,-0.6731109619140625,0.6394500732421875,-0.2991943359375
1773522822761214000,6.0102138671875,-0.652252197265625,0.6251068115234375,-0.2855224609375
1773522822771252200,6.020252197265625,-0.6546478271484375,0.59814453125,-0.252593994140625
1773522822781291000,6.030291015625,-0.67498779296875,0.590545654296875,-0.2155609130859375
1773522822791329000,6.0403291015625,-0.708404541015625,0.60919189453125,-0.210357666015625
1773522822801367000,6.050366943359375,-0.7603302001953125,0.65264892578125,-0.2201690673828125
1773522822811405000,6.060405029296875,-0.85809326171875,0.7069854736328125,-0.226318359375
1773522822821444000,6.070444091796875,-0.918426513671875,0.7506866455078125,-0.2105560302734375
1773522822831482000,6.080482177734375,-0.86639404296875,0.7424163818359375,-0.200531005859375
1773522822841520000,6.09052001953125,-0.7789306640625,0.6715545654296875,-0.20538330078125
1773522822851558100,6.10055810546875,-0.73883056640625,0.5938720703125,-0.201812744140625
1773522822861597200,6.11059716796875,-0.7429962158203125,0.5406036376953125,-0.1897735595703125
1773522822871635200,6.12063525390625,-0.7181396484375,0.5115509033203125,-0.19342041015625
1773522822881673200,6.130673095703125,-0.7072601318359375,0.4969482421875,-0.20855712890625
1773522822891711000,6.1407109375,-0.649017333984375,0.503021240234375,-0.27191162109375
1773522822901749200,6.150749267578125,-0.689971923828125,0.5164794921875,-0.2960662841796875
1773522822911783700,6.16078369140625,-0.759429931640625,0.5283660888671875,-0.18341064453125
1773522822921821700,6.17082177734375,-0.79827880859375,0.4859466552734375,-0.222137451171875
1773522822931859700,6.180859619140625,-0.8383636474609375,0.484375,-0.3309783935546875
1773522822941897700,6.190897705078125,-0.81170654296875,0.5948333740234375,-0.295989990234375
1773522822951936800,6.200936767578125,-0.76959228515625,0.7141571044921875,-0.2790985107421875
1773522822961974500,6.210974609375,-0.8380889892578125,0.8161468505859375,-0.3240509033203125
1773522822972012800,6.2210126953125,-0.8883819580078125,0.80938720703125,-0.3751068115234375
1773522822982050600,6.231050537109375,-0.826141357421875,0.738800048828125,-0.44110107421875
1773522822992089900,6.24108984375,-0.7759246826171875,0.769622802734375,-0.3969268798828125
1773522823002127600,6.251127685546875,-0.8575439453125,0.821075439453125,-0.273834228515625
1773522823012166000,6.261165771484375,-0.9344635009765625,0.7332763671875,-0.322723388671875
1773522823022203600,6.27120361328125,-0.8214263916015625,0.6350555419921875,-0.379791259765625
1773522823032241700,6.28124169921875,-0.7759552001953125,0.5953369140625,-0.379150390625
1773522823042280700,6.29128076171875,-0.7958984375,0.7003173828125,-0.2449188232421875
1773522823052318500,6.301318359375,-0.8119659423828125,0.805816650390625,-0.1766510009765625
1773522823062356700,6.311356689453125,-0.8471832275390625,0.74365234375,-0.223907470703125
1773522823072394500,6.32139453125,-0.8420257568359375,0.622314453125,-0.2876739501953125
1773522823082433800,6.331433837890625,-0.8265380859375,0.611297607421875,-0.2851104736328125
1773522823092471600,6.341471435546875,-0.7957305908203125,0.6473846435546875,-0.262359619140625
1773522823102509800,6.351509765625,-0.7503509521484375,0.6584014892578125,-0.2374267578125
1773522823112547600,6.361547607421875,-0.78436279296875,0.6606292724609375,-0.216583251953125
1773522823122586600,6.371586669921875,-0.8150482177734375,0.6649932861328125,-0.193023681640625
1773522823132624600,6.381624755859375,-0.7904510498046875,0.669097900390625,-0.20941162109375
1773522823142662700,6.39166259765625,-0.781280517578125,0.6679534912109375,-0.213287353515625
1773522823152700700,6.40170068359375,-0.773651123046875,0.6776123046875,-0.1924896240234375
1773522823162739700,6.41173974609375,-0.7889556884765625,0.7472381591796875,-0.1529998779296875
1773522823172777700,6.42177783203125,-0.8634490966796875,0.7783203125,-0.1511383056640625
1773522823182815700,6.431815673828125,-0.8779144287109375,0.7670135498046875,-0.1918182373046875
1773522823192853800,6.441853759765625,-0.859039306640625,0.7699127197265625,-0.2660064697265625
1773522823202891500,6.4518916015625,-0.8356475830078125,0.8042449951171875,-0.3099822998046875
1773522823212930600,6.4619306640625,-0.7587127685546875,0.8496856689453125,-0.338165283203125
1773522823222968600,6.471968505859375,-0.6907501220703125,0.8624420166015625,-0.352783203125
1773522823233006600,6.482006591796875,-0.68731689453125,0.850372314453125,-0.319793701171875
1773522823243044600,6.492044677734375,-0.6959075927734375,0.822723388671875,-0.31866455078125
1773522823253083600,6.502083740234375,-0.7002716064453125,0.807647705078125,-0.32806396484375
1773522823263121700,6.51212158203125,-0.697784423828125,0.7751922607421875,-0.271759033203125
1773522823273159700,6.52215966796875,-0.6544342041015625,0.752685546875,-0.17108154296875
1773522823283197700,6.53219775390625,-0.5942840576171875,0.753997802734375,-0.12969970703125
1773522823293236700,6.54223681640625,-0.4871978759765625,0.76092529296875,-0.135528564453125
1773522823303274800,6.552274658203125,-0.4020233154296875,0.7583465576171875,-0.1788177490234375
1773522823313312800,6.562312744140625,-0.3780670166015625,0.7588653564453125,-0.2327880859375
1773522823323350800,6.572350830078125,-0.405670166015625,0.7779998779296875,-0.2666778564453125
1773522823333389800,6.582389892578125,-0.4200286865234375,0.800537109375,-0.267303466796875
1773522823343427600,6.592427490234375,-0.399322509765625,0.8185882568359375,-0.258941650390625
1773522823353465900,6.6024658203125,-0.3847808837890625,0.843658447265625,-0.273529052734375
1773522823363503600,6.612503662109375,-0.3613128662109375,0.872283935546875,-0.2828521728515625
1773522823373541600,6.622541748046875,-0.351287841796875,0.8857269287109375,-0.2781219482421875
1773522823383580700,6.63258056640625,-0.3542938232421875,0.8746795654296875,-0.264862060546875
1773522823393618700,6.64261865234375,-0.386962890625,0.8741455078125,-0.2637481689453125
1773522823403656700,6.65265673828125,-0.411376953125,0.868408203125,-0.2462921142578125
1773522823413694700,6.66269482421875,-0.386871337890625,0.8573150634765625,-0.18939208984375
1773522823423733800,6.672733642578125,-0.3197174072265625,0.8370361328125,-0.1337432861328125
1773522823433771500,6.682771484375,-0.2537841796875,0.8197784423828125,-0.117828369140625
1773522823443809800,6.692809814453125,-0.2261962890625,0.826995849609375,-0.1374664306640625
1773522823453847600,6.70284765625,-0.2548980712890625,0.870269775390625,-0.1710052490234375
1773522823463886800,6.712886962890625,-0.32183837890625,0.943084716796875,-0.2062530517578125
1773522823473924600,6.722924560546875,-0.410308837890625,1.010589599609375,-0.2138519287109375
1773522823483963000,6.732962890625,-0.4780426025390625,1.0240325927734375,-0.163299560546875
1773522823494000600,6.743000732421875,-0.475341796875,0.9777984619140625,-0.095733642578125
1773522823504039700,6.753039794921875,-0.4206390380859375,0.8952484130859375,-0.0356903076171875
1773522823514077700,6.76307763671875,-0.3689727783203125,0.800323486328125,0.016326904296875
1773522823524115700,6.77311572265625,-0.3157196044921875,0.71527099609375,0.0597686767578125
1773522823534153700,6.78315380859375,-0.2901153564453125,0.6431732177734375,0.0974273681640625
1773522823544192800,6.79319287109375,-0.303314208984375,0.595733642578125,0.125946044921875
1773522823554230800,6.803230712890625,-0.325714111328125,0.5799407958984375,0.14971923828125
1773522823564268500,6.8132685546875,-0.3489837646484375,0.5828094482421875,0.172454833984375
1773522823574306800,6.823306884765625,-0.3759307861328125,0.6025390625,0.1862335205078125
1773522823584345600,6.833345703125,-0.3909912109375,0.6435546875,0.1725921630859375
1773522823594383600,6.843383544921875,-0.4031829833984375,0.7069854736328125,0.1342010498046875
1773522823604421600,6.853421630859375,-0.4146575927734375,0.7922210693359375,0.0963897705078125
1773522823614459600,6.863459716796875,-0.423492431640625,0.9043731689453125,0.0693359375
1773522823624498700,6.873498779296875,-0.4578399658203125,1.036712646484375,0.0605926513671875
1773522823634536700,6.88353662109375,-0.511383056640625,1.1655426025390625,0.0521392822265625
1773522823644574700,6.89357470703125,-0.5713348388671875,1.279571533203125,0.03326416015625
1773522823654612700,6.90361279296875,-0.612152099609375,1.2819671630859375,0.0070343017578125
1773522823664650800,6.913650634765625,-0.598388671875,1.140350341796875,-0.0058441162109375
1773522823674689800,6.923689697265625,-0.5750732421875,0.9696197509765625,0.0013885498046875
1773522823684727600,6.9337275390625,-0.5416717529296875,0.8664398193359375,0.0115203857421875
1773522823694765600,6.943765625,-0.4867401123046875,0.8306884765625,0.01068115234375
1773522823704803600,6.953803466796875,-0.4212799072265625,0.8353271484375,-0.0126800537109375
1773522823714843000,6.9638427734375,-0.364105224609375,0.8812103271484375,-0.0330047607421875
1773522823724880600,6.973880615234375,-0.3350067138671875,0.9408111572265625,-0.0327606201171875
1773522823734918700,6.983918701171875,-0.3318023681640625,0.993804931640625,-0.013519287109375
1773522823744956700,6.993956787109375,-0.34625244140625,1.05712890625,0.000732421875
1773522823754995700,7.00399560546875,-0.352264404296875,1.131378173828125,-0.015625
1773522823765033700,7.01403369140625,-0.347412109375,1.1700286865234375,-0.05474853515625
1773522823775071700,7.02407177734375,-0.358428955078125,1.1415252685546875,-0.094482421875
1773522823785109800,7.03410986328125,-0.403594970703125,1.0550537109375,-0.13555908203125
1773522823795148500,7.0441484375,-0.427886962890625,0.94195556640625,-0.1855010986328125
1773522823805186800,7.054186767578125,-0.3562774658203125,0.8894500732421875,-0.2488555908203125
1773522823815224600,7.064224609375,-0.19512939453125,0.920379638671875,-0.2946624755859375
1773522823825262800,7.074262939453125,-0.016326904296875,1.0098876953125,-0.3325653076171875
1773522823835301600,7.084301513671875,0.1311798095703125,1.109710693359375,-0.3645172119140625
1773522823845339600,7.094339599609375,0.234588623046875,1.16436767578125,-0.4058837890625
1773522823855377700,7.104377685546875,0.2789459228515625,1.1500091552734375,-0.4459228515625
1773522823865415700,7.114415771484375,0.265625,1.1009521484375,-0.474151611328125
1773522823875454700,7.124454833984375,0.200714111328125,1.020965576171875,-0.489990234375
1773522823885492700,7.13449267578125,0.109527587890625,0.931976318359375,-0.50445556640625
1773522823895530800,7.14453076171875,0.043212890625,0.8787384033203125,-0.5149688720703125
1773522823905568500,7.154568603515625,0.0185546875,0.8772430419921875,-0.5367889404296875
1773522823915608800,7.16460888671875,-0.00152587890625,0.910064697265625,-0.5721435546875
1773522823925646800,7.174646728515625,-0.05078125,0.9514312744140625,-0.61962890625
1773522823935684900,7.184684814453125,-0.0752105712890625,0.980255126953125,-0.67138671875
1773522823945723000,7.194722900390625,-0.06396484375,0.9925079345703125,-0.698486328125
1773522823955762000,7.204761962890625,-0.009735107421875,0.95068359375,-0.6613006591796875
1773522823965800000,7.214800048828125,0.071533203125,0.902374267578125,-0.5781402587890625
1773522823975837700,7.224837646484375,0.1043701171875,0.8754425048828125,-0.4797821044921875
1773522823985876000,7.2348759765625,0.094268798828125,0.8646392822265625,-0.381561279296875
1773522823995914800,7.244914794921875,0.05963134765625,0.8939361572265625,-0.28363037109375
1773522824005952800,7.254952880859375,0.00433349609375,0.948333740234375,-0.1796112060546875
1773522824015990800,7.26499072265625,-0.058441162109375,1.027801513671875,-0.0946807861328125
1773522824026028800,7.27502880859375,-0.1365509033203125,1.09600830078125,-0.0371856689453125
1773522824036067800,7.28506787109375,-0.2159271240234375,1.1204376220703125,0.005706787109375
1773522824046105900,7.29510595703125,-0.2676544189453125,1.1082763671875,0.045166015625
1773522824056144000,7.305143798828125,-0.2837982177734375,1.0823974609375,0.090545654296875
1773522824066182000,7.315181884765625,-0.27252197265625,1.0517120361328125,0.138824462890625
1773522824076220700,7.325220703125,-0.2419586181640625,1.0166473388671875,0.186553955078125
1773522824086259000,7.335259033203125,-0.20074462890625,0.977447509765625,0.218353271484375
1773522824096296700,7.345296630859375,-0.146331787109375,0.95037841796875,0.2187042236328125
1773522824106335000,7.3553349609375,-0.0897369384765625,0.9647369384765625,0.1858367919921875
1773522824116373800,7.365373779296875,-0.0731658935546875,0.96002197265625,0.1107025146484375
1773522824126412000,7.375412109375,-0.0791778564453125,0.9208526611328125,0.01361083984375
1773522824136449800,7.38544970703125,-0.055419921875,0.93560791015625,-0.07354736328125
1773522824146487800,7.39548779296875,-0.0037994384765625,0.979827880859375,-0.1450042724609375
1773522824156526800,7.40552685546875,0.0640716552734375,1.0129241943359375,-0.195770263671875
1773522824166564600,7.415564697265625,0.1270904541015625,1.017608642578125,-0.22137451171875
1773522824176603000,7.425602783203125,0.1549530029296875,0.9813079833984375,-0.2227935791015625
1773522824186640600,7.435640625,0.14556884765625,0.9134674072265625,-0.2095947265625
1773522824196680000,7.445679931640625,0.1244049072265625,0.834747314453125,-0.1878509521484375
1773522824206717700,7.4557177734375,0.1103515625,0.77484130859375,-0.1644744873046875
1773522824216756000,7.465755859375,0.0973968505859375,0.7369232177734375,-0.1329498291015625
1773522824226793700,7.475793701171875,0.0812835693359375,0.70947265625,-0.10028076171875
1773522824236832800,7.485832763671875,0.054046630859375,0.6934356689453125,-0.0743560791015625
1773522824246870800,7.495870849609375,0.01885986328125,0.7144317626953125,-0.05535888671875
1773522824256908800,7.50590869140625,-0.011383056640625,0.809906005859375,-0.047943115234375
1773522824266946800,7.51594677734375,-0.012939453125,0.953277587890625,-0.0530242919921875
1773522824276985900,7.52598583984375,-0.000335693359375,1.0870819091796875,-0.0601959228515625
1773522824287023900,7.53602392578125,0.009857177734375,1.1836090087890625,-0.0589599609375
1773522824297062000,7.546061767578125,0.0059051513671875,1.2409515380859375,-0.0441131591796875
1773522824307100000,7.556099853515625,-0.011016845703125,1.2626953125,-0.0182342529296875
1773522824317139000,7.566138916015625,-0.0238494873046875,1.2567901611328125,0.0094451904296875
1773522824327176700,7.5761767578125,-0.0220489501953125,1.216094970703125,0.03173828125
1773522824337214700,7.586214599609375,-0.011260986328125,1.1497802734375,0.051055908203125
1773522824347252700,7.596252685546875,-0.0101165771484375,1.0762176513671875,0.068603515625
1773522824357291800,7.606291748046875,-0.024566650390625,1.0331573486328125,0.090087890625
1773522824367329800,7.616329833984375,-0.0328826904296875,1.05078125,0.10992431640625
1773522824377367800,7.626367919921875,-0.0238800048828125,1.114501953125,0.099761962890625
1773522824387406800,7.63640673828125,0.0027313232421875,1.0825958251953125,0.0346221923828125
1773522824397444600,7.646444580078125,0.043212890625,1.0107879638671875,-0.0307159423828125
1773522824407483000,7.65648291015625,0.0802001953125,1.0076904296875,-0.074493408203125
1773522824417520600,7.666520751953125,0.10430908203125,1.0390472412109375,-0.112030029296875
1773522824427560000,7.676559814453125,0.127471923828125,1.054779052734375,-0.1449127197265625
1773522824437597700,7.68659765625,0.1510467529296875,1.02691650390625,-0.1635284423828125
1773522824447636000,7.696635986328125,0.14794921875,0.9285888671875,-0.16448974609375
1773522824457673700,7.706673828125,0.105804443359375,0.8016510009765625,-0.1609039306640625
1773522824467712800,7.716712646484375,0.0628509521484375,0.7567596435546875,-0.177581787109375
1773522824477750800,7.726750732421875,0.0486297607421875,0.9085540771484375,-0.2068634033203125
1773522824487788800,7.736788818359375,0.035888671875,1.148590087890625,-0.1956329345703125
1773522824497826800,7.746826904296875,0.001922607421875,1.292022705078125,-0.1411895751953125
1773522824507865900,7.756865966796875,-0.061126708984375,1.210418701171875,-0.0590057373046875
1773522824517904000,7.76690380859375,-0.1388702392578125,1.0488128662109375,0.0126953125
1773522824527941600,7.776941650390625,-0.1864013671875,0.9763031005859375,0.0600433349609375
1773522824537980000,7.78697998046875,-0.21697998046875,0.961212158203125,0.091949462890625
1773522824548018700,7.797018798828125,-0.225494384765625,0.970550537109375,0.1035614013671875
1773522824558056700,7.807056640625,-0.187652587890625,0.992462158203125,0.0993499755859375
1773522824568094700,7.8170947265625,-0.1213531494140625,1.02032470703125,0.0938262939453125
1773522824578133000,7.827133056640625,-0.072174072265625,1.0311126708984375,0.09039306640625
1773522824588171800,7.837171875,-0.0543365478515625,0.9813385009765625,0.051116943359375
1773522824598209800,7.847209716796875,-0.0390472412109375,0.9647064208984375,0.0214996337890625
1773522824608247800,7.857247802734375,-0.0108642578125,0.999176025390625,0.0166778564453125
1773522824618285800,7.867285888671875,0.017120361328125,1.0408477783203125,0.017608642578125
1773522824628324900,7.877324951171875,0.038970947265625,1.073150634765625,0.022491455078125
1773522824638363000,7.88736279296875,0.0353546142578125,1.082672119140625,0.0468292236328125
1773522824648401000,7.89740087890625,-0.011749267578125,1.050384521484375,0.0832366943359375
1773522824658439000,7.90743896484375,-0.0847930908203125,1.0218658447265625,0.1338043212890625
1773522824668477700,7.917477783203125,-0.1446075439453125,0.9403839111328125,0.1529693603515625
1773522824678516000,7.927515869140625,-0.164794921875,0.8457183837890625,0.147857666015625
1773522824688553700,7.9375537109375,-0.173248291015625,0.813995361328125,0.1457672119140625
1773522824698591700,7.947591796875,-0.181549072265625,0.859344482421875,0.147918701171875
1773522824708630800,7.957630859375,-0.1885986328125,0.9522705078125,0.152587890625
1773522824718668800,7.967668701171875,-0.18572998046875,1.05584716796875,0.156890869140625
1773522824728706800,7.977706787109375,-0.1497802734375,1.11944580078125,0.1535186767578125
1773522824738744800,7.987744873046875,-0.085174560546875,1.09954833984375,0.1416168212890625
1773522824748783900,7.997783935546875,-0.0487060546875,1.0226898193359375,0.1407470703125
1773522824758821600,8.007821533203124,-0.07086181640625,0.9191741943359375,0.137603759765625
1773522824768860000,8.01785986328125,-0.140350341796875,0.8351898193359375,0.1351318359375
1773522824778897700,8.027897705078125,-0.1852264404296875,0.8206024169921875,0.1300506591796875
1773522824788937000,8.03793701171875,-0.1345367431640625,0.867156982421875,0.1136627197265625
1773522824798974700,8.047974609375,-0.0461883544921875,0.8990020751953125,0.0896759033203125
1773522824809013000,8.058012939453125,0.005859375,0.8867950439453125,0.0704498291015625
1773522824819051800,8.0680517578125,0.0016326904296875,0.8620758056640625,0.06378173828125
1773522824829089800,8.07808984375,-0.0517425537109375,0.7890167236328125,0.044189453125
1773522824839127800,8.0881279296875,-0.1044921875,0.7716522216796875,0.0088958740234375
1773522824849165800,8.098165771484375,-0.103302001953125,0.88275146484375,-0.0183563232421875
1773522824859204900,8.108204833984376,-0.0727386474609375,1.0161285400390625,-0.024871826171875
1773522824869243000,8.118242919921874,-0.0517425537109375,1.0732574462890625,-0.018096923828125
1773522824879281000,8.128281005859375,-0.0717010498046875,1.1060638427734375,-0.008575439453125
1773522824889318700,8.138318603515625,-0.1191864013671875,1.1341705322265625,0.0134124755859375
1773522824899357700,8.148357666015626,-0.1691131591796875,1.1220245361328125,0.046905517578125
1773522824909395700,8.158395751953124,-0.1798553466796875,1.06231689453125,0.0878448486328125
1773522824919433000,8.168432861328125,-0.1768951416015625,0.99578857421875,0.1271820068359375
1773522824929470700,8.178470703125,-0.173431396484375,0.9591522216796875,0.1648406982421875
1773522824939509800,8.188509765625,-0.190521240234375,0.93695068359375,0.2062835693359375
1773522824949547800,8.1985478515625,-0.2559967041015625,0.901947021484375,0.240753173828125
1773522824959585800,8.208585693359375,-0.323486328125,0.906158447265625,0.25
1773522824969623800,8.218623779296875,-0.337249755859375,0.9853973388671875,0.24053955078125
1773522824979662800,8.228662841796876,-0.2694854736328125,1.0501861572265625,0.21478271484375
1773522824989700900,8.238700927734374,-0.1936187744140625,1.0556182861328125,0.1926727294921875
1773522824999738600,8.248738525390625,-0.146209716796875,1.0769195556640625,0.17529296875
1773522825009777000,8.25877685546875,-0.1300506591796875,1.115814208984375,0.166595458984375
1773522825019816000,8.26881591796875,-0.15863037109375,1.16455078125,0.169036865234375
1773522825029853700,8.278853759765624,-0.1637420654296875,1.174896240234375,0.152801513671875
1773522825039891700,8.2888916015625,-0.1277618408203125,1.129486083984375,0.1382598876953125
1773522825049930800,8.2989306640625,-0.0861358642578125,1.1017608642578125,0.15496826171875
1773522825059968800,8.30896875,-0.062225341796875,1.109771728515625,0.1759033203125
1773522825070006800,8.3190068359375,-0.0708465576171875,1.17572021484375,0.2049407958984375
1773522825080044800,8.329044921875,-0.1041412353515625,1.2811431884765625,0.227752685546875
1773522825090083800,8.339083740234376,-0.174560546875,1.3469085693359375,0.226470947265625
1773522825100121900,8.349121826171874,-0.2729339599609375,1.284271240234375,0.167327880859375
1773522825110160000,8.359159912109375,-0.3811798095703125,1.182098388671875,0.0845947265625
1773522825120198000,8.369197998046875,-0.5065460205078125,1.1570892333984375,-0.01751708984375
1773522825130237000,8.37923681640625,-0.617950439453125,1.1922149658203125,-0.1510009765625
1773522825140274700,8.389274658203124,-0.6222076416015625,1.2501220703125,-0.2728271484375
1773522825150313000,8.39931298828125,-0.4900360107421875,1.2419281005859375,-0.32696533203125
1773522825160350700,8.409350830078125,-0.329986572265625,1.181488037109375,-0.313446044921875
1773522825170390000,8.41939013671875,-0.215423583984375,1.1202392578125,-0.288482666015625
1773522825180427800,8.429427734375,-0.1558074951171875,1.061737060546875,-0.2665252685546875
1773522825190466000,8.439466064453125,-0.1334686279296875,1.003692626953125,-0.2587127685546875
1773522825200503800,8.44950390625,-0.1297149658203125,0.9756622314453125,-0.267364501953125
1773522825210542800,8.45954296875,-0.0995941162109375,1.0136871337890625,-0.264373779296875
1773522825220580900,8.469580810546875,-0.0664215087890625,1.0620574951171875,-0.2449951171875
1773522825230618600,8.47961865234375,-0.065460205078125,1.0790557861328125,-0.2197265625
1773522825240657000,8.489656982421875,-0.0683441162109375,1.059600830078125,-0.13433837890625
1773522825250695700,8.49969580078125,-0.1048126220703125,1.0028839111328125,-0.0415802001953125
1773522825260734000,8.50973388671875,-0.1613922119140625,0.9405517578125,0.012237548828125
1773522825270771700,8.519771728515625,-0.1936798095703125,0.873626708984375,0.0351409912109375
1773522825280810800,8.529810791015626,-0.2000274658203125,0.809906005859375,0.0413055419921875
1773522825290848800,8.539848876953124,-0.1981048583984375,0.7742919921875,0.0340728759765625
1773522825300886800,8.54988671875,-0.20037841796875,0.7726593017578125,0.0078887939453125
1773522825310924800,8.5599248046875,-0.2128448486328125,0.787261962890625,-0.0345001220703125
1773522825320963800,8.5699638671875,-0.227630615234375,0.813385009765625,-0.078338623046875
1773522825331001900,8.580001953125,-0.236907958984375,0.8341064453125,-0.1133575439453125
1773522825341039900,8.590039794921875,-0.2426300048828125,0.8390045166015625,-0.13275146484375
1773522825351078000,8.600077880859375,-0.2555084228515625,0.8437652587890625,-0.13232421875
1773522825361117000,8.610116943359374,-0.2767181396484375,0.8561859130859375,-0.1241912841796875
1773522825371154700,8.62015478515625,-0.3117523193359375,0.8916168212890625,-0.1053466796875
1773522825381193000,8.63019287109375,-0.3418121337890625,0.9420166015625,-0.0774078369140625
1773522825391230700,8.640230712890625,-0.3602142333984375,0.9965362548828125,-0.0377960205078125
1773522825401270000,8.65027001953125,-0.3657684326171875,1.0127716064453125,0.0058441162109375
1773522825411307800,8.660307861328125,-0.3679351806640625,0.9771881103515625,0.044342041015625
1773522825421345800,8.670345703125,-0.3682708740234375,0.929290771484375,0.07696533203125
1773522825431383800,8.6803837890625,-0.3724212646484375,0.90081787109375,0.0880889892578125
1773522825441422600,8.690422607421874,-0.360076904296875,0.875213623046875,0.0910797119140625
1773522825451460900,8.7004609375,-0.3472747802734375,0.8620147705078125,0.0955352783203125
1773522825461498600,8.71049853515625,-0.336334228515625,0.872833251953125,0.0918121337890625
1773522825471537000,8.720536865234376,-0.332763671875,0.8744964599609375,0.1050872802734375
1773522825481575700,8.73057568359375,-0.3444976806640625,0.857391357421875,0.0958099365234375
1773522825491614000,8.740614013671875,-0.341339111328125,0.8435211181640625,0.07666015625
1773522825501651700,8.750651611328125,-0.3279571533203125,0.860137939453125,0.05474853515625
1773522825511690800,8.760690673828124,-0.31658935546875,0.8968048095703125,0.025421142578125
1773522825521728800,8.770728759765625,-0.3115692138671875,0.9300689697265625,-0.04437255859375
1773522825531766800,8.780766845703125,-0.30712890625,0.9447021484375,-0.1569976806640625
1773522825541804800,8.7908046875,-0.3016204833984375,0.93536376953125,-0.2576904296875
1773522825551843800,8.80084375,-0.2940826416015625,0.9033660888671875,-0.3386077880859375
1773522825561881900,8.8108818359375,-0.25750732421875,0.8619537353515625,-0.404541015625
1773522825571920000,8.820919921875,-0.206878662109375,0.8131103515625,-0.450836181640625
1773522825581958000,8.8309580078125,-0.179656982421875,0.7836761474609375,-0.4688568115234375
1773522825591997000,8.840996826171875,-0.182159423828125,0.77581787109375,-0.47113037109375
1773522825602034700,8.85103466796875,-0.212982177734375,0.7764129638671875,-0.463714599609375
1773522825612072700,8.86107275390625,-0.252349853515625,0.7714385986328125,-0.4318389892578125
1773522825622110700,8.87111083984375,-0.2768402099609375,0.771636962890625,-0.379669189453125
1773522825632149800,8.881149658203125,-0.283721923828125,0.7939300537109375,-0.3168182373046875
1773522825642187800,8.891187744140625,-0.2847137451171875,0.8401031494140625,-0.246673583984375
1773522825652225800,8.901225830078126,-0.290924072265625,0.87799072265625,-0.1630096435546875
1773522825662263800,8.911263916015624,-0.3093414306640625,0.8877105712890625,-0.070404052734375
1773522825672302800,8.921302734375,-0.337188720703125,0.8846282958984375,0.004852294921875
1773522825682340900,8.9313408203125,-0.3723297119140625,0.8862457275390625,0.05462646484375
1773522825692379000,8.94137890625,-0.4176177978515625,0.886322021484375,0.1037139892578125
1773522825702417000,8.9514169921875,-0.4878387451171875,0.87408447265625,0.154144287109375
1773522825712455700,8.96145556640625,-0.5509796142578125,0.8595123291015625,0.2008819580078125
1773522825722494000,8.971493896484375,-0.5973968505859375,0.8527374267578125,0.2361907958984375
1773522825732531700,8.98153173828125,-0.618438720703125,0.86895751953125,0.2577056884765625
1773522825742570800,8.99157080078125,-0.615631103515625,0.908111572265625,0.2675323486328125
1773522825752608800,9.00160888671875,-0.607269287109375,0.971405029296875,0.255767822265625
1773522825762647000,9.01164697265625,-0.6278076171875,1.0326080322265625,0.2249908447265625
1773522825772684800,9.021684814453126,-0.6253814697265625,1.086578369140625,0.1692352294921875
1773522825782723800,9.031723876953125,-0.5463104248046875,1.16033935546875,0.1192169189453125
1773522825792761900,9.041761962890625,-0.48248291015625,1.2641143798828125,0.0785675048828125
1773522825802799600,9.051799560546876,-0.6031494140625,1.380645751953125,0.0720062255859375
1773522825812838000,9.061837890625,-0.6201171875,1.35198974609375,0.173614501953125
1773522825822876700,9.071876708984375,-0.3436737060546875,1.21246337890625,0.314483642578125
1773522825832915000,9.0819150390625,-0.0710601806640625,1.0190277099609375,0.268463134765625
1773522825842952700,9.09195263671875,0.0434112548828125,0.9005126953125,0.17376708984375
1773522825852991000,9.101990966796874,0.07415771484375,0.8118133544921875,0.128692626953125
1773522825863029800,9.11202978515625,0.0332489013671875,0.748260498046875,0.112335205078125
1773522825873067800,9.12206787109375,-0.1735687255859375,0.7657928466796875,0.1669158935546875
1773522825883105800,9.132105712890626,-0.565704345703125,0.9111175537109375,0.2381134033203125
1773522825893143800,9.142143798828124,-0.6164398193359375,1.0438385009765625,0.030364990234375
1773522825903182800,9.152182861328125,-0.2986297607421875,1.02398681640625,-0.1135406494140625
1773522825913221400,9.162221435546876,0.001495361328125,1.0386810302734375,-0.1421661376953125
1773522825923259100,9.172259033203124,0.1674041748046875,1.0433502197265625,-0.1902923583984375
1773522825933297400,9.18229736328125,0.2128448486328125,0.99090576171875,-0.2579345703125
1773522825943336200,9.192336181640625,0.1833038330078125,0.9154205322265625,-0.3063812255859375
1773522825953374500,9.20237451171875,0.1473236083984375,0.8624725341796875,-0.29302978515625
1773522825963412200,9.212412109375,0.1490478515625,0.85400390625,-0.20330810546875
1773522825973450500,9.222450439453125,0.160247802734375,0.9103240966796875,-0.063812255859375
1773522825983489300,9.2324892578125,0.1260528564453125,0.9670867919921875,0.0296173095703125
1773522825993527300,9.24252734375,0.05792236328125,0.991119384765625,0.088134765625
1773522826003565300,9.2525654296875,-0.0499267578125,1.0186309814453125,0.1448822021484375
1773522826013603300,9.262603271484375,-0.1645660400390625,1.0672760009765625,0.186859130859375
1773522826023642400,9.272642333984376,-0.233428955078125,1.03814697265625,0.1420135498046875
1773522826033680100,9.28268017578125,-0.1989593505859375,0.959136962890625,0.076263427734375
1773522826043718400,9.292718505859375,-0.1321258544921875,0.9264068603515625,0.04736328125
1773522826053756200,9.302756103515625,-0.1004180908203125,0.91546630859375,0.0257110595703125
1773522826063795500,9.31279541015625,-0.1073760986328125,0.9021453857421875,0.0064849853515625
1773522826073833200,9.322833251953124,-0.10845947265625,0.9230804443359375,-0.0030975341796875
1773522826083871500,9.33287158203125,-0.0739593505859375,0.9661865234375,0.0002593994140625
1773522826093910300,9.34291015625,-0.001953125,0.9568023681640625,-0.008575439453125
1773522826103948300,9.3529482421875,0.052764892578125,0.93060302734375,-0.01300048828125
1773522826113986300,9.362986328125,0.08831787109375,0.9600830078125,-0.0135498046875
1773522826124024300,9.3730244140625,0.1082916259765625,1.050384521484375,-0.01837158203125
1773522826134063400,9.3830634765625,0.1051788330078125,1.146728515625,-0.02838134765625
1773522826144101400,9.393101318359374,0.0749359130859375,1.207000732421875,-0.0325164794921875
1773522826154139400,9.403139404296875,0.019134521484375,1.219879150390625,-0.0381317138671875
1773522826164177400,9.413177490234375,-0.045257568359375,1.142059326171875,-0.0518646240234375
1773522826174216200,9.42321630859375,-0.0880889892578125,1.0438690185546875,-0.06231689453125
1773522826184254500,9.43325439453125,-0.1001129150390625,1.0118865966796875,-0.0598297119140625
1773522826194292200,9.443292236328125,-0.1052703857421875,1.0102386474609375,-0.038604736328125
1773522826204330200,9.453330322265625,-0.11419677734375,1.0127410888671875,-0.0120697021484375
1773522826214369300,9.463369384765626,-0.128662109375,0.999176025390625,0.01251220703125
1773522826224407300,9.4734072265625,-0.1340179443359375,0.958953857421875,0.0220947265625
1773522826234445300,9.4834453125,-0.0975341796875,0.918914794921875,0.009521484375
1773522826244483300,9.4934833984375,-0.034912109375,0.917724609375,-0.026580810546875
1773522826254522400,9.5035224609375,0.025360107421875,0.9613189697265625,-0.06890869140625
1773522826264560000,9.51356005859375,0.0649871826171875,0.9982452392578125,-0.0950775146484375
1773522826274598400,9.523598388671875,0.08843994140625,1.0146484375,-0.11212158203125
1773522826284636200,9.53363623046875,0.1033172607421875,1.0359649658203125,-0.12689208984375
1773522826294675500,9.543675537109374,0.1123809814453125,1.0677337646484375,-0.133056640625
1773522826304713200,9.553713134765625,0.1188201904296875,1.09326171875,-0.1354217529296875
1773522826314751500,9.56375146484375,0.117950439453125,1.093902587890625,-0.133544921875
1773522826324789200,9.573789306640625,0.11285400390625,1.0728302001953125,-0.1205902099609375
1773522826334828300,9.583828369140624,0.1007080078125,1.0326080322265625,-0.10479736328125
1773522826344866300,9.5938662109375,0.082763671875,0.9819793701171875,-0.087738037109375
1773522826354904300,9.603904296875,0.0666961669921875,0.93255615234375,-0.072998046875
1773522826364942300,9.6139423828125,0.054656982421875,0.9034576416015625,-0.0588836669921875
1773522826374981400,9.6239814453125,0.044708251953125,0.9120635986328125,-0.04486083984375
1773522826385019400,9.634019287109375,0.0326080322265625,0.9644317626953125,-0.03594970703125
1773522826395057200,9.64405712890625,0.0213470458984375,1.0039215087890625,-0.031341552734375
1773522826405095400,9.654095458984376,0.012451171875,1.0259552001953125,-0.0353851318359375
1773522826415134500,9.664134521484375,0.017242431640625,1.0377655029296875,-0.0457763671875
1773522826425172200,9.674172119140625,0.0257415771484375,1.0381927490234375,-0.0557098388671875
1773522826435210200,9.684210205078125,0.0290679931640625,1.0330963134765625,-0.0666961669921875
1773522826445248300,9.694248291015626,0.02032470703125,1.0200958251953125,-0.07965087890625
1773522826455287300,9.704287353515625,0.0088348388671875,1.00079345703125,-0.099334716796875
1773522826465325300,9.7143251953125,-0.000762939453125,1.00006103515625,-0.126953125
1773522826475363300,9.72436328125,-0.0025482177734375,1.04052734375,-0.1511688232421875
1773522826485401300,9.7344013671875,0.00762939453125,1.0988006591796875,-0.1493682861328125
1773522826495440100,9.744440185546875,0.00927734375,1.093414306640625,-0.137542724609375
1773522826505478400,9.754478515625,-0.00537109375,1.04449462890625,-0.121978759765625
1773522826515516200,9.76451611328125,-0.0696563720703125,1.01153564453125,-0.094482421875
1773522826525554400,9.774554443359374,-0.2454986572265625,1.0137481689453125,-0.058837890625
1773522826535593200,9.78459326171875,-0.5156097412109375,1.025848388671875,-0.0233917236328125
1773522826545631500,9.794631591796875,-0.6484527587890625,1.002105712890625,-0.0024566650390625
1773522826555669200,9.804669189453126,-0.5795135498046875,1.0424041748046875,-0.005157470703125
1773522826565707300,9.814707275390624,-0.4102783203125,1.146148681640625,-0.0149383544921875
1773522826575746300,9.824746337890625,-0.24761962890625,1.20513916015625,-0.029022216796875
1773522826585784300,9.834784423828125,-0.1261444091796875,1.2175140380859375,-0.0375823974609375
1773522826595822300,9.844822265625,-0.0623321533203125,1.2398529052734375,-0.034088134765625
1773522826605860400,9.8548603515625,-0.0267791748046875,1.294891357421875,-0.0388641357421875
1773522826615899400,9.8648994140625,0.027923583984375,1.3082733154296875,-0.04638671875
1773522826625937200,9.874937255859376,0.0617828369140625,1.2781982421875,-0.050323486328125
1773522826635975400,9.884975341796874,0.0565643310546875,1.2071990966796875,-0.0573272705078125
1773522826646013200,9.89501318359375,0.006378173828125,1.081024169921875,-0.0703582763671875
1773522826656052200,9.90505224609375,-0.0729827880859375,0.9670867919921875,-0.100311279296875
1773522826666090200,9.91509033203125,-0.1982269287109375,0.9362945556640625,-0.181060791015625
1773522826676128500,9.92512841796875,-0.410888671875,0.9695587158203125,-0.313232421875
1773522826686166300,9.935166259765625,-0.5870513916015625,1.0019378662109375,-0.4191436767578125
1773522826696205300,9.945205322265625,-0.5799102783203125,1.001708984375,-0.444183349609375
1773522826706243300,9.955243408203126,-0.367279052734375,0.9688262939453125,-0.3713226318359375
1773522826716281300,9.96528125,-0.1420440673828125,0.9316558837890625,-0.289520263671875
1773522826726319400,9.9753193359375,0.0040740966796875,0.8946990966796875,-0.2529449462890625
1773522826736358400,9.9853583984375,0.054656982421875,0.857574462890625,-0.259552001953125
1773522826746396400,9.995396484375,0.0079498291015625,0.8229522705078125,-0.308197021484375
1773522826756434200,10.00543408203125,-0.0816192626953125,0.8229827880859375,-0.3743438720703125
1773522826766472400,10.015472412109375,-0.1409912109375,0.85577392578125,-0.3803253173828125
1773522826776511200,10.02551123046875,-0.1411590576171875,0.8917236328125,-0.3208465576171875
1773522826786549200,10.03554931640625,-0.139190673828125,0.9114837646484375,-0.2281341552734375
1773522826796587300,10.045587158203125,-0.1720123291015625,0.91912841796875,-0.1371307373046875
1773522826806625300,10.055625244140625,-0.238800048828125,0.9269866943359375,-0.0520172119140625
1773522826816664300,10.065664306640626,-0.3035430908203125,0.9301910400390625,0.0273895263671875
1773522826826702300,10.075702392578124,-0.3330841064453125,0.9289398193359375,0.0948028564453125
1773522826836740400,10.085740234375,-0.334228515625,0.9141845703125,0.143096923828125
1773522826846778400,10.0957783203125,-0.303253173828125,0.885589599609375,0.1712188720703125
1773522826856817200,10.105817138671876,-0.2408599853515625,0.8550262451171875,0.1850128173828125
1773522826866855400,10.11585546875,-0.1697845458984375,0.8226165771484375,0.18206787109375
1773522826876893200,10.12589306640625,-0.1381988525390625,0.79498291015625,0.142852783203125
1773522826886931500,10.135931396484375,-0.1788787841796875,0.7375030517578125,0.026885986328125
1773522826896970200,10.14597021484375,-0.2632598876953125,0.643890380859375,-0.1035308837890625
1773522826907008500,10.156008544921875,-0.3478240966796875,0.5796966552734375,-0.182952880859375
1773522826917045800,10.166045654296875,-0.4190826416015625,0.5608673095703125,-0.238372802734375
1773522826927084000,10.176083984375,-0.440093994140625,0.5606689453125,-0.2626800537109375
1773522826937122800,10.186122802734374,-0.3835906982421875,0.5567169189453125,-0.23699951171875
1773522826947160800,10.196160888671875,-0.29144287109375,0.562103271484375,-0.195281982421875
1773522826957198800,10.20619873046875,-0.22003173828125,0.5725555419921875,-0.1676788330078125
1773522826967237000,10.216237060546876,-0.2042999267578125,0.587310791015625,-0.143524169921875
1773522826977276000,10.22627587890625,-0.2298431396484375,0.6073150634765625,-0.1254730224609375
1773522826987314000,10.23631396484375,-0.2561187744140625,0.6463470458984375,-0.121795654296875
1773522826997352000,10.24635205078125,-0.26556396484375,0.713226318359375,-0.1408233642578125
1773522827007390000,10.256389892578126,-0.2848663330078125,0.811920166015625,-0.168731689453125
1773522827017429000,10.266428955078124,-0.3601531982421875,0.934661865234375,-0.1942901611328125
1773522827027467000,10.276467041015625,-0.51104736328125,1.0561370849609375,-0.2451934814453125
1773522827037505000,10.286505126953125,-0.7237701416015625,1.16375732421875,-0.3343505859375
1773522827047543000,10.29654296875,-0.9608154296875,1.277252197265625,-0.44415283203125
1773522827057581800,10.306581787109375,-1.0829620361328125,1.386627197265625,-0.5741729736328125
1773522827067620000,10.3166201171875,-0.9365692138671875,1.4014129638671875,-0.6904144287109375
1773522827077657900,10.326657958984375,-0.5690155029296875,1.2739715576171875,-0.7047119140625
1773522827087696000,10.33669580078125,-0.1158599853515625,1.103424072265625,-0.6547393798828125
1773522827097734000,10.34673388671875,0.296295166015625,0.928192138671875,-0.6013946533203125
1773522827107773000,10.35677294921875,0.504058837890625,0.79217529296875,-0.4989471435546875
1773522827117811000,10.36681103515625,0.49072265625,0.7417449951171875,-0.398590087890625
1773522827127849000,10.376848876953124,0.37457275390625,0.6957244873046875,-0.3882598876953125
1773522827137887000,10.386886962890625,0.189117431640625,0.6296234130859375,-0.410888671875
1773522827147925800,10.39692578125,-0.0992279052734375,0.55194091796875,-0.46881103515625
1773522827157964000,10.406964111328126,-0.4857940673828125,0.4656524658203125,-0.5466156005859375
1773522827168001800,10.417001708984374,-0.89483642578125,0.3524627685546875,-0.5625152587890625
1773522827178040000,10.4270400390625,-1.4545440673828125,0.4319000244140625,-0.2772064208984375
1773522827188078800,10.437078857421875,-2.2750091552734375,1.0405426025390625,0.2849578857421875
1773522827198117000,10.4471171875,-1.4418487548828125,1.7212677001953125,0.4698638916015625
1773522827208155000,10.45715478515625,0.15972900390625,1.613433837890625,0.1402587890625
1773522827218193200,10.467193115234375,0.69989013671875,1.126983642578125,-0.0106353759765625
1773522827228232000,10.47723193359375,0.65496826171875,0.8881072998046875,0.0260772705078125
1773522827238270000,10.48727001953125,0.5283203125,0.76019287109375,0.07958984375
1773522827248308000,10.497307861328125,0.33685302734375,0.688323974609375,0.1434326171875
1773522827258345700,10.507345703125,-0.2938385009765625,0.590484619140625,0.1354827880859375
1773522827268385000,10.517385009765626,-0.7282257080078125,0.3452911376953125,-0.0038604736328125
1773522827278422800,10.5274228515625,-0.517791748046875,0.1494293212890625,-0.0716400146484375
1773522827288461000,10.5374609375,-0.224395751953125,0.1223297119140625,-0.048736572265625
1773522827298498800,10.547498779296875,-0.1648712158203125,0.083892822265625,-0.0313720703125
1773522827308537900,10.557537841796876,-0.1579742431640625,0.1961212158203125,0.136444091796875
1773522827318575900,10.567575927734374,-0.26092529296875,0.3743133544921875,0.2723388671875
1773522827328614000,10.57761376953125,-0.4515838623046875,0.4924774169921875,0.3348388671875
1773522827338652000,10.58765185546875,-0.42254638671875,0.6028594970703125,0.3652191162109375
1773522827348691000,10.59769091796875,-0.37835693359375,0.7659759521484375,0.2918548583984375
1773522827358729000,10.60772900390625,-0.5643157958984375,1.0374603271484375,0.1001434326171875
1773522827368767000,10.61776708984375,-0.895294189453125,1.3329010009765625,-0.0463409423828125
1773522827378805000,10.627804931640625,-0.965911865234375,1.5267181396484375,0.1240386962890625
1773522827388842800,10.6378427734375,-0.732574462890625,1.515960693359375,0.3091888427734375
1773522827398881800,10.6478818359375,-0.6920013427734375,1.369537353515625,0.351531982421875
1773522827408920000,10.657920166015625,-0.8934478759765625,1.2635040283203125,0.4229278564453125
1773522827418957800,10.667957763671875,-0.9272308349609375,1.12396240234375,0.2977752685546875
1773522827428995800,10.677995849609376,-0.6588592529296875,0.863311767578125,0.0584869384765625
1773522827439035000,10.688034912109375,-0.5508880615234375,0.635833740234375,0.042236328125
1773522827449073000,10.698072998046875,-0.7389068603515625,0.4972686767578125,0.0896453857421875
1773522827459111000,10.70811083984375,-0.79998779296875,0.4589996337890625,0.0630950927734375
1773522827469149000,10.71814892578125,-0.8053131103515625,0.47064208984375,0.0196380615234375
1773522827479188000,10.72818798828125,-0.7878570556640625,0.501953125,0.0261383056640625
1773522827489226000,10.73822607421875,-0.80596923828125,0.561553955078125,-0.0067901611328125
1773522827499264000,10.748263916015626,-0.9130096435546875,0.6525726318359375,-0.092132568359375
1773522827509302000,10.758302001953124,-0.87274169921875,0.7536468505859375,-0.1871490478515625
1773522827519341000,10.768341064453125,-0.82904052734375,0.8081207275390625,-0.2055511474609375
1773522827529378800,10.77837890625,-0.9834136962890625,0.8052825927734375,-0.130126953125
1773522827539417000,10.7884169921875,-1.0518951416015625,0.7523345947265625,-0.03021240234375
1773522827549454800,10.798454833984374,-0.9656829833984375,0.7037811279296875,0.106781005859375
1773522827559494100,10.808494140625,-1.1105194091796875,0.6844024658203125,0.2831878662109375
1773522827569532000,10.818531982421876,-1.13507080078125,0.6418304443359375,0.3502655029296875
1773522827579570200,10.828570068359374,-1.0316925048828125,0.528045654296875,0.30255126953125
1773522827589608000,10.83860791015625,-1.0069732666015625,0.399658203125,0.3062286376953125
1773522827599646000,10.84864599609375,-1.02996826171875,0.31512451171875,0.3222808837890625
1773522827609685000,10.85868505859375,-1.1092071533203125,0.306427001953125,0.2166748046875
1773522827619722800,10.86872265625,-1.1786346435546875,0.3385772705078125,0.0807342529296875
1773522827629761000,10.878760986328125,-1.0010528564453125,0.4066009521484375,-0.0658111572265625
1773522827639798800,10.888798828125,-0.883270263671875,0.4349517822265625,-0.154296875
1773522827649838000,10.898838134765626,-0.8731689453125,0.441741943359375,-0.1810760498046875
1773522827659875800,10.908875732421874,-0.9576416015625,0.4287109375,-0.236358642578125
1773522827669914000,10.9189140625,-1.04522705078125,0.4576263427734375,-0.2604827880859375
1773522827679952000,10.928951904296875,-1.1129302978515625,0.4905853271484375,-0.263153076171875
1773522827689991000,10.938990966796876,-1.185821533203125,0.4450225830078125,-0.20806884765625
1773522827700029000,10.94902880859375,-1.0823822021484375,0.41448974609375,-0.1308135986328125
1773522827710067000,10.95906689453125,-1.1250152587890625,0.388580322265625,-0.0037078857421875
1773522827720105000,10.96910498046875,-1.294189453125,0.4044952392578125,0.1265716552734375
1773522827730144000,10.97914404296875,-1.1541748046875,0.3193511962890625,0.1109619140625
1773522827740182000,10.98918212890625,-1.1639862060546875,0.171142578125,0.0459747314453125
1773522827750219800,10.9992197265625,-1.1197052001953125,0.061737060546875,-0.0275726318359375
1773522827760258000,11.009258056640626,-1.05072021484375,0.08477783203125,-0.0886688232421875
1773522827770295800,11.0192958984375,-1.0032806396484375,0.2021331787109375,-0.142181396484375
1773522827780334800,11.0293349609375,-1.081878662109375,0.3477783203125,-0.145751953125
1773522827790372900,11.039372802734375,-1.2181243896484375,0.4023590087890625,-0.126434326171875
1773522827800411000,11.049410888671876,-1.1201171875,0.3353271484375,-0.1241607666015625
1773522827810449000,11.059448974609374,-0.9936676025390625,0.231842041015625,-0.0461273193359375
1773522827820488000,11.069488037109375,-1.08984375,0.1881103515625,0.0306396484375
1773522827830526000,11.07952587890625,-1.221954345703125,0.253265380859375,0.068511962890625
1773522827840564000,11.08956396484375,-1.22088623046875,0.292205810546875,0.0290985107421875
1773522827850602000,11.09960205078125,-1.21728515625,0.262420654296875,0.028839111328125
1773522827860641000,11.10964111328125,-1.193511962890625,0.2119140625,0.0679779052734375
1773522827870678800,11.1196787109375,-1.2019195556640625,0.1598968505859375,0.0591888427734375
1773522827880717000,11.129717041015626,-1.11328125,0.1946258544921875,0.0625
1773522827890754800,11.1397548828125,-1.2191619873046875,0.2399444580078125,0.1156005859375
1773522827900792800,11.149792724609375,-1.2601776123046875,0.2234344482421875,0.1189422607421875
1773522827910831900,11.159831787109376,-1.2223358154296875,0.242279052734375,0.1118621826171875
1773522827920870100,11.1698701171875,-1.1970062255859375,0.2537994384765625,0.0521392822265625
1773522827930908000,11.179907958984375,-1.1949615478515625,0.2526397705078125,-0.0381927490234375
1773522827940946200,11.1899462890625,-1.1568145751953125,0.2231597900390625,-0.1279296875
1773522827950985000,11.19998486328125,-1.0938873291015625,0.168792724609375,-0.1870574951171875
1773522827961023000,11.21002294921875,-1.0852203369140625,0.1246185302734375,-0.196136474609375
1773522827971061000,11.22006103515625,-1.15338134765625,0.1189727783203125,-0.175018310546875
1773522827981099000,11.23009912109375,-1.170989990234375,0.1654205322265625,-0.16375732421875
1773522827991138000,11.240137939453126,-1.1499176025390625,0.2046356201171875,-0.2001190185546875
1773522828001176000,11.250176025390624,-1.130462646484375,0.2198028564453125,-0.2686004638671875
1773522828011214000,11.260214111328125,-1.1287841796875,0.222808837890625,-0.3021240234375
1773522828021252000,11.270252197265625,-1.04266357421875,0.219268798828125,-0.3040771484375
1773522828031290000,11.2802900390625,-1.1471099853515625,0.25897216796875,-0.2398529052734375
1773522828041329200,11.2903291015625,-1.21240234375,0.2437744140625,-0.2066192626953125
1773522828051367200,11.3003671875,-1.1444244384765625,0.24560546875,-0.1383056640625
1773522828061405000,11.310405029296875,-1.0181884765625,0.233184814453125,-0.1115570068359375
1773522828071443200,11.320443115234376,-0.964935302734375,0.204193115234375,-0.0948028564453125
1773522828081482200,11.330482177734375,-1.0099945068359375,0.1977081298828125,-0.096405029296875
1773522828091520000,11.34052001953125,-0.9183807373046875,0.1829833984375,-0.1015777587890625
1773522828101558000,11.35055810546875,-0.8734588623046875,0.158660888671875,-0.0888671875
1773522828111596000,11.360595947265624,-0.900360107421875,0.153533935546875,-0.0838775634765625
1773522828121635000,11.370635009765625,-0.942657470703125,0.178741455078125,-0.082305908203125
1773522828131673000,11.380673095703125,-0.9227447509765625,0.24298095703125,-0.095855712890625
1773522828141711000,11.390711181640626,-0.991241455078125,0.297393798828125,-0.0997772216796875
1773522828151749000,11.4007490234375,-0.9970245361328125,0.3458709716796875,-0.0779571533203125
1773522828161787100,11.410787109375,-0.9669952392578125,0.3680877685546875,-0.0723876953125
1773522828171826200,11.420826171875,-0.8755645751953125,0.3627471923828125,-0.0796051025390625
1773522828181864000,11.430864013671876,-0.78912353515625,0.362762451171875,-0.08734130859375
1773522828191902200,11.440902099609374,-0.803497314453125,0.34808349609375,-0.0763397216796875
1773522828201940000,11.45093994140625,-0.8791046142578125,0.354522705078125,-0.0337371826171875
1773522828211979300,11.460979248046876,-0.9044647216796875,0.398345947265625,-0.0105133056640625
1773522828222017000,11.47101708984375,-0.9053802490234375,0.443267822265625,0.0026702880859375
1773522828232055000,11.481054931640625,-0.8564605712890625,0.4784393310546875,-0.006988525390625
1773522828242093000,11.491093017578125,-0.84857177734375,0.5020904541015625,-0.030059814453125
1773522828252132000,11.501132080078126,-0.8721466064453125,0.5131683349609375,-0.053436279296875
1773522828262170000,11.511170166015624,-0.864227294921875,0.50164794921875,-0.0740814208984375
1773522828272208000,11.521207763671875,-0.7612762451171875,0.4945526123046875,-0.0740814208984375
1773522828282246100,11.53124609375,-0.684906005859375,0.52166748046875,-0.0661468505859375
1773522828292284000,11.541283935546875,-0.78167724609375,0.5382843017578125,-0.0583648681640625
1773522828302323200,11.5513232421875,-0.8251495361328125,0.5611419677734375,-0.0669097900390625
1773522828312361000,11.56136083984375,-0.842041015625,0.6031646728515625,-0.08416748046875
1773522828322399200,11.571399169921875,-0.8212127685546875,0.6499786376953125,-0.0908203125
1773522828332437000,11.58143701171875,-0.761199951171875,0.6968536376953125,-0.1122283935546875
1773522828342476000,11.59147607421875,-0.7347412109375,0.727630615234375,-0.145599365234375
1773522828352514000,11.60151416015625,-0.7350006103515625,0.758544921875,-0.1558685302734375
1773522828362552000,11.611552001953125,-0.6775970458984375,0.7863616943359375,-0.1823883056640625
1773522828372590000,11.621590087890626,-0.7021636962890625,0.8097686767578125,-0.2203216552734375
1773522828382629000,11.631629150390625,-0.7487945556640625,0.8278350830078125,-0.2253570556640625
1773522828392667100,11.641667236328125,-0.74224853515625,0.839080810546875,-0.215484619140625
1773522828402705000,11.651704833984375,-0.6913299560546875,0.8432464599609375,-0.1930389404296875
1773522828412743200,11.6617431640625,-0.6547393798828125,0.826446533203125,-0.18890380859375
1773522828422781000,11.671781005859375,-0.7080535888671875,0.807586669921875,-0.211517333984375
1773522828432820000,11.681820068359375,-0.7345428466796875,0.8057403564453125,-0.2289276123046875
1773522828442858000,11.69185791015625,-0.693695068359375,0.799591064453125,-0.257781982421875
1773522828452896000,11.70189599609375,-0.6745452880859375,0.78204345703125,-0.294219970703125
1773522828462934000,11.71193408203125,-0.64910888671875,0.7803802490234375,-0.3047637939453125
1773522828472973000,11.72197314453125,-0.5910491943359375,0.7935028076171875,-0.3177947998046875
1773522828483011000,11.732010986328126,-0.518035888671875,0.8011932373046875,-0.33758544921875
1773522828493049000,11.742049072265624,-0.437469482421875,0.818572998046875,-0.3264007568359375
1773522828503087000,11.752087158203125,-0.397918701171875,0.8283538818359375,-0.3221282958984375
1773522828513124900,11.762124755859375,-0.3732147216796875,0.8381195068359375,-0.3270111083984375
1773522828523164200,11.7721640625,-0.31536865234375,0.860687255859375,-0.3019866943359375
1773522828533202200,11.7822021484375,-0.2606048583984375,0.8823394775390625,-0.2841796875
1773522828543240200,11.792240234375,-0.227447509765625,0.89495849609375,-0.289886474609375
1773522828553278000,11.80227783203125,-0.214691162109375,0.906036376953125,-0.288421630859375
1773522828563317000,11.81231689453125,-0.2078857421875,0.9192657470703125,-0.2651214599609375
1773522828573355000,11.82235498046875,-0.209075927734375,0.955291748046875,-0.247467041015625
1773522828583393000,11.83239306640625,-0.231170654296875,0.9564056396484375,-0.22906494140625
1773522828593431000,11.84243115234375,-0.2482452392578125,0.9319000244140625,-0.208648681640625
1773522828603470000,11.852469970703124,-0.2458038330078125,0.8741455078125,-0.180267333984375
1773522828613508000,11.862508056640625,-0.232696533203125,0.8143157958984375,-0.1490478515625
1773522828623546000,11.872546142578125,-0.2298431396484375,0.7693939208984375,-0.1388702392578125
1773522828633584000,11.882584228515626,-0.2136077880859375,0.7621612548828125,-0.1373748779296875
1773522828643622100,11.8926220703125,-0.194976806640625,0.75714111328125,-0.1360626220703125
1773522828653661000,11.902660888671875,-0.183837890625,0.7423095703125,-0.134307861328125
1773522828663699200,11.91269921875,-0.197540283203125,0.681671142578125,-0.13092041015625
1773522828673737000,11.922737060546876,-0.2320556640625,0.5933990478515625,-0.1316070556640625
1773522828683775000,11.93277490234375,-0.267364501953125,0.51043701171875,-0.1363372802734375
1773522828693814000,11.94281396484375,-0.28515625,0.4404449462890625,-0.142242431640625
1773522828703852300,11.952852294921875,-0.269805908203125,0.4065704345703125,-0.1557769775390625
1773522828713890000,11.96289013671875,-0.2282257080078125,0.401275634765625,-0.1728668212890625
1773522828723928000,11.972927978515624,-0.17706298828125,0.41583251953125,-0.19476318359375
1773522828733967000,11.982967041015625,-0.1399078369140625,0.45281982421875,-0.2249908447265625
1773522828744004900,11.9930048828125,-0.11962890625,0.50079345703125,-0.2608642578125
1773522828754043100,12.003043212890624,-0.101898193359375,0.571197509765625,-0.2902984619140625
1773522828764081000,12.013080810546874,-0.0822296142578125,0.6815948486328125,-0.3060302734375
1773522828774119200,12.023119140625,-0.0679473876953125,0.8206024169921875,-0.3090057373046875
1773522828784158000,12.033157958984376,-0.082244873046875,0.9337158203125,-0.30877685546875
1773522828794196200,12.0431962890625,-0.110687255859375,1.028717041015625,-0.3191070556640625
1773522828804234000,12.05323388671875,-0.118255615234375,1.1202392578125,-0.332672119140625
1773522828814272300,12.063272216796875,-0.1054229736328125,1.2223052978515625,-0.3309173583984375
1773522828824311000,12.07331103515625,-0.0921630859375,1.3250885009765625,-0.3063201904296875
1773522828834349000,12.08334912109375,-0.0824127197265625,1.404815673828125,-0.268280029296875
1773522828844387000,12.093386962890625,-0.06201171875,1.4634246826171875,-0.25341796875
1773522828854424800,12.1034248046875,-0.0317230224609375,1.3817138671875,-0.272491455078125
1773522828864463000,12.113463134765626,-0.0093841552734375,1.213531494140625,-0.2884979248046875
1773522828874502000,12.123501953125,-0.008819580078125,1.1104583740234375,-0.2869110107421875
1773522828884540200,12.1335400390625,-0.03387451171875,1.0557403564453125,-0.2726898193359375
1773522828894578000,12.143577880859375,-0.0693206787109375,1.01751708984375,-0.248382568359375
1773522828904616200,12.1536162109375,-0.0923004150390625,0.9805145263671875,-0.21978759765625
1773522828914655200,12.1636552734375,-0.094451904296875,0.9521636962890625,-0.191619873046875
1773522828924693200,12.173693359375,-0.0757904052734375,0.93609619140625,-0.1696319580078125
1773522828934731300,12.183731201171875,-0.0274810791015625,0.9452362060546875,-0.1684112548828125
1773522828944769300,12.193769287109374,0.04107666015625,0.990966796875,-0.193389892578125
1773522828954808300,12.203808349609375,0.0919342041015625,1.0339202880859375,-0.23345947265625
1773522828964846300,12.213846435546875,0.1182708740234375,1.0458984375,-0.2685089111328125
1773522828974884400,12.22388427734375,0.133758544921875,1.0330963134765625,-0.2961883544921875
1773522828984922400,12.23392236328125,0.146392822265625,1.0006561279296875,-0.3072967529296875
1773522828994960400,12.24396044921875,0.1422576904296875,0.9451751708984375,-0.3025360107421875
1773522829004999400,12.25399951171875,0.120574951171875,0.88397216796875,-0.2908477783203125
1773522829015037200,12.264037109375,0.07818603515625,0.830352783203125,-0.2805633544921875
1773522829025075200,12.2740751953125,0.029632568359375,0.7998199462890625,-0.2760467529296875
1773522829035113200,12.28411328125,-0.010589599609375,0.8421478271484375,-0.2761077880859375
1773522829045152500,12.294152587890625,-0.0346527099609375,0.925628662109375,-0.273406982421875
1773522829055190300,12.304190185546876,-0.050018310546875,0.98577880859375,-0.269378662109375
1773522829065228300,12.314228271484374,-0.0622100830078125,1.0339202880859375,-0.259490966796875
1773522829075266300,12.324266357421875,-0.075897216796875,1.065643310546875,-0.2386322021484375
1773522829085304300,12.33430419921875,-0.100189208984375,1.05877685546875,-0.20513916015625
1773522829095343400,12.34434326171875,-0.1198883056640625,1.0264129638671875,-0.165618896484375
1773522829105381400,12.35438134765625,-0.1108551025390625,0.988555908203125,-0.13311767578125
1773522829115419400,12.36441943359375,-0.069244384765625,0.9457244873046875,-0.11676025390625
1773522829125457400,12.37445751953125,-0.0184326171875,0.91485595703125,-0.120849609375
1773522829135496400,12.384496337890624,0.0106353759765625,0.9165191650390625,-0.1382293701171875
1773522829145534200,12.3945341796875,0.0114898681640625,0.95159912109375,-0.15936279296875
1773522829155572500,12.404572509765625,0.0038909912109375,0.997772216796875,-0.17791748046875
1773522829165610200,12.4146103515625,0.0047149658203125,1.028076171875,-0.189361572265625
1773522829175648300,12.424648193359374,0.005157470703125,1.0395050048828125,-0.195556640625
1773522829185687300,12.434687255859375,-0.0078125,1.0396270751953125,-0.2050933837890625
1773522829195725300,12.444725341796875,-0.0343017578125,1.0222930908203125,-0.2179412841796875
1773522829205763300,12.454763427734376,-0.0640869140625,1.0076141357421875,-0.2369842529296875
1773522829215801300,12.46480126953125,-0.073516845703125,1.0084686279296875,-0.2623138427734375
1773522829225840400,12.47484033203125,-0.0812530517578125,1.0098876953125,-0.2897796630859375
1773522829235878100,12.484878173828125,-0.115936279296875,1.0073699951171875,-0.3156280517578125
1773522829245916400,12.49491650390625,-0.1738128662109375,1.0141754150390625,-0.3335418701171875
1773522829255954200,12.5049541015625,-0.2178497314453125,1.0234222412109375,-0.3342742919921875
1773522829265993500,12.514993408203125,-0.2196044921875,1.014434814453125,-0.3072967529296875
1773522829276031200,12.52503125,-0.17333984375,0.99169921875,-0.2549285888671875
1773522829286069500,12.535069580078124,-0.1048126220703125,0.96282958984375,-0.200958251953125
1773522829296107300,12.545107177734375,-0.0394439697265625,0.942779541015625,-0.163299560546875
1773522829306145500,12.5551455078125,0.004852294921875,0.9412841796875,-0.142120361328125
1773522829316184300,12.565184326171876,0.0218658447265625,0.9407501220703125,-0.1270599365234375
1773522829326222300,12.575222412109374,0.0219879150390625,0.93267822265625,-0.11181640625
1773522829336260400,12.58526025390625,0.0101776123046875,0.916839599609375,-0.096038818359375
1773522829346298000,12.595298095703125,-0.01470947265625,0.8974761962890625,-0.0897064208984375
1773522829356337400,12.60533740234375,-0.0379180908203125,0.883758544921875,-0.0993804931640625
1773522829366375200,12.615375244140624,-0.046875,0.8748626708984375,-0.1407470703125
1773522829376413400,12.625413330078125,-0.0712432861328125,0.871978759765625,-0.2062530517578125
1773522829386451200,12.635451171875,-0.183319091796875,0.877105712890625,-0.2664031982421875
1773522829396489500,12.645489501953126,-0.347137451171875,0.89166259765625,-0.3042144775390625
1773522829406528300,12.6555283203125,-0.4127960205078125,0.886505126953125,-0.30474853515625
1773522829416566300,12.665566162109375,-0.2966156005859375,0.85052490234375,-0.273681640625
1773522829426604300,12.675604248046875,-0.1163482666015625,0.8189239501953125,-0.2353363037109375
1773522829436642300,12.685642333984376,-0.0264434814453125,0.8190765380859375,-0.223052978515625
1773522829446681300,12.695681396484375,-0.1192474365234375,0.82421875,-0.2154083251953125
1773522829456719400,12.70571923828125,-0.3733673095703125,0.84320068359375,-0.1754913330078125
1773522829466757400,12.71575732421875,-0.545074462890625,0.842559814453125,-0.101715087890625
1773522829476795100,12.725795166015626,-0.3988037109375,0.7731781005859375,-0.041290283203125
1773522829486833400,12.73583349609375,-0.1086273193359375,0.683746337890625,-0.04925537109375
1773522829496872400,12.74587255859375,0.031402587890625,0.6222076416015625,-0.1298828125
1773522829506910200,12.75591015625,-0.084136962890625,0.62005615234375,-0.260345458984375
1773522829516948200,12.7659482421875,-0.376190185546875,0.6378936767578125,-0.3408355712890625
1773522829526986200,12.775986328125,-0.5922698974609375,0.6103057861328125,-0.28466796875
1773522829537025300,12.786025390625,-0.5577392578125,0.5642852783203125,-0.1688690185546875
1773522829547063300,12.796063232421876,-0.4029693603515625,0.5646514892578125,-0.12713623046875
1773522829557101300,12.806101318359374,-0.2525177001953125,0.6008148193359375,-0.1591949462890625
1773522829567139300,12.816139404296875,-0.0577239990234375,0.62420654296875,-0.2197418212890625
1773522829577177300,12.82617724609375,0.0563507080078125,0.6271820068359375,-0.2375030517578125
1773522829587216400,12.83621630859375,-0.08355712890625,0.6525115966796875,-0.257293701171875
1773522829597254400,12.84625439453125,-0.4369659423828125,0.73077392578125,-0.307037353515625
1773522829607292400,12.85629248046875,-0.667724609375,0.7972564697265625,-0.310760498046875
1773522829617330400,12.866330322265625,-0.5163726806640625,0.7566680908203125,-0.2085113525390625
1773522829627369500,12.876369384765624,-0.335113525390625,0.685577392578125,-0.1298370361328125
1773522829637407200,12.8864072265625,-0.3712921142578125,0.628814697265625,-0.07891845703125
1773522829647445200,12.8964453125,-0.5235137939453125,0.5912322998046875,-0.009979248046875
1773522829657483300,12.906483154296875,-0.5991668701171875,0.5939788818359375,0.015869140625
1773522829667521300,12.916521240234376,-0.524932861328125,0.633758544921875,0.011566162109375
1773522829677560300,12.926560302734375,-0.5550537109375,0.698486328125,0.0166015625
1773522829687598300,12.936598388671875,-0.78076171875,0.7785186767578125,0.0785369873046875
1773522829697636400,12.94663623046875,-0.8775634765625,0.822113037109375,0.1575927734375
1773522829707674400,12.95667431640625,-0.7039337158203125,0.8117218017578125,0.177764892578125
1773522829717712400,12.96671240234375,-0.617034912109375,0.7838897705078125,0.182769775390625
1773522829727751200,12.976751220703125,-0.7573699951171875,0.7926177978515625,0.243438720703125
1773522829737789400,12.98678955078125,-0.879364013671875,0.8454742431640625,0.2750701904296875
1773522829747827200,12.9968271484375,-0.8981170654296875,0.9101104736328125,0.250762939453125
1773522829757865500,13.006865478515625,-0.8072509765625,0.9321746826171875,0.1750946044921875
1773522829767904300,13.016904296875,-0.75775146484375,0.9155120849609375,0.07421875
1773522829777942500,13.026942626953126,-0.833251953125,0.887542724609375,-0.0799102783203125
1773522829787980300,13.036980224609374,-0.8007659912109375,0.8047943115234375,-0.2522125244140625
1773522829798018300,13.047018310546875,-0.782806396484375,0.7144775390625,-0.35565185546875
