time,seconds_elapsed,z,y,x
1773522816856242000,0.105241943359375,-9.34608649841547,-2.890460452239215,0.6828513310134411
1773522816866280200,0.1152802734375,-9.334936743369697,-2.8868130356475707,0.8340586683079599
1773522816876318000,0.12531787109375,-9.310610111364722,-2.897124878564477,1.0438338568400591
1773522816886356000,0.13535595703125,-9.267128112512827,-2.928335424864292,1.3097973810620605
1773522816896394000,0.14539404296875,-9.202847655782103,-2.9990614044725894,1.5759481714844703
1773522816906432000,0.155431884765625,-9.120714731496571,-3.131481623710692,1.7823481114298103
1773522816916471600,0.165471435546875,-9.014255175206065,-3.3365810024514793,1.9444319397866725
1773522816926509300,0.17550927734375,-8.86942643303275,-3.6204505510464307,2.09666379782334
1773522816936547600,0.185547607421875,-8.675791282114385,-3.971780355452001,2.2640645834192634
1773522816946585300,0.19558544921875,-8.487538408756256,-4.318771253870428,2.3410009619750083
1773522816956623600,0.20562353515625,-8.41035696939826,-4.512104499232769,2.2532621805064377
1773522816966661400,0.215661376953125,-8.391666881975532,-4.544147696964442,2.258546842911094
1773522816976699600,0.22569970703125,-8.407331484097242,-4.430801888291538,2.4197424902565774
1773522816986738400,0.235738525390625,-8.439983461377023,-4.21667573800832,2.675203544360399
1773522816996776700,0.245776611328125,-8.463298870512842,-3.954647726604342,2.9839103048309683
1773522817006814500,0.255814453125,-8.46511205741465,-3.686223876683414,3.3051495068773624
1773522817016852500,0.2658525390625,-8.449293141514062,-3.4316102331891654,3.6060903095215555
1773522817026890500,0.275890380859375,-8.420759120947123,-3.204989927513897,3.87159388808161
1773522817036928500,0.285928466796875,-8.375981237065792,-3.0192782630711794,4.11063119225949
1773522817046966500,0.295966552734375,-8.32561064774394,-2.8836712304905054,4.3056972527638075
1773522817057005300,0.30600537109375,-8.283750697135925,-2.805815545132756,4.435905348910391
1773522817067043600,0.316043701171875,-8.243450835451483,-2.7659727795660496,4.534897638060152
1773522817077081300,0.326081298828125,-8.214109590154886,-2.736631534269452,4.605391854739189
1773522817087119600,0.33611962890625,-8.201369935569167,-2.6971277913987635,4.651173362705111
1773522817097157400,0.346157470703125,-8.20505709964931,-2.6376491819918155,4.678699667534232
1773522817107195400,0.3561953125,-8.22600168800056,-2.5571988039657474,4.686578438085317
1773522817117233400,0.3662333984375,-8.259454460269213,-2.456841071681678,4.6814238318011165
1773522817127272400,0.3762724609375,-8.292983804905415,-2.3355581863991914,4.684226322001218
1773522817137310500,0.386310546875,-8.3262816788733,-2.184896938680112,4.697833699332177
1773522817147348500,0.396348388671875,-8.361050794437528,-1.9885449300184845,4.7232305909171695
1773522817157386500,0.406386474609375,-8.399298399767279,-1.7360088234506545,4.7548336436659095
1773522817167424500,0.416424560546875,-8.432484630054235,-1.4361680910028516,4.7959372229486705
1773522817177462500,0.426462646484375,-8.451427230933309,-1.1027212954208254,4.850542965622246
1773522817187500500,0.43650048828125,-8.454568451568484,-0.7431327081706375,4.913086515557766
1773522817197539600,0.44653955078125,-8.44608996155858,-0.3609975772652775,4.970274383679032
1773522817207577300,0.456577392578125,-8.430248833826184,0.04381468770524952,5.009927179631591
1773522817217615400,0.466615478515625,-8.408705110538005,0.4805275909984484,5.02326187750101
1773522817227653400,0.4766533203125,-8.376663958632946,0.9622310208432375,5.007594352769852
1773522817237691400,0.48669140625,-8.32851981318891,1.4982476766884325,4.955945998597144
1773522817247729700,0.496729736328125,-8.254488946816325,2.0861092321917414,4.866409520056844
1773522817257767400,0.506767333984375,-8.144101403427124,2.713876389364898,4.741188856934011
1773522817267806500,0.516806396484375,-7.987052062106132,3.3746845231354237,4.581363328897953
1773522817277844500,0.526844482421875,-7.776686141139268,4.062129027158021,4.380940125274658
1773522817287882500,0.536882568359375,-7.515205534484982,4.756292902563512,4.131555030083656
1773522817297920500,0.54692041015625,-7.201192776560783,5.431387335839867,3.848797826644778
1773522817307958300,0.556958251953125,-6.837126240178942,6.063882106056809,3.5571637815281747
1773522817317996500,0.56699658203125,-6.436797134804725,6.640189709627628,3.2628079102322456
1773522817328034300,0.577034423828125,-6.0127931393325325,7.155556230023503,2.9689591116756198
1773522817338073600,0.587073486328125,-5.571736886772513,7.607537196701765,2.6928613661259413
1773522817348111400,0.597111328125,-5.104978037679195,8.002104669809341,2.464936992114782
1773522817358149600,0.607149658203125,-4.607062710560858,8.345665593779087,2.3011372997507453
1773522817368187400,0.6171875,-4.090048422957956,8.63941706944108,2.191432185667753
1773522817378225700,0.6272255859375,-3.5606685747787354,8.886154280471802,2.1279757586710155
1773522817388263400,0.637263427734375,-3.033374300701916,9.082782183465362,2.1147360456086695
1773522817398301400,0.647301513671875,-2.5171058630302547,9.230909967184067,2.150548825006932
1773522817408340500,0.657340576171875,-2.020036046825349,9.332207610666751,2.2360073865838346
1773522817418378500,0.66737841796875,-1.5447634902782736,9.390918158310651,2.3653240868486463
1773522817428416500,0.67741650390625,-1.0935299079012124,9.412140979081391,2.5270915427327156
1773522817438454300,0.687454345703125,-0.6605707448180764,9.39951939791739,2.717177768997848
1773522817448492500,0.697492431640625,-0.24454366477550937,9.354026643764971,2.9347523061692713
1773522817458530300,0.7075302734375,0.14603343265480362,9.274070478996634,3.184439306916296
1773522817468568600,0.717568603515625,0.49974491716567426,9.16047917113006,3.4650071836173533
1773522817478607400,0.727607421875,0.8093026319097727,9.0178067302078,3.7675709112882614
1773522817488645600,0.737645751953125,1.0649999789875,8.862908429440855,4.0601746782198544
1773522817498683400,0.747683349609375,1.2573514467708766,8.724006739228964,4.298971159379184
1773522817508721700,0.7577216796875,1.4016421365447342,8.613639069584012,4.473362388384342
1773522817518759400,0.767759521484375,1.5217146231241523,8.534656133762,4.58414740665853
1773522817528797400,0.77779736328125,1.6276180068366228,8.483900929036736,4.641622567288577
1773522817538835500,0.78783544921875,1.7024341783680021,8.451812430858611,4.673217436730861
1773522817548874500,0.79787451171875,1.7114323083378373,8.422212826886772,4.72310871810317
1773522817558912500,0.80791259765625,1.6337342977598308,8.377268354266882,4.829354339382052
1773522817568950500,0.817950439453125,1.4819855470649896,8.30002144845724,5.0083688442736864
1773522817578988500,0.827988525390625,1.2911650151759386,8.183598132035137,5.247093429240584
1773522817589026600,0.838026611328125,1.0978411221638322,8.038552532240749,5.508794400647282
1773522817599064600,0.848064697265625,0.9420050290901213,7.879569592508673,5.76154458835721
1773522817609102600,0.8581025390625,0.866979817917943,7.715580807313323,5.990703472599387
1773522817619141600,0.8681416015625,0.882600873158872,7.551200392451882,6.194414027330279
1773522817629179400,0.878179443359375,0.9656329382412135,7.400408942481875,6.361753876519203
1773522817639217400,0.888217529296875,1.0807281478647142,7.269833182066678,6.492452386531234
1773522817649255400,0.89825537109375,1.1803620228536427,7.16302115907669,6.593046850180626
1773522817659293400,0.90829345703125,1.2151189365234225,7.072002917546033,6.684358521699905
1773522817669331500,0.91833154296875,1.1487781862620263,7.0005112142622465,6.7707853437870735
1773522817679370500,0.92837060546875,0.978973700525239,6.958197090145945,6.840721634322405
1773522817689408500,0.938408447265625,0.7262328651655465,6.936191010043024,6.894360285529494
1773522817699446500,0.948446533203125,0.4289523020619526,6.909356194609403,6.946017407530546
1773522817709484500,0.958484619140625,0.12883942900872788,6.864032951804995,7.002773313975334
1773522817719522600,0.9685224609375,-0.14932559693483635,6.804775876194238,7.059965273749828
1773522817729560300,0.978560302734375,-0.3954420639850199,6.7504474891573185,7.102499178096652
1773522817739598600,0.9885986328125,-0.5954269857889041,6.7075266313195225,7.129162728616595
1773522817749637400,0.998637451171875,-0.7454499721370637,6.672559947356581,7.147842294645309
1773522817759675400,1.00867529296875,-0.831442421394959,6.635385524216294,7.1729188682347536
1773522817769713400,1.01871337890625,-0.8658736833069473,6.5860495386391875,7.214195465996861
1773522817779751400,1.02875146484375,-0.8828750139251351,6.523612079426646,7.2686577085465185
1773522817789789400,1.03878955078125,-0.9093798667520284,6.455861316236853,7.325659698706865
1773522817799827500,1.048827392578125,-0.9557719808969646,6.389910880467295,7.377392224031686
1773522817809866500,1.058866455078125,-1.0311885294742882,6.323070802381634,7.424677122297883
1773522817819904500,1.068904541015625,-1.1439121145956217,6.253030466949939,7.467361833292245
1773522817829942500,1.078942626953125,-1.2988752972923219,6.1850657687485215,7.498551336804032
1773522817839980300,1.088980224609375,-1.4682213717371224,6.117434832546115,7.52274469781816
1773522817850018600,1.0990185546875,-1.6160539719015359,6.060531626585125,7.5384823651760815
1773522817860056300,1.109056396484375,-1.7425044690802691,6.016328912243247,7.545716992604732
1773522817870095600,1.119095703125,-1.8366054790571331,5.98400192913413,7.549104296955466
1773522817880133400,1.12913330078125,-1.9123640460051594,5.967668633970618,7.543219915091991
1773522817890171600,1.139171630859375,-1.965787154765427,5.969317570221424,7.528167307388782
1773522817900209400,1.14920947265625,-2.0016827901415524,5.9964499072968955,7.49708126425147
1773522817910247000,1.159246826171875,-2.03396213471666,6.05707301056385,7.4394392226219175
1773522817920284700,1.16928466796875,-2.075506151243299,6.142089965853095,7.3578113252490756
1773522817930323700,1.17932373046875,-2.1322212872862814,6.236465701118111,7.261579148462414
1773522817940361700,1.18936181640625,-2.229150214165449,6.348505687889457,7.134265020191669
1773522817950400000,1.19939990234375,-2.3611184518523514,6.485498329609632,6.966621219620108
1773522817960437800,1.209437744140625,-2.5354317933157087,6.65049950671792,6.746321349138021
1773522817970476000,1.21947607421875,-2.7444243801027537,6.836591402649879,6.4729872230827805
1773522817980513800,1.229513671875,-2.9572663357943294,7.038963402253389,6.154506964355707
1773522817990551800,1.2395517578125,-3.1453757090285417,7.25136813557148,5.8047103608667845
1773522818000590800,1.2495908203125,-3.284814867118001,7.4684274166971445,5.440860097584128
1773522818010628600,1.259628662109375,-3.360828724001348,7.681667431795597,5.085980491742491
1773522818020667000,1.2696669921875,-3.3755236043080687,7.86577487591207,4.786003565694392
1773522818030704600,1.27970458984375,-3.3377833639785646,8.005095668318868,4.576902257835865
1773522818040743000,1.289742919921875,-3.260518922512233,8.10083918480575,4.462711522771418
1773522818050780700,1.29978076171875,-3.163643187125027,8.158829016959666,4.426654120962321
1773522818060820000,1.309820068359375,-3.080417499166727,8.193689902460575,4.420958539669216
1773522818070857700,1.319857666015625,-3.0249396498337386,8.22051711910963,4.409446673312783
1773522818080896000,1.32989599609375,-2.990477700522542,8.245521796506642,4.386208713327348
1773522818090933800,1.339933837890625,-2.9704654245853424,8.268328671598434,4.3567724832236765
1773522818100971800,1.3499716796875,-2.9602649330884216,8.290680204138159,4.321092682555317
1773522818111009800,1.360009765625,-2.9527935742944478,8.314816866528988,4.279626991961896
1773522818121048800,1.370048828125,-2.9388904288873077,8.34224672524631,4.235590574097633
1773522818131086800,1.3800869140625,-2.9191426491051913,8.37150613747835,4.191284983903169
1773522818141124600,1.39012451171875,-2.9026459800735114,8.396506138700246,4.152553978970647
1773522818151163000,1.400162841796875,-2.9031866628214713,8.414127720108628,4.116353077037632
1773522818161200600,1.41020068359375,-2.924334957051277,8.430427113002539,4.0677456979960205
1773522818171239000,1.420239013671875,-2.960299712140858,8.449705813968182,4.001183560068905
1773522818181277700,1.430277587890625,-3.005413696108758,8.467699735820293,3.9288603743970394
1773522818191316000,1.44031591796875,-3.0578640143141147,8.473528588104248,3.875457870033383
1773522818201353700,1.450353759765625,-3.1136259412854908,8.46302414522469,3.8539515561461446
1773522818211392000,1.46039208984375,-3.1659885812073942,8.440938570144771,3.8597251711115237
1773522818221429800,1.4704296875,-3.2087381741315126,8.41598942232728,3.878852773168683
1773522818231467800,1.4804677734375,-3.23852716319561,8.395691315186022,3.8980350280225275
1773522818241506800,1.4905068359375,-3.253639392131567,8.384585399281978,3.909343188500404
1773522818251544800,1.500544921875,-3.256693811266124,8.383432137593626,3.909271292307973
1773522818261582800,1.510582763671875,-3.247904355610907,8.395993513002992,3.889578457583487
1773522818271620900,1.520620849609375,-3.2386469901829957,8.419860126280785,3.8454511465653773
1773522818281659000,1.530658935546875,-3.2407156131505963,8.449588325068355,3.7779125648215413
1773522818291697000,1.54069677734375,-3.2367893796175715,8.49243611766994,3.684033965423703
1773522818301736000,1.55073583984375,-3.202543411144614,8.550916363689304,3.57713718675971
1773522818311773700,1.560773681640625,-3.1334120072513816,8.621675661045312,3.4668197859972714
1773522818321812000,1.57081201171875,-3.0424300060778853,8.697499256053566,3.356710182766616
1773522818331849700,1.580849609375,-2.947247046083212,8.77692233685851,3.232609171323478
1773522818341887700,1.5908876953125,-2.8524659448876974,8.861174152994156,3.084383772449195
1773522818351926800,1.6009267578125,-2.7607471538722512,8.948264991948008,2.9115622769787906
1773522818361964800,1.61096484375,-2.678471313984692,9.033217649829387,2.7197724616661665
1773522818372002800,1.6210029296875,-2.603346807156503,9.115472154667973,2.510206751166284
1773522818382040800,1.631040771484375,-2.5318840377062557,9.195576203474403,2.280642500993609
1773522818392078800,1.641078857421875,-2.472848203630745,9.267482917299866,2.0418546415321526
1773522818402116900,1.651116943359375,-2.425203970532864,9.329290261915325,1.8036384444788098
1773522818412156000,1.661156005859375,-2.385212590275705,9.380184582850337,1.5790142810568213
1773522818422193700,1.671193603515625,-2.3539904996685683,9.420682012933492,1.3710767562806605
1773522818432232000,1.68123193359375,-2.3370566082634032,9.450297398996353,1.183393937895447
1773522818442269700,1.691269775390625,-2.339702008205652,9.469069904005528,1.0163141278821974
1773522818452307700,1.7013076171875,-2.36242178953588,9.479406589102744,0.8545128427937626
1773522818462345700,1.711345703125,-2.3992824705518783,9.483912083828448,0.6850198341589421
1773522818472385000,1.721385009765625,-2.423939649685472,9.48793768608272,0.5234042809009551
1773522818482422800,1.7314228515625,-2.412387451318651,9.497485851150751,0.38542960587348785
1773522818492460800,1.741460693359375,-2.3622207140058276,9.513912085294724,0.2752779353330843
1773522818502498800,1.751498779296875,-2.283830191119015,9.534929154360293,0.19913778518894687
1773522818512536800,1.761536865234375,-2.1982230148516595,9.555555762803554,0.17193855688972398
1773522818522576000,1.771575927734375,-2.128458135360479,9.570812953168153,0.1990284613292664
1773522818532613600,1.781613525390625,-2.084016643826663,9.57913654487729,0.2596686253288761
1773522818542652000,1.79165185546875,-2.0658244229234755,9.580980711439251,0.32799693267829716
1773522818552689700,1.801689697265625,-2.0708296838648614,9.577668225890397,0.38773127041198313
1773522818562728000,1.81172802734375,-2.092181391712278,9.57098538712561,0.4351974800618365
1773522818572766000,1.821765869140625,-2.125967341458052,9.561615501233934,0.47556134689319873
1773522818582805000,1.831804931640625,-2.1631704061709343,9.551095860785246,0.5173687270637601
1773522818592842800,1.8418427734375,-2.1906265683732924,9.542122280734777,0.5652099805710837
1773522818602880800,1.851880859375,-2.2018263000406324,9.53648222902119,0.614691110239923
1773522818612918800,1.861918701171875,-2.1830989493474364,9.537404604563116,0.6651086805086582
1773522818622956800,1.871956787109375,-2.1345992684639987,9.545315523818134,0.7076843781705945
1773522818632995800,1.881995849609375,-2.0651035613030193,9.558205400529504,0.7392186765320599
1773522818643033900,1.892033935546875,-1.973139709485322,9.575626490929722,0.764523286723718
1773522818653072000,1.90207177734375,-1.8588498979605734,9.596383447754382,0.7902471452407538
1773522818663110000,1.91210986328125,-1.7351282412238418,9.617139235535264,0.8187518666479736
1773522818673148000,1.92214794921875,-1.615923331259191,9.634142392784357,0.8616875567287207
1773522818683186000,1.93218603515625,-1.5096692344129086,9.645341832190752,0.9266269888248294
1773522818693225000,1.942224853515625,-1.4228233101308345,9.650389178708195,1.0079486697927116
1773522818703262700,1.9522626953125,-1.3603966645732521,9.648843118309975,1.1043276346389204
1773522818713300700,1.96230078125,-1.3275536947660147,9.6409240157485,1.2085426268730313
1773522818723338800,1.9723388671875,-1.3212573711007833,9.628975803801417,1.3067130051806568
1773522818733376800,1.982376708984375,-1.3356266727149486,9.615857379031182,1.3862790015876292
1773522818743414800,1.992414794921875,-1.3664371137812732,9.60299029867351,1.444234346950054
1773522818753453800,2.002453857421875,-1.4115873381063342,9.590127309969066,1.4856836709305643
1773522818763491800,2.012491943359375,-1.4655645736180245,9.577619710573554,1.5138399442262946
1773522818773529900,2.02252978515625,-1.520859175338596,9.566108720999955,1.5319704980701208
1773522818783568000,2.03256787109375,-1.564197527936101,9.55884369843304,1.5336808091193437
1773522818793606000,2.04260595703125,-1.5902734878264366,9.556711362579465,1.5200959358811377
1773522818803645000,2.05264501953125,-1.5960732601463794,9.559606499499083,1.4956176204457878
1773522818813682700,2.0626826171875,-1.5757980954892932,9.568260346075892,1.4613883108466863
1773522818823720700,2.072720703125,-1.527777430294454,9.581404489809275,1.4258208845116198
1773522818833758700,2.0827587890625,-1.4516940153062343,9.598447979068755,1.3902397219121456
1773522818843796700,2.092796630859375,-1.3529150766462086,9.618253334257005,1.3524737626194954
1773522818853834800,2.102834716796875,-1.2394817358203232,9.639648588985205,1.3081433302447198
1773522818863873800,2.112873779296875,-1.1197373121514915,9.661244919243455,1.2557453267484902
1773522818873911800,2.122911865234375,-1.0019675495564937,9.682139823234081,1.1927250992119312
1773522818883949800,2.13294970703125,-0.891427665149793,9.701842887091637,1.1180228363838045
1773522818893987800,2.14298779296875,-0.7990919843450188,9.719117847019433,1.0346844818312675
1773522818904025900,2.15302587890625,-0.7268500472158194,9.733557875782251,0.9486327766668051
1773522818914065200,2.163065185546875,-0.6737443338416517,9.745164142423867,0.8650108559325337
1773522818924103200,2.173103271484375,-0.6483171201836317,9.753464937779308,0.7873988431375474
1773522818934141200,2.18314111328125,-0.6476254115924239,9.758964119717477,0.7166582504820078
1773522818944179200,2.19317919921875,-0.674821607684344,9.761661103716492,0.6519124412618577
1773522818954217200,2.20321728515625,-0.7293093500014394,9.761904849344491,0.5862769897256046
1773522818964256300,2.21325634765625,-0.8030638105854392,9.760646373715996,0.5052233120441436
1773522818974294300,2.223294189453125,-0.890350537437573,9.758397133484483,0.38902098142895847
1773522818984332300,2.233332275390625,-0.997656992881,9.7532159314543,0.22329658634634686
1773522818994370300,2.243370361328125,-1.1330598081264645,9.740974289518594,0.00028276785127000036
1773522819004408000,2.253407958984375,-1.2951295348927379,9.716732413187623,-0.2794870409280993
1773522819014446300,2.2634462890625,-1.4706502063192426,9.6768054764688,-0.6057858827179298
1773522819024485000,2.273485107421875,-1.6168959756836294,9.62438146174848,-0.9629789166010916
1773522819034523100,2.283523193359375,-1.6583806632384657,9.572465981072186,-1.3371801857672632
1773522819044561200,2.29356103515625,-1.5698751351810991,9.52855728124082,-1.7065956819616257
1773522819054599200,2.30359912109375,-1.3848549601338802,9.490462236124277,-2.0454021048806608
1773522819064637200,2.31363720703125,-1.1420381374172865,9.45806043421328,-2.3261998448148367
1773522819074676200,2.32367626953125,-0.8661641176208853,9.435429500210285,-2.5284026253312826
1773522819084714200,2.33371435546875,-0.570727136557363,9.426957439941168,-2.641429869574308
1773522819094752300,2.343752197265625,-0.2669592024621554,9.432290033140777,-2.670397897644341
1773522819104790300,2.353790283203125,0.03551827626398299,9.447201186546684,-2.6304990179762244
1773522819114828000,2.363828125,0.33730427472777663,9.466129758900403,-2.5394898365348575
1773522819124867300,2.373867431640625,0.6462095534451305,9.48316448033154,-2.4129624747276304
1773522819134905300,2.3839052734375,0.9965582378588617,9.483508179202675,-2.289179150931537
1773522819144943400,2.393943359375,1.4070065861873329,9.440551665529608,-2.250939582777768
1773522819154981000,2.403981201171875,1.7801114384189247,9.360063001319766,-2.3218121312499047
1773522819165019400,2.414019287109375,2.005457778635621,9.273601107919216,-2.4796926626980302
1773522819175057200,2.42405712890625,2.041704273276031,9.215137228512763,-2.661404151588678
1773522819185096200,2.43409619140625,1.915211982782185,9.199140033435821,-2.8068074787795543
1773522819195134200,2.44413427734375,1.6822881930485367,9.221115718400478,-2.882940870389342
1773522819205172200,2.454172119140625,1.4614002935454249,9.255340059563517,-2.893676491676271
1773522819215210200,2.464210205078125,1.393428727211803,9.273936038962006,-2.8675539161652326
1773522819225248300,2.474248291015625,1.428197112123668,9.282654767468571,-2.821876745356619
1773522819235287300,2.484287353515625,1.4651416720308363,9.29802593960166,-2.7514512099996207
1773522819245325300,2.4943251953125,1.4461035018227995,9.328563701206445,-2.6565195944175124
1773522819255363300,2.50436328125,1.3546039065159856,9.372352574050426,-2.548426007184386
1773522819265401000,2.514401123046875,1.2014737844653427,9.421696158412098,-2.4410014052540063
1773522819275439400,2.524439453125,1.0211154637493192,9.467314584770799,-2.344709022712707
1773522819285478100,2.53447802734375,0.859061738269776,9.502631397345661,-2.265482341262698
1773522819295516200,2.54451611328125,0.7437799200329929,9.52788508106768,-2.199221378239244
1773522819305554200,2.55455419921875,0.6785556065808981,9.547085456100106,-2.136145767253637
1773522819315592200,2.56459228515625,0.6496415006551891,9.563919686523079,-2.068765298680961
1773522819325630200,2.574630126953125,0.6385103772446513,9.579667290753125,-1.9981629454523324
1773522819335669200,2.584669189453125,0.6264450417239219,9.594239421463012,-1.9309454123564063
1773522819345707300,2.594707275390625,0.5997090470222756,9.606469372960925,-1.8778934749960898
1773522819355745300,2.604745361328125,0.5511421461215242,9.615193946686386,-1.8478902586594224
1773522819365783300,2.614783203125,0.4788327332466841,9.620785483083129,-1.8389079107806086
1773522819375821000,2.624821044921875,0.38641631535589693,9.624228901535272,-1.8426321920007467
1773522819385860000,2.634860107421875,0.2794566823224537,9.626762219405174,-1.8487131193496287
1773522819395898400,2.6448984375,0.16396962383715435,9.62951181037426,-1.848239218227565
1773522819405936000,2.65493603515625,0.047046125640836545,9.633162734097242,-1.8358523226022718
1773522819415974100,2.66497412109375,-0.06393936537520493,9.638171502169966,-1.808854425561428
1773522819426012200,2.67501220703125,-0.16217161623816936,9.644081018474697,-1.7708198784604667
1773522819436051200,2.68505126953125,-0.2416721279271878,9.649817516300082,-1.7300344252161681
1773522819446089200,2.695089111328125,-0.2988644895604811,9.654310151544212,-1.6956939103275537
1773522819456127200,2.705127197265625,-0.3329236850233748,9.6572806917876,-1.6722672959022222
1773522819466165200,2.715165283203125,-0.34512934233024717,9.659213121154904,-1.6585754551582037
1773522819476203300,2.725203369140625,-0.339203605543077,9.661020462837815,-1.6492464857988058
1773522819486242300,2.7352421875,-0.3219314586268738,9.663384269359707,-1.638822706940025
1773522819496280300,2.7452802734375,-0.3007763327974826,9.666071316486596,-1.626955743535608
1773522819506318300,2.755318359375,-0.28140675694430245,9.668332831677795,-1.6169479981318116
1773522819516356400,2.7653564453125,-0.26643707828419283,9.66945862083733,-1.6127473315715788
1773522819526394000,2.77539404296875,-0.255251557805296,9.669231826344133,-1.6159171937793493
1773522819536432400,2.785432373046875,-0.24490541075998914,9.667827804765105,-1.6258857762165366
1773522819546471200,2.79547119140625,-0.23087564329849555,9.665724110484122,-1.6403784119494258
1773522819556509200,2.80550927734375,-0.20918045577565206,9.663311204123497,-1.6574176634252071
1773522819566547200,2.815547119140625,-0.178045495462697,9.66073170902431,-1.675995230384171
1773522819576585200,2.825585205078125,-0.13831752451523208,9.657920743256806,-1.6958233819261193
1773522819586623200,2.835623291015625,-0.09284593188185244,9.654679569378494,-1.717240410094708
1773522819596662300,2.845662353515625,-0.04397188756095711,9.651103464457393,-1.7391490211725233
1773522819606700300,2.8557001953125,0.009277253442714573,9.647487027525901,-1.7596297914043069
1773522819616738300,2.86573828125,0.07028712696672883,9.644054130467772,-1.7769846847005188
1773522819626776300,2.8757763671875,0.14270310092200525,9.64074047587514,-1.7905761338099837
1773522819636814000,2.88581396484375,0.2276752763546072,9.637183075654507,-1.8009002516865729
1773522819646853000,2.89585302734375,0.3208000799767673,9.63283131018579,-1.8099805069819093
1773522819656891400,2.905891357421875,0.4127104115089401,9.62746130758524,-1.8199046657554805
1773522819666929200,2.91592919921875,0.4934440999884158,9.621482817697524,-1.831386429234594
1773522819676967200,2.92596728515625,0.5568822241434828,9.61580301849544,-1.8429909423105417
1773522819687005200,2.936005126953125,0.6024250279827043,9.611153731384873,-1.852888797599077
1773522819697044200,2.946044189453125,0.6325874900016933,9.60806277963221,-1.858859834832698
1773522819707082200,2.956082275390625,0.6516752715051174,9.606424949297308,-1.8607216831818223
1773522819717120300,2.966120361328125,0.6634790334802121,9.605697804066539,-1.8603079878143964
1773522819727158300,2.976158203125,0.6696027039922774,9.605572716382145,-1.8587614890247581
1773522819737196300,2.9861962890625,0.6702366179816425,9.606080081382393,-1.8559096067249774
1773522819747235300,2.9962353515625,0.6658730159446596,9.607157355225086,-1.8518937952123582
1773522819757273000,3.006273193359375,0.6575576806072145,9.608486558002232,-1.84796916911453
1773522819767311400,3.016311279296875,0.6469086416251957,9.609676060047745,-1.845540042271465
1773522819777349000,3.02634912109375,0.6352759253680705,9.610503743043541,-1.8452751077249645
1773522819787387100,3.03638720703125,0.622864333692938,9.610792496857046,-1.8480005871661007
1773522819797426200,3.04642626953125,0.6091585009561852,9.610186932179332,-1.8557047318026423
1773522819807464200,3.056464111328125,0.5930435612510889,9.608480128261446,-1.869707245931029
1773522819817502200,3.066502197265625,0.5747545289099216,9.605491467839478,-1.890649788455665
1773522819827540200,3.076540283203125,0.5550425876261667,9.601545945084094,-1.916411129438877
1773522819837578200,3.086578125,0.5350083921181038,9.596939328071475,-1.9449692615337668
1773522819847617000,3.096616943359375,0.5151867433821782,9.59116308275759,-1.9785262248292563
1773522819857655300,3.1066552734375,0.49539399194717404,9.583723288145661,-2.0192107019171117
1773522819867693300,3.116693359375,0.47405170951522885,9.574854922035335,-2.065868554326147
1773522819877731300,3.1267314453125,0.44951366324927655,9.565349427065252,-2.1148082340620458
1773522819887770000,3.13677001953125,0.4207356413260102,9.55591816637516,-2.1628210082113744
1773522819897808400,3.146808349609375,0.3887662394829094,9.547016482517122,-2.2076498916275797
1773522819907846100,3.15684619140625,0.3556744825463742,9.538733222818374,-2.24865629414618
1773522819917884000,3.1668837890625,0.3236402718387544,9.530998244652151,-2.2859800626292825
1773522819927922000,3.176921875,0.2937619057244621,9.523777645748853,-2.3198643581829965
1773522819937961000,3.1869609375,0.2656251956457272,9.516989008522033,-2.3509089002661407
1773522819947999000,3.1969990234375,0.2390649045708589,9.510326043501495,-2.3805317389830947
1773522819958037000,3.207037109375,0.21368545731101185,9.503227025151253,-2.411104571901262
1773522819968075000,3.217074951171875,0.18945967359831556,9.49525180848837,-2.444317690195143
1773522819978113000,3.227113037109375,0.16594742671614512,9.486377012637258,-2.4802242853567003
1773522819988152000,3.237152099609375,0.14255190154882147,9.47667628735602,-2.5184672145113347
1773522819998189800,3.24718994140625,0.11870843168459833,9.466347201043368,-2.558232530927658
1773522820008227800,3.257227783203125,0.0942105438990984,9.455405535790323,-2.599384333266318
1773522820018265900,3.267265869140625,0.06942653264859691,9.44386824273169,-2.641769184531271
1773522820028304000,3.277303955078125,0.04567224803832359,9.432111169442534,-2.683950329917669
1773522820038343000,3.287343017578125,0.025642452427453825,9.4209479703933,-2.72313317027092
1773522820048381000,3.297380859375,0.012317382044548866,9.410980703130363,-2.7574752925947306
1773522820058419000,3.3074189453125,0.008436966693672002,9.402909040355683,-2.7848879079163074
1773522820068457000,3.31745703125,0.014950763897085561,9.397868708100914,-2.8018238451480864
1773522820078495000,3.327494873046875,0.03202749098917702,9.396954515865444,-2.8047502539888023
1773522820088533800,3.33753369140625,0.05816888308182824,9.400120870941876,-2.793697529576719
1773522820098572000,3.347572021484375,0.09049715853231027,9.407675816366076,-2.767277140162885
1773522820108609800,3.35760986328125,0.12792408599578775,9.420124379050732,-2.7230960531309245
1773522820118648000,3.36764794921875,0.16984397749695926,9.436643552175164,-2.6629534268572925
1773522820128685800,3.377685791015625,0.21833684504712,9.455893611568213,-2.5901377814933655
1773522820138725000,3.38772509765625,0.27682996881436556,9.476159570005535,-2.5092133562147616
1773522820148763000,3.397762939453125,0.3478131745867431,9.496263615879416,-2.422888533197343
1773522820158801000,3.40780078125,0.4334923566443845,9.515598430946469,-2.3314953208744527
1773522820168839000,3.4178388671875,0.5315898158462717,9.533403552228211,-2.2365175280630587
1773522820178877000,3.427876953125,0.602230857117474,9.548549683433771,-2.15241330370456
1773522820188916000,3.437916015625,0.5645297066893428,9.561518470600246,-2.1045272246748206
1773522820198954000,3.4479541015625,0.39474827303458004,9.572707973134516,-2.0923199234001335
1773522820208992000,3.457991943359375,0.13095750800808892,9.581273556905984,-2.0862464487053454
1773522820219030000,3.468030029296875,-0.16948266990389674,9.583881693577766,-2.071441970544308
1773522820229068000,3.478068115234375,-0.4655237178077921,9.5780364746809,-2.053020909321308
1773522820239106800,3.48810693359375,-0.7381180218137801,9.565043137595056,-2.0335971007965505
1773522820249145000,3.49814501953125,-0.9806101426206528,9.547473578634857,-2.013587601338327
1773522820259182800,3.508182861328125,-1.1924944322612137,9.527702125716209,-1.992794404156506
1773522820269220900,3.518220947265625,-1.376455380579084,9.507524430084228,-1.9704624531000852
1773522820279259000,3.5282587890625,-1.5371134139165281,9.487737779596447,-1.9469196649491787
1773522820289298000,3.5382978515625,-1.6802020344242452,9.468619822150469,-1.9215923314690588
1773522820299336000,3.5483359375,-1.8097144033916293,9.450567448109387,-1.8926406700119376
1773522820309374000,3.5583740234375,-1.9271711545147001,9.43439548098743,-1.8570361265368758
1773522820319412000,3.568411865234375,-2.031800280507654,9.421237308728694,-1.8117511699162423
1773522820329450800,3.57845068359375,-2.121452494382113,9.411955685642361,-1.7563934398315846
1773522820339489000,3.588489013671875,-2.193460330494493,9.406167749890685,-1.6979788063943384
1773522820349526800,3.59852685546875,-2.2472274303868414,9.402541960608959,-1.6469900851741432
1773522820359565000,3.60856494140625,-2.2835811847940084,9.399681310480833,-1.6129536677986382
1773522820369602800,3.618602783203125,-2.303175089188665,9.396991340744496,-1.6007283924758433
1773522820379642000,3.62864208984375,-2.3072620662413534,9.394138873922824,-1.6115440932616591
1773522820389679900,3.638679931640625,-2.2974026432670653,9.391166580113769,-1.6426538095355032
1773522820399718100,3.64871826171875,-2.274559527818113,9.388487716293334,-1.6891035721518097
1773522820409756000,3.658755859375,-2.2387147458463907,9.386967959380149,-1.7445318832546473
1773522820419794000,3.6687939453125,-2.1897212900966405,9.387494613602756,-1.8029054540291427
1773522820429833000,3.6788330078125,-2.128412981044501,9.390784302797913,-1.858333034479618
1773522820439870700,3.68887060546875,-2.0557233001478017,9.397557157933711,-1.9053322476722299
1773522820449909000,3.698908935546875,-1.9720361321575939,9.40856487416029,-1.939168758561462
1773522820459946800,3.70894677734375,-1.8779459358356891,9.424066979196667,-1.9572040353372693
1773522820469985000,3.718985107421875,-1.7741541374497114,9.44375659905076,-1.9591395334444939
1773522820480023800,3.72902392578125,-1.6615873503252863,9.466831769689916,-1.9464352424331008
1773522820490062000,3.73906201171875,-1.5403779686704278,9.492604508849977,-1.9204380468674003
1773522820500099800,3.749099853515625,-1.407157392834872,9.520420736536384,-1.8846460179962217
1773522820510138000,3.75913818359375,-1.2566378916740417,9.549528173077105,-1.843299131476879
1773522820520175900,3.76917578125,-1.084678639056161,9.579016133368015,-1.7989685529716313
1773522820530215000,3.77921484375,-0.8920979656267911,9.607635494130848,-1.7515337248407303
1773522820540253000,3.7892529296875,-0.6866193052448332,9.633591188642383,-1.7008321499988435
1773522820550291000,3.799291015625,-0.4741441005064174,9.655124975058436,-1.650492101945728
1773522820560329000,3.809328857421875,-0.24817834974974393,9.67109995830357,-1.6058029192611574
1773522820570367000,3.819366943359375,0.005598686515091685,9.681214525082707,-1.563474620489031
1773522820580406000,3.829406005859375,0.253871519890055,9.68607540911734,-1.511904153858125
1773522820590443800,3.83944384765625,0.4073197314465418,9.687144499653577,-1.4709540115714073
1773522820600482000,3.84948193359375,0.4315636170715093,9.68611281851828,-1.4708321387574075
1773522820610519800,3.859519775390625,0.3518002349289134,9.685691378235816,-1.4946537438496947
1773522820620559000,3.86955908203125,0.19931235630456356,9.687441436773538,-1.5113376060165464
1773522820630596900,3.879596923828125,0.003373375433847832,9.68991805602014,-1.5086007283985614
1773522820640635100,3.88963525390625,-0.22024446876673026,9.68965735925734,-1.494120513755828
1773522820650673000,3.8996728515625,-0.4602681718997657,9.68329893014133,-1.480619081017375
1773522820660711200,3.909711181640625,-0.7049382943328469,9.669231241822242,-1.4762867509014903
1773522820670750000,3.91975,-0.9345099240943789,9.648871759882569,-1.482010243114829
1773522820680788000,3.9297880859375,-1.124956873430684,9.626742930182814,-1.4935394989974795
1773522820690826000,3.939825927734375,-1.259091714566946,9.6078932682842,-1.5078008101925253
1773522820700863700,3.94986376953125,-1.3316498780384658,9.595895956498383,-1.5217998171895741
1773522820710902000,3.959902099609375,-1.3493041926726699,9.591674539411068,-1.532819662245363
1773522820720940800,3.96994091796875,-1.3255463004663586,9.593903321376443,-1.5395862337708472
1773522820730979000,3.97997900390625,-1.2723764358147978,9.600219664916395,-1.5450614503115414
1773522820741016800,3.990016845703125,-1.1966665303140878,9.608912089937924,-1.5515131106689573
1773522820751055000,4.00005517578125,-1.0979383719932287,9.619002691319585,-1.5619553019672632
1773522820761092900,4.0100927734375,-0.97079631235376,9.629341129982471,-1.582314930037409
1773522820771132000,4.0201318359375,-0.8109577056404202,9.637973933771253,-1.6193167730897664
1773522820781170000,4.030169921875,-0.623614275277406,9.643077978911995,-1.6710837852060794
1773522820791208000,4.0402080078125,-0.41947829820867627,9.643798694401978,-1.729609185541421
1773522820801246000,4.050245849609375,-0.21090716997040435,9.640406129354238,-1.7856233337081968
1773522820811285000,4.060284912109375,-0.03346976450264919,9.634911039069294,-1.826945085786283
1773522820821323000,4.070322998046875,0.060065839276951735,9.631517304977773,-1.8440788836777209
1773522820831360800,4.08036083984375,0.05895860412083566,9.63333166092336,-1.8346144513703881
1773522820841399000,4.09039892578125,-0.0018563640325366577,9.63915116085708,-1.8047509357653557
1773522820851436800,4.100436767578125,-0.08075584551235661,9.646530165192484,-1.763042522457242
1773522820861475800,4.110475830078125,-0.15549842208456247,9.653938980144261,-1.7168711383908986
1773522820871513900,4.120513916015625,-0.22108908463101834,9.66039677798152,-1.6727907352544367
1773522820881552000,4.1305517578125,-0.27761817831629887,9.665010993778704,-1.6373415284715591
1773522820891590000,4.14058984375,-0.32320114976912734,9.667216394868493,-1.6158124182306228
1773522820901628000,4.1506279296875,-0.3528910258403048,9.666950437408685,-1.6111825664728878
1773522820911667700,4.160667724609375,-0.36326417049039156,9.664415365973115,-1.6240391254365443
1773522820921705700,4.170705810546875,-0.3559874940183013,9.660361706668137,-1.6495694341428577
1773522820931743700,4.18074365234375,-0.336819194624573,9.655643445974588,-1.680915881782025
1773522820941781800,4.19078173828125,-0.3127348834754899,9.650577394756674,-1.7143348979115485
1773522820951820500,4.200820556640625,-0.28720389891574155,9.645124974569677,-1.7491216952629387
1773522820961858800,4.21085888671875,-0.26023785831788554,9.63933820786178,-1.7848866899967193
1773522820971896600,4.220896484375,-0.23029292977340518,9.633374915543198,-1.8208339094296098
1773522820981934800,4.230934814453125,-0.19648948090355842,9.627076107659935,-1.8577369682826101
1773522820991972600,4.24097265625,-0.15837591374963522,9.620185179102421,-1.896669779397547
1773522821002011600,4.25101171875,-0.1168442543810699,9.612266076540946,-1.9393547826528548
1773522821012049700,4.261049560546875,-0.0755689032945549,9.6028774859488,-1.9873193337462842
1773522821022087700,4.271087646484375,-0.04117361231166869,9.592142156922817,-2.0394880585312842
1773522821032125700,4.281125732421875,-0.02082731179726543,9.580862053495645,-2.092137698701024
1773522821042163700,4.291163818359375,-0.0171736252950388,9.569981178519129,-2.141388197951764
1773522821052202800,4.30120263671875,-0.030238892822642808,9.560735795789956,-2.1821556771479544
1773522821062240500,4.311240478515625,-0.05799004221647046,9.553969954916834,-2.211034273368865
1773522821072278800,4.32127880859375,-0.09851581247812137,9.549087443572283,-2.230607134975493
1773522821082316500,4.331316650390625,-0.15058938805926592,9.544662028345465,-2.2465860637433828
1773522821092355800,4.34135595703125,-0.21357536626635118,9.539480241793393,-2.2634265777766704
1773522821102393600,4.3513935546875,-0.286792322440166,9.532551319313049,-2.2844323947958647
1773522821112431900,4.361431884765625,-0.3681205244803801,9.524234157344699,-2.307342584131658
1773522821122469600,4.3714697265625,-0.4544831587575376,9.51591290372312,-2.3262067129470405
1773522821132508000,4.3815078125,-0.5432460956420749,9.50777986615002,-2.34038195329383
1773522821142546700,4.391546630859375,-0.6323092575822025,9.49937151876688,-2.3521330352336167
1773522821152584700,4.401584716796875,-0.7184582125760615,9.490750405415891,-2.3621727832108737
1773522821162622700,4.411622802734375,-0.7966435682795941,9.482840655204653,-2.3688553297147155
1773522821172660500,4.421660400390625,-0.8616559925466776,9.476704928928614,-2.370652880655974
1773522821182698800,4.43169873046875,-0.9112159230727702,9.47307446347177,-2.366630639402568
1773522821192737500,4.441737548828125,-0.9467521505519747,9.472556577077507,-2.3547223210744557
1773522821202775800,4.45177587890625,-0.9697301444269716,9.475449960431456,-2.333632771294564
1773522821212813600,4.4618134765625,-0.9792598970554769,9.481528988084197,-2.304782524385303
1773522821222851800,4.471851806640625,-0.9715509301133454,9.490462236124277,-2.2710325227357444
1773522821232890600,4.481890625,-0.9424338489614427,9.501948091256619,-2.2349960175842045
1773522821242928600,4.4919287109375,-0.8902915737919509,9.515542316845059,-2.1982335362456737
1773522821252966700,4.501966552734375,-0.8154323668364435,9.530895368799566,-2.160438643119484
1773522821263004700,4.512004638671875,-0.7197259674895554,9.547510403513908,-2.1207212574981154
1773522821273042700,4.522042724609375,-0.6081177962642162,9.564194411811233,-2.08008748768419
1773522821283081700,4.532081787109375,-0.4931855586500838,9.578847206541896,-2.042756120416522
1773522821293119700,4.54211962890625,-0.402303510719724,9.588578326961398,-2.016852302222699
1773522821303157500,4.552157470703125,-0.36634799838252363,9.59181950083971,-2.0082778044924137
1773522821313195800,4.56219580078125,-0.39439883854240176,9.589676059070229,-2.013196702324599
1773522821323234800,4.57223486328125,-0.4670980909850448,9.584018471699952,-2.0245542549021542
1773522821333272600,4.5822724609375,-0.555768088889122,9.575465162888168,-2.042541308622062
1773522821343310600,4.592310546875,-0.6406516270570457,9.5646439091444,-2.068220524279773
1773522821353348600,4.6023486328125,-0.7134835659686476,9.552613279610872,-2.0997455433562395
1773522821363386600,4.61238671875,-0.7733139114227146,9.540484450399875,-2.133430078554153
1773522821373425700,4.62242578125,-0.8204132239889353,9.529228312370181,-2.1658926707416772
1773522821383463700,4.632463623046875,-0.8530844174258411,9.520040797308086,-2.193499785722047
1773522821393501700,4.642501708984375,-0.8700370865967124,9.513777645260095,-2.213916989198327
1773522821403539700,4.652539794921875,-0.8728055283967405,9.510665650719403,-2.226172513528913
1773522821413577700,4.66257763671875,-0.8666771086443215,9.509847320073842,-2.2320522192172705
1773522821423616800,4.67261669921875,-0.8601300250884145,9.5097023586452,-2.23520030798465
1773522821433654800,4.68265478515625,-0.8639133430194109,9.508702826213836,-2.237991253877431
1773522821443692800,4.69269287109375,-0.8869741928722709,9.506258355671166,-2.239352605358511
1773522821453730600,4.70273046875,-0.9328195598546415,9.502086622944473,-2.2384271610766646
1773522821463769600,4.71276953125,-0.9978102106813341,9.496258939704298,-2.2351345492720602
1773522821473807600,4.7228076171875,-1.0725117428570985,9.488977550524472,-2.231455568498373
1773522821483845600,4.732845703125,-1.148302896900475,9.480584985232353,-2.2294151487119493
1773522821493883600,4.742883544921875,-1.2198530523732305,9.47189898995161,-2.2283372903473673
1773522821503921700,4.752921630859375,-1.2838776346467435,9.463642033737898,-2.2274523242063817
1773522821513960700,4.762960693359375,-1.3387597100436686,9.456496253636478,-2.2254909610055384
1773522821523998700,4.772998779296875,-1.3838294164784253,9.450803010430931,-2.222098103696853
1773522821534036700,4.78303662109375,-1.4212741809926925,9.446168920889496,-2.218169824337214
1773522821544074800,4.79307470703125,-1.4555911688752472,9.441700835564731,-2.2149318653292953
1773522821554112800,4.80311279296875,-1.491319192599505,9.43696913086772,-2.2113294569231567
1773522821564151800,4.81315185546875,-1.528863910356909,9.432458959966898,-2.204927042534947
1773522821574189600,4.823189453125,-1.5613053136259316,9.42935807134211,-2.1954351376987993
1773522821584227800,4.833227783203125,-1.581417981197685,9.428402378052473,-2.1851197876505553
1773522821594265600,4.843265625,-1.5894854061886667,9.429150566071272,-2.1760129366092382
1773522821604305000,4.853304931640625,-1.5919591028258204,9.430424823790789,-2.168677625285089
1773522821614342700,4.8633427734375,-1.5943584190525113,9.431417341959476,-2.162586761064082
1773522821624380700,4.873380615234375,-1.5982123180016874,9.432056224384903,-2.1569456864371896
1773522821634418700,4.883418701171875,-1.598068671747297,9.432228073820472,-2.156299497488141
1773522821644456700,4.893456787109375,-1.5879358386591076,9.43204336490333,-2.1645761813156303
1773522821654495700,4.903495849609375,-1.5673223819583653,9.431682714897393,-2.181109236834943
1773522821664533500,4.913533447265625,-1.5415746311090885,9.431240231826902,-2.201277872377634
1773522821674571800,4.92357177734375,-1.5167626998052,9.430766184574365,-2.220468018276989
1773522821684609500,4.933609619140625,-1.4935140722952782,9.430496135461329,-2.237308824571222
1773522821694648800,4.94364892578125,-1.4680715880028903,9.430901209130882,-2.25239095062986
1773522821704686600,4.9536865234375,-1.4364122750222683,9.432461882576346,-2.2662214691922067
1773522821714724900,4.963724853515625,-1.3972211052320898,9.435483276224137,-2.2781160512559113
1773522821724762600,4.9737626953125,-1.3512801689207552,9.439950777027011,-2.287299328534305
1773522821734800600,4.983800537109375,-1.3000392265051604,9.445599012047051,-2.2936786543078718
1773522821744839700,4.993839599609375,-1.246202714638412,9.451706681272388,-2.2983953075662256
1773522821754877400,5.00387744140625,-1.1936071427434682,9.457115262317657,-2.3040583017639813
1773522821764915700,5.013915771484375,-1.1465464086219668,9.461209253633022,-2.3111317472815514
1773522821774953700,5.02395361328125,-1.1071384542759508,9.464154074913262,-2.3182805961228907
1773522821784992800,5.03399267578125,-1.0755911503024398,9.4666797939986,-2.3228123943336305
1773522821795030500,5.044030517578125,-1.0505305779997258,9.469539859604835,-2.3226238860242066
1773522821805068800,5.05406884765625,-1.0311809306897222,9.472743624082208,-2.3182287198051807
1773522821815106600,5.0641064453125,-1.0192607027281075,9.475459312781691,-2.3123937300413844
1773522821825144800,5.074144775390625,-1.0165582388363779,9.476835277310013,-2.307935143197328
1773522821835183600,5.08418359375,-1.023317869164422,9.476285826733708,-2.307207121183723
1773522821845221600,5.0942216796875,-1.0379843270942568,9.473664246058464,-2.3114207933560014
1773522821855259600,5.104259765625,-1.0578349827289582,9.46927039501369,-2.3204079635404047
1773522821865298000,5.1142978515625,-1.0800671997379512,9.463527467447518,-2.333554591491818
1773522821875336700,5.124336669921875,-1.103041759546846,9.457094219529628,-2.3488354549929498
1773522821885374700,5.134374755859375,-1.1259545061659066,9.450682014399767,-2.3637268807850775
1773522821895412700,5.144412841796875,-1.1483750853538512,9.444787695664166,-2.3764665353707968
1773522821905450500,5.154450439453125,-1.170553453283757,9.440183416739105,-2.3839321950763463
1773522821915492000,5.1644921875,-1.192641147255525,9.436722462630271,-2.3866882157862186
1773522821925531100,5.17453125,-1.2147745800651608,9.43387291841805,-2.3867852464199064
1773522821935569200,5.184569091796875,-1.2385139137014747,9.430822298675775,-2.3866421846874055
1773522821945607200,5.194607177734375,-1.2661631142579017,9.426386362054943,-2.389652910810709
1773522821955645200,5.204645263671875,-1.3028924239791928,9.419786525398493,-2.3959292146012188
1773522821965684200,5.214684326171875,-1.352824768014252,9.410880165365338,-2.4032464057467875
1773522821975722000,5.224721923828125,-1.4159297512248157,9.399584279847145,-2.411082213938981
1773522821985760300,5.23476025390625,-1.4903523933939635,9.385906467628478,-2.4195029824122787
1773522821995798000,5.244798095703125,-1.572633786239475,9.370137820610404,-2.4285242009967565
1773522822005836000,5.2548359375,-1.6579247361645102,9.352225731822848,-2.4408067594647407
1773522822015875000,5.264875,-1.7420865359291433,9.332034592187403,-2.459402446602285
1773522822025913000,5.2749130859375,-1.822298282893747,9.309323578685522,-2.487185356540978
1773522822035951000,5.284951171875,-1.8966082584686577,9.284643310937286,-2.5236200672298668
1773522822045989000,5.294989013671875,-1.9662112253963946,9.259369168949126,-2.5629019840434193
1773522822056028200,5.305028076171875,-2.038372352374345,9.234283243009447,-2.5968133137345313
1773522822066066000,5.31506591796875,-2.12425045453757,9.208685860416292,-2.6187895832210777
1773522822076104200,5.325104248046875,-2.2356787391513584,9.179776576796174,-2.6275138646855947
1773522822086142000,5.335141845703125,-2.3785431955143808,9.14477423699796,-2.624125099030137
1773522822096180200,5.34518017578125,-2.5465356633931395,9.10261033500731,-2.6130527931347487
1773522822106219000,5.355218994140625,-2.72830823482126,9.053681761187315,-2.5995339708700773
1773522822116257300,5.36525732421875,-2.9155735584467646,9.000077596771716,-2.5823279845252634
1773522822126295000,5.375294921875,-3.1035315405115482,8.945195667505264,-2.553815591268241
1773522822136333000,5.3853330078125,-3.289094736394286,8.891067186954617,-2.5102090892538427
1773522822146372000,5.3953720703125,-3.469676928994059,8.838787549141049,-2.451033992838114
1773522822156410000,5.40541015625,-3.641148471160233,8.790435313904284,-2.3750050845161077
1773522822166448000,5.4154482421875,-3.7953383313968776,8.748719740203022,-2.285978162933141
1773522822176486000,5.42548583984375,-3.9256311832174657,8.715202086004615,-2.192044910738617
1773522822186524200,5.435524169921875,-4.0348645881354805,8.690334186729789,-2.0900538781642912
1773522822196563000,5.44556298828125,-4.1309298839226365,8.673595817896723,-1.968380239998549
1773522822206601200,5.455601318359375,-4.215514877535402,8.66353210452199,-1.8283951384641228
1773522822216639000,5.465638916015625,-4.292020609588921,8.655366333723068,-1.6833241119675337
1773522822226677200,5.47567724609375,-4.3693513942897315,8.64213801883757,-1.5468040561951697
1773522822236715000,5.485715087890625,-4.45732719938457,8.616835235276818,-1.432745861469209
1773522822246754000,5.495754150390625,-4.5628985746636985,8.573332193636894,-1.3595270421318708
1773522822256792000,5.5057919921875,-4.689442010822892,8.507502169376611,-1.342354811926186
1773522822266830000,5.515830078125,-4.839026423090696,8.415468613323569,-1.3907204911664128
1773522822276868000,5.5258681640625,-5.01173802844584,8.29700122385323,-1.4874956887885926
1773522822286907100,5.5359072265625,-5.192471612215042,8.163869349214433,-1.5999553622767329
1773522822296945200,5.545945068359375,-5.365813916689157,8.029999223428964,-1.7022135213546454
1773522822306983000,5.55598291015625,-5.52655334469974,7.903701578724384,-1.7773862512387335
1773522822317021200,5.566021240234375,-5.667948605293035,7.793787498065829,-1.8170327635809778
1773522822327059000,5.576058837890625,-5.779305870497226,7.709107811906933,-1.827471155487001
1773522822337098200,5.58609814453125,-5.863543658107519,7.645643932256102,-1.8257520766094326
1773522822347136000,5.596135986328125,-5.944403493717313,7.584753702485561,-1.8182341021947561
1773522822357174300,5.60617431640625,-6.0393643353939055,7.513952904075384,-1.7991588148467241
1773522822367212000,5.6162119140625,-6.138474697965383,7.441031460249423,-1.766512098263949
1773522822377251000,5.6262509765625,-6.227652280065417,7.373689862382411,-1.7365018676646053
1773522822387289000,5.6362890625,-6.311425372773408,7.306261755275726,-1.7189634344950318
1773522822397327000,5.6463271484375,-6.401521823284029,7.227782677322626,-1.717573441441357
1773522822407365000,5.656365234375,-6.497910651937127,7.137174185636639,-1.7344430354386566
1773522822417403100,5.666403076171875,-6.590499503785371,7.043802658978104,-1.7665074220888315
1773522822427442200,5.676442138671875,-6.67250734038651,6.958295289823412,-1.7972636487498879
1773522822437480200,5.686480224609375,-6.745375008198619,6.883460121330619,-1.8133644503317772
1773522822447518200,5.696518310546875,-6.816445855721831,6.810075736168026,-1.824642507932335
1773522822457556000,5.706555908203125,-6.889473098009824,6.731015643456578,-1.8436315783016382
1773522822467595000,5.716594970703125,-6.963171371427178,6.6459490038067095,-1.8750981451891362
1773522822477633000,5.726633056640625,-7.028168451994657,6.5663967436641455,-1.9124995089530943
1773522822487671000,5.736671142578125,-7.086299153923988,6.487844015952945,-1.965356654393673
1773522822497709000,5.746708984375,-7.140164599624276,6.410224185177683,-2.024218447076529
1773522822507747000,5.7567470703125,-7.188373042476177,6.340960094815492,-2.0712102076150476
1773522822517786000,5.7667861328125,-7.229898062041402,6.2834647681802505,-2.1016734426788983
1773522822527824100,5.77682421875,-7.270982936623692,6.22464491494298,-2.1347095969706773
1773522822537862100,5.786862060546875,-7.310833300974965,6.165395438116788,-2.170253057908267
1773522822547900200,5.796900146484375,-7.34553168939054,6.112679746973514,-2.20197462247014
1773522822557939000,5.80693896484375,-7.373909058091044,6.070285543358326,-2.2242940063059327
1773522822567977200,5.816977294921875,-7.396678523781895,6.039321665295958,-2.2329618814080954
1773522822578015000,5.827014892578125,-7.415611187788843,6.0127142288774245,-2.2419537277676165
1773522822588053000,5.837052978515625,-7.432519652491807,5.982831716310978,-2.2657823471225798
1773522822598092000,5.847092041015625,-7.447793209469318,5.955558509460091,-2.287374147336185
1773522822608130300,5.85713037109375,-7.460334126612544,5.934919626057147,-2.300112779008597
1773522822618168000,5.86716796875,-7.471737564158439,5.918123974078894,-2.3063671632282436
1773522822628206000,5.8772060546875,-7.486219093975424,5.899912025561928,-2.306067595759779
1773522822638244000,5.887244140625,-7.495993469014763,5.891808214083314,-2.2950065419107673
1773522822648283000,5.897282958984375,-7.502547712963819,5.883184762644768,-2.2957119137011466
1773522822658321200,5.907321044921875,-7.509362653675675,5.870733861872553,-2.305286089993268
1773522822668359200,5.917359130859375,-7.514746100279688,5.8632268472433084,-2.30684910152629
1773522822678397200,5.927397216796875,-7.518173152118921,5.859266711440682,-2.305741578675806
1773522822688436000,5.93743603515625,-7.520339974763989,5.857203349170089,-2.3039188932932912
1773522822698474200,5.94747412109375,-7.521188116025924,5.855954810413718,-2.304324405354261
1773522822708512000,5.957511962890625,-7.518866979601979,5.857708376082778,-2.307440053156763
1773522822718550300,5.96755029296875,-7.513674087134003,5.863554179501533,-2.3095050228625533
1773522822728588000,5.977588134765625,-7.506394451519847,5.872821189540624,-2.3096314257211983
1773522822738627000,5.987626953125,-7.4968720054149625,5.884827269154787,-2.3100017203383145
1773522822748665000,5.9976650390625,-7.487126271948218,5.897235499829054,-2.309965479981154
1773522822758703000,6.007703125,-7.476687880042195,5.910145834806561,-2.310780595756322
1773522822768741000,6.0177412109375,-7.467248436045646,5.922180555993318,-2.3104909651599823
1773522822778780000,6.02777978515625,-7.458085470902919,5.93359100780189,-2.3108098218508064
1773522822788818200,6.037818115234375,-7.4499144394069905,5.943529633492231,-2.3116249376259743
1773522822798856000,6.04785595703125,-7.446749253374338,5.948026944911479,-2.310254526055604
1773522822808894200,6.057894287109375,-7.448122295293212,5.946194468787312,-2.3105485405661166
1773522822818933000,6.06793310546875,-7.453349674552679,5.937686168161035,-2.315567683902383
1773522822828971300,6.07797119140625,-7.462455941072106,5.922925236880779,-2.3240252772547305
1773522822839009000,6.088009033203125,-7.47332220300138,5.90557838076055,-2.333236465453356
1773522822849047300,6.09804736328125,-7.485230082938075,5.8875172388911245,-2.3406946725048123
1773522822859085000,6.1080849609375,-7.495434081566334,5.871480880847573,-2.3483117233797905
1773522822869124000,6.1181240234375,-7.502399244403839,5.859689905288815,-2.355510841103643
1773522822879162000,6.128162109375,-7.506065365695953,5.852544125187396,-2.3615873845383524
1773522822889200000,6.1382001953125,-7.507479908668994,5.85167961731255,-2.359230884540081
1773522822899238100,6.148238037109375,-7.506864407119155,5.856057686266302,-2.3503093269377944
1773522822909277200,6.158277099609375,-7.504782340148091,5.866326566824316,-2.3312742254696786
1773522822919310600,6.168310546875,-7.500029592663049,5.883406880962848,-2.3033581906706093
1773522822929348600,6.1783486328125,-7.4934414464443915,5.904606320858002,-2.2703196982912717
1773522822939386600,6.18838671875,-7.48680536943078,5.9278276219695805,-2.2313656982578336
1773522822949424600,6.198424560546875,-7.478947057145834,5.953809619966149,-2.1881242301635444
1773522822959463700,6.208463623046875,-7.471480374526977,5.978340250110626,-2.146349035229534
1773522822969501700,6.218501708984375,-7.465476165676116,5.998012918829917,-2.1120814394466576
1773522822979539700,6.228539794921875,-7.459215936237573,6.016083413049579,-2.082599470505118
1773522822989577700,6.23857763671875,-7.452139714241027,6.034342123317718,-2.0549244048550723
1773522822999616500,6.248616455078125,-7.443867560458183,6.052860361304879,-2.030296597946435
1773522823009654800,6.25865478515625,-7.435092133328318,6.068398122176528,-2.0160190662689508
1773522823019692500,6.268692626953125,-7.425845581555366,6.081814653110504,-2.0096580068044365
1773522823029730800,6.278730712890625,-7.4154516133129595,6.095625151798129,-2.006194568477571
1773522823039769600,6.28876953125,-7.405007960709929,6.109142805019021,-2.003651167605072
1773522823049808000,6.298807861328125,-7.395935011938214,6.1209068925708525,-2.0012575504668058
1773522823059845600,6.308845703125,-7.38809014365673,6.131438807979226,-1.9979893424510955
1773522823069883600,6.318883544921875,-7.3795111158818,6.143014094960689,-1.994136320284754
1773522823079922700,6.328922607421875,-7.369260355502367,6.15698124551475,-1.9889609634734688
1773522823089960400,6.33896044921875,-7.357429047933221,6.173185361340642,-1.982524500685185
1773522823099998700,6.348998779296875,-7.342013452136516,6.194193078055977,-1.9741310586102305
1773522823110036700,6.35903662109375,-7.321270523837208,6.221963713034987,-1.9638092788212
1773522823120074800,6.36907470703125,-7.296179921722412,6.255488381496072,-1.950643361647427
1773522823130113500,6.379113525390625,-7.266857965648174,6.295043562293053,-1.9327688283912836
1773522823140151800,6.38915185546875,-7.23049778150022,6.34385464721322,-1.909394090283662
1773522823150189600,6.399189453125,-7.189393617695569,6.399829632413387,-1.8775464151240884
1773522823160227800,6.409227783203125,-7.144156299608945,6.4605000819534055,-1.8421058300390838
1773522823170266600,6.4192666015625,-7.092845799088478,6.523662348309159,-1.817623715211451
1773522823180304600,6.4293046875,-7.036752740466595,6.5866328914850945,-1.8085257781289517
1773522823190342700,6.4393427734375,-6.980082758739591,6.646796560546756,-1.8080200205639003
1773522823200381000,6.449380859375,-6.921323695778846,6.707166565835475,-1.810957389190048
1773522823210419700,6.459419677734375,-6.8570701270550485,6.770802879443765,-1.8185732710212468
1773522823220457700,6.469457763671875,-6.786677909445762,6.8390586695462465,-1.827202275417745
1773522823230495700,6.479495849609375,-6.710595955762266,6.912273543360829,-1.832691666614264
1773522823240533500,6.489533447265625,-6.627375236240029,6.990429965230822,-1.8390679236479102
1773522823250571800,6.49957177734375,-6.536208526149392,7.072359475898742,-1.8520511777311564
1773522823260610600,6.509610595703125,-6.437661058157682,7.15675449989736,-1.872901511927694
1773522823270648800,6.51964892578125,-6.336512467756867,7.24043816075623,-1.8960596846751867
1773522823280686600,6.5296865234375,-6.233589853420853,7.322364164292812,-1.922426882597059
1773522823290724900,6.539724853515625,-6.128342011007666,7.403224584424495,-1.9509150181956587
1773522823300763600,6.549763671875,-6.021623511520028,7.484974646872281,-1.9711922286793588
1773522823310801700,6.5598017578125,-5.9132595829129215,7.569645565202832,-1.9759082974158226
1773522823320839700,6.569839599609375,-5.799986839476228,7.6595672436684366,-1.9650899662815033
1773522823330877700,6.579877685546875,-5.680960062557459,7.753636104941368,-1.9437623699620366
1773522823340916700,6.589916748046875,-5.5589253359943624,7.848068538829684,-1.9174372576162217
1773522823350954800,6.599954833984375,-5.436270431706309,7.9394234649688,-1.8928597195900976
1773522823360992800,6.60999267578125,-5.314684617954493,8.025669085270167,-1.874341481602937
1773522823371030500,6.620030517578125,-5.1939679882526395,8.106636472907661,-1.8642735304445026
1773522823381069600,6.630069580078125,-5.073514393401146,8.183411669552326,-1.860537558786571
1773522823391107800,6.64010791015625,-4.950912096083164,8.258011860245466,-1.8612072747416792
1773522823401145600,6.6501455078125,-4.8230192911416285,8.332805527684092,-1.863655690807104
1773522823411183600,6.66018359375,-4.687772324045002,8.408921383637189,-1.8668740683317184
1773522823421222700,6.67022265625,-4.544266062647104,8.48648510031104,-1.8707228527143596
1773522823431260700,6.6802607421875,-4.395796041361987,8.563777598828077,-1.87324944858253
1773522823441298700,6.690298583984375,-4.2505216012477876,8.636547651484609,-1.8744322286263106
1773522823451336700,6.700336669921875,-4.114018788871169,8.702112302806974,-1.8757588010549544
1773522823461375700,6.710375732421875,-3.9891146443516012,8.759206062904,-1.8798004776611923
1773522823471413500,6.72041357421875,-3.871851077713072,8.809078055053948,-1.8919034417785703
1773522823481451800,6.73045166015625,-3.75324106490165,8.854614063826203,-1.9181695174135267
1773522823491489500,6.740489501953125,-3.6298765510395166,8.897294098645448,-1.9576849507220089
1773522823501527800,6.75052783203125,-3.504249352942407,8.937074904891848,-2.004819042340666
1773522823511566600,6.760566650390625,-3.3779943783357735,8.974704086062312,-2.0528588506273926
1773522823521604900,6.77060498046875,-3.252287100739777,9.011255408868193,-2.0952996698632833
1773522823531642600,6.780642578125,-3.129276514881849,9.047360741472243,-2.1268004312813282
1773522823541680600,6.7906806640625,-3.0098893802180884,9.083471334773302,-2.145111456258595
1773522823551719700,6.8007197265625,-2.8943314484536646,9.119521722319721,-2.1511717792108653
1773522823561757700,6.8107578125,-2.7824928294733167,9.154844380113483,-2.1487094807505605
1773522823571795700,6.820795654296875,-2.6741192562550307,9.188208889576792,-2.1438886364653706
1773522823581833700,6.830833740234375,-2.5703032002106307,9.218028858301043,-2.142862946679443
1773522823591872800,6.840872802734375,-2.473982176096737,9.242339708214997,-2.1514935585111377
1773522823601910500,6.85091064453125,-2.3875905714534222,9.260363440683484,-2.171512848711014
1773522823611948800,6.86094873046875,-2.3137845998778936,9.272244432613252,-2.200519601356238
1773522823621986600,6.870986572265625,-2.2544033133655783,9.278401786199211,-2.235911232732981
1773522823632025600,6.881025634765625,-2.2089671117059884,9.279155819436907,-2.277744003073126
1773522823642063600,6.891063720703125,-2.172603566557169,9.275201528853177,-2.3282629148244856
1773522823652101600,6.9011015625,-2.1375769691005346,9.267578194367886,-2.3902219428703186
1773522823662139600,6.9111396484375,-2.098378931178152,9.25829774032533,-2.459903966383636
1773522823672178700,6.9211787109375,-2.053614637430757,9.250742794901132,-2.52523627025485
1773522823682216700,6.931216796875,-2.0057535467118024,9.247771670135855,-2.5741163287580013
1773522823692254700,6.941254638671875,-1.9561776148989796,9.25119579936564,-2.5998320770338177
1773522823702292700,6.951292724609375,-1.9018213169418274,9.262091871911286,-2.6013646934285757
1773522823712331800,6.961331787109375,-1.8390736227363347,9.280522431614994,-2.5807193802848456
1773522823722369800,6.971369873046875,-1.7666681656084953,9.30531375852227,-2.5417335238084195
1773522823732407600,6.981407470703125,-1.6871422089509664,9.334327087038755,-2.48883166244328
1773522823742445800,6.99144580078125,-1.6074169303290544,9.36436157529652,-2.4280337871313096
1773522823752484900,7.00148486328125,-1.5361071594834326,9.392522670897842,-2.364589488963783
1773522823762522600,7.011522705078125,-1.4806284333676099,9.416699665299058,-2.3030203370183706
1773522823772560600,7.021560546875,-1.4464474929548798,9.436013437578081,-2.2449520328007635
1773522823782598700,7.0315986328125,-1.4309462647013365,9.451054939365386,-2.1909638375036415
1773522823792637700,7.0416376953125,-1.4201215038262307,9.464934996157885,-2.1374416522830724
1773522823802675700,7.05167578125,-1.4034509395323693,9.48109527284205,-2.075943812008202
1773522823812713700,7.061713623046875,-1.3805499564163386,9.50093803743124,-1.9991610165789722
1773522823822751700,7.071751708984375,-1.3567862189911306,9.522829551243781,-1.909255120204389
1773522823832790500,7.08179052734375,-1.3345689803555607,9.544981761819123,-1.811804069147259
1773522823842828800,7.091828857421875,-1.31134636406973,9.566840542405844,-1.710646126396209
1773522823852866600,7.101866455078125,-1.2809130857527256,9.588839608246088,-1.6074236523307859
1773522823862904800,7.11190478515625,-1.2381447881281376,9.611410921016335,-1.5027172233179211
1773522823872943600,7.121943603515625,-1.1782386009588837,9.635008069702982,-1.3959779733031987
1773522823882982000,7.13198193359375,-1.0985407218005507,9.659960724651812,-1.2840418852977453
1773522823893019600,7.14201953125,-1.0026062858514486,9.685321960401534,-1.1660555573426186
1773522823903057700,7.1520576171875,-0.8993841040469706,9.709179221329093,-1.045615844886005
1773522823913098000,7.162097900390625,-0.8015845318131148,9.729543379443884,-0.9294427038326859
1773522823923135700,7.1721357421875,-0.7207176088754087,9.745088739100098,-0.8271781150139867
1773522823933174000,7.182174072265625,-0.6626628217265009,9.755817638385295,-0.7451883985914289
1773522823943211800,7.192211669921875,-0.6274426744591445,9.76269103128612,-0.6830333365168422
1773522823953250800,7.202250732421875,-0.611265629303269,9.766922969767451,-0.6355743968579918
1773522823963288800,7.212288818359375,-0.6082602734748274,9.76927391680777,-0.6014087270796299
1773522823973326800,7.222326904296875,-0.6103440209463238,9.770177587649226,-0.5843901165330783
1773522823983364900,7.23236474609375,-0.610319105700776,9.770060683271288,-0.5863656178571284
1773522823993404000,7.24240380859375,-0.6062086016420275,9.769096806675195,-0.6063252868242561
1773522824003442000,7.25244189453125,-0.5980887888766825,9.767264330551027,-0.6428011332411319
1773522824013479700,7.262479736328125,-0.5849426358493045,9.764389651897549,-0.6963768022146075
1773522824023518000,7.27251806640625,-0.5642383590599521,9.760407888785004,-0.7658123766861855
1773522824033556700,7.282556640625,-0.5332056900776923,9.755742819583416,-0.8435339142702519
1773522824043594800,7.2925947265625,-0.4924690444111824,9.751148477530478,-0.9181168615676462
1773522824053632800,7.3026328125,-0.44757568092402067,9.747543731036782,-0.9774597157657146
1773522824063670800,7.3126708984375,-0.40834677293933924,9.745583829140662,-1.013527200577408
1773522824073709800,7.322709716796875,-0.38420200030729174,9.745140177026391,-1.0271400578010828
1773522824083747800,7.332747802734375,-0.3821101425945759,9.74545874145627,-1.0248869451120495
1773522824093785900,7.342785888671875,-0.4043172982275486,9.745577983921766,-1.015200832878053
1773522824103824000,7.352823974609375,-0.4459184517689049,9.744624044197797,-1.006888566280529
1773522824113862700,7.362862548828125,-0.4994868507513776,9.742901458188891,-0.9983859647426754
1773522824123901000,7.37290087890625,-0.5578640747876837,9.74223393419087,-0.9736717216596007
1773522824133938700,7.382938720703125,-0.6154812377043068,9.743575411927699,-0.9242772838935256
1773522824143977000,7.39297705078125,-0.6695085229028016,9.746424956139922,-0.8539994133789092
1773522824154015700,7.403015625,-0.7199183482564986,9.749551563727856,-0.7735333263270556
1773522824164054000,7.413053955078125,-0.7690542081516235,9.751793205174803,-0.6938960913147777
1773522824174091800,7.423091796875,-0.8192414037305861,9.752682847490906,-0.6200160315897315
1773522824184129800,7.4331298828125,-0.8711460707519203,9.75228537260592,-0.551763492890261
1773522824194168800,7.4431689453125,-0.9241981542427092,9.75084803327918,-0.48703386761993167
1773522824204206600,7.45320654296875,-0.978591788535565,9.748414084130525,-0.4256294777821749
1773522824214244900,7.463244873046875,-1.035771181089431,9.744743871185182,-0.37084158347472546
1773522824224282600,7.47328271484375,-1.0972994895678012,9.739579620289803,-0.32701109997872263
1773522824234322000,7.483322021484375,-1.1615796540375798,9.733120653408765,-0.29578700007759035
1773522824244359700,7.493359619140625,-1.2248640854682773,9.725990655398368,-0.27421637051617725
1773522824254398000,7.50339794921875,-1.2830974440544842,9.718963533240556,-0.2565007724151015
1773522824264435700,7.513435791015625,-1.3361945357307792,9.712212305414676,-0.2406490867560729
1773522824274474800,7.523474853515625,-1.387281602758914,9.705351187473536,-0.2280348121156916
1773522824284512800,7.5335126953125,-1.4396794601246714,9.697909639295935,-0.21967594816377387
1773522824294550800,7.54355078125,-1.4935159719914197,9.689834469389915,-0.21656945178210735
1773522824304588800,7.5535888671875,-1.5442491110153496,9.681799631494282,-0.22006907566720618
1773522824314627800,7.5636279296875,-1.587478158019483,9.674556820759177,-0.2307195576876402
1773522824324665900,7.573665771484375,-1.6203915627144276,9.668680037680268,-0.24768311357870695
1773522824334703900,7.583703857421875,-1.6427620922155677,9.664346976912022,-0.26857624573735517
1773522824344742000,7.593741943359375,-1.6523039736732839,9.6620357773602,-0.29214157451363276
1773522824354781000,7.603781005859375,-1.6414869577132165,9.66306512040794,-0.3179604361040517
1773522824364818700,7.613818603515625,-1.6002126980386673,9.669013215157388,-0.3462489940099418
1773522824374856700,7.623856689453125,-1.523974823141098,9.680341833901405,-0.3726640131289139
1773522824384894700,7.633894775390625,-1.4208883965454995,9.695734633344411,-0.3797072461713105
1773522824394933800,7.643933837890625,-1.306429512064159,9.71271090258658,-0.35617896146979183
1773522824404971800,7.6539716796875,-1.1909898729171604,9.729224230492115,-0.30685178025364873
1773522824415009800,7.664009765625,-1.0768943418554962,9.74432009281516,-0.24274892684584481
1773522824425047800,7.6740478515625,-0.9634827014047652,9.75763725502789,-0.17496796944718807
1773522824435086800,7.6840869140625,-0.8521814041715114,9.768923203673959,-0.11111344651095569
1773522824445124900,7.694124755859375,-0.7439275118101388,9.778249834945797,-0.05301569243657868
1773522824455163000,7.704162841796875,-0.635177652625367,9.78605729382634,0.0037591270587668986
1773522824465201000,7.714200927734375,-0.5203499713642522,9.792631411519647,0.06328201114474795
1773522824475239700,7.72423974609375,-0.3975896339403465,9.797824888509512,0.12216365930554457
1773522824485278000,7.73427783203125,-0.26833620817009357,9.801572842866182,0.16601258264053612
1773522824495315700,7.744315673828125,-0.1361624562400393,9.804088625079393,0.17802900098562238
1773522824505354000,7.75435400390625,-0.010462637006357545,9.805469265782833,0.15182086608298123
1773522824515392800,7.764392822265625,0.09734476853790693,9.805673848444222,0.09835531555362977
1773522824525431000,7.77443115234375,0.1775179461909458,9.804989957833289,0.032454687442281284
1773522824535468800,7.78446875,0.22608336752066388,9.80398341113925,-0.03415215042637428
1773522824545506800,7.7945068359375,0.2443924014702439,9.803170925712585,-0.09217002364797518
1773522824555545900,7.8045458984375,0.23603013998484237,9.802839501801133,-0.1379013083971571
1773522824565583600,7.81458349609375,0.20679040056765077,9.802888601639866,-0.1760145558906719
1773522824575622000,7.824621826171875,0.16738944221800192,9.802830733972787,-0.21655779787693172
1773522824585659600,7.83465966796875,0.13132235013195312,9.802373053333163,-0.25811573333106935
1773522824595699000,7.844698974609375,0.1095993156209588,9.801609083223342,-0.2946794406944886
1773522824605736700,7.85473681640625,0.10772925656591542,9.800657481586933,-0.3254212735040113
1773522824615775000,7.86477490234375,0.12383961142743936,9.799624046885967,-0.3498953146230429
1773522824625813800,7.874813720703125,0.14992378202369436,9.798656078636645,-0.366388330392912
1773522824635851800,7.884851806640625,0.1775469530897215,9.797856452691555,-0.3753129202025011
1773522824645889800,7.894889892578125,0.20196493490627035,9.79726783914864,-0.3783205775858834
1773522824655927800,7.904927734375,0.22142945903390646,9.796868610697985,-0.3778044812899083
1773522824665966800,7.914966796875,0.22844940253226084,9.797069686228037,-0.36827140419315546
1773522824676004900,7.9250048828125,0.21043440135950223,9.798470785197615,-0.34072208381462843
1773522824686043000,7.93504296875,0.16256761155212296,9.8008860296458,-0.2942644666854292
1773522824696081000,7.945080810546875,0.09096603641938418,9.803288414612412,-0.24013286259593442
1773522824706119700,7.95511962890625,0.007333851731891627,9.80470880280435,-0.19501076838681472
1773522824716158000,7.965157958984375,-0.07916595510556362,9.804828629791736,-0.17154913744702935
1773522824726195700,7.97519580078125,-0.16792307417066768,9.803709854894876,-0.17158512207586318
1773522824736233700,7.985233642578125,-0.2655423214015551,9.801247848695516,-0.18818662145519627
1773522824746272800,7.995272705078125,-0.3750597491590306,9.797098327800631,-0.2158642626548186
1773522824756310800,8.005310791015624,-0.4877376685077324,9.791325005096196,-0.2498959490562789
1773522824766348800,8.015348876953125,-0.5849410649467259,9.785091079142688,-0.28321917666113
1773522824776386800,8.02538671875,-0.6499756279803812,9.78012907282114,-0.31144875265508887
1773522824786425900,8.03542578125,-0.6855941999807953,9.776970316529274,-0.33348139197137205
1773522824796463600,8.045463623046874,-0.7129814616654068,9.774505387720465,-0.3479732970518991
1773522824806502000,8.055501953125,-0.7517341669730842,9.771423203796148,-0.35292803338244555
1773522824816539600,8.06553955078125,-0.8064194046236575,9.767335057699679,-0.3453213943036273
1773522824826579000,8.075578857421876,-0.8692663214199244,9.762693369373679,-0.3233682134317234
1773522824836616700,8.08561669921875,-0.9305318873088806,9.75817793777585,-0.28717355857640503
1773522824846655000,8.095655029296875,-0.9895008666932582,9.753635033649205,-0.2406105083113536
1773522824856692700,8.105692626953125,-1.0510443727407603,9.748279644095897,-0.19170683147059753
1773522824866731800,8.115731689453124,-1.118726454608515,9.741500943741201,-0.1483484589983709
1773522824876769800,8.125769775390625,-1.188738806054741,9.733636786237359,-0.11672845511483028
1773522824886807800,8.135807861328125,-1.2534233135417103,9.725705408716202,-0.09995981900766492
1773522824896845800,8.145845703125,-1.308296913371235,9.718511697819828,-0.0963302759994287
1773522824906884900,8.155884765625,-1.3584914154738188,9.711575761076807,-0.10097002809667027
1773522824916921900,8.165921875,-1.4126146353274582,9.703771224805712,-0.10826190213789232
1773522824926959900,8.1759599609375,-1.475051071626693,9.694385556823015,-0.11615751422592438
1773522824936999000,8.1859990234375,-1.5444539859376847,9.68346727244556,-0.12445573403178714
1773522824947036700,8.19603662109375,-1.6131132422745227,9.672155020314454,-0.13284773306832648
1773522824957075000,8.206074951171875,-1.6743980243206023,9.661633041778206,-0.14003094083699397
1773522824967112700,8.21611279296875,-1.7282025336138902,9.652073770794273,-0.14556426250678486
1773522824977151700,8.22615185546875,-1.7831740408599375,9.641980831325053,-0.15131263343305326
1773522824987189800,8.236189697265624,-1.8482921174585818,9.629544543600081,-0.16138254821971057
1773522824997228000,8.24622802734375,-1.9235569095402956,9.614508302509783,-0.17755298097170888
1773522825007265800,8.256265869140625,-1.9953738992556929,9.599562662312389,-0.19305320457825437
1773522825017304800,8.266304931640626,-2.047121183758229,9.588416998919843,-0.2048182054455392
1773522825027342800,8.2763427734375,-2.0716762176916004,9.582986206042767,-0.21197708249054847
1773522825037380600,8.286380615234375,-2.0781974361538884,9.581608487948774,-0.21039969537230208
1773522825047419000,8.2964189453125,-2.0820107108317316,9.581056699284911,-0.19741229483690112
1773522825057458000,8.3064580078125,-2.092031023456156,9.579339373973012,-0.17337821603771297
1773522825067496000,8.316495849609375,-2.1033660719409584,9.577425649306177,-0.13836264229859224
1773522825077533700,8.32653369140625,-2.1025635233864186,9.578155717146396,-0.09244967170641757
1773522825087572000,8.336572021484375,-2.076850113198161,9.584142390340567,-0.036202845011639874
1773522825097610800,8.34661083984375,-2.0297598607212306,9.594256372597814,0.02639395349805709
1773522825107648800,8.356648681640625,-1.9732351326838136,9.605608372217416,0.09497745488467625
1773522825117686800,8.366686767578125,-1.9191472764045,9.61552420155406,0.1702147835707292
1773522825127724800,8.376724853515626,-1.8798206436663865,9.621609074425697,0.24758999193515627
1773522825137763800,8.386763916015624,-1.8710827720679342,9.62124783989787,0.3178567200012505
1773522825147801900,8.3968017578125,-1.903708591993153,9.612812019985913,0.3743260645896196
1773522825157840000,8.40683984375,-1.9734473141297697,9.597065584799648,0.4149939924014732
1773522825167879000,8.41687890625,-2.0665107977524397,9.57628232448995,0.44127230646349486
1773522825177916700,8.426916748046875,-2.167148808282614,9.553367312848568,0.4549929349105805
1773522825187955000,8.436954833984375,-2.2627423949047922,9.530981293517351,0.4591279888886958
1773522825197992700,8.44699267578125,-2.345773583204299,9.51096960210204,0.4573638652930036
1773522825208032000,8.457031982421874,-2.4181699802428485,9.493205981874466,0.44930802114196117
1773522825218069800,8.46706982421875,-2.486870006981492,9.476270044642686,0.43147319884169844
1773522825228108000,8.47710791015625,-2.5560733070671557,9.459138292577862,0.4019531629120931
1773522825238145800,8.487145751953125,-2.6251857139989734,9.441956271630525,0.358097983366251
1773522825248184800,8.497184814453124,-2.691241363708675,9.425369293966888,0.30001389705762266
1773522825258222800,8.507222900390625,-2.751437181474268,9.409786524909734,0.2363925618227571
1773522825268260600,8.517260498046875,-2.8085508153155443,9.394172776192427,0.1787075213016942
1773522825278299000,8.527298828125,-2.867786555877328,9.376993677854538,0.13483901648339813
1773522825288337700,8.537337646484374,-2.9313337298974393,9.357674644878506,0.10764963372475467
1773522825298376000,8.5473759765625,-2.9979739014968274,9.336649977028369,0.09750454394319094
1773522825308413700,8.55741357421875,-3.064017860768735,9.315115606090426,0.10398234338886105
1773522825318452000,8.567451904296876,-3.1255200849577784,9.294374431356788,0.12691383124100974
1773522825328490800,8.57749072265625,-3.1807576957941053,9.275016235414148,0.16500804524049162
1773522825338528800,8.58752880859375,-3.228929021506011,9.257325680422783,0.21523858677083624
1773522825348566800,8.59756689453125,-3.269969180163741,9.24136531022489,0.27357662957422435
1773522825358604800,8.607604736328126,-3.3034070471242067,9.227444921422004,0.33485118248723444
1773522825368643800,8.617643798828125,-3.3287226901665328,9.216047913616896,0.3930069092599675
1773522825378681900,8.627681884765625,-3.3465561607599255,9.207338537460565,0.442558473816514
1773522825388719900,8.637719970703126,-3.360008932051062,9.200600169116258,0.4792320347625762
1773522825398757600,8.647757568359374,-3.3742814952924847,9.194150554585457,0.5022093345178291
1773522825408796700,8.657796630859375,-3.3933754873409865,9.186464091736077,0.5140626712556928
1773522825418835000,8.6678349609375,-3.419374728733301,9.176453569853305,0.520527008431591
1773522825428872700,8.677872802734376,-3.4516999582767482,9.16419380773902,0.5231541055321693
1773522825438912000,8.687912109375,-3.4862884565770624,9.151194040912388,0.5213723732145503
1773522825448949800,8.69794970703125,-3.517679035618901,9.139470285370946,0.5161544924357906
1773522825458987800,8.70798779296875,-3.542328615967929,9.130604841870069,0.5043415973061696
1773522825469025800,8.71802587890625,-3.5602322291880846,9.12476371462643,0.4835667394986376
1773522825479064600,8.728064697265625,-3.5737314699694513,9.120858523881434,0.4569190806675702
1773522825489102800,8.738102783203125,-3.585625029119849,9.117474726662039,0.43049796060137446
1773522825499140900,8.748140869140625,-3.5961093059942124,9.114415339091419,0.40720655339565126
1773522825509179000,8.758178955078124,-3.6039427760988474,9.112223382005094,0.3864863118521869
1773522825519217700,8.7682177734375,-3.6080411513283845,9.111350690823793,0.36839130424577743
1773522825529256000,8.778255859375,-3.609344050620496,9.111528385478257,0.3507977433554828
1773522825539293700,8.788293701171876,-3.609674305488169,9.112057377788425,0.3332555107936263
1773522825549332000,8.79833203125,-3.610957331036031,9.112098878842591,0.31782807842865585
1773522825559370800,8.808370849609375,-3.6140842308849095,9.111202806785702,0.3078422525957227
1773522825569408800,8.81840869140625,-3.6168840907365083,9.110055974838136,0.3089029406297952
1773522825579446800,8.82844677734375,-3.615450550802052,9.11007000336349,0.3248448983881622
1773522825589485000,8.838485107421874,-3.60533627628386,9.11299787350893,0.3538294757341966
1773522825599523800,8.84852392578125,-3.582124327522516,9.12064225078225,0.3907179215399548
1773522825609561900,8.858561767578125,-3.542746549119055,9.134167502787708,0.4316510030940175
1773522825619600000,8.868599853515626,-3.48592926787585,9.153906807002425,0.4739913576301187
1773522825629639000,8.878638916015625,-3.4116637159645555,9.179695912775397,0.5139424058768898
1773522825639677000,8.888677001953125,-3.3213641440972683,9.210894184115528,0.5462349387271329
1773522825649714700,8.898714599609375,-3.219190886823833,9.245923996442556,0.5657592850169166
1773522825659753000,8.9087529296875,-3.110956722076237,9.282621449720859,0.5703271774543449
1773522825669791700,8.918791748046875,-3.001946896781027,9.319048853886127,0.560388953622803
1773522825679829800,8.928829833984375,-2.896848399710655,9.353627999836206,0.5369452784648164
1773522825689867800,8.93886767578125,-2.7995684674367305,9.385136067777871,0.5020194745015353
1773522825699905800,8.94890576171875,-2.7126190827801824,9.412835975608228,0.4588977968620136
1773522825709944800,8.95894482421875,-2.6358821723192927,9.436808387348055,0.4112576188847422
1773522825719982800,8.96898291015625,-2.5671757158398627,9.457778110140561,0.36111955967713144
1773522825730020900,8.979020751953126,-2.5020970944687724,9.477032261186837,0.3094367552455515
1773522825740059000,8.989058837890624,-2.437070933937281,9.495505490988492,0.25781187327997757
1773522825750097700,8.99909765625,-2.3703462989248334,9.51361982434988,0.2071140978303738
1773522825760136000,9.009135986328126,-2.3016110547423363,9.53146644668579,0.1553193209243007
1773522825770173700,9.019173583984376,-2.2300741971425713,9.54920434795022,0.09922627143557183
1773522825780212000,9.0292119140625,-2.158170259796083,9.566132101875542,0.0425754099675687
1773522825790250800,9.039250732421875,-2.094120104689896,9.580450550085306,-0.0034422185839677695
1773522825800289000,9.0492890625,-2.038437380434573,9.592405191773176,-0.03015953712625196
1773522825810326800,9.059326904296874,-1.9859576900042593,9.60338251286149,-0.037254240060981825
1773522825820364800,9.06936474609375,-1.9347906896077096,9.613805707198381,-0.04160276097655296
1773522825830403800,9.07940380859375,-1.8952093514561652,9.621600891119241,-0.057826745980116535
1773522825840441600,9.089441650390626,-1.8810228590629994,9.624192076656222,-0.08406998416217974
1773522825850479900,9.09947998046875,-1.8987514079771934,9.620368718975781,-0.11677356376503593
1773522825860517600,9.109517578125,-1.94242235352993,9.611044425791501,-0.158729001503624
1773522825870557000,9.119556884765625,-1.976074740023911,9.602781624358892,-0.22819391166754066
1773522825880594700,9.1295947265625,-1.9355171041861174,9.607225744286179,-0.35407844552658496
1773522825890633000,9.139633056640625,-1.8112560798756778,9.62462286928892,-0.5063119475310668
1773522825900671700,9.149671630859375,-1.659898082064092,9.64437211037576,-0.6334092547133564
1773522825910709800,9.159709716796876,-1.534475612758845,9.658690558585524,-0.7248962827995419
1773522825920748300,9.169748291015624,-1.4515578217059373,9.666234398093819,-0.792008821151033
1773522825930786300,9.179786376953125,-1.3984430482424794,9.66996014061868,-0.8406029023196547
1773522825940825300,9.189825439453125,-1.3472742942802607,9.675010994267463,-0.8656755303863436
1773522825950863400,9.19986328125,-1.2792720405474305,9.684510059496759,-0.8626247645135968
1773522825960901400,9.2099013671875,-1.2042209642816335,9.696123340401053,-0.8399092940323054
1773522825970939400,9.219939453125,-1.1473735801611096,9.704791800025104,-0.8191113476101308
1773522825980978200,9.229978271484375,-1.1188722197547554,9.708602298223973,-0.8133664472825824
1773522825991016400,9.240016357421876,-1.1078752441179007,9.709047119382022,-0.8230461297757923
1773522826001054200,9.25005419921875,-1.0883376730203629,9.709224229514598,-0.8466887981045991
1773522826011092500,9.260092529296875,-1.0339162739377468,9.711908354032039,-0.8833169855389743
1773522826021131300,9.27013134765625,-0.9415316394247114,9.718203070262074,-0.9167456462796777
1773522826031169500,9.28016943359375,-0.8376048164822161,9.726725983935594,-0.9271534238517284
1773522826041207300,9.290207275390625,-0.7507230171691626,9.734968327102065,-0.9149830205213279
1773522826051245300,9.300245361328125,-0.689808383609727,9.74165291943252,-0.891481075837463
1773522826061284400,9.310284423828126,-0.6438868095859884,9.746868608254193,-0.8685337693616747
1773522826071322000,9.320322021484374,-0.5950243232721463,9.751039171937107,-0.8564882345199585
1773522826081360400,9.3303603515625,-0.5348742443444207,9.753859490054845,-0.8640002175852656
1773522826091398100,9.340398193359375,-0.4717466109106317,9.755295660337806,-0.8843357341274618
1773522826101437400,9.3504375,-0.4187116977503523,9.75601345321834,-0.9029181964572518
1773522826111475200,9.36047509765625,-0.38213830924313513,9.756699681916832,-0.911681640888378
1773522826121513500,9.370513427734375,-0.359275648843497,9.757662389469147,-0.9106608464732766
1773522826131551200,9.38055126953125,-0.341380072799325,9.758839032033086,-0.9049209876470268
1773522826141590300,9.39059033203125,-0.3185783122740686,9.76009926122725,-0.899634498611465
1773522826151628300,9.400628173828125,-0.28291297852247954,9.761486331671476,-0.8965097176544368
1773522826161666300,9.410666259765625,-0.233108754379116,9.763208333158493,-0.8920789686653763
1773522826171704300,9.420704345703125,-0.1748813688759692,9.765252406206727,-0.8829791318867355
1773522826181743400,9.430743408203124,-0.11866209005853161,9.767151517826319,-0.8712314109478145
1773522826191781400,9.440781494140625,-0.07241373633241746,9.7683427734375,-0.8629135913923383
1773522826201819400,9.4508193359375,-0.039693452189932574,9.768725635275244,-0.8607078249763697
1773522826211857400,9.460857421875,-0.0198810325066559,9.768703423443435,-0.8616521200891584
1773522826221896400,9.470896484375,-0.012275721160176908,9.769062319883703,-0.8577112004436552
1773522826231934200,9.480934326171875,-0.02157699993669521,9.770438284412025,-0.8417034839726985
1773522826241972200,9.49097216796875,-0.05213627012039069,9.772805013543367,-0.8123710065044463
1773522826252010200,9.50101025390625,-0.10270401228242554,9.775412565693259,-0.7753456364460289
1773522826262049300,9.51104931640625,-0.16687230474241077,9.777547824156283,-0.7362740013822913
1773522826272087300,9.52108740234375,-0.23752510951664296,9.778961198085545,-0.6970410382770001
1773522826282125300,9.531125244140625,-0.30909590591862796,9.779612355470658,-0.6588133066914975
1773522826292163300,9.541163330078126,-0.3785892019268125,9.779416540637612,-0.624542422972992
1773522826302202000,9.5512021484375,-0.4455187849268317,9.778182614928483,-0.5991947042919695
1773522826312240400,9.561240478515625,-0.5115649726884439,9.775734637254477,-0.5862780491715297
1773522826322278100,9.571278076171875,-0.5784408527398481,9.771896082004904,-0.5880905419535934
1773522826332316400,9.58131640625,-0.6467768319390714,9.766695006230472,-0.6030878392729908
1773522826342355200,9.591355224609375,-0.7164825285889208,9.760314365282655,-0.6271310512267053
1773522826352393500,9.6013935546875,-0.7861401483133434,9.753145788827538,-0.6546105212394148
1773522826362431200,9.61143115234375,-0.852904165488109,9.745724698916076,-0.6810236771948636
1773522826372469500,9.621469482421874,-0.9107982821825891,9.738730309984087,-0.705689331895858
1773522826382508300,9.63150830078125,-0.952874067498371,9.732948803973198,-0.7294692167382687
1773522826392546300,9.64154638671875,-0.9742986944515257,9.729161102128028,-0.7513609497465192
1773522826402584300,9.651584228515626,-0.9726214819543063,9.728061031931638,-0.7675976526677608
1773522826412622300,9.661622314453124,-0.9459188415329903,9.73010744306743,-0.7749984304435551
1773522826422661400,9.671661376953125,-0.8949660684090107,9.735110950443149,-0.7726891305878758
1773522826432699100,9.68169921875,-0.8226851875089108,9.742198862877487,-0.7636300642110407
1773522826442737400,9.6917373046875,-0.732737132493034,9.750276955392955,-0.7520370223771781
1773522826452775200,9.701775146484374,-0.6264219531092793,9.758678873035311,-0.7390325063101947
1773522826462814200,9.711814208984375,-0.5012173278057948,9.767227505671977,-0.7214055180743336
1773522826472852200,9.721852294921876,-0.35251086741629983,9.775608380526304,-0.6954154098365456
1773522826482890200,9.73189013671875,-0.1778783770011738,9.782402278450132,-0.6658525576785207
1773522826492928300,9.74192822265625,0.01962268753114622,9.785772047144174,-0.6392780736815183
1773522826502967300,9.75196728515625,0.22810047949673606,9.784487268030643,-0.6182024062965065
1773522826513005300,9.76200537109375,0.4257010451810434,9.778738495245575,-0.6044906918082386
1773522826523043300,9.772043212890624,0.5713761019853875,9.771683900558948,-0.5984231353975832
1773522826533082400,9.782082275390625,0.6028166211161762,9.77022610296607,-0.5913519183697179
1773522826543120400,9.792120361328125,0.5038767928060144,9.77729531069994,-0.566569322758168
1773522826553158400,9.802158447265626,0.31699772855173797,9.78760452326834,-0.5221919459691271
1773522826563196400,9.812196533203124,0.09196578804645687,9.794753810501097,-0.47405854111481455
1773522826573235200,9.822235107421875,-0.14168941210112534,9.795935713762045,-0.43582810611557216
1773522826583273500,9.8322734375,-0.366477396915853,9.7910754142493,-0.413439894827269
1773522826593311200,9.842311279296876,-0.5693955226274207,9.781586285892129,-0.40835232589729126
1773522826603349200,9.852349365234375,-0.7443330238711089,9.76923650740683,-0.4223713527690619
1773522826613387300,9.86238720703125,-0.8914462967850267,9.755444713419676,-0.45495621962938454
1773522826623426300,9.87242626953125,-1.0140717557828873,9.741198745924233,-0.5010895732402801
1773522826633464300,9.88246435546875,-1.1129865227170288,9.727530870577693,-0.5539077383773401
1773522826643502300,9.89250244140625,-1.1885915796037763,9.715554017058015,-0.6046860682498664
1773522826653541400,9.902541259765625,-1.246198915246129,9.705596686667203,-0.6471208230711519
1773522826663579100,9.9125791015625,-1.303628921560198,9.695667413327097,-0.6818894271787256
1773522826673617400,9.922617431640624,-1.3977159030117094,9.679930915012955,-0.7181449819084257
1773522826683655200,9.9326552734375,-1.5604659401923417,9.65159095571339,-0.7629802950654179
1773522826693694500,9.942694580078125,-1.7934249473698436,9.606410336250066,-0.8190778837319463
1773522826703732200,9.952732177734376,-2.0697341437131165,9.545162379083036,-0.8811750781394541
1773522826713770500,9.9627705078125,-2.3572483324207365,9.472440257221459,-0.9416201214257627
1773522826723808300,9.972808349609375,-2.6317133622020483,9.394341118496655,-0.9953988386906683
1773522826733847300,9.982847412109376,-2.8795246322050687,9.316707843717932,-1.03810400795117
1773522826743885300,9.99288525390625,-3.092569709253311,9.244973563849925,-1.0662385078065097
1773522826753923300,10.00292333984375,-3.2694600615978238,9.182724320685862,-1.0763722176775337
1773522826763961300,10.01296142578125,-3.419234151218831,9.12897753292918,-1.0681626808021216
1773522826774000400,10.02300048828125,-3.5563305455744265,9.079400724333524,-1.042775068502128
1773522826784038400,10.033038330078124,-3.691654085038602,9.029811640778183,-1.002286844638735
1773522826794076200,10.043076171875,-3.8268417231634255,8.978999152907729,-0.9503857578139752
1773522826804114400,10.053114501953125,-3.9566929686963555,8.928479510504006,-0.8928796175237744
1773522826814152200,10.063152099609376,-4.071677776747942,8.881874995717405,-0.8391236235473305
1773522826824191200,10.073191162109374,-4.162902939027547,8.843034685191512,-0.8008544639728963
1773522826834229200,10.083229248046875,-4.2252264164716005,8.814683619976043,-0.7868991499871015
1773522826844267300,10.093267333984375,-4.259371847179532,8.797410998135804,-0.7960458946473896
1773522826854305300,10.10330517578125,-4.268836133356392,8.790748033115268,-0.8186372272923589
1773522826864344300,10.11334423828125,-4.25857280575633,8.793580041670799,-0.8413694297127425
1773522826874382300,10.12338232421875,-4.234046267265081,8.80415112004578,-0.85450151768215
1773522826884420400,10.13342041015625,-4.197630261276662,8.821072444230317,-0.8596369808744638
1773522826894458400,10.143458251953126,-4.151201103056967,8.842188882017135,-0.8681140826448798
1773522826904497400,10.153497314453125,-4.096439585299789,8.865413105738163,-0.891076952015981
1773522826914535200,10.16353515625,-4.035542633527517,8.888485938289762,-0.9378630339145659
1773522826924573000,10.173572998046875,-3.9717029063016174,8.909350447142124,-1.009673374693468
1773522826934611000,10.18361083984375,-3.9064647104546424,8.928149255636335,-1.0945642924502492
1773522826944650000,10.19364990234375,-3.8388738140016794,8.946834666883944,-1.1779587611041962
1773522826954687700,10.203687744140625,-3.7642414746046065,8.968393003219365,-1.252516866221279
1773522826964726000,10.21372607421875,-3.6776527399539947,8.994881197172402,-1.3180888240672648
1773522826974763800,10.223763671875,-3.575591126361489,9.026774465039372,-1.3794531010903417
1773522826984803000,10.233802978515625,-3.456134433592856,9.063895112165808,-1.439205266741663
1773522826994840800,10.2438408203125,-3.319080709335208,9.105669722577929,-1.4969576368778943
1773522827004879000,10.253879150390626,-3.1671190465420485,9.150851511085033,-1.5497316340796647
1773522827014916900,10.263916748046874,-3.005339754089713,9.197872205457092,-1.5929434376880525
1773522827024956000,10.273955810546875,-2.8424247356057166,9.244279736366867,-1.6230505527906118
1773522827034994000,10.283993896484375,-2.6922733371049166,9.285732275217772,-1.642322385624051
1773522827045032000,10.294031982421876,-2.57580647380203,9.31607714459896,-1.6572022671088575
1773522827055070000,10.304070068359374,-2.512198509505391,9.330108008038998,-1.6758075988575816
1773522827065109000,10.31410888671875,-2.499002051062882,9.328962345135212,-1.7017131706170736
1773522827075147000,10.32414697265625,-2.514951607605815,9.320559842970967,-1.724120817258209
1773522827085185000,10.33418505859375,-2.543047529016435,9.312807329148054,-1.724797693606466
1773522827095223000,10.34422314453125,-2.5739471096709368,9.310714156261087,-1.6899119659252464
1773522827105262000,10.354261962890625,-2.597812261644006,9.316081820774079,-1.6224609163343906
1773522827115299800,10.3642998046875,-2.609661689391732,9.326090004569291,-1.5440503735728561
1773522827125337900,10.374337890625,-2.6198084048748016,9.334642728859185,-1.473574715463817
1773522827135376000,10.3843759765625,-2.638282219198346,9.337014718687534,-1.4247792665041983
1773522827145415000,10.394414794921875,-2.6657445188805458,9.331344856357575,-1.4107459188461302
1773522827155453000,10.404452880859376,-2.701489493739605,9.315481516793369,-1.4471175011709332
1773522827165491000,10.414490966796874,-2.753058645196259,9.285123203408718,-1.541927974591404
1773522827175529000,10.424529052734375,-2.858791640777886,9.230133137592674,-1.6740185234837233
1773522827185567700,10.434567626953125,-3.0887527813136577,9.13024828351736,-1.8079127607971428
1773522827195606000,10.44460595703125,-3.432402260349691,8.987484072658418,-1.9010848193608223
1773522827205643800,10.454643798828124,-3.7815553052380677,8.836221498045324,-1.9471553734011946
1773522827215682000,10.46468212890625,-4.07429175863862,8.698668884354829,-1.9757766338601708
1773522827225719800,10.4747197265625,-4.30641972181946,8.579420573639869,-2.004666482127458
1773522827235759000,10.484759033203124,-4.485912657877803,8.480853231903911,-2.030300397338718
1773522827245796900,10.494796875,-4.62860847967565,8.401731764394045,-2.0389429918691513
1773522827255835000,10.5048349609375,-4.775677401991188,8.3222689361006,-2.0256204228289425
1773522827265873000,10.514872802734375,-4.980976394957303,8.208793948090076,-1.9939812758535145
1773522827275912000,10.524911865234374,-5.248233831447362,8.053708600318432,-1.940158938642591
1773522827285950000,10.534949951171875,-5.528357763773203,7.883223438841104,-1.8607652300626039
1773522827295988000,10.544988037109375,-5.785927918985486,7.721568065029382,-1.7523742673180995
1773522827306026000,10.55502587890625,-6.003295243147015,7.586890129992366,-1.603097751955688
1773522827316064800,10.565064697265624,-6.169183724483847,7.491168240815401,-1.4120739525794983
1773522827326103000,10.57510302734375,-6.285314779961109,7.432109902647137,-1.1953828471791
1773522827336140800,10.585140869140625,-6.363171342101693,7.399981072458624,-0.9595366671927272
1773522827346179000,10.595178955078126,-6.423399893093109,7.377333771842718,-0.6966172599069774
1773522827356217900,10.6052177734375,-6.490046494433283,7.3403247683972115,-0.41149062392301855
1773522827366255900,10.615255859375,-6.577314443519711,7.272576927816868,-0.1376200620366726
1773522827376294000,10.6252939453125,-6.679133480527996,7.180018471106886,0.08304904361660592
1773522827386332200,10.635332275390626,-6.783330937105417,7.078136305734515,0.23831635122587902
1773522827396371000,10.645370849609375,-6.8927616181612015,6.967526059505343,0.3373364964969456
1773522827406409000,10.655408935546875,-7.025536934447288,6.830786515763402,0.3905902035070583
1773522827416447000,10.665447021484376,-7.187678630471229,6.659707480046153,0.39491730945855374
1773522827426484700,10.675484619140626,-7.361099260878563,6.470111375385523,0.3496661820422858
1773522827436524000,10.68552392578125,-7.531534153473377,6.274579450935125,0.2757308301997371
1773522827446562000,10.69556201171875,-7.699832034039497,6.070071023824811,0.19290126541955396
1773522827456600000,10.70560009765625,-7.861137279239297,5.86171352007091,0.11496669700616038
1773522827466637800,10.715637939453124,-8.005216079828143,5.664294174438715,0.05171804014174267
1773522827476676900,10.7256767578125,-8.126526583769918,5.48904808216989,0.017233533080510094
1773522827486715000,10.73571484375,-8.225507182481884,5.339564207667112,0.021836730868404264
1773522827496753000,10.7457529296875,-8.3074425383687,5.2108840517401696,0.058874295971402896
1773522827506791000,10.755791015625,-8.376047288039326,5.09877801399529,0.12112213262966834
1773522827516829000,10.765828857421875,-8.434552668499945,4.998669288036227,0.20497650127978995
1773522827526868000,10.775867919921875,-8.48984142500162,4.899188046325743,0.30154812088757754
1773522827536906000,10.785906005859376,-8.544160459688305,4.796299626520276,0.4039962495796382
1773522827546944000,10.795944091796875,-8.593318166089057,4.696521447689831,0.5176454616459086
1773522827556982000,10.80598193359375,-8.639680688813328,4.59677249495387,0.6292694514948874
1773522827567020800,10.816020751953126,-8.686740546151995,4.492993263788521,0.7238323068298399
1773522827577059000,10.82605908203125,-8.73434517789185,4.38840534658879,0.7896219260144979
1773522827587096800,10.836096923828125,-8.783727340698242,4.28359297298342,0.8169167601753026
1773522827597134800,10.846134765625,-8.838696363726259,4.170873479515314,0.8072470145542174
1773522827607174000,10.856173828125,-8.90195156906247,4.043247801077365,0.7601257824171334
1773522827617212000,10.8662119140625,-8.973268500301241,3.8985146282330154,0.6726248282924294
1773522827627250000,10.87625,-9.04397168355584,3.7491377212360497,0.5665080940902233
1773522827637288000,10.886287841796875,-9.107706196841598,3.6055443660765882,0.4691757375093177
1773522827647327000,10.896326904296876,-9.163288383331894,3.470785182496905,0.39771607333160935
1773522827657364700,10.90636474609375,-9.21223273924291,3.344040963068604,0.3500554370881989
1773522827667403000,10.916403076171875,-9.25682766777277,3.2222631338760257,0.31392661401070654
1773522827677440800,10.926440673828125,-9.298691125512123,3.1030612926512955,0.2752169989260845
1773522827687479000,10.93647900390625,-9.338912661263347,2.983834316985309,0.2276484614129178
1773522827697517800,10.946517822265625,-9.375785471108555,2.868910006949305,0.18543763327430932
1773522827707556000,10.95655615234375,-9.409508292490244,2.757885042439401,0.1600331063721329
1773522827717593900,10.96659375,-9.443020685991645,2.6425150344625115,0.12983399300402962
1773522827727632100,10.976632080078126,-9.476166584268212,2.5233020873218774,0.07480480075399391
1773522827737671000,10.9866708984375,-9.510381573081016,2.3921816986359654,-0.022211105722305363
1773522827747709000,10.996708984375,-9.543425764548777,2.2522033191032707,-0.14488018923276103
1773522827757747000,11.006746826171875,-9.570517185091973,2.123648396991193,-0.25632008208595214
1773522827767785000,11.016784912109374,-9.592260230344534,2.01138044668287,-0.33656799634248014
1773522827777824000,11.026823974609375,-9.611037411528825,1.9088480007082222,-0.3932445904733613
1773522827787861800,11.03686181640625,-9.627855275338888,1.8077761288054286,-0.45467258038241415
1773522827797900000,11.046900146484376,-9.641860419815778,1.711003853792697,-0.5266627712402493
1773522827807937800,11.056937744140624,-9.653362641561031,1.6232095427446067,-0.590051612893492
1773522827817976800,11.066976806640625,-9.662526775747537,1.5478069496273994,-0.6405108303468674
1773522827828014800,11.077014892578125,-9.670290980008245,1.4804282346203923,-0.6813165957268327
1773522827838052900,11.087052978515626,-9.67618997491896,1.4211486549168824,-0.7225407326493412
1773522827848091000,11.0970908203125,-9.679864279517531,1.3729608164615927,-0.7652356727767735
1773522827858129200,11.107129150390625,-9.681640057018399,1.339969378094375,-0.8004430336277931
1773522827868168000,11.11716796875,-9.68131798545718,1.3270486678533255,-0.8254762795321643
1773522827878206000,11.1272060546875,-9.678892804136872,1.3428053321726618,-0.8284280420098453
1773522827888244000,11.137243896484375,-9.674687753662466,1.371547588662803,-0.8304569174889475
1773522827898282000,11.147281982421875,-9.668285485404729,1.4123260276444256,-0.8366475157573818
1773522827908321000,11.157321044921876,-9.660130820521712,1.4666694661200046,-0.8373401011314242
1773522827918359000,11.167359130859374,-9.650275781461596,1.5296179435946047,-0.8383517623919993
1773522827928397000,11.17739697265625,-9.638691142129897,1.5974880953803658,-0.8450163348477333
1773522827938435000,11.18743505859375,-9.62467722982466,1.6742969020336866,-0.8559810156501829
1773522827948474000,11.19747412109375,-9.608108372339606,1.764209812670946,-0.8615110311180353
1773522827958512000,11.20751220703125,-9.588642039847374,1.8688319244012235,-0.8577827313099056
1773522827968550000,11.2175498046875,-9.56699660975039,1.9811786390341817,-0.8472854488234967
1773522827978588200,11.227588134765625,-9.543102523943782,2.097164440821856,-0.8375428571619092
1773522827988626000,11.2376259765625,-9.517505725872516,2.2127209112815556,-0.8314676289014518
1773522827998665200,11.247665283203125,-9.490411967241764,2.3271442860580978,-0.8287729829899966
1773522828008703000,11.257702880859375,-9.46169557584524,2.4415851964913307,-0.8278670471262186
1773522828018741200,11.2677412109375,-9.43146410371065,2.5585601554468274,-0.8195381216548383
1773522828028779000,11.277779052734376,-9.400405533102154,2.67350492374897,-0.8094033158052713
1773522828038818000,11.287818115234375,-9.368413481035828,2.78413621276617,-0.8073373962514102
1773522828048856000,11.29785595703125,-9.334012614262104,2.8962843360871076,-0.8112554464779794
1773522828058894000,11.30789404296875,-9.297346140643954,3.0117075355559586,-0.8120105756942182
1773522828068932000,11.31793212890625,-9.258756590008735,3.129242904873192,-0.8084838628727942
1773522828078971100,11.32797119140625,-9.218974030196666,3.243456144030392,-0.8129564782422035
1773522828089009200,11.338009033203125,-9.176901313620805,3.3557962827920913,-0.832765998148918
1773522828099047000,11.348046875,-9.134209588363767,3.4626571133598683,-0.864065537906438
1773522828109085200,11.358085205078124,-9.093013654622435,3.559789453856647,-0.9029854895398021
1773522828119123000,11.368123046875,-9.053767101383208,3.6478833323732016,-0.9447900566987693
1773522828129162000,11.378161865234375,-9.014662586963176,3.7344980782479045,-0.9796792915113269
1773522828139200000,11.388199951171876,-8.972813157749176,3.826497732031345,-1.00842768548131
1773522828149238000,11.398238037109374,-8.925700693440437,3.9293323758229612,-1.0308268565550447
1773522828159276000,11.408276123046875,-8.871528373748063,4.0455137001827355,-1.048899323536083
1773522828169315000,11.418315185546875,-8.812383526340126,4.169911941006779,-1.0602437243711202
1773522828179353000,11.42835302734375,-8.749120722219347,4.299216366311907,-1.0677100416637957
1773522828189391000,11.43839111328125,-8.682826003056764,4.429172825784981,-1.0776565583996474
1773522828199429000,11.44842919921875,-8.616883166071773,4.552951181145012,-1.0910270582348107
1773522828209468200,11.45846826171875,-8.552177177405357,4.669962526588142,-1.1054846226543187
1773522828219506000,11.468505859375,-8.486554658415914,4.784815232692659,-1.1199624261442571
1773522828229544200,11.478544189453125,-8.417969782489537,4.902058925586939,-1.130481555136293
1773522828239582000,11.48858203125,-8.34426215672195,5.024678758561611,-1.1385406506903468
1773522828249620000,11.498619873046875,-8.263117658951877,5.153901935324073,-1.1526334734506904
1773522828259659000,11.508658935546874,-8.174618122243881,5.288480501639842,-1.1738709803339094
1773522828269697000,11.518697021484375,-8.081805983033776,5.4253901412516825,-1.191615676665306
1773522828279735000,11.528735107421875,-7.9849553820878265,5.565536278566718,-1.1982000234916805
1773522828289773000,11.53877294921875,-7.884954792678355,5.705442761906981,-1.202410334663093
1773522828299812000,11.54881201171875,-7.782844663769006,5.841659158557653,-1.213559139860794
1773522828309849900,11.558849853515625,-7.680388497900962,5.970851355659962,-1.2373175435237587
1773522828319888100,11.56888818359375,-7.577969156911969,6.093098263669013,-1.2723669373340905
1773522828329926000,11.57892578125,-7.473942965248226,6.211381528744101,-1.3150320668451487
1773522828339964200,11.588964111328124,-7.366747495898604,6.327901875799894,-1.3634808943241834
1773522828350003000,11.5990029296875,-7.256613050487637,6.442264168038964,-1.417455791748315
1773522828360041200,11.609041259765625,-7.144945404160023,6.55333384847343,-1.4744313322931528
1773522828370079000,11.619078857421876,-7.0329287982642645,6.659778207194805,-1.5348130280196666
1773522828380117200,11.6291171875,-6.922243148711323,6.759681765970587,-1.5998866809546946
1773522828390156000,11.639156005859375,-6.81079645165801,6.855170430913567,-1.6703515254087744
1773522828400194000,11.649194091796875,-6.697156628474593,6.948092460238933,-1.7442706019699572
1773522828410232000,11.659232177734374,-6.580512947300076,7.039573058584332,-1.8197937527269124
1773522828420270000,11.66927001953125,-6.461552221354842,7.128404603725671,-1.8985754668883978
1773522828430309000,11.67930908203125,-6.340024859791994,7.213919571664929,-1.983388131777197
1773522828440347000,11.689346923828126,-6.214302969148755,7.296401455518603,-2.077342280629277
1773522828450385200,11.69938525390625,-6.083508597546816,7.37654642085731,-2.1789627263255418
1773522828460423000,11.7094228515625,-5.948845275557041,7.45453976112008,-2.282863245783001
1773522828470461200,11.719461181640625,-5.810334630489349,7.53094963158369,-2.3864611290320754
1773522828480500000,11.7295,-5.668968595990538,7.605593661418557,-2.4875936450809237
1773522828490538200,11.739538330078124,-5.525561411052942,7.679221207687259,-2.5822718704238534
1773522828500576000,11.749575927734375,-5.379264349892735,7.753699233305454,-2.66722014439106
1773522828510614300,11.7596142578125,-5.228313325446844,7.830166386914253,-2.7429233278900385
1773522828520653000,11.769653076171876,-5.070843712887168,7.909706956619024,-2.8095295972198246
1773522828530691000,11.779691162109375,-4.905552028399706,7.993270790490508,-2.865930406616628
1773522828540729000,11.78972900390625,-4.732481526604294,8.080916925239563,-2.910802983044088
1773522828550766800,11.799766845703125,-4.5524037763953205,8.17271725705862,-2.9415456195712086
1773522828560806100,11.80980615234375,-4.365854784345626,8.268899164962768,-2.955501371948421
1773522828570844200,11.81984423828125,-4.17294122570008,8.368516892534494,-2.953790768638253
1773522828580882200,11.829882080078125,-3.971895506264269,8.470058866167069,-2.9415219464346767
1773522828590920000,11.839919921875,-3.7610374178662895,8.571509654384851,-2.9247593199431896
1773522828600958200,11.849958251953124,-3.540775541307032,8.670408420032262,-2.908145162011683
1773522828610997000,11.8599970703125,-3.313720059084892,8.765534096881746,-2.8905101365998385
1773522828621035000,11.870034912109375,-3.0845886473715303,8.854873591545223,-2.8717411387220024
1773522828631073000,11.880072998046876,-2.858552279064059,8.93669555018544,-2.852112309144437
1773522828641111000,11.890111083984374,-2.638867910131812,9.010768502134084,-2.8306913354530927
1773522828651150000,11.900150146484375,-2.4248167247809467,9.077895580467581,-2.8075732024550435
1773522828661188000,11.91018798828125,-2.2101297257445753,9.139714030998945,-2.7841210151970386
1773522828671226000,11.92022607421875,-1.9902922120772302,9.197364255934954,-2.7600013039410114
1773522828681264000,11.93026416015625,-1.762214254939556,9.251516117361188,-2.7339430258378385
1773522828691303000,11.940302978515625,-1.525716698372364,9.302069077512622,-2.7044574036344886
1773522828701341200,11.950341064453125,-1.2863209361456334,9.347873381832242,-2.670771114870906
1773522828711379000,11.96037890625,-1.0534084715235978,9.387446098285913,-2.6337349311575293
1773522828721417000,11.9704169921875,-0.8377468553014099,9.419889985772967,-2.595035782667994
1773522828731455000,11.980455078125,-0.648846404754743,9.44532136414945,-2.556424020200968
1773522828741494300,11.990494384765626,-0.4903810956886038,9.46481166203916,-2.51937088535279
1773522828751532000,12.000531982421874,-0.35959717241544276,9.479698850047587,-2.4852333456903692
1773522828761570000,12.010570068359375,-0.24902433558721093,9.49129459529519,-2.4543247049465773
1773522828771608000,12.020608154296875,-0.15124733137818983,9.500382157114148,-2.426981501599401
1773522828781646800,12.030646728515626,-0.05808143769381568,9.507567684704064,-2.4027441553130746
1773522828791685000,12.04068505859375,0.0369975687360391,9.51354442102611,-2.37938856029734
1773522828801723000,12.050722900390625,0.1339717777953483,9.519039511311053,-2.3537913238346575
1773522828811761200,12.06076123046875,0.22578529788954183,9.524428803133963,-2.324798453584313
1773522828821799000,12.070798828125,0.30278840327225626,9.530312600475549,-2.2916918644048274
1773522828831838200,12.080838134765624,0.35813166644014416,9.53763958236277,-2.2529006537176666
1773522828841876000,12.0908759765625,0.39018228029329327,9.546765722626446,-2.2084888266697527
1773522828851914200,12.100914306640625,0.40026992253288624,9.556809562256932,-2.162771469981223
1773522828861952000,12.110951904296876,0.3892014525623992,9.566706686893104,-2.1206179432541132
1773522828871991000,12.120990966796874,0.35803660856783387,9.57557388395965,-2.0857978281550107
1773522828882029000,12.131029052734375,0.31008550147786734,9.582522680184244,-2.0614313025310635
1773522828892067000,12.141067138671875,0.2524451951476745,9.587124036499857,-2.0478563661649822
1773522828902105000,12.15110498046875,0.19306710523944348,9.589895254778861,-2.0413329557456077
1773522828912144000,12.161143798828125,0.13668981371554545,9.591512626847624,-2.038281605350971
1773522828922182400,12.171182373046875,0.0839603132426273,9.592530279457568,-2.036343623025715
1773522828932220200,12.18122021484375,0.03264955927712144,9.59360989138782,-2.032723678962886
1773522828942258400,12.191258544921874,-0.02199816850781208,9.595320202437042,-2.0247785651773214
1773522828952296200,12.201296142578125,-0.08243795338040218,9.598230536925792,-2.0093632616415618
1773522828962335200,12.211335205078125,-0.14744409403717146,9.602285365274549,-1.9861403530947863
1773522828972373200,12.221373291015626,-0.21451370656238866,9.606730069723724,-1.958346629501134
1773522828982411300,12.231411376953124,-0.28135124563109126,9.610482700255513,-1.9312793204858898
1773522828992449300,12.24144921875,-0.34431535906624045,9.61289151496291,-1.9089730883926153
1773522829002488300,12.25148828125,-0.3972296780541539,9.614028994560242,-1.8928988825567066
1773522829012526300,12.2615263671875,-0.4342994352435693,9.61459305818379,-1.881852734015882
1773522829022564400,12.271564453125,-0.450987790922448,9.615419572135805,-1.8736871093474328
1773522829032602400,12.281602294921875,-0.44383474083002655,9.616576925477386,-1.8694445033416152
1773522829042640100,12.29164013671875,-0.4137614183992147,9.617448447614908,-1.8718657391391693
1773522829052679400,12.301679443359374,-0.3651991936735809,9.617615620875357,-1.8810886177755892
1773522829062717200,12.31171728515625,-0.30546597018474714,9.616628947925568,-1.8967156643658876
1773522829072755500,12.32175537109375,-0.24279778922256082,9.614135962066054,-1.91828437596485
1773522829082793200,12.331793212890625,-0.18525513458056375,9.610349429264664,-1.943514094289392
1773522829092832300,12.341832275390624,-0.1411849971097894,9.606203415501117,-1.9675687774851918
1773522829102870300,12.351870361328125,-0.12057654537772759,9.602910803696513,-1.9849287853479385
1773522829112908300,12.361908203125,-0.12864519421141593,9.601146132111548,-1.9929440417602657
1773522829122946300,12.3719462890625,-0.16053842554576694,9.60073345965743,-1.992624600547552
1773522829132985300,12.3819853515625,-0.20462836369555443,9.600983050504325,-1.9873745710648596
1773522829143023400,12.3920234375,-0.24913440836556255,9.601520226120948,-1.9796837243013083
1773522829153061400,12.402061279296875,-0.2864077618356794,9.602367198339104,-1.9705127219825982
1773522829163099400,12.412099365234376,-0.3153874072782695,9.603567221778631,-1.9602059936322271
1773522829173137400,12.422137451171874,-0.33818401670437304,9.604994039711356,-1.9493885392807422
1773522829183176200,12.43217626953125,-0.35553653538040814,9.606654081878066,-1.938081547846645
1773522829193214500,12.44221435546875,-0.36503041297793387,9.608895138803124,-1.9251687286511063
1773522829203252200,12.452252197265626,-0.3633116994265467,9.611964463245869,-1.9101092528156935
1773522829213290200,12.462290283203124,-0.3504072827331722,9.615724692562221,-1.8935319197632372
1773522829223329300,12.472329345703125,-0.33020185884404923,9.619878305110335,-1.8759820884168148
1773522829233367300,12.4823671875,-0.31020079842060805,9.624086278194188,-1.8577194326259194
1773522829243405300,12.4924052734375,-0.3015639395112172,9.627691609209775,-1.8403791523769497
1773522829253443300,12.502443359375,-0.3173714572349563,9.629673722937703,-1.827304859009385
1773522829263481300,12.5124814453125,-0.36633882869537915,9.629291445621847,-1.8201449042521416
1773522829273520000,12.52252001953125,-0.4490832724753767,9.62636123738885,-1.8171036368601023
1773522829283558400,12.532558349609374,-0.5586095959253609,9.62100584783554,-1.8150991651698947
1773522829293596200,12.54259619140625,-0.6848001269936561,9.613429859623313,-1.8120225342035292
1773522829303634400,12.552634521484375,-0.8200153107125312,9.60368120354712,-1.8075545950092373
1773522829313673200,12.562673095703126,-0.9595446313034742,9.591877953028678,-1.8015443948090075
1773522829323711500,12.57271142578125,-1.101242674235627,9.578084989997745,-1.7938665536575018
1773522829333749200,12.582749267578125,-1.2424253880567848,9.562794481885433,-1.7831854390367865
1773522829343787300,12.592787353515625,-1.3801530660532415,9.54655354118049,-1.7688650911308823
1773522829353825300,12.6028251953125,-1.5106372026622295,9.529851997226476,-1.7522237529315052
1773522829363864300,12.6128642578125,-1.631567621245235,9.512975681227445,-1.7354209405601024
1773522829373902300,12.62290234375,-1.7439415161460636,9.495516596904396,-1.7216963665902614
1773522829383940000,12.632940185546875,-1.8483732198707759,9.476813650000095,-1.7157891883730887
1773522829393978400,12.642978271484376,-1.9443432385899126,9.456194640341401,-1.7234610381752251
1773522829404017200,12.65301708984375,-2.0357326515205205,9.432609182092547,-1.7470200468085706
1773522829414055400,12.663055419921875,-2.132834158487618,9.404752037873864,-1.7810235848277807
1773522829424093200,12.67309326171875,-2.2497692238241433,9.370260570207238,-1.8185571966692804
1773522829434131500,12.68313134765625,-2.395355067975074,9.32668972402811,-1.8562065438449382
1773522829444169200,12.693169189453124,-2.5703333030879496,9.272202931559086,-1.8947357425950466
1773522829454208300,12.703208251953125,-2.7681124219432474,9.206559369781612,-1.9357710789471863
1773522829464246300,12.713246337890626,-2.977711742451787,9.132119922608137,-1.9768727585338055
1773522829474284300,12.7232841796875,-3.185814394661784,9.054974139085411,-2.0070951705791056
1773522829484322300,12.733322265625,-3.384513843232393,8.98095730123818,-2.014412507855147
1773522829494361300,12.743361328125,-3.56855815898478,8.913455544373393,-1.9965195621594785
1773522829504399400,12.7533994140625,-3.7372903393149373,8.850444669187068,-1.9679158373571932
1773522829514437000,12.76343701171875,-3.90108857037425,8.783445016625523,-1.9501263520359993
1773522829524475400,12.773475341796875,-4.073867103485763,8.70450416637957,-1.9507986983396113
1773522829534513200,12.78351318359375,-4.2619399441018695,8.612438461622595,-1.95758967365399
1773522829544552400,12.793552490234376,-4.458786166021228,8.512388772374392,-1.9567478160023688
1773522829554590200,12.803590087890624,-4.654643084642291,8.410074060803652,-1.943020173292607
1773522829564628500,12.81362841796875,-4.843278819838166,8.309799330627918,-1.9131838379554449
1773522829574666200,12.823666259765625,-5.024111187806725,8.21335555691719,-1.8626552815929054
1773522829584705300,12.833705322265626,-5.201729269903898,8.116815921616555,-1.7971356384560464
1773522829594743300,12.843743408203125,-5.384957008576393,8.009518745458125,-1.7378791473671793
1773522829604781300,12.85378125,-5.584453160482645,7.8803855850666755,-1.698174767357856
1773522829614819300,12.8638193359375,-5.799374260535836,7.732620789441466,-1.6565712757289408
1773522829624857300,12.873857421875,-6.013889702397584,7.58154818444252,-1.5885973713077604
