time,seconds_elapsed,z,y,x
1773522816856242000,0.105241943359375,-0.07932394742965698,1.337071418762207,-0.11865884065628052
1773522816866280200,0.1152802734375,-0.26100456714630127,1.8030599355697632,0.06109282746911049
1773522816876318000,0.12531787109375,-0.42114895582199097,2.4631218910217285,0.24277740716934204
1773522816886356000,0.13535595703125,-0.41601887345314026,2.9274682998657227,0.5543094277381897
1773522816896394000,0.14539404296875,-0.1964750736951828,2.4974541664123535,1.1115703582763672
1773522816906432000,0.155431884765625,0.11759545654058456,1.9969197511672974,1.799067497253418
1773522816916471600,0.165471435546875,0.41633129119873047,1.8017138242721558,2.6108691692352295
1773522816926509300,0.17550927734375,0.7094423770904541,2.084867477416992,3.442917823791504
1773522816936547600,0.185547607421875,1.001970648765564,2.3752124309539795,4.086751461029053
1773522816946585300,0.19558544921875,1.0029646158218384,-0.012319015339016914,3.013625383377075
1773522816956623600,0.20562353515625,0.7995139956474304,-0.5411887168884277,1.0920506715774536
1773522816966661400,0.215661376953125,0.510149359703064,1.402195930480957,-0.6827663779258728
1773522816976699600,0.22569970703125,0.2672315239906311,2.723334550857544,-2.1405627727508545
1773522816986738400,0.235738525390625,0.13583242893218994,3.47367787361145,-2.9643516540527344
1773522816996776700,0.245776611328125,-0.015986934304237366,3.792478084564209,-3.1845827102661133
1773522817006814500,0.255814453125,-0.2041260451078415,3.630444049835205,-3.025158166885376
1773522817016852500,0.2658525390625,-0.3455750644207001,3.198925495147705,-2.7281436920166016
1773522817026890500,0.275890380859375,-0.4288509488105774,2.7932679653167725,-2.2588863372802734
1773522817036928500,0.285928466796875,-0.4667101800441742,2.5393173694610596,-1.7118258476257324
1773522817046966500,0.295966552734375,-0.39810439944267273,1.7304999828338623,-1.0592182874679565
1773522817057005300,0.30600537109375,-0.24557825922966003,1.2666634321212769,-0.5107712149620056
1773522817067043600,0.316043701171875,-0.10475651919841766,0.9948849678039551,-0.3009187877178192
1773522817077081300,0.326081298828125,-0.014301459304988384,0.6768398880958557,-0.37829986214637756
1773522817087119600,0.33611962890625,-0.044620878994464874,0.42961299419403076,-0.5630905628204346
1773522817097157400,0.346157470703125,-0.12373381108045578,0.18262799084186554,-0.7837814092636108
1773522817107195400,0.3561953125,-0.167094886302948,-0.0735083520412445,-0.9983248114585876
1773522817117233400,0.3662333984375,-0.2805596590042114,-0.13942743837833405,-1.1721720695495605
1773522817127272400,0.3762724609375,-0.5345578789710999,-0.04767150059342384,-1.3009883165359497
1773522817137310500,0.386310546875,-1.002190351486206,-0.027716699987649918,-1.4707214832305908
1773522817147348500,0.396348388671875,-1.6835201978683472,-0.04917128384113312,-1.7196743488311768
1773522817157386500,0.406386474609375,-2.3451666831970215,-0.07200735807418823,-1.9867230653762817
1773522817167424500,0.416424560546875,-2.820020914077759,0.08471259474754333,-2.160468816757202
1773522817177462500,0.426462646484375,-3.1565701961517334,0.3003101348876953,-2.2851178646087646
1773522817187500500,0.43650048828125,-3.4741578102111816,0.4330453872680664,-2.355964422225952
1773522817197539600,0.44653955078125,-3.78951358795166,0.43139156699180603,-2.40261173248291
1773522817207577300,0.456577392578125,-4.064879894256592,0.34681999683380127,-2.5264034271240234
1773522817217615400,0.466615478515625,-4.27583122253418,0.2320774495601654,-2.8587846755981445
1773522817227653400,0.4766533203125,-4.426181316375732,0.1271675080060959,-3.3939833641052246
1773522817237691400,0.48669140625,-4.614205837249756,-0.022688299417495728,-3.998241662979126
1773522817247729700,0.496729736328125,-4.766026973724365,-0.09423810243606567,-4.552958011627197
1773522817257767400,0.506767333984375,-4.93931770324707,-0.09629912674427032,-5.008441925048828
1773522817267806500,0.516806396484375,-5.253251075744629,-0.0020022550597786903,-5.423249244689941
1773522817277844500,0.526844482421875,-5.556491374969482,0.026693305000662804,-5.777368068695068
1773522817287882500,0.536882568359375,-5.685127258300781,-0.004350222647190094,-6.012299537658691
1773522817297920500,0.54692041015625,-5.596073627471924,0.204187273979187,-6.104950428009033
1773522817307958300,0.556958251953125,-5.39441442489624,0.5191943049430847,-6.01995325088501
1773522817317996500,0.56699658203125,-5.079095363616943,0.6603405475616455,-5.891897201538086
1773522817328034300,0.577034423828125,-4.449219226837158,0.48601365089416504,-5.810610771179199
1773522817338073600,0.587073486328125,-3.5163402557373047,0.21413923799991608,-5.8302154541015625
1773522817348111400,0.597111328125,-2.6104092597961426,0.2803173065185547,-5.931280136108398
1773522817358149600,0.607149658203125,-1.9088081121444702,0.5322153568267822,-5.942277431488037
1773522817368187400,0.6171875,-1.4485887289047241,0.9625759720802307,-5.792102813720703
1773522817378225700,0.6272255859375,-1.0306974649429321,1.4960100650787354,-5.608283519744873
1773522817388263400,0.637263427734375,-0.4680403172969818,1.8090704679489136,-5.303411483764648
1773522817398301400,0.647301513671875,0.13143564760684967,1.9173945188522339,-5.023486137390137
1773522817408340500,0.657340576171875,0.7286309003829956,2.050004005432129,-4.703601360321045
1773522817418378500,0.66737841796875,1.2011760473251343,2.183513879776001,-4.3599348068237305
1773522817428416500,0.67741650390625,1.6048132181167603,2.265793800354004,-4.056596755981445
1773522817438454300,0.687454345703125,1.987560510635376,2.3719303607940674,-3.820889949798584
1773522817448492500,0.697492431640625,2.41512131690979,2.426220417022705,-3.5569889545440674
1773522817458530300,0.7075302734375,2.8972771167755127,2.4859111309051514,-3.1628527641296387
1773522817468568600,0.717568603515625,3.333331346511841,2.5296568870544434,-2.6611502170562744
1773522817478607400,0.727607421875,3.6389901638031006,2.624738931655884,-2.0566580295562744
1773522817488645600,0.737645751953125,3.4254772663116455,3.2117486000061035,-1.049204707145691
1773522817498683400,0.747683349609375,2.877713918685913,3.5743837356567383,-0.10668642818927765
1773522817508721700,0.7577216796875,2.279562473297119,3.95456600189209,0.5655830502510071
1773522817518759400,0.767759521484375,1.7007343769073486,4.178781986236572,0.9195115566253662
1773522817528797400,0.77779736328125,1.2652883529663086,4.299320697784424,1.224299430847168
1773522817538835500,0.78783544921875,1.1868079900741577,4.055320739746094,1.6677173376083374
1773522817548874500,0.79787451171875,1.5226324796676636,3.216365098953247,2.19948673248291
1773522817558912500,0.80791259765625,2.098172903060913,2.1148459911346436,2.6485371589660645
1773522817568950500,0.817950439453125,2.8032519817352295,1.2711178064346313,2.9157776832580566
1773522817578988500,0.827988525390625,3.2638261318206787,0.8270612955093384,2.944528579711914
1773522817589026600,0.838026611328125,3.3354265689849854,0.6555513739585876,2.726245403289795
1773522817599064600,0.848064697265625,3.1658377647399902,0.9177259802818298,2.21512508392334
1773522817609102600,0.8581025390625,2.9620141983032227,1.464443564414978,1.4866210222244263
1773522817619141600,0.8681416015625,2.681215524673462,1.7787213325500488,0.7353219985961914
1773522817629179400,0.878179443359375,2.2554121017456055,1.9737330675125122,0.2655594050884247
1773522817639217400,0.888217529296875,1.827743649482727,1.9533257484436035,0.1342834085226059
1773522817649255400,0.89825537109375,1.4805196523666382,1.2165321111679077,0.06690357625484467
1773522817659293400,0.90829345703125,1.284990668296814,-0.011858834885060787,0.1511947512626648
1773522817669331500,0.91833154296875,0.9224117994308472,-1.2851699590682983,0.49219003319740295
1773522817679370500,0.92837060546875,0.5333514213562012,-2.2610905170440674,0.8272596001625061
1773522817689408500,0.938408447265625,0.41091108322143555,-2.9696855545043945,1.1446729898452759
1773522817699446500,0.948446533203125,0.561506986618042,-3.2396039962768555,1.132861852645874
1773522817709484500,0.958484619140625,0.823684573173523,-3.242459535598755,0.9282925128936768
1773522817719522600,0.9685224609375,0.8094534277915955,-3.0080454349517822,0.7480792999267578
1773522817729560300,0.978560302734375,0.6426102519035339,-2.466779947280884,0.7061215043067932
1773522817739598600,0.9885986328125,0.4436494708061218,-1.7226580381393433,0.791012704372406
1773522817749637400,0.998637451171875,0.3711033761501312,-0.9504310488700867,0.7711702585220337
1773522817759675400,1.00867529296875,0.5027216076850891,-0.24239346385002136,0.5766125321388245
1773522817769713400,1.01871337890625,0.7519985437393188,-0.012442290782928467,0.25140565633773804
1773522817779751400,1.02875146484375,0.9065830111503601,-0.25350630283355713,0.022974073886871338
1773522817789789400,1.03878955078125,0.9428868293762207,-0.6876667737960815,-0.2621355652809143
1773522817799827500,1.048827392578125,0.9564846158027649,-1.3825757503509521,-0.6525954008102417
1773522817809866500,1.058866455078125,1.086054801940918,-2.1418068408966064,-1.1003682613372803
1773522817819904500,1.068904541015625,1.097171664237976,-2.7819948196411133,-1.1324487924575806
1773522817829942500,1.078942626953125,1.034392237663269,-2.9107062816619873,-0.8204280734062195
1773522817839980300,1.088980224609375,0.9492304921150208,-2.50109601020813,-0.43709796667099
1773522817850018600,1.0990185546875,0.654537558555603,-1.8559881448745728,0.01705356314778328
1773522817860056300,1.109056396484375,0.4121541678905487,-1.0739420652389526,0.4309772551059723
1773522817870095600,1.119095703125,0.20668348670005798,-0.7141554355621338,0.5068863034248352
1773522817880133400,1.12913330078125,-0.013442758470773697,-0.5148783326148987,0.43381980061531067
1773522817890171600,1.139171630859375,-0.2810550928115845,-0.1882963925600052,0.4668598175048828
1773522817900209400,1.14920947265625,-0.7717211842536926,0.15144465863704681,0.7166571021080017
1773522817910247000,1.159246826171875,-1.3117854595184326,0.42613375186920166,1.07893967628479
1773522817920284700,1.16928466796875,-1.5986732244491577,0.39072391390800476,1.2587976455688477
1773522817930323700,1.17932373046875,-1.7057900428771973,0.03770679607987404,1.157265305519104
1773522817940361700,1.18936181640625,-2.026625871658325,-0.8106836080551147,0.9428275227546692
1773522817950400000,1.19939990234375,-2.3958704471588135,-1.4746806621551514,0.6908047795295715
1773522817960437800,1.209437744140625,-2.8318278789520264,-2.3791708946228027,0.5585120320320129
1773522817970476000,1.21947607421875,-3.129625082015991,-2.899531602859497,0.34261152148246765
1773522817980513800,1.229513671875,-3.303367853164673,-3.5256154537200928,-0.14265130460262299
1773522817990551800,1.2395517578125,-3.3477706909179688,-3.672886848449707,-0.6339740753173828
1773522818000590800,1.2495908203125,-3.347595453262329,-3.481123924255371,-1.0690430402755737
1773522818010628600,1.259628662109375,-3.1344122886657715,-2.8850581645965576,-1.3721888065338135
1773522818020667000,1.2696669921875,-2.4203648567199707,-1.933332920074463,-1.3097329139709473
1773522818030704600,1.27970458984375,-1.6795825958251953,-0.7543550133705139,-1.2020987272262573
1773522818040743000,1.289742919921875,-1.0661826133728027,0.5350186824798584,-0.8315494656562805
1773522818050780700,1.29978076171875,-0.659686803817749,1.341894507408142,-0.4362082779407501
1773522818060820000,1.309820068359375,-0.5576171278953552,1.3208280801773071,-0.12775777280330658
1773522818070857700,1.319857666015625,-0.6024162769317627,1.036803960800171,0.03243284299969673
1773522818080896000,1.32989599609375,-0.6220669746398926,0.8113154172897339,0.11291730403900146
1773522818090933800,1.339933837890625,-0.5928462147712708,0.5886362791061401,0.13531075417995453
1773522818100971800,1.3499716796875,-0.5939770340919495,0.3278246223926544,0.08643509447574615
1773522818111009800,1.360009765625,-0.6188192963600159,0.2996898591518402,0.0408744215965271
1773522818121048800,1.370048828125,-0.6940118074417114,0.4522959291934967,0.0169840045273304
1773522818131086800,1.3800869140625,-0.7027746438980103,0.5598157048225403,0.031935788691043854
1773522818141124600,1.39012451171875,-0.5935983657836914,0.5075599551200867,0.13481956720352173
1773522818151163000,1.400162841796875,-0.5435845851898193,0.22452598810195923,0.24313989281654358
1773522818161200600,1.41020068359375,-0.6447349190711975,-0.1319383829832077,0.29167628288269043
1773522818171239000,1.420239013671875,-0.7359688878059387,-0.3787778615951538,0.30355125665664673
1773522818181277700,1.430277587890625,-0.5888494849205017,-0.5703853964805603,0.3121497929096222
1773522818191316000,1.44031591796875,-0.2370089292526245,-0.5901706218719482,0.38279157876968384
1773522818201353700,1.450353759765625,0.11138688027858734,-0.47257474064826965,0.43351495265960693
1773522818211392000,1.46039208984375,0.29439619183540344,-0.3197205066680908,0.42700326442718506
1773522818221429800,1.4704296875,0.3328700661659241,-0.19840846955776215,0.34481704235076904
1773522818231467800,1.4804677734375,0.2664240300655365,-0.20596283674240112,0.16590069234371185
1773522818241506800,1.4905068359375,0.1729840785264969,-0.25090181827545166,-0.0016350417863577604
1773522818251544800,1.500544921875,-0.014414212666451931,-0.22784148156642914,-0.15511614084243774
1773522818261582800,1.510582763671875,-0.2107003629207611,-0.4210663437843323,-0.33737117052078247
1773522818271620900,1.520620849609375,-0.32556748390197754,-0.9034930467605591,-0.4548599421977997
1773522818281659000,1.530658935546875,-0.4708698093891144,-1.2177692651748657,-0.4975075125694275
1773522818291697000,1.54069677734375,-0.7938715815544128,-1.119671106338501,-0.6890818476676941
1773522818301736000,1.55073583984375,-0.9778686165809631,-0.812068521976471,-0.9456401467323303
1773522818311773700,1.560773681640625,-0.9887486696243286,-0.7247939109802246,-1.259450912475586
1773522818321812000,1.57081201171875,-1.0047098398208618,-0.8567817807197571,-1.424483299255371
1773522818331849700,1.580849609375,-1.1435469388961792,-1.159851312637329,-1.5070092678070068
1773522818341887700,1.5908876953125,-1.3241775035858154,-1.525434970855713,-1.5872429609298706
1773522818351926800,1.6009267578125,-1.5003191232681274,-1.7511241436004639,-1.5520819425582886
1773522818361964800,1.61096484375,-1.650843620300293,-1.848814845085144,-1.4073503017425537
1773522818372002800,1.6210029296875,-1.8440370559692383,-1.9829320907592773,-1.3570780754089355
1773522818382040800,1.631040771484375,-2.0024280548095703,-2.022322654724121,-1.2279773950576782
1773522818392078800,1.641078857421875,-2.0477449893951416,-1.9972652196884155,-1.0028882026672363
1773522818402116900,1.651116943359375,-2.0246167182922363,-1.8103309869766235,-0.8150283098220825
1773522818412156000,1.661156005859375,-1.966271996498108,-1.2850092649459839,-0.6036958694458008
1773522818422193700,1.671193603515625,-1.9854952096939087,-0.46544644236564636,-0.33520978689193726
1773522818432232000,1.68123193359375,-1.9474536180496216,0.361135333776474,-0.03904528170824051
1773522818442269700,1.691269775390625,-1.9114269018173218,0.9411627054214478,0.23561371862888336
1773522818452307700,1.7013076171875,-1.993658185005188,0.9980545043945312,0.4316134452819824
1773522818462345700,1.711345703125,-1.9943796396255493,0.8118510842323303,0.4444035291671753
1773522818472385000,1.721385009765625,-1.71205472946167,0.50156569480896,0.12317197769880295
1773522818482422800,1.7314228515625,-1.3170640468597412,0.04176242649555206,-0.3347332775592804
1773522818492460800,1.741460693359375,-0.8842797875404358,-0.44959336519241333,-0.7169121503829956
1773522818502498800,1.751498779296875,-0.36302250623703003,-0.8715957403182983,-0.926531195640564
1773522818512536800,1.761536865234375,0.23588672280311584,-0.9632842540740967,-0.8619148135185242
1773522818522576000,1.771575927734375,0.6685265898704529,-0.6893736124038696,-0.6123515963554382
1773522818532613600,1.781613525390625,0.7763343453407288,-0.2827925980091095,-0.33894655108451843
1773522818542652000,1.79165185546875,0.6712145805358887,0.06451505422592163,-0.04842950776219368
1773522818552689700,1.801689697265625,0.5356698632240295,0.08655086904764175,0.15084503591060638
1773522818562728000,1.81172802734375,0.47173193097114563,-0.14486664533615112,0.28580233454704285
1773522818572766000,1.821765869140625,0.4654608964920044,-0.23634614050388336,0.3899329900741577
1773522818582805000,1.831804931640625,0.5021139979362488,-0.14978168904781342,0.339924693107605
1773522818592842800,1.8418427734375,0.49223557114601135,0.11299419403076172,0.22465108335018158
1773522818602880800,1.851880859375,0.45924142003059387,0.2675062417984009,0.003626034362241626
1773522818612918800,1.861918701171875,0.44316866993904114,0.2775072157382965,-0.35307514667510986
1773522818622956800,1.871956787109375,0.3144165575504303,0.3029417395591736,-0.6061183214187622
1773522818632995800,1.881995849609375,0.21931660175323486,0.31242242455482483,-0.8013404607772827
1773522818643033900,1.892033935546875,0.2217094600200653,0.202161967754364,-1.0696896314620972
1773522818653072000,1.90207177734375,0.2533697187900543,0.07103843986988068,-1.2701038122177124
1773522818663110000,1.91210986328125,0.3455137610435486,-0.029146753251552582,-1.2779910564422607
1773522818673148000,1.92214794921875,0.5369288325309753,0.1464676558971405,-1.1656070947647095
1773522818683186000,1.93218603515625,0.717556893825531,0.30671992897987366,-0.9786732196807861
1773522818693225000,1.942224853515625,0.8854665160179138,0.2273685485124588,-0.7599384188652039
1773522818703262700,1.9522626953125,1.0531816482543945,0.03843856602907181,-0.48785895109176636
1773522818713300700,1.96230078125,1.0735543966293335,0.017391672357916832,-0.189016193151474
1773522818723338800,1.9723388671875,0.9315487742424011,0.05533292889595032,0.05881757289171219
1773522818733376800,1.982376708984375,0.7085477709770203,-0.02458607777953148,0.23581252992153168
1773522818743414800,1.992414794921875,0.5359296798706055,-0.20649276673793793,0.36930719017982483
1773522818753453800,2.002453857421875,0.40702545642852783,-0.3483467698097229,0.47141680121421814
1773522818763491800,2.012491943359375,0.27943262457847595,-0.29055696725845337,0.5390698909759521
1773522818773529900,2.02252978515625,0.1677989661693573,-0.24549059569835663,0.5028128027915955
1773522818783568000,2.03256787109375,-0.002509905956685543,-0.46652790904045105,0.280225545167923
1773522818793606000,2.04260595703125,-0.11279719322919846,-0.5047271251678467,0.10424856841564178
1773522818803645000,2.05264501953125,-0.19548887014389038,-0.716224193572998,-0.18695370852947235
1773522818813682700,2.0626826171875,-0.25370630621910095,-0.737548291683197,-0.4655095338821411
1773522818823720700,2.072720703125,-0.2730267345905304,-0.5729479193687439,-0.7366464734077454
1773522818833758700,2.0827587890625,-0.3262038826942444,-0.32529404759407043,-0.972292959690094
1773522818843796700,2.092796630859375,-0.39816462993621826,-0.1456337571144104,-1.136596441268921
1773522818853834800,2.102834716796875,-0.4716022312641144,-0.20940634608268738,-1.2521295547485352
1773522818863873800,2.112873779296875,-0.5316842198371887,-0.45101046562194824,-1.2893173694610596
1773522818873911800,2.122911865234375,-0.6214472055435181,-0.9021556377410889,-1.3121954202651978
1773522818883949800,2.13294970703125,-0.7175121903419495,-1.0780653953552246,-1.1765861511230469
1773522818893987800,2.14298779296875,-0.7748462557792664,-1.1987555027008057,-0.9597623944282532
1773522818904025900,2.15302587890625,-0.7840440273284912,-1.3393731117248535,-0.7982630133628845
1773522818914065200,2.163065185546875,-0.7086973786354065,-1.64987313747406,-0.5339998602867126
1773522818924103200,2.173103271484375,-0.6292682886123657,-1.9645005464553833,-0.30654916167259216
1773522818934141200,2.18314111328125,-0.5384764671325684,-2.2259938716888428,-0.030807994306087494
1773522818944179200,2.19317919921875,-0.4909142553806305,-2.2258007526397705,0.27583131194114685
1773522818954217200,2.20321728515625,-0.5640535354614258,-1.9915684461593628,0.5554695129394531
1773522818964256300,2.21325634765625,-0.835701048374176,-1.6337077617645264,0.7383807301521301
1773522818974294300,2.223294189453125,-1.3200478553771973,-1.0789122581481934,0.9281890988349915
1773522818984332300,2.233332275390625,-1.9526058435440063,-0.21474707126617432,1.2313615083694458
1773522818994370300,2.243370361328125,-2.664188861846924,0.746055543422699,1.5360385179519653
1773522819004408000,2.253407958984375,-3.3144943714141846,1.36136794090271,1.7339621782302856
1773522819014446300,2.2634462890625,-3.746594190597534,1.3115698099136353,1.7028909921646118
1773522819024485000,2.273485107421875,-3.8009960651397705,-0.10157482326030731,1.1053996086120605
1773522819034523100,2.283523193359375,-3.4837722778320312,-2.4729530811309814,0.0664324015378952
1773522819044561200,2.29356103515625,-3.061905860900879,-4.212612628936768,-0.7659987807273865
1773522819054599200,2.30359912109375,-2.5677359104156494,-5.007575988769531,-1.224208116531372
1773522819064637200,2.31363720703125,-1.9365489482879639,-5.319089412689209,-1.4615479707717896
1773522819074676200,2.32367626953125,-1.1591325998306274,-5.508503437042236,-1.555365800857544
1773522819084714200,2.33371435546875,-0.3799316883087158,-5.746787071228027,-1.5806077718734741
1773522819094752300,2.343752197265625,0.26718705892562866,-5.954284191131592,-1.5267399549484253
1773522819104790300,2.353790283203125,0.7002559304237366,-6.119932174682617,-1.467381477355957
1773522819114828000,2.363828125,0.9503144025802612,-6.307512283325195,-1.5021342039108276
1773522819124867300,2.373867431640625,1.0271633863449097,-6.456252098083496,-1.667895793914795
1773522819134905300,2.3839052734375,0.5835570096969604,-3.5014960765838623,-3.2666893005371094
1773522819144943400,2.393943359375,0.03413621336221695,1.4518157243728638,-4.730649471282959
1773522819154981000,2.403981201171875,-0.3118060827255249,5.2967448234558105,-4.652933597564697
1773522819165019400,2.414019287109375,-0.2720525562763214,7.817101001739502,-3.4899961948394775
1773522819175057200,2.42405712890625,0.11264234781265259,8.936841011047363,-1.9950971603393555
1773522819185096200,2.43409619140625,0.6604556441307068,9.086885452270508,-0.6953467130661011
1773522819195134200,2.44413427734375,1.1507360935211182,8.63255786895752,0.14442075788974762
1773522819205172200,2.454172119140625,1.1242434978485107,6.200977325439453,-0.36046692728996277
1773522819215210200,2.464210205078125,0.7967658638954163,2.7382142543792725,-0.8815436959266663
1773522819225248300,2.474248291015625,0.6237850189208984,0.06860927492380142,-0.5775017738342285
1773522819235287300,2.484287353515625,0.6416490077972412,-1.635956883430481,0.32075271010398865
1773522819245325300,2.4943251953125,0.7040340900421143,-2.6492886543273926,1.3402224779129028
1773522819255363300,2.50436328125,0.7031884789466858,-3.2086448669433594,2.219670534133911
1773522819265401000,2.514401123046875,0.6334285736083984,-3.6201348304748535,2.7935056686401367
1773522819275439400,2.524439453125,0.48302334547042847,-4.095545291900635,2.894455671310425
1773522819285478100,2.53447802734375,0.32791367173194885,-4.618968486785889,2.5863852500915527
1773522819295516200,2.54451611328125,0.26729971170425415,-4.972219467163086,2.07320237159729
1773522819305554200,2.55455419921875,0.3131699860095978,-5.05419921875,1.580312728881836
1773522819315592200,2.56459228515625,0.4001031517982483,-4.824524402618408,1.2148375511169434
1773522819325630200,2.574630126953125,0.44368287920951843,-4.326127529144287,0.9875183701515198
1773522819335669200,2.584669189453125,0.4172852337360382,-3.5748605728149414,0.9002840518951416
1773522819345707300,2.594707275390625,0.2734692096710205,-2.616504669189453,0.8907046318054199
1773522819355745300,2.604745361328125,0.09572974592447281,-1.621706247329712,0.9411319494247437
1773522819365783300,2.614783203125,-0.02762574702501297,-0.7196112871170044,0.9997111558914185
1773522819375821000,2.624821044921875,-0.0716388076543808,0.0005772579461336136,1.0412609577178955
1773522819385860000,2.634860107421875,-0.027700643986463547,0.5124133825302124,1.0636216402053833
1773522819395898400,2.6448984375,0.07268688827753067,0.8786523938179016,1.0476160049438477
1773522819405936000,2.65493603515625,0.20929266512393951,1.106314778327942,0.9812940359115601
1773522819415974100,2.66497412109375,0.3408118188381195,1.2026938199996948,0.868323802947998
1773522819426012200,2.67501220703125,0.4066416919231415,1.195731282234192,0.7086150646209717
1773522819436051200,2.68505126953125,0.3754008114337921,1.0977414846420288,0.5128778219223022
1773522819446089200,2.695089111328125,0.27126961946487427,0.9211521148681641,0.30778011679649353
1773522819456127200,2.705127197265625,0.15840724110603333,0.6830047965049744,0.11726740747690201
1773522819466165200,2.715165283203125,0.0913323312997818,0.3845488429069519,-0.04432867467403412
1773522819476203300,2.725203369140625,0.09343206882476807,0.0395483672618866,-0.14258533716201782
1773522819486242300,2.7352421875,0.12799058854579926,-0.3021008372306824,-0.16048072278499603
1773522819496280300,2.7452802734375,0.14161628484725952,-0.6270028948783875,-0.11009421944618225
1773522819506318300,2.755318359375,0.10513231158256531,-0.9179093241691589,-0.025068003684282303
1773522819516356400,2.7653564453125,0.040515851229429245,-1.174919843673706,0.06359823048114777
1773522819526394000,2.77539404296875,-0.03442070633172989,-1.4055365324020386,0.13192696869373322
1773522819536432400,2.785432373046875,-0.0900486409664154,-1.6168465614318848,0.15527524054050446
1773522819546471200,2.79547119140625,-0.12114237993955612,-1.8014246225357056,0.1276625245809555
1773522819556509200,2.80550927734375,-0.14376915991306305,-1.939713954925537,0.06055443361401558
1773522819566547200,2.815547119140625,-0.16129754483699799,-2.0079824924468994,-0.022140445187687874
1773522819576585200,2.825585205078125,-0.18369846045970917,-1.9930847883224487,-0.0961475819349289
1773522819586623200,2.835623291015625,-0.20915748178958893,-1.9457471370697021,-0.13990572094917297
1773522819596662300,2.845662353515625,-0.21435822546482086,-1.8845559358596802,-0.1821216195821762
1773522819606700300,2.8557001953125,-0.19874250888824463,-1.8011409044265747,-0.25279685854911804
1773522819616738300,2.86573828125,-0.1729995757341385,-1.6850303411483765,-0.3729766309261322
1773522819626776300,2.8757763671875,-0.14459456503391266,-1.5254288911819458,-0.5313047766685486
1773522819636814000,2.88581396484375,-0.12601666152477264,-1.3147544860839844,-0.690480649471283
1773522819646853000,2.89585302734375,-0.13029076159000397,-1.0560646057128906,-0.7793021202087402
1773522819656891400,2.905891357421875,-0.14582636952400208,-0.7736689448356628,-0.7640314102172852
1773522819666929200,2.91592919921875,-0.14875131845474243,-0.5037293434143066,-0.6578048467636108
1773522819676967200,2.92596728515625,-0.1319587230682373,-0.2769453227519989,-0.506766676902771
1773522819687005200,2.936005126953125,-0.09386114031076431,-0.11933571845293045,-0.3621210753917694
1773522819697044200,2.946044189453125,-0.03991422429680824,-0.034075718373060226,-0.2389589101076126
1773522819707082200,2.956082275390625,-0.005222291219979525,-0.026539240032434464,-0.15078777074813843
1773522819717120300,2.966120361328125,0.004851462319493294,-0.07635357975959778,-0.07837036997079849
1773522819727158300,2.976158203125,0.011862233281135559,-0.1629078984260559,-0.002538992092013359
1773522819737196300,2.9861962890625,0.017652763053774834,-0.26399433612823486,0.07211737334728241
1773522819747235300,2.9962353515625,0.019869843497872353,-0.3652157485485077,0.14011798799037933
1773522819757273000,3.006273193359375,0.0036921659484505653,-0.4516865313053131,0.18767476081848145
1773522819767311400,3.016311279296875,-0.02117137238383293,-0.5218185186386108,0.21567443013191223
1773522819777349000,3.02634912109375,-0.04920484498143196,-0.5717862248420715,0.2340858280658722
1773522819787387100,3.03638720703125,-0.08836209774017334,-0.5754837393760681,0.24347932636737823
1773522819797426200,3.04642626953125,-0.14387071132659912,-0.5388151407241821,0.2577197551727295
1773522819807464200,3.056464111328125,-0.20977887511253357,-0.4547540545463562,0.2676813304424286
1773522819817502200,3.066502197265625,-0.26880770921707153,-0.3511415719985962,0.26911112666130066
1773522819827540200,3.076540283203125,-0.29631656408309937,-0.24903275072574615,0.26052987575531006
1773522819837578200,3.086578125,-0.3250858187675476,-0.15147000551223755,0.23914392292499542
1773522819847617000,3.096616943359375,-0.3870101869106293,-0.05648171529173851,0.21460822224617004
1773522819857655300,3.1066552734375,-0.4594413638114929,0.020119212567806244,0.20632663369178772
1773522819867693300,3.116693359375,-0.5014732480049133,0.06632506102323532,0.2216901332139969
1773522819877731300,3.1267314453125,-0.5076729655265808,0.07729208469390869,0.2609325349330902
1773522819887770000,3.13677001953125,-0.4837636649608612,0.07267842441797256,0.3033588230609894
1773522819897808400,3.146808349609375,-0.4440639317035675,0.04822772368788719,0.3313761353492737
1773522819907846100,3.15684619140625,-0.40801939368247986,0.02181103080511093,0.3378729224205017
1773522819917884000,3.1668837890625,-0.3735043406486511,-0.00598172890022397,0.3263709545135498
1773522819927922000,3.176921875,-0.3370283544063568,-0.021712755784392357,0.3079320192337036
1773522819937961000,3.1869609375,-0.3153437077999115,-0.02453550137579441,0.2911338806152344
1773522819947999000,3.1969990234375,-0.3101375102996826,-0.014652777463197708,0.2750433385372162
1773522819958037000,3.207037109375,-0.3335268199443817,0.0069944653660058975,0.2580235004425049
1773522819968075000,3.217074951171875,-0.3644554316997528,0.040427789092063904,0.2391451597213745
1773522819978113000,3.227113037109375,-0.39187300205230713,0.07107140123844147,0.22717471420764923
1773522819988152000,3.237152099609375,-0.40966904163360596,0.09386033564805984,0.22246411442756653
1773522819998189800,3.24718994140625,-0.42483097314834595,0.1142730712890625,0.22082264721393585
1773522820008227800,3.257227783203125,-0.437786728143692,0.12408468872308731,0.2287234365940094
1773522820018265900,3.267265869140625,-0.4527195990085602,0.1203664243221283,0.22512632608413696
1773522820028304000,3.277303955078125,-0.43154826760292053,0.10548494756221771,0.20915082097053528
1773522820038343000,3.287343017578125,-0.392320841550827,0.06631959974765778,0.16311199963092804
1773522820048381000,3.297380859375,-0.3326527178287506,0.014855877496302128,0.09084232896566391
1773522820058419000,3.3074189453125,-0.24552573263645172,-0.056885287165641785,0.003952112514525652
1773522820068457000,3.31745703125,-0.10935138165950775,-0.13099253177642822,-0.08515059947967529
1773522820078495000,3.327494873046875,0.043605394661426544,-0.21269235014915466,-0.1723266988992691
1773522820088533800,3.33753369140625,0.18897324800491333,-0.23537182807922363,-0.24228422343730927
1773522820098572000,3.347572021484375,0.3734559416770935,-0.15871582925319672,-0.3269156515598297
1773522820108609800,3.35760986328125,0.5563094019889832,-0.02281445637345314,-0.41249072551727295
1773522820118648000,3.36764794921875,0.7103960514068604,0.16886475682258606,-0.5188844203948975
1773522820128685800,3.377685791015625,0.8296723365783691,0.4226267337799072,-0.6734071373939514
1773522820138725000,3.38772509765625,0.8997687697410583,0.6979991793632507,-0.8611124157905579
1773522820148763000,3.397762939453125,0.9670758843421936,0.9555939435958862,-1.0612884759902954
1773522820158801000,3.40780078125,1.0361683368682861,1.1577080488204956,-1.263771414756775
1773522820168839000,3.4178388671875,1.0606582164764404,1.3290414810180664,-1.3421138525009155
1773522820178877000,3.427876953125,0.8201228380203247,1.5001932382583618,-0.6407509446144104
1773522820188916000,3.437916015625,0.36862677335739136,1.6110544204711914,0.7564544081687927
1773522820198954000,3.4479541015625,0.10371635854244232,1.7807523012161255,1.9764580726623535
1773522820208992000,3.457991943359375,0.141924187541008,2.0010011196136475,2.605733633041382
1773522820219030000,3.468030029296875,0.14262346923351288,2.252418041229248,2.6682398319244385
1773522820229068000,3.478068115234375,0.07200602442026138,2.617225170135498,2.4171392917633057
1773522820239106800,3.48810693359375,-0.022730015218257904,2.9609968662261963,2.0568695068359375
1773522820249145000,3.49814501953125,-0.1148546114563942,3.1674304008483887,1.70009446144104
1773522820259182800,3.508182861328125,-0.17763981223106384,3.220777988433838,1.3872836828231812
1773522820269220900,3.518220947265625,-0.2115655541419983,3.117203950881958,1.1502541303634644
1773522820279259000,3.5282587890625,-0.22056171298027039,2.9266178607940674,0.9837726950645447
1773522820289298000,3.5382978515625,-0.19801779091358185,2.698117733001709,0.8806793093681335
1773522820299336000,3.5483359375,-0.14119771122932434,2.4802327156066895,0.8058681488037109
1773522820309374000,3.5583740234375,-0.0482051782310009,2.2966420650482178,0.7245205640792847
1773522820319412000,3.568411865234375,0.07399871945381165,2.152935743331909,0.6204620003700256
1773522820329450800,3.57845068359375,0.17004430294036865,2.0104892253875732,0.4820795953273773
1773522820339489000,3.588489013671875,0.17341038584709167,1.8301401138305664,0.3358616828918457
1773522820349526800,3.59852685546875,0.07870306074619293,1.6199897527694702,0.19239479303359985
1773522820359565000,3.60856494140625,-0.08538895845413208,1.3833122253417969,0.05918646976351738
1773522820369602800,3.618602783203125,-0.2721889317035675,1.1263089179992676,-0.06762153655290604
1773522820379642000,3.62864208984375,-0.43915310502052307,0.8387702107429504,-0.17664673924446106
1773522820389679900,3.638679931640625,-0.5593248009681702,0.5533203482627869,-0.2700003981590271
1773522820399718100,3.64871826171875,-0.6269550323486328,0.2997336983680725,-0.36253008246421814
1773522820409756000,3.658755859375,-0.6428335905075073,0.11790397018194199,-0.4725410044193268
1773522820419794000,3.6687939453125,-0.6205190420150757,0.015385815873742104,-0.5879446268081665
1773522820429833000,3.6788330078125,-0.5503181219100952,-0.01988881826400757,-0.7082598805427551
1773522820439870700,3.68887060546875,-0.4351019561290741,-0.008414078503847122,-0.8280293941497803
1773522820449909000,3.698908935546875,-0.28341764211654663,0.02476145140826702,-0.9474620223045349
1773522820459946800,3.70894677734375,-0.11530059576034546,0.0660167932510376,-1.0605368614196777
1773522820469985000,3.718985107421875,0.03887299820780754,0.10779166966676712,-1.1634621620178223
1773522820480023800,3.72902392578125,0.18265625834465027,0.14388255774974823,-1.2567415237426758
1773522820490062000,3.73906201171875,0.3065502345561981,0.15988871455192566,-1.356675148010254
1773522820500099800,3.749099853515625,0.3909537196159363,0.13855944573879242,-1.5010685920715332
1773522820510138000,3.75913818359375,0.43800535798072815,0.08245089650154114,-1.6928737163543701
1773522820520175900,3.76917578125,0.4732385575771332,0.009151729755103588,-1.9073443412780762
1773522820530215000,3.77921484375,0.5116948485374451,-0.013259036466479301,-2.078716516494751
1773522820540253000,3.7892529296875,0.5283870697021484,0.053237657994031906,-2.174952745437622
1773522820550291000,3.799291015625,0.48563531041145325,0.19811174273490906,-2.2668681144714355
1773522820560329000,3.809328857421875,0.41512903571128845,0.46186649799346924,-2.5276601314544678
1773522820570367000,3.819366943359375,0.4657280445098877,1.5252989530563354,-2.985811471939087
1773522820580406000,3.829406005859375,0.6587465405464172,3.854401111602783,-2.8299331665039062
1773522820590443800,3.83944384765625,0.4502575099468231,5.418898105621338,-1.7057703733444214
1773522820600482000,3.84948193359375,0.0037042349576950073,4.369251251220703,-0.3238980770111084
1773522820610519800,3.859519775390625,-0.19956658780574799,1.7016044855117798,0.9984642267227173
1773522820620559000,3.86955908203125,-0.09004979580640793,-0.7365018725395203,1.9471784830093384
1773522820630596900,3.879596923828125,0.11315125972032547,-2.165036201477051,2.5150701999664307
1773522820640635100,3.88963525390625,0.22910642623901367,-2.8082351684570312,2.83693790435791
1773522820650673000,3.8996728515625,0.24535037577152252,-3.0221195220947266,2.983506441116333
1773522820660711200,3.909711181640625,0.20200838148593903,-2.950672149658203,2.941673517227173
1773522820670750000,3.91975,0.15596605837345123,-2.6217846870422363,2.6137990951538086
1773522820680788000,3.9297880859375,0.11524888873100281,-2.1710054874420166,2.03814697265625
1773522820690826000,3.939825927734375,0.07216107100248337,-1.7082908153533936,1.3357771635055542
1773522820700863700,3.94986376953125,0.031290434300899506,-1.202060341835022,0.636245608329773
1773522820710902000,3.959902099609375,0.00929698720574379,-0.6956903338432312,0.051760852336883545
1773522820720940800,3.96994091796875,-0.02530314214527607,-0.21420830488204956,-0.38639435172080994
1773522820730979000,3.97997900390625,-0.08374461531639099,0.1869545727968216,-0.707257091999054
1773522820741016800,3.990016845703125,-0.13393905758857727,0.4532455503940582,-0.9686456322669983
1773522820751055000,4.00005517578125,-0.20060037076473236,0.49683883786201477,-1.2387067079544067
1773522820761092900,4.0100927734375,-0.3144507110118866,0.28316861391067505,-1.5301613807678223
1773522820771132000,4.0201318359375,-0.4645313024520874,-0.08996099978685379,-1.7998077869415283
1773522820781170000,4.030169921875,-0.5499814748764038,-0.5073257684707642,-1.9527615308761597
1773522820791208000,4.0402080078125,-0.57829749584198,-0.810621976852417,-2.0211191177368164
1773522820801246000,4.050245849609375,-0.5085266828536987,-0.6912972927093506,-1.9712605476379395
1773522820811285000,4.060284912109375,-0.31782278418540955,0.135181725025177,-1.510087013244629
1773522820821323000,4.070322998046875,-0.029831159859895706,0.9690448641777039,-0.6242716908454895
1773522820831360800,4.08036083984375,0.22734445333480835,1.157970905303955,0.1884845495223999
1773522820841399000,4.09039892578125,0.3857218623161316,0.820951521396637,0.6343850493431091
1773522820851436800,4.100436767578125,0.462654709815979,0.3429489731788635,0.7492546439170837
1773522820861475800,4.110475830078125,0.4781991243362427,0.04501648247241974,0.7173736095428467
1773522820871513900,4.120513916015625,0.4216141402721405,0.023924781009554863,0.6241275668144226
1773522820881552000,4.1305517578125,0.2956072688102722,0.2102726846933365,0.49931636452674866
1773522820891590000,4.14058984375,0.12505073845386505,0.474075049161911,0.3183228671550751
1773522820901628000,4.1506279296875,-0.07274433225393295,0.7253565788269043,0.0889187902212143
1773522820911667700,4.160667724609375,-0.24618668854236603,0.9331026077270508,-0.1501276046037674
1773522820921705700,4.170705810546875,-0.3422573208808899,1.069162368774414,-0.33270904421806335
1773522820931743700,4.18074365234375,-0.37505361437797546,1.1018140316009521,-0.4255993068218231
1773522820941781800,4.19078173828125,-0.3862325847148895,1.037745714187622,-0.444807231426239
1773522820951820500,4.200820556640625,-0.39237916469573975,0.8872840404510498,-0.4307593107223511
1773522820961858800,4.21085888671875,-0.3894168436527252,0.6955457329750061,-0.42002084851264954
1773522820971896600,4.220896484375,-0.38703757524490356,0.5029456615447998,-0.4229609966278076
1773522820981934800,4.230934814453125,-0.39660143852233887,0.3585130572319031,-0.44124144315719604
1773522820991972600,4.24097265625,-0.4230482280254364,0.28390300273895264,-0.4698488414287567
1773522821002011600,4.25101171875,-0.47113215923309326,0.2798745334148407,-0.49633580446243286
1773522821012049700,4.261049560546875,-0.5271390080451965,0.36506399512290955,-0.4827166497707367
1773522821022087700,4.271087646484375,-0.5541279911994934,0.5235313177108765,-0.4078545570373535
1773522821032125700,4.281125732421875,-0.5391373038291931,0.7151012420654297,-0.2810018062591553
1773522821042163700,4.291163818359375,-0.48344215750694275,0.8790584206581116,-0.1466323882341385
1773522821052202800,4.30120263671875,-0.367244154214859,0.9678295850753784,-0.0004900861531496048
1773522821062240500,4.311240478515625,-0.24842073023319244,0.9901561141014099,0.1301625669002533
1773522821072278800,4.32127880859375,-0.18578052520751953,0.9731054902076721,0.2555556297302246
1773522821082316500,4.331316650390625,-0.1790531426668167,0.9374313354492188,0.3812412619590759
1773522821092355800,4.34135595703125,-0.21202866733074188,0.8890097141265869,0.5028766393661499
1773522821102393600,4.3513935546875,-0.2689678966999054,0.84380042552948,0.6090314388275146
1773522821112431900,4.361431884765625,-0.2564254701137543,0.7842271327972412,0.6936706900596619
1773522821122469600,4.3714697265625,-0.20338872075080872,0.7117706537246704,0.7464812994003296
1773522821132508000,4.3815078125,-0.1698262244462967,0.6827099919319153,0.7679229974746704
1773522821142546700,4.391546630859375,-0.16434112191200256,0.7024972438812256,0.7526341080665588
1773522821152584700,4.401584716796875,-0.1509600728750229,0.7774316668510437,0.6783207058906555
1773522821162622700,4.411622802734375,-0.11872559785842896,0.8385716676712036,0.5545487403869629
1773522821172660500,4.421660400390625,-0.06694042682647705,0.8453893661499023,0.38989269733428955
1773522821182698800,4.43169873046875,-0.0021464619785547256,0.8438678979873657,0.23395557701587677
1773522821192737500,4.441737548828125,0.08570270240306854,0.8798496127128601,0.08605452626943588
1773522821202775800,4.45177587890625,0.17010274529457092,0.9570839405059814,-0.05981401726603508
1773522821212813600,4.4618134765625,0.22874662280082703,1.0217617750167847,-0.22841660678386688
1773522821222851800,4.471851806640625,0.2665867209434509,1.0083571672439575,-0.428719699382782
1773522821232890600,4.481890625,0.2937522828578949,0.8992413878440857,-0.6349107027053833
1773522821242928600,4.4919287109375,0.3217170834541321,0.7063822746276855,-0.830674409866333
1773522821252966700,4.501966552734375,0.3588559329509735,0.5040145516395569,-1.011258602142334
1773522821263004700,4.512004638671875,0.3962603509426117,0.36426061391830444,-1.1775652170181274
1773522821273042700,4.522042724609375,0.3957652747631073,0.3557411730289459,-1.2946950197219849
1773522821283081700,4.532081787109375,0.3165571987628937,0.5912128686904907,-1.2632453441619873
1773522821293119700,4.54211962890625,0.13380414247512817,1.1103324890136719,-0.9425332546234131
1773522821303157500,4.552157470703125,-0.06335730105638504,1.6743991374969482,-0.37642672657966614
1773522821313195800,4.56219580078125,-0.17144623398780823,1.9657846689224243,0.16798196732997894
1773522821323234800,4.57223486328125,-0.24337542057037354,1.8971729278564453,0.48993968963623047
1773522821333272600,4.5822724609375,-0.32050907611846924,1.5858705043792725,0.5890952944755554
1773522821343310600,4.592310546875,-0.38529470562934875,1.2158381938934326,0.5666407942771912
1773522821353348600,4.6023486328125,-0.4177357256412506,0.9379562735557556,0.4827996492385864
1773522821363386600,4.61238671875,-0.41580021381378174,0.778232753276825,0.3869623839855194
1773522821373425700,4.62242578125,-0.3810291886329651,0.6755234003067017,0.2680314779281616
1773522821383463700,4.632463623046875,-0.30968067049980164,0.5993938446044922,0.12270708382129669
1773522821393501700,4.642501708984375,-0.2223963588476181,0.557129979133606,-0.032103002071380615
1773522821403539700,4.652539794921875,-0.1420810967683792,0.5804195404052734,-0.16535280644893646
1773522821413577700,4.66257763671875,-0.1021464616060257,0.6935274600982666,-0.24814648926258087
1773522821423616800,4.67261669921875,-0.11109481751918793,0.8939983248710632,-0.24772095680236816
1773522821433654800,4.68265478515625,-0.12974387407302856,1.1488209962844849,-0.14181183278560638
1773522821443692800,4.69269287109375,-0.12968243658542633,1.380820870399475,0.03554791212081909
1773522821453730600,4.70273046875,-0.13098526000976562,1.557151436805725,0.23043404519557953
1773522821463769600,4.71276953125,-0.12671811878681183,1.6077349185943604,0.37243762612342834
1773522821473807600,4.7228076171875,-0.14512589573860168,1.5741078853607178,0.43332281708717346
1773522821483845600,4.732845703125,-0.16529247164726257,1.5000165700912476,0.42945247888565063
1773522821493883600,4.742883544921875,-0.1770993173122406,1.4272398948669434,0.3804825246334076
1773522821503921700,4.752921630859375,-0.16898520290851593,1.3462978601455688,0.3118235766887665
1773522821513960700,4.762960693359375,-0.14468678832054138,1.231508493423462,0.23468858003616333
1773522821523998700,4.772998779296875,-0.12314189225435257,1.108298659324646,0.16606822609901428
1773522821534036700,4.78303662109375,-0.10774189978837967,0.9907147288322449,0.13655267655849457
1773522821544074800,4.79307470703125,-0.1064741462469101,0.9033493995666504,0.151258647441864
1773522821554112800,4.80311279296875,-0.08542318642139435,0.8431451916694641,0.19589589536190033
1773522821564151800,4.81315185546875,-0.03339580446481705,0.7464751601219177,0.21152834594249725
1773522821574189600,4.823189453125,0.016210097819566727,0.5723441243171692,0.15337610244750977
1773522821584227800,4.833227783203125,0.04990397393703461,0.3351920545101166,0.06262555718421936
1773522821594265600,4.843265625,0.06292763352394104,0.12704578042030334,0.012831635773181915
1773522821604305000,4.853304931640625,0.06912288814783096,0.006177385803312063,0.014634503982961178
1773522821614342700,4.8633427734375,0.06855776906013489,-0.02283535711467266,0.04242858663201332
1773522821624380700,4.873380615234375,0.05456564947962761,-0.04858503118157387,0.045901112258434296
1773522821634418700,4.883418701171875,-0.015264562331140041,-0.12937921285629272,-0.01598941721022129
1773522821644456700,4.893456787109375,-0.09750517457723618,-0.22860930860042572,-0.11827633529901505
1773522821654495700,4.903495849609375,-0.15536288917064667,-0.2979215085506439,-0.19237852096557617
1773522821664533500,4.913533447265625,-0.1633177101612091,-0.3146037757396698,-0.20122069120407104
1773522821674571800,4.92357177734375,-0.13702087104320526,-0.33049115538597107,-0.17311182618141174
1773522821684609500,4.933609619140625,-0.10285159945487976,-0.3856760561466217,-0.15595503151416779
1773522821694648800,4.94364892578125,-0.07422607392072678,-0.5094970464706421,-0.17259100079536438
1773522821704686600,4.9536865234375,-0.03765061870217323,-0.6531963348388672,-0.2181665152311325
1773522821714724900,4.963724853515625,-0.00009951554238796234,-0.7584516406059265,-0.26929494738578796
1773522821724762600,4.9737626953125,0.03740047290921211,-0.8300349116325378,-0.31542158126831055
1773522821734800600,4.983800537109375,0.0659564808011055,-0.8663990497589111,-0.35229945182800293
1773522821744839700,4.993839599609375,0.06265325099229813,-0.8603770136833191,-0.3607717752456665
1773522821754877400,5.00387744140625,0.034683939069509506,-0.8174588680267334,-0.3339681327342987
1773522821764915700,5.013915771484375,0.012750884518027306,-0.7577574253082275,-0.2705918550491333
1773522821774953700,5.02395361328125,0.01866629719734192,-0.7322778701782227,-0.1947426199913025
1773522821784992800,5.03399267578125,0.06056797876954079,-0.7494176030158997,-0.11066646128892899
1773522821795030500,5.044030517578125,0.11761128902435303,-0.8195410370826721,-0.031222237274050713
1773522821805068800,5.05406884765625,0.15694350004196167,-0.8918319940567017,0.046791885048151016
1773522821815106600,5.0641064453125,0.15925325453281403,-0.9192913174629211,0.14387395977973938
1773522821825144800,5.074144775390625,0.12437287718057632,-0.8781132102012634,0.23668843507766724
1773522821835183600,5.08418359375,0.06755833327770233,-0.7828192114830017,0.30700522661209106
1773522821845221600,5.0942216796875,0.0014293855056166649,-0.6604636907577515,0.3476114869117737
1773522821855259600,5.104259765625,-0.05467676371335983,-0.5622165203094482,0.361858606338501
1773522821865298000,5.1142978515625,-0.09515317529439926,-0.5184675455093384,0.3675391972064972
1773522821875336700,5.124336669921875,-0.10027763247489929,-0.5387411117553711,0.3749534487724304
1773522821885374700,5.134374755859375,-0.07592218369245529,-0.6100724935531616,0.3922382593154907
1773522821895412700,5.144412841796875,-0.02790405973792076,-0.6983943581581116,0.40844571590423584
1773522821905450500,5.154450439453125,0.04867399483919144,-0.764589786529541,0.42727798223495483
1773522821915492000,5.1644921875,0.09443242847919464,-0.863951563835144,0.4488828778266907
1773522821925531100,5.17453125,0.12863445281982422,-0.927417516708374,0.4738693833351135
1773522821935569200,5.184569091796875,0.12294565886259079,-1.0177091360092163,0.5161007642745972
1773522821945607200,5.194607177734375,0.09815096855163574,-1.1044435501098633,0.6076152324676514
1773522821955645200,5.204645263671875,0.08809992671012878,-1.159745216369629,0.7492924928665161
1773522821965684200,5.214684326171875,0.09871958196163177,-1.2243989706039429,0.912999153137207
1773522821975722000,5.224721923828125,0.10712265223264694,-1.2827035188674927,1.0625883340835571
1773522821985760300,5.23476025390625,0.1084064319729805,-1.2588638067245483,1.1643518209457397
1773522821995798000,5.244798095703125,0.09769679605960846,-1.2146910429000854,1.2145390510559082
1773522822005836000,5.2548359375,0.05490719899535179,-1.191277265548706,1.2188069820404053
1773522822015875000,5.264875,-0.01802639476954937,-1.208371877670288,1.1991307735443115
1773522822025913000,5.2749130859375,-0.11260978132486343,-1.231597900390625,1.1589176654815674
1773522822035951000,5.284951171875,-0.16078263521194458,-1.2648330926895142,1.1062496900558472
1773522822045989000,5.294989013671875,-0.14364150166511536,-1.2611101865768433,1.092185139656067
1773522822056028200,5.305028076171875,-0.049993839114904404,-1.1696529388427734,1.1569870710372925
1773522822066066000,5.31506591796875,0.06239914521574974,-0.9918036460876465,1.3258984088897705
1773522822076104200,5.325104248046875,0.16276410222053528,-0.7673023343086243,1.6001441478729248
1773522822086142000,5.335141845703125,0.24677523970603943,-0.5892029404640198,1.886412262916565
1773522822096180200,5.34518017578125,0.28959569334983826,-0.5349687337875366,2.0890510082244873
1773522822106219000,5.355218994140625,0.3256504237651825,-0.5487146973609924,2.199113368988037
1773522822116257300,5.36525732421875,0.3799054026603699,-0.4372798204421997,2.2129764556884766
1773522822126295000,5.375294921875,0.44878333806991577,-0.1399204134941101,2.1227705478668213
1773522822136333000,5.3853330078125,0.46015822887420654,0.3093836307525635,1.9704128503799438
1773522822146372000,5.3953720703125,0.4435073137283325,0.8150604963302612,1.770007610321045
1773522822156410000,5.40541015625,0.4445675313472748,1.229175090789795,1.5341248512268066
1773522822166448000,5.4154482421875,0.46704602241516113,1.3635785579681396,1.2643563747406006
1773522822176486000,5.42548583984375,0.5274382829666138,1.2795891761779785,1.0293656587600708
1773522822186524200,5.435524169921875,0.6903102397918701,1.2265900373458862,0.8656328320503235
1773522822196563000,5.44556298828125,0.9269448518753052,1.2496002912521362,0.7552269697189331
1773522822206601200,5.455601318359375,1.1464074850082397,1.0845860242843628,0.6818528771400452
1773522822216639000,5.465638916015625,1.2614387273788452,0.7626789212226868,0.7158867716789246
1773522822226677200,5.47567724609375,1.2535241842269897,0.46607741713523865,0.8517688512802124
1773522822236715000,5.485715087890625,1.0560098886489868,0.11956633627414703,1.0877587795257568
1773522822246754000,5.495754150390625,0.7015112042427063,-0.2703406810760498,1.387691855430603
1773522822256792000,5.5057919921875,0.23468461632728577,-0.7517033219337463,1.7265889644622803
1773522822266830000,5.515830078125,-0.23279601335525513,-1.211010456085205,2.120110511779785
1773522822276868000,5.5258681640625,-0.49882128834724426,-1.3619892597198486,2.4141056537628174
1773522822286907100,5.5359072265625,-0.5604532957077026,-1.2511242628097534,2.424705982208252
1773522822296945200,5.545945068359375,-0.5158674120903015,-0.917880654335022,2.2774276733398438
1773522822306983000,5.55598291015625,-0.35031411051750183,-0.5454952716827393,2.0512290000915527
1773522822317021200,5.566021240234375,-0.12709860503673553,-0.20994523167610168,1.6834464073181152
1773522822327059000,5.576058837890625,-0.041778918355703354,0.023867998272180557,1.2171374559402466
1773522822337098200,5.58609814453125,-0.18240633606910706,0.31561118364334106,0.9300017952919006
1773522822347136000,5.596135986328125,-0.33125489950180054,0.6188814043998718,0.9966009855270386
1773522822357174300,5.60617431640625,-0.19572050869464874,0.7033555507659912,1.167376160621643
1773522822367212000,5.6162119140625,-0.015519067645072937,0.5805563926696777,1.1386291980743408
1773522822377251000,5.6262509765625,-0.0051263477653265,0.4010246992111206,1.0378514528274536
1773522822387289000,5.6362890625,-0.05007072538137436,0.21814003586769104,1.1155668497085571
1773522822397327000,5.6463271484375,-0.08866525441408157,-0.020459488034248352,1.3078465461730957
1773522822407365000,5.656365234375,-0.11061105132102966,-0.2745588421821594,1.4144939184188843
1773522822417403100,5.666403076171875,-0.12474658340215683,-0.41033533215522766,1.3460956811904907
1773522822427442200,5.676442138671875,-0.0751691684126854,-0.25480425357818604,1.1504199504852295
1773522822437480200,5.686480224609375,-0.050106700509786606,-0.12288056313991547,1.0641313791275024
1773522822447518200,5.696518310546875,-0.009762872010469437,-0.1728839874267578,1.0844025611877441
1773522822457556000,5.706555908203125,0.0022442564368247986,-0.3889523446559906,1.2137762308120728
1773522822467595000,5.716594970703125,0.03939215466380119,-0.49419280886650085,1.187902808189392
1773522822477633000,5.726633056640625,-0.017684180289506912,-0.6204671263694763,1.1027687788009644
1773522822487671000,5.736671142578125,-0.06321725249290466,-0.7780041694641113,1.0908235311508179
1773522822497709000,5.746708984375,-0.03896650671958923,-0.752927839756012,1.0462267398834229
1773522822507747000,5.7567470703125,0.04745367169380188,-0.5335513353347778,0.8623827695846558
1773522822517786000,5.7667861328125,0.1423088163137436,-0.5361364483833313,0.8201341032981873
1773522822527824100,5.77682421875,0.23790977895259857,-0.689235270023346,0.8989800214767456
1773522822537862100,5.786862060546875,0.2600425183773041,-0.6950480937957764,0.8568597435951233
1773522822547900200,5.796900146484375,0.27778252959251404,-0.6134914755821228,0.732896089553833
1773522822557939000,5.80693896484375,0.29275748133659363,-0.488763689994812,0.60057133436203
1773522822567977200,5.816977294921875,0.3258466422557831,-0.30148622393608093,0.4468655586242676
1773522822578015000,5.827014892578125,0.24819311499595642,-0.450731098651886,0.46081864833831787
1773522822588053000,5.837052978515625,0.19162730872631073,-0.49800926446914673,0.45909836888313293
1773522822598092000,5.847092041015625,0.20830215513706207,-0.3967289924621582,0.3866995573043823
1773522822608130300,5.85713037109375,0.225474014878273,-0.3031957447528839,0.302511066198349
1773522822618168000,5.86716796875,0.21086417138576508,-0.21066980063915253,0.30516916513442993
1773522822628206000,5.8772060546875,0.2521246671676636,-0.07468054443597794,0.25511813163757324
1773522822638244000,5.887244140625,0.36390793323516846,-0.1389079988002777,0.16817285120487213
1773522822648283000,5.897282958984375,0.35570988059043884,-0.43497300148010254,0.2828010618686676
1773522822658321200,5.907321044921875,0.3586263060569763,-0.34554940462112427,0.24675863981246948
1773522822668359200,5.917359130859375,0.37427571415901184,-0.2847522497177124,0.1836715042591095
1773522822678397200,5.927397216796875,0.3584882318973541,-0.2532494366168976,0.14836065471172333
1773522822688436000,5.93743603515625,0.3162768483161926,-0.2288273721933365,0.118288055062294
1773522822698474200,5.94747412109375,0.2622501254081726,-0.2314109057188034,0.08632905781269073
1773522822708512000,5.957511962890625,0.22376549243927002,-0.22219543159008026,0.016415812075138092
1773522822718550300,5.96755029296875,0.20656493306159973,-0.16504772007465363,-0.03731612488627434
1773522822728588000,5.977588134765625,0.17826062440872192,-0.1442694067955017,-0.09325838088989258
1773522822738627000,5.987626953125,0.1356646865606308,-0.10747997462749481,-0.12275075912475586
1773522822748665000,5.9976650390625,0.09556654840707779,-0.0829007551074028,-0.13778099417686462
1773522822758703000,6.007703125,0.06589387357234955,-0.059332046657800674,-0.1529354453086853
1773522822768741000,6.0177412109375,0.05723383277654648,-0.038969818502664566,-0.1303505152463913
1773522822778780000,6.02777978515625,0.033628638833761215,-0.0471651628613472,-0.14392970502376556
1773522822788818200,6.037818115234375,0.029491566121578217,-0.01763523370027542,-0.09414442628622055
1773522822798856000,6.04785595703125,0.03199120983481407,-0.005668052472174168,-0.006270501762628555
1773522822808894200,6.057894287109375,0.013190258294343948,-0.04399050772190094,0.0689859688282013
1773522822818933000,6.06793310546875,-0.004616968333721161,-0.0922752171754837,0.16593675315380096
1773522822828971300,6.07797119140625,-0.023857563734054565,-0.10941741615533829,0.21323871612548828
1773522822839009000,6.088009033203125,-0.02886883169412613,-0.08779121935367584,0.23553897440433502
1773522822849047300,6.09804736328125,-0.018262675032019615,-0.08520688861608505,0.2278667837381363
1773522822859085000,6.1080849609375,0.010395600460469723,-0.10649033635854721,0.19183875620365143
1773522822869124000,6.1181240234375,0.048847928643226624,-0.12902137637138367,0.13953250646591187
1773522822879162000,6.128162109375,0.12208273261785507,-0.1288384199142456,0.09419512003660202
1773522822889200000,6.1382001953125,0.1410924345254898,-0.03303869068622589,0.017458023503422737
1773522822899238100,6.148238037109375,0.18808257579803467,0.02780761569738388,-0.03481689840555191
1773522822909277200,6.158277099609375,0.3138982057571411,0.07307039946317673,-0.08625490963459015
1773522822919310600,6.168310546875,0.5199099779129028,0.00996493548154831,-0.10710959136486053
1773522822929348600,6.1783486328125,0.6298550367355347,-0.02913789264857769,-0.1021595224738121
1773522822939386600,6.18838671875,0.6331070065498352,0.06713138520717621,-0.13856761157512665
1773522822949424600,6.198424560546875,0.6021968126296997,0.1011958122253418,-0.18058647215366364
1773522822959463700,6.208463623046875,0.5063962936401367,0.10764572024345398,-0.1454916149377823
1773522822969501700,6.218501708984375,0.37962907552719116,0.11331133544445038,-0.13474752008914948
1773522822979539700,6.228539794921875,0.2867633104324341,0.13538706302642822,-0.16217781603336334
1773522822989577700,6.23857763671875,0.11957311630249023,0.2798655331134796,-0.21744829416275024
1773522822999616500,6.248616455078125,0.05497095361351967,0.2191302627325058,-0.2172946184873581
1773522823009654800,6.25865478515625,0.022695472463965416,0.10828062146902084,-0.1819046139717102
1773522823019692500,6.268692626953125,-0.06450627744197845,0.10502117872238159,-0.19538740813732147
1773522823029730800,6.278730712890625,-0.08614528924226761,0.11748950183391571,-0.21613246202468872
1773522823039769600,6.28876953125,-0.160933256149292,0.15525364875793457,-0.21074701845645905
1773522823049808000,6.298807861328125,-0.16385313868522644,0.18207594752311707,-0.19038447737693787
1773522823059845600,6.308845703125,-0.16823604702949524,0.18044139444828033,-0.18993473052978516
1773522823069883600,6.318883544921875,-0.17507971823215485,0.21355780959129333,-0.2182844877243042
1773522823079922700,6.328922607421875,-0.19814588129520416,0.23872894048690796,-0.2595410943031311
1773522823089960400,6.33896044921875,-0.2056674212217331,0.27677375078201294,-0.2942831218242645
1773522823099998700,6.348998779296875,-0.21901065111160278,0.30955249071121216,-0.3911910057067871
1773522823110036700,6.35903662109375,-0.20153868198394775,0.32561060786247253,-0.4740850031375885
1773522823120074800,6.36907470703125,-0.19080056250095367,0.3712124228477478,-0.5401923656463623
1773522823130113500,6.379113525390625,-0.17810285091400146,0.4387148916721344,-0.6513374447822571
1773522823140151800,6.38915185546875,-0.13218995928764343,0.4893365204334259,-0.7651111483573914
1773522823150189600,6.399189453125,-0.11156892776489258,0.5961771607398987,-0.8380041122436523
1773522823160227800,6.409227783203125,-0.16487449407577515,0.6065493822097778,-0.9112687706947327
1773522823170266600,6.4192666015625,-0.25076091289520264,0.4495292603969574,-0.9614297747612
1773522823180304600,6.4293046875,-0.30708596110343933,0.33651483058929443,-0.9496151804924011
1773522823190342700,6.4393427734375,-0.33556950092315674,0.2960962653160095,-0.9332743883132935
1773522823200381000,6.449380859375,-0.37838059663772583,0.2955457866191864,-0.98711758852005
1773522823210419700,6.459419677734375,-0.47482866048812866,0.33069467544555664,-1.0825294256210327
1773522823220457700,6.469457763671875,-0.5669798851013184,0.47433173656463623,-1.1902676820755005
1773522823230495700,6.479495849609375,-0.6069810390472412,0.5528387427330017,-1.291329264640808
1773522823240533500,6.489533447265625,-0.6269542574882507,0.5309946537017822,-1.3792284727096558
1773522823250571800,6.49957177734375,-0.6691977381706238,0.45421475172042847,-1.4644734859466553
1773522823260610600,6.509610595703125,-0.6923955082893372,0.4172641932964325,-1.5105581283569336
1773522823270648800,6.51964892578125,-0.6818140149116516,0.40421661734580994,-1.5050208568572998
1773522823280686600,6.5296865234375,-0.6729863882064819,0.32868990302085876,-1.5057276487350464
1773522823290724900,6.539724853515625,-0.6309956312179565,0.33548784255981445,-1.5183254480361938
1773522823300763600,6.549763671875,-0.5531724691390991,0.46620455384254456,-1.548065185546875
1773522823310801700,6.5598017578125,-0.4434341788291931,0.6292179226875305,-1.6143946647644043
1773522823320839700,6.569839599609375,-0.3518824279308319,0.7549324035644531,-1.7092939615249634
1773522823330877700,6.579877685546875,-0.31222930550575256,0.8685857057571411,-1.7736456394195557
1773522823340916700,6.589916748046875,-0.32132986187934875,0.9304445385932922,-1.7857095003128052
1773522823350954800,6.599954833984375,-0.3811776340007782,0.9611507654190063,-1.7641433477401733
1773522823360992800,6.60999267578125,-0.46232494711875916,0.9624093770980835,-1.729663610458374
1773522823371030500,6.620030517578125,-0.5316373109817505,0.9533021450042725,-1.6969674825668335
1773522823381069600,6.630069580078125,-0.556621789932251,0.9196877479553223,-1.6788678169250488
1773522823391107800,6.64010791015625,-0.5576740503311157,0.8875821232795715,-1.706220030784607
1773522823401145600,6.6501455078125,-0.5325257778167725,0.8706191182136536,-1.7637485265731812
1773522823411183600,6.66018359375,-0.5008116364479065,0.8200851082801819,-1.8310785293579102
1773522823421222700,6.67022265625,-0.47548872232437134,0.8061909079551697,-1.9085602760314941
1773522823431260700,6.6802607421875,-0.47572875022888184,0.8879677653312683,-1.9208965301513672
1773522823441298700,6.690298583984375,-0.5163901448249817,1.02724289894104,-1.856586217880249
1773522823451336700,6.700336669921875,-0.5720794796943665,1.1663975715637207,-1.7497087717056274
1773522823461375700,6.710375732421875,-0.6348318457603455,1.2284958362579346,-1.6256654262542725
1773522823471413500,6.72041357421875,-0.7026994228363037,1.118420958518982,-1.5562710762023926
1773522823481451800,6.73045166015625,-0.7461800575256348,0.8683594465255737,-1.5511246919631958
1773522823491489500,6.740489501953125,-0.7711654305458069,0.671911358833313,-1.5500173568725586
1773522823501527800,6.75052783203125,-0.7813032269477844,0.6078115105628967,-1.5406073331832886
1773522823511566600,6.760566650390625,-0.7565944194793701,0.6402580738067627,-1.5494403839111328
1773522823521604900,6.77060498046875,-0.6895272135734558,0.7581053376197815,-1.5547735691070557
1773522823531642600,6.780642578125,-0.5855302810668945,0.8970109820365906,-1.5458749532699585
1773522823541680600,6.7906806640625,-0.4592476785182953,1.0006968975067139,-1.5255199670791626
1773522823551719700,6.8007197265625,-0.3400132954120636,1.0462656021118164,-1.4886374473571777
1773522823561757700,6.8107578125,-0.2522885203361511,1.003204345703125,-1.435411810874939
1773522823571795700,6.820795654296875,-0.20705056190490723,0.8635609745979309,-1.3587290048599243
1773522823581833700,6.830833740234375,-0.21069003641605377,0.6425840854644775,-1.2352749109268188
1773522823591872800,6.840872802734375,-0.25930967926979065,0.385837584733963,-1.079054832458496
1773522823601910500,6.85091064453125,-0.29910609126091003,0.11389818787574768,-0.8939283490180969
1773522823611948800,6.86094873046875,-0.3124307692050934,-0.1410711258649826,-0.6848016977310181
1773522823621986600,6.870986572265625,-0.31413254141807556,-0.39361974596977234,-0.4631204605102539
1773522823632025600,6.881025634765625,-0.33213964104652405,-0.6661494374275208,-0.26108884811401367
1773522823642063600,6.891063720703125,-0.3736439347267151,-0.965458869934082,-0.12629427015781403
1773522823652101600,6.9011015625,-0.44309234619140625,-1.2317941188812256,-0.0750986635684967
1773522823662139600,6.9111396484375,-0.42894724011421204,-1.4416418075561523,-0.06996249407529831
1773522823672178700,6.9211787109375,-0.2924165427684784,-1.5500664710998535,-0.08239056915044785
1773522823682216700,6.931216796875,-0.08158951997756958,-1.5063629150390625,-0.10446098446846008
1773522823692254700,6.941254638671875,0.15382583439350128,-1.4073293209075928,-0.15620315074920654
1773522823702292700,6.951292724609375,0.38037002086639404,-1.327723503112793,-0.24984495341777802
1773522823712331800,6.961331787109375,0.5837700366973877,-1.2922254800796509,-0.3653721511363983
1773522823722369800,6.971369873046875,0.7417654991149902,-1.2614585161209106,-0.4788987338542938
1773522823732407600,6.981407470703125,0.8245742321014404,-1.1486722230911255,-0.5609379410743713
1773522823742445800,6.99144580078125,0.8374642133712769,-0.9593137502670288,-0.5709245204925537
1773522823752484900,7.00148486328125,0.797982931137085,-0.7885672450065613,-0.48738959431648254
1773522823762522600,7.011522705078125,0.7590983510017395,-0.7716431021690369,-0.2957274913787842
1773522823772560600,7.021560546875,0.7317792177200317,-0.9476105570793152,-0.01563187688589096
1773522823782598700,7.0315986328125,0.7686808109283447,-1.3927792310714722,0.21716435253620148
1773522823792637700,7.0416376953125,0.8890873789787292,-2.0334410667419434,0.32411086559295654
1773522823802675700,7.05167578125,1.1175553798675537,-2.658568859100342,0.3656021058559418
1773522823812713700,7.061713623046875,1.3254563808441162,-3.046299457550049,0.3847199082374573
1773522823822751700,7.071751708984375,1.4296269416809082,-3.0843539237976074,0.3779573440551758
1773522823832790500,7.08179052734375,1.4356698989868164,-2.8256900310516357,0.3097580671310425
1773522823842828800,7.091828857421875,1.3916984796524048,-2.362034797668457,0.15459324419498444
1773522823852866600,7.101866455078125,1.3171072006225586,-1.7947477102279663,-0.07040227949619293
1773522823862904800,7.11190478515625,1.2551236152648926,-1.2622194290161133,-0.3272812068462372
1773522823872943600,7.121943603515625,1.2269811630249023,-0.8518575429916382,-0.5981784462928772
1773522823882982000,7.13198193359375,1.259684681892395,-0.6356746554374695,-0.8344247937202454
1773522823893019600,7.14201953125,1.29262113571167,-0.523138701915741,-0.9847337603569031
1773522823903057700,7.1520576171875,1.270207405090332,-0.4529672861099243,-1.0065823793411255
1773522823913098000,7.162097900390625,1.1714178323745728,-0.42483648657798767,-0.8913349509239197
1773522823923135700,7.1721357421875,0.9812923669815063,-0.4453854560852051,-0.6763107776641846
1773522823933174000,7.182174072265625,0.7605068683624268,-0.4677472412586212,-0.4380245506763458
1773522823943211800,7.192211669921875,0.5746989250183105,-0.43527159094810486,-0.22297559678554535
1773522823953250800,7.202250732421875,0.43456771969795227,-0.20780864357948303,-0.06991706788539886
1773522823963288800,7.212288818359375,0.25333961844444275,0.19910772144794464,0.0015627139946445823
1773522823973326800,7.222326904296875,0.0378599651157856,0.657292366027832,-0.02116314135491848
1773522823983364900,7.23236474609375,-0.1794273406267166,1.0555899143218994,-0.08433492481708527
1773522823993404000,7.24240380859375,-0.3683045208454132,1.3092145919799805,-0.14448638260364532
1773522824003442000,7.25244189453125,-0.5407444834709167,1.3904387950897217,-0.19559617340564728
1773522824013479700,7.262479736328125,-0.7114913463592529,1.2843626737594604,-0.25794488191604614
1773522824023518000,7.27251806640625,-0.826778769493103,0.9702905416488647,-0.3356436789035797
1773522824033556700,7.282556640625,-0.8291067481040955,0.5029937028884888,-0.4184679687023163
1773522824043594800,7.2925947265625,-0.7040372490882874,0.003999651409685612,-0.45339852571487427
1773522824053632800,7.3026328125,-0.4774785339832306,-0.39168012142181396,-0.4109644293785095
1773522824063670800,7.3126708984375,-0.21956495940685272,-0.5813054442405701,-0.281588613986969
1773522824073709800,7.322709716796875,-0.023268084973096848,-0.5208033919334412,-0.08889325708150864
1773522824083747800,7.332747802734375,0.08945659548044205,-0.2720353305339813,0.1334735006093979
1773522824093785900,7.342785888671875,0.10697981715202332,0.03375564143061638,0.33522850275039673
1773522824103824000,7.352823974609375,0.049875788390636444,0.24809643626213074,0.47563594579696655
1773522824113862700,7.362862548828125,0.127777561545372,0.2534879744052887,0.5571231245994568
1773522824123901000,7.37290087890625,0.3688413202762604,0.10547027736902237,0.5882975459098816
1773522824133938700,7.382938720703125,0.6293476819992065,-0.02642747201025486,0.574799120426178
1773522824143977000,7.39297705078125,0.7988113164901733,-0.04486320540308952,0.534220278263092
1773522824154015700,7.403015625,0.8249024152755737,0.1119641661643982,0.49540019035339355
1773522824164054000,7.413053955078125,0.7597079873085022,0.3898943066596985,0.47536149621009827
1773522824174091800,7.423091796875,0.6646148562431335,0.6883784532546997,0.47856807708740234
1773522824184129800,7.4331298828125,0.5908218622207642,0.9415462613105774,0.48476818203926086
1773522824194168800,7.4431689453125,0.539487898349762,1.1328868865966797,0.49111807346343994
1773522824204206600,7.45320654296875,0.4732170104980469,1.2928979396820068,0.5096294283866882
1773522824214244900,7.463244873046875,0.36001911759376526,1.4194079637527466,0.5525386333465576
1773522824224282600,7.47328271484375,0.21298307180404663,1.5045779943466187,0.6004723906517029
1773522824234322000,7.483322021484375,0.08089414238929749,1.5171843767166138,0.614989161491394
1773522824244359700,7.493359619140625,0.011843698099255562,1.415121078491211,0.5885463356971741
1773522824254398000,7.50339794921875,0.015662021934986115,1.2135865688323975,0.533701479434967
1773522824264435700,7.513435791015625,0.015849240124225616,0.9852069616317749,0.5018205642700195
1773522824274474800,7.523474853515625,0.003818841651082039,0.762152373790741,0.508360743522644
1773522824284512800,7.5335126953125,-0.01675114780664444,0.5391038656234741,0.5383297801017761
1773522824294550800,7.54355078125,-0.043233200907707214,0.28873011469841003,0.5415583848953247
1773522824304588800,7.5535888671875,-0.07219374924898148,0.007197503931820393,0.49117565155029297
1773522824314627800,7.5636279296875,-0.09690315276384354,-0.2958138883113861,0.4010969400405884
1773522824324665900,7.573665771484375,-0.10263746976852417,-0.5686563849449158,0.3008430302143097
1773522824334703900,7.583703857421875,-0.0956537127494812,-0.7957716584205627,0.1957174837589264
1773522824344742000,7.593741943359375,-0.08424606174230576,-0.9877402782440186,0.04146984964609146
1773522824354781000,7.603781005859375,-0.08174407482147217,-1.1680964231491089,-0.21064123511314392
1773522824364818700,7.613818603515625,-0.0845065712928772,-1.3070085048675537,-0.5627135038375854
1773522824374856700,7.623856689453125,0.00436727050691843,-1.3840086460113525,-0.8975472450256348
1773522824384894700,7.633894775390625,0.2858724594116211,-1.3829545974731445,-1.091582179069519
1773522824394933800,7.643933837890625,0.5613109469413757,-1.2534451484680176,-1.144911527633667
1773522824404971800,7.6539716796875,0.7255914807319641,-0.9910198450088501,-1.1433594226837158
1773522824415009800,7.664009765625,0.7611495852470398,-0.6144096851348877,-1.1476138830184937
1773522824425047800,7.6740478515625,0.6938976049423218,-0.12907814979553223,-1.1506233215332031
1773522824435086800,7.6840869140625,0.5813537836074829,0.41985663771629333,-1.1231410503387451
1773522824445124900,7.694124755859375,0.5033450126647949,0.9401879906654358,-1.0991555452346802
1773522824455163000,7.704162841796875,0.5020556449890137,1.3519432544708252,-1.1294702291488647
1773522824465201000,7.714200927734375,0.5298515558242798,1.6738626956939697,-1.1996761560440063
1773522824475239700,7.72423974609375,0.47676658630371094,1.9641997814178467,-1.2589170932769775
1773522824485278000,7.73427783203125,0.2538418769836426,2.2059147357940674,-1.3028455972671509
1773522824495315700,7.744315673828125,-0.11152644455432892,2.367298126220703,-1.289316177368164
1773522824505354000,7.75435400390625,-0.43539905548095703,2.355839967727661,-1.1700971126556396
1773522824515392800,7.764392822265625,-0.6101495623588562,2.143679618835449,-0.9489492774009705
1773522824525431000,7.77443115234375,-0.6609951257705688,1.7767655849456787,-0.6482898592948914
1773522824535468800,7.78446875,-0.6187534332275391,1.2976270914077759,-0.33903735876083374
1773522824545506800,7.7945068359375,-0.5051035284996033,0.7735641598701477,-0.04935307800769806
1773522824555545900,7.8045458984375,-0.3996848165988922,0.33945491909980774,0.20062725245952606
1773522824565583600,7.81458349609375,-0.38168904185295105,0.06995818018913269,0.37222084403038025
1773522824575622000,7.824621826171875,-0.4341638386249542,-0.0420309342443943,0.40962880849838257
1773522824585659600,7.83465966796875,-0.403172105550766,-0.05707326531410217,0.31088918447494507
1773522824595699000,7.844698974609375,-0.33943620324134827,0.052364252507686615,0.12324845045804977
1773522824605736700,7.85473681640625,-0.28001895546913147,0.302043616771698,-0.09314590692520142
1773522824615775000,7.86477490234375,-0.20224851369857788,0.6640741229057312,-0.2562539279460907
1773522824625813800,7.874813720703125,-0.10956331342458725,1.0808167457580566,-0.3261941373348236
1773522824635851800,7.884851806640625,-0.02924719639122486,1.4979643821716309,-0.32663261890411377
1773522824645889800,7.894889892578125,0.028319958597421646,1.838912844657898,-0.29917460680007935
1773522824655927800,7.904927734375,0.07513037323951721,2.060716152191162,-0.23833192884922028
1773522824665966800,7.914966796875,0.2275225818157196,2.142019510269165,-0.045952633023262024
1773522824676004900,7.9250048828125,0.43186813592910767,2.116415023803711,0.2612309753894806
1773522824686043000,7.93504296875,0.5752319693565369,2.0033109188079834,0.5687752366065979
1773522824696081000,7.945080810546875,0.5545557737350464,1.8346580266952515,0.766991138458252
1773522824706119700,7.95511962890625,0.3639583885669708,1.6078976392745972,0.8427066206932068
1773522824716158000,7.965157958984375,0.10075373947620392,1.3349742889404297,0.857305645942688
1773522824726195700,7.97519580078125,-0.11779804527759552,1.0509181022644043,0.9152083992958069
1773522824736233700,7.985233642578125,-0.2526874244213104,0.7890135645866394,1.0407874584197998
1773522824746272800,7.995272705078125,-0.34739580750465393,0.5459628105163574,1.1474889516830444
1773522824756310800,8.005310791015624,-0.36733677983283997,0.2719027101993561,1.100051760673523
1773522824766348800,8.015348876953125,-0.31380775570869446,-0.04627954587340355,0.8464477062225342
1773522824776386800,8.02538671875,-0.23617249727249146,-0.2989143431186676,0.49199554324150085
1773522824786425900,8.03542578125,-0.16342371702194214,-0.3687240481376648,0.2855835258960724
1773522824796463600,8.045463623046874,-0.082709401845932,-0.2802862823009491,0.3218708038330078
1773522824806502000,8.055501953125,0.013675186783075333,-0.0632018968462944,0.4861886501312256
1773522824816539600,8.06553955078125,0.1265190988779068,0.2548287510871887,0.6093951463699341
1773522824826579000,8.075578857421876,0.24198018014431,0.6420044302940369,0.6280463337898254
1773522824836616700,8.08561669921875,0.33815956115722656,1.016571044921875,0.5741193890571594
1773522824846655000,8.095655029296875,0.37223124504089355,1.30841863155365,0.5738831758499146
1773522824856692700,8.105692626953125,0.32363101840019226,1.4884307384490967,0.6239011883735657
1773522824866731800,8.115731689453124,0.21444223821163177,1.556995153427124,0.6926754117012024
1773522824876769800,8.125769775390625,0.06160464510321617,1.5399261713027954,0.6852720975875854
1773522824886807800,8.135807861328125,-0.08774276077747345,1.4374420642852783,0.5968604683876038
1773522824896845800,8.145845703125,-0.18538454174995422,1.2354236841201782,0.5071396827697754
1773522824906884900,8.155884765625,-0.20846988260746002,0.9894514679908752,0.5104073882102966
1773522824916921900,8.165921875,-0.18881355226039886,0.7600783705711365,0.5859209895133972
1773522824926959900,8.1759599609375,-0.1721924990415573,0.6063676476478577,0.6808392405509949
1773522824936999000,8.1859990234375,-0.16674849390983582,0.49333155155181885,0.7214409112930298
1773522824947036700,8.19603662109375,-0.14965765178203583,0.40121495723724365,0.6730589866638184
1773522824957075000,8.206074951171875,-0.11730282008647919,0.30350378155708313,0.5793223977088928
1773522824967112700,8.21611279296875,-0.08167771250009537,0.15751592814922333,0.5370393991470337
1773522824977151700,8.22615185546875,-0.06242413818836212,-0.05626469478011131,0.6074643731117249
1773522824987189800,8.236189697265624,-0.09002727270126343,-0.2962554395198822,0.7440075874328613
1773522824997228000,8.24622802734375,-0.09024400264024734,-0.41804078221321106,0.8048280477523804
1773522825007265800,8.256265869140625,-0.0577092319726944,-0.41638508439064026,0.6770280003547668
1773522825017304800,8.266304931640626,-0.02920982986688614,-0.3406601548194885,0.4005354046821594
1773522825027342800,8.2763427734375,0.006830197758972645,-0.21760453283786774,0.13471010327339172
1773522825037380600,8.286380615234375,0.09856974333524704,-0.09630598872900009,0.027735546231269836
1773522825047419000,8.2964189453125,0.19473542273044586,-0.02870190516114235,0.06799641251564026
1773522825057458000,8.3064580078125,0.29561716318130493,0.05153795704245567,0.13233311474323273
1773522825067496000,8.316495849609375,0.3750094473361969,0.2036675661802292,0.08193571865558624
1773522825077533700,8.32653369140625,0.44811078906059265,0.4113757908344269,-0.12668222188949585
1773522825087572000,8.336572021484375,0.5045663118362427,0.5398043394088745,-0.40490132570266724
1773522825097610800,8.34661083984375,0.5757731199264526,0.49017155170440674,-0.5589598417282104
1773522825107648800,8.356648681640625,0.6794587969779968,0.33141225576400757,-0.5925841331481934
1773522825117686800,8.366686767578125,0.7860111594200134,0.1030496284365654,-0.5106692910194397
1773522825127724800,8.376724853515626,0.8133106827735901,-0.15574145317077637,-0.2849123179912567
1773522825137763800,8.386763916015624,0.7385901212692261,-0.3796288073062897,0.10300862044095993
1773522825147801900,8.3968017578125,0.6001352667808533,-0.4923396408557892,0.5314973592758179
1773522825157840000,8.40683984375,0.4479653239250183,-0.5155884623527527,0.8514089584350586
1773522825167879000,8.41687890625,0.30807000398635864,-0.47942331433296204,1.0141571760177612
1773522825177916700,8.426916748046875,0.17781823873519897,-0.4191184937953949,1.0227797031402588
1773522825187955000,8.436954833984375,0.09515930712223053,-0.3683466613292694,0.9218502640724182
1773522825197992700,8.44699267578125,0.031959835439920425,-0.30908769369125366,0.7859604954719543
1773522825208032000,8.457031982421874,-0.062340833246707916,-0.2615737318992615,0.7148700952529907
1773522825218069800,8.46706982421875,-0.18559065461158752,-0.2433428168296814,0.7106515169143677
1773522825228108000,8.47710791015625,-0.30183127522468567,-0.2807178795337677,0.7218724489212036
1773522825238145800,8.487145751953125,-0.4644813537597656,-0.30323290824890137,0.7093998193740845
1773522825248184800,8.497184814453124,-0.5652734637260437,-0.3598783612251282,0.6564862728118896
1773522825258222800,8.507222900390625,-0.5305237174034119,-0.4501389265060425,0.5981801748275757
1773522825268260600,8.517260498046875,-0.39607006311416626,-0.5132092237472534,0.5967106223106384
1773522825278299000,8.527298828125,-0.23398882150650024,-0.47344842553138733,0.6439334750175476
1773522825288337700,8.537337646484374,-0.09030596166849136,-0.3468286991119385,0.6942229866981506
1773522825298376000,8.5473759765625,0.036331675946712494,-0.1751396656036377,0.7145248055458069
1773522825308413700,8.55741357421875,0.16485823690891266,-0.012211989611387253,0.6869938373565674
1773522825318452000,8.567451904296876,0.28494271636009216,0.13533173501491547,0.6290782690048218
1773522825328490800,8.57749072265625,0.38537371158599854,0.2805813252925873,0.5623913407325745
1773522825338528800,8.58752880859375,0.43947160243988037,0.43796437978744507,0.4908960163593292
1773522825348566800,8.59756689453125,0.45322391390800476,0.5771757960319519,0.419821560382843
1773522825358604800,8.607604736328126,0.41021859645843506,0.68643718957901,0.341661661863327
1773522825368643800,8.617643798828125,0.32132095098495483,0.7519366145133972,0.26226431131362915
1773522825378681900,8.627681884765625,0.19061818718910217,0.7786225080490112,0.19768854975700378
1773522825388719900,8.637719970703126,0.03585071116685867,0.7866516709327698,0.18120385706424713
1773522825398757600,8.647757568359374,-0.10203158855438232,0.7539029121398926,0.2142295241355896
1773522825408796700,8.657796630859375,-0.16602733731269836,0.6894783973693848,0.2822093665599823
1773522825418835000,8.6678349609375,-0.15255789458751678,0.5658673048019409,0.35083645582199097
1773522825428872700,8.677872802734376,-0.14171403646469116,0.3722357749938965,0.396150678396225
1773522825438912000,8.687912109375,-0.08711579442024231,0.14091958105564117,0.3777693212032318
1773522825448949800,8.69794970703125,-0.03944334387779236,-0.11952932178974152,0.3020210266113281
1773522825458987800,8.70798779296875,-0.028759706765413284,-0.38960322737693787,0.2101404368877411
1773522825469025800,8.71802587890625,-0.0188135989010334,-0.6444751620292664,0.12941469252109528
1773522825479064600,8.728064697265625,0.04614482820034027,-0.8879811763763428,0.09043460339307785
1773522825489102800,8.738102783203125,0.15165580809116364,-1.078948736190796,0.0725829005241394
1773522825499140900,8.748140869140625,0.23687969148159027,-1.2040619850158691,0.04911399260163307
1773522825509179000,8.758178955078124,0.29766473174095154,-1.279673457145691,0.009231292642652988
1773522825519217700,8.7682177734375,0.336882621049881,-1.3331254720687866,-0.026479344815015793
1773522825529256000,8.778255859375,0.33342236280441284,-1.3343485593795776,-0.04650525003671646
1773522825539293700,8.788293701171876,0.3149406909942627,-1.25165593624115,-0.0411662720143795
1773522825549332000,8.79833203125,0.27325955033302307,-1.0692999362945557,-0.01245979405939579
1773522825559370800,8.808370849609375,0.23452138900756836,-0.7438058853149414,0.012180810794234276
1773522825569408800,8.81840869140625,0.20844398438930511,-0.2886418402194977,0.008053709752857685
1773522825579446800,8.82844677734375,0.17400965094566345,0.20407849550247192,-0.046359267085790634
1773522825589485000,8.838485107421874,0.11675301939249039,0.6423820853233337,-0.14970216155052185
1773522825599523800,8.84852392578125,0.04288279265165329,0.986954927444458,-0.29446229338645935
1773522825609561900,8.858561767578125,-0.02692824974656105,1.254583477973938,-0.4643157720565796
1773522825619600000,8.868599853515626,-0.1078830137848854,1.4834089279174805,-0.638444185256958
1773522825629639000,8.878638916015625,-0.2284092903137207,1.7052258253097534,-0.8041002154350281
1773522825639677000,8.888677001953125,-0.40096551179885864,1.9114340543746948,-0.9384666085243225
1773522825649714700,8.898714599609375,-0.5867297649383545,2.065779685974121,-1.0190454721450806
1773522825659753000,8.9087529296875,-0.7464357018470764,2.1453733444213867,-1.045012354850769
1773522825669791700,8.918791748046875,-0.8578205704689026,2.1100282669067383,-1.0241351127624512
1773522825679829800,8.928829833984375,-0.919084906578064,1.9586471319198608,-0.9741617441177368
1773522825689867800,8.93886767578125,-0.9247143268585205,1.6994701623916626,-0.8917720913887024
1773522825699905800,8.94890576171875,-0.8737887740135193,1.354072093963623,-0.7990057468414307
1773522825709944800,8.95894482421875,-0.7853667736053467,0.9751115441322327,-0.7190160751342773
1773522825719982800,8.96898291015625,-0.6957706809043884,0.5914888381958008,-0.6770268678665161
1773522825730020900,8.979020751953126,-0.6204131245613098,0.3024604916572571,-0.6687420010566711
1773522825740059000,8.989058837890624,-0.5755631923675537,0.15825794637203217,-0.6867029070854187
1773522825750097700,8.99909765625,-0.559550404548645,0.13770100474357605,-0.7089035511016846
1773522825760136000,9.009135986328126,-0.5895782709121704,0.1273469775915146,-0.7266358137130737
1773522825770173700,9.019173583984376,-0.6277429461479187,0.09240870177745819,-0.7646814584732056
1773522825780212000,9.0292119140625,-0.6030727624893188,0.21032947301864624,-0.7187951803207397
1773522825790250800,9.039250732421875,-0.49170979857444763,0.4645843803882599,-0.6164450645446777
1773522825800289000,9.0492890625,-0.3190355896949768,0.7567808628082275,-0.5474093556404114
1773522825810326800,9.059326904296874,-0.2293083518743515,1.0394768714904785,-0.5537402629852295
1773522825820364800,9.06936474609375,-0.3335147798061371,1.1611807346343994,-0.5029292702674866
1773522825830403800,9.07940380859375,-0.411931574344635,0.9194828271865845,-0.31050416827201843
1773522825840441600,9.089441650390626,-0.414895236492157,0.5409623980522156,0.014467399567365646
1773522825850479900,9.09947998046875,-0.4165259003639221,0.22384941577911377,0.34284210205078125
1773522825860517600,9.109517578125,-0.49787333607673645,-0.09992918372154236,0.5191357731819153
1773522825870557000,9.119556884765625,-0.8203014135360718,-0.8217217326164246,0.08479175716638565
1773522825880594700,9.1295947265625,-1.132947325706482,-2.1352109909057617,-0.8431261777877808
1773522825890633000,9.139633056640625,-0.8673499822616577,-3.4029829502105713,-1.3876936435699463
1773522825900671700,9.149671630859375,-0.4360150098800659,-3.941080331802368,-1.2378638982772827
1773522825910709800,9.159709716796876,-0.2029591202735901,-3.709531784057617,-0.7981772422790527
1773522825920748300,9.169748291015624,-0.16767150163650513,-2.8767004013061523,-0.41483697295188904
1773522825930786300,9.179786376953125,-0.1519114375114441,-1.6798601150512695,-0.3365783989429474
1773522825940825300,9.189825439453125,-0.053100116550922394,-0.44177743792533875,-0.5594559907913208
1773522825950863400,9.19986328125,0.09226374328136444,0.5722752213478088,-0.8366569876670837
1773522825960901400,9.2099013671875,0.11113707721233368,1.2562984228134155,-0.8301295638084412
1773522825970939400,9.219939453125,-0.051719482988119125,1.6560282707214355,-0.5766370892524719
1773522825980978200,9.229978271484375,-0.2353220134973526,1.8263987302780151,-0.31867319345474243
1773522825991016400,9.240016357421876,-0.376526802778244,1.8272554874420166,-0.2514829635620117
1773522826001054200,9.25005419921875,-0.5017925500869751,1.6532536745071411,-0.4862977862358093
1773522826011092500,9.260092529296875,-0.5411189198493958,1.2366091012954712,-0.8942586779594421
1773522826021131300,9.27013134765625,-0.30192044377326965,0.5901709794998169,-1.13079035282135
1773522826031169500,9.28016943359375,0.034279949963092804,-0.07206553965806961,-1.0090441703796387
1773522826041207300,9.290207275390625,0.25338014960289,-0.6169819235801697,-0.6949514150619507
1773522826051245300,9.300245361328125,0.33541032671928406,-1.0630402565002441,-0.41604122519493103
1773522826061284400,9.310284423828126,0.29187285900115967,-1.403872013092041,-0.32893428206443787
1773522826071322000,9.320322021484374,0.12873347103595734,-1.6206032037734985,-0.4174596071243286
1773522826081360400,9.3303603515625,-0.07976473867893219,-1.648520588874817,-0.5109673738479614
1773522826091398100,9.340398193359375,-0.15118564665317535,-1.5123307704925537,-0.4782355725765228
1773522826101437400,9.3504375,-0.09111855179071426,-1.2669715881347656,-0.34466204047203064
1773522826111475200,9.36047509765625,0.003728865645825863,-0.9253186583518982,-0.20508496463298798
1773522826121513500,9.370513427734375,0.06451716274023056,-0.5128277540206909,-0.14262521266937256
1773522826131551200,9.38055126953125,0.06937823444604874,-0.11538633704185486,-0.17790544033050537
1773522826141590300,9.39059033203125,0.03581119701266289,0.1970507651567459,-0.30851396918296814
1773522826151628300,9.400628173828125,0.01982530578970909,0.3414662480354309,-0.47172632813453674
1773522826161666300,9.410666259765625,0.05720634013414383,0.2998814582824707,-0.5970237851142883
1773522826171704300,9.420704345703125,0.11417295038700104,0.1524139791727066,-0.6200209856033325
1773522826181743400,9.430743408203124,0.11208263784646988,-0.022922415286302567,-0.5299043655395508
1773522826191781400,9.440781494140625,0.05708915740251541,-0.1984793245792389,-0.3904396891593933
1773522826201819400,9.4508193359375,-0.002528599463403225,-0.38837888836860657,-0.22814814746379852
1773522826211857400,9.460857421875,-0.000055587850511074066,-0.5952409505844116,-0.09115593880414963
1773522826221896400,9.470896484375,0.09240473806858063,-0.805408239364624,0.06644750386476517
1773522826231934200,9.480934326171875,0.23983760178089142,-0.9587083458900452,0.2817435562610626
1773522826241972200,9.49097216796875,0.35576820373535156,-0.9886478185653687,0.5032504796981812
1773522826252010200,9.50101025390625,0.40236181020736694,-0.9032069444656372,0.669133186340332
1773522826262049300,9.51104931640625,0.41324111819267273,-0.7451692819595337,0.7533720135688782
1773522826272087300,9.52108740234375,0.4114517569541931,-0.5554832816123962,0.7725608944892883
1773522826282125300,9.531125244140625,0.38991373777389526,-0.3484059274196625,0.7457382082939148
1773522826292163300,9.541163330078126,0.3192614018917084,-0.12204600125551224,0.7008588910102844
1773522826302202000,9.5512021484375,0.19489750266075134,0.0858825296163559,0.6670235991477966
1773522826312240400,9.561240478515625,0.04328667372465134,0.28590619564056396,0.6580607295036316
1773522826322278100,9.571278076171875,-0.11943715810775757,0.43698933720588684,0.6613785028457642
1773522826332316400,9.58131640625,-0.24346376955509186,0.5292250514030457,0.6743898987770081
1773522826342355200,9.591355224609375,-0.3158184587955475,0.5594343543052673,0.6774331331253052
1773522826352393500,9.6013935546875,-0.32269924879074097,0.5462490320205688,0.6696305871009827
1773522826362431200,9.61143115234375,-0.30229654908180237,0.5106205344200134,0.614467442035675
1773522826372469500,9.621469482421874,-0.29200637340545654,0.45111083984375,0.4902869164943695
1773522826382508300,9.63150830078125,-0.27286210656166077,0.363349974155426,0.3063967525959015
1773522826392546300,9.64154638671875,-0.22703999280929565,0.2369755357503891,0.08531710505485535
1773522826402584300,9.651584228515626,-0.13925538957118988,0.1034185141324997,-0.15124498307704926
1773522826412622300,9.661622314453124,-0.021437669172883034,-0.009377804584801197,-0.4007868766784668
1773522826422661400,9.671661376953125,0.0739639475941658,-0.0850820541381836,-0.6304426193237305
1773522826432699100,9.68169921875,0.12332271039485931,-0.1346016675233841,-0.8262816667556763
1773522826442737400,9.6917373046875,0.13807864487171173,-0.172432079911232,-0.9882343411445618
1773522826452775200,9.701775146484374,0.15786726772785187,-0.18505360186100006,-1.1607134342193604
1773522826462814200,9.711814208984375,0.22894608974456787,-0.15370090305805206,-1.3759019374847412
1773522826472852200,9.721852294921876,0.3006359934806824,-0.0418529286980629,-1.6433554887771606
1773522826482890200,9.73189013671875,0.28925928473472595,0.1793186515569687,-1.9207221269607544
1773522826492928300,9.74192822265625,0.24775740504264832,0.5150390863418579,-2.12947154045105
1773522826502967300,9.75196728515625,0.2028605192899704,0.98987877368927,-2.181227922439575
1773522826513005300,9.76200537109375,0.16897153854370117,1.6721627712249756,-1.9623175859451294
1773522826523043300,9.772043212890624,0.18678875267505646,2.5799617767333984,-1.1674433946609497
1773522826533082400,9.782082275390625,0.32706356048583984,3.1379013061523438,0.19990737736225128
1773522826543120400,9.792120361328125,0.5184723138809204,2.8008885383605957,1.3997931480407715
1773522826553158400,9.802158447265626,0.5682529211044312,1.9634730815887451,2.0676448345184326
1773522826563196400,9.812196533203124,0.46614351868629456,1.096029281616211,2.3169987201690674
1773522826573235200,9.822235107421875,0.30648595094680786,0.41089460253715515,2.341900587081909
1773522826583273500,9.8322734375,0.14458371698856354,-0.09330976009368896,2.1992874145507812
1773522826593311200,9.842311279296876,-0.01552952267229557,-0.491105854511261,1.950188398361206
1773522826603349200,9.852349365234375,-0.184644877910614,-0.7646973729133606,1.6693572998046875
1773522826613387300,9.86238720703125,-0.33492228388786316,-0.8883373141288757,1.4127823114395142
1773522826623426300,9.87242626953125,-0.4266822338104248,-0.9260783791542053,1.1805928945541382
1773522826633464300,9.88246435546875,-0.4416228234767914,-0.9169384241104126,0.9403874278068542
1773522826643502300,9.89250244140625,-0.3727957010269165,-0.8941620588302612,0.7243232131004333
1773522826653541400,9.902541259765625,-0.28410470485687256,-0.7982123494148254,0.5884838700294495
1773522826663579100,9.9125791015625,-0.27774882316589355,-0.5059317350387573,0.7317219972610474
1773522826673617400,9.922617431640624,-0.39227569103240967,-0.10982564836740494,1.2920392751693726
1773522826683655200,9.9326552734375,-0.5402204990386963,0.10950427502393723,2.064417600631714
1773522826693694500,9.942694580078125,-0.6495379209518433,0.11257623136043549,2.695573091506958
1773522826703732200,9.952732177734376,-0.6687125563621521,0.09035687893629074,2.9926092624664307
1773522826713770500,9.9627705078125,-0.6302767395973206,0.07429136335849762,2.9824001789093018
1773522826723808300,9.972808349609375,-0.5602042078971863,0.15141916275024414,2.774792194366455
1773522826733847300,9.982847412109376,-0.47836634516716003,0.29980704188346863,2.441657304763794
1773522826743885300,9.99288525390625,-0.37716230750083923,0.4970151484012604,2.0338327884674072
1773522826753923300,10.00292333984375,-0.280534565448761,0.7673952579498291,1.6543701887130737
1773522826763961300,10.01296142578125,-0.23480957746505737,1.116469383239746,1.404585361480713
1773522826774000400,10.02300048828125,-0.2251037061214447,1.5181204080581665,1.306096076965332
1773522826784038400,10.033038330078124,-0.2382972091436386,1.8580107688903809,1.2892650365829468
1773522826794076200,10.043076171875,-0.24069537222385406,2.029568910598755,1.2744826078414917
1773522826804114400,10.053114501953125,-0.22380037605762482,1.9567276239395142,1.19136381149292
1773522826814152200,10.063152099609376,-0.20884859561920166,1.6350635290145874,1.0181344747543335
1773522826824191200,10.073191162109374,-0.2197243869304657,1.108805537223816,0.7691256403923035
1773522826834229200,10.083229248046875,-0.23038341104984283,0.508535623550415,0.49126794934272766
1773522826844267300,10.093267333984375,-0.2045438438653946,-0.0005443659611046314,0.23839358985424042
1773522826854305300,10.10330517578125,-0.14620012044906616,-0.2780473530292511,0.0067137666046619415
1773522826864344300,10.11334423828125,-0.0818607285618782,-0.2806169092655182,-0.17762310802936554
1773522826874382300,10.12338232421875,-0.01841411180794239,-0.1325315535068512,-0.3332310914993286
1773522826884420400,10.13342041015625,-0.014486594125628471,-0.07960133254528046,-0.466741681098938
1773522826894458400,10.143458251953126,-0.05316315218806267,-0.21887508034706116,-0.5509910583496094
1773522826904497400,10.153497314453125,-0.11164587736129761,-0.5722266435623169,-0.5979299545288086
1773522826914535200,10.16353515625,-0.1915321946144104,-1.0740631818771362,-0.5912140011787415
1773522826924573000,10.173572998046875,-0.2164844274520874,-1.5532780885696411,-0.5487428903579712
1773522826934611000,10.18361083984375,-0.1668335199356079,-1.8170002698898315,-0.5114898085594177
1773522826944650000,10.19364990234375,-0.10291463136672974,-1.8242337703704834,-0.5405802130699158
1773522826954687700,10.203687744140625,-0.061450015753507614,-1.6804198026657104,-0.6522883772850037
1773522826964726000,10.21372607421875,-0.04841522499918938,-1.5787490606307983,-0.8081101775169373
1773522826974763800,10.223763671875,-0.03639717772603035,-1.5893508195877075,-0.9789186716079712
1773522826984803000,10.233802978515625,-0.013163337484002113,-1.6623623371124268,-1.1466306447982788
1773522826994840800,10.2438408203125,0.015223030000925064,-1.7230068445205688,-1.3072198629379272
1773522827004879000,10.253879150390626,0.06964177638292313,-1.7384461164474487,-1.427199363708496
1773522827014916900,10.263916748046874,0.17187733948230743,-1.7443205118179321,-1.4790217876434326
1773522827024956000,10.273955810546875,0.2967161536216736,-1.797970175743103,-1.4064342975616455
1773522827034994000,10.283993896484375,0.3836457133293152,-1.901089072227478,-1.1427546739578247
1773522827045032000,10.294031982421876,0.3834230899810791,-1.976442575454712,-0.6329030990600586
1773522827055070000,10.304070068359374,0.2915964722633362,-1.980770468711853,-0.02097446471452713
1773522827065109000,10.31410888671875,0.18670614063739777,-1.7902692556381226,0.38422223925590515
1773522827075147000,10.32414697265625,0.19432410597801208,-1.3001370429992676,0.4963541030883789
1773522827085185000,10.33418505859375,0.29890820384025574,-0.4873552620410919,0.42077285051345825
1773522827095223000,10.34422314453125,0.4578682780265808,0.450314998626709,0.23155523836612701
1773522827105262000,10.354261962890625,0.4892338514328003,1.211888313293457,-0.02754814922809601
1773522827115299800,10.3642998046875,0.3819449543952942,1.5968490839004517,-0.17650912702083588
1773522827125337900,10.374337890625,0.20226845145225525,1.6428378820419312,-0.11539054661989212
1773522827135376000,10.3843759765625,0.025136541575193405,1.2299598455429077,0.06054000183939934
1773522827145415000,10.394414794921875,-0.14192622900009155,0.21828195452690125,0.30516383051872253
1773522827155453000,10.404452880859376,-0.299961656332016,-1.4082005023956299,0.6483409404754639
1773522827165491000,10.414490966796874,-0.34064188599586487,-3.179112434387207,1.2496678829193115
1773522827175529000,10.424529052734375,-0.0988721176981926,-4.56804895401001,2.5014514923095703
1773522827185567700,10.434567626953125,0.20013342797756195,-4.48246955871582,4.203603267669678
1773522827195606000,10.44460595703125,0.12407940626144409,-2.1784725189208984,4.517139911651611
1773522827205643800,10.454643798828124,-0.2600514590740204,-0.19669823348522186,3.7036473751068115
1773522827215682000,10.46468212890625,-0.667259693145752,0.7349756360054016,2.8243210315704346
1773522827225719800,10.4747197265625,-0.8964740633964539,1.1357899904251099,2.1038200855255127
1773522827235759000,10.484759033203124,-0.9108806848526001,1.2756448984146118,1.5290813446044922
1773522827245796900,10.494796875,-0.7239850759506226,1.4156204462051392,1.2493782043457031
1773522827255835000,10.5048349609375,-0.5116243362426758,1.3378760814666748,1.683269739151001
1773522827265873000,10.514872802734375,-0.4243334233760834,1.5498669147491455,2.5770673751831055
1773522827275912000,10.524911865234374,-0.3055068850517273,1.7251726388931274,3.0879220962524414
1773522827285950000,10.534949951171875,-0.08080624788999557,1.7888022661209106,3.0251474380493164
1773522827295988000,10.544988037109375,0.19787998497486115,1.9130691289901733,2.667170763015747
1773522827306026000,10.55502587890625,0.5250027775764465,2.191103935241699,2.0652966499328613
1773522827316064800,10.565064697265624,0.8302084803581238,2.34053897857666,1.4176640510559082
1773522827326103000,10.57510302734375,1.1284579038619995,2.2339909076690674,0.8986735343933105
1773522827336140800,10.585140869140625,1.4405640363693237,2.214414358139038,0.5801722407341003
1773522827346179000,10.595178955078126,1.6867270469665527,2.364718198776245,0.5750872492790222
1773522827356217900,10.6052177734375,1.7145112752914429,2.4945225715637207,0.8931576013565063
1773522827366255900,10.615255859375,1.5136322975158691,2.1526920795440674,1.293949842453003
1773522827376294000,10.6252939453125,1.1349188089370728,1.5777640342712402,1.468569278717041
1773522827386332200,10.635332275390626,0.720663845539093,1.0774712562561035,1.503554105758667
1773522827396371000,10.645370849609375,0.4728364944458008,0.5964913368225098,1.7083027362823486
1773522827406409000,10.655408935546875,0.37323829531669617,0.0828254222869873,2.1793601512908936
1773522827416447000,10.665447021484376,0.14890184998512268,-0.4571440517902374,2.5492687225341797
1773522827426484700,10.675484619140626,-0.13022644817829132,-0.7539753913879395,2.6178364753723145
1773522827436524000,10.68552392578125,-0.2810886800289154,-0.839414119720459,2.644185781478882
1773522827446562000,10.69556201171875,-0.2870214283466339,-0.8398779034614563,2.712127923965454
1773522827456600000,10.70560009765625,-0.2237367331981659,-0.7551406621932983,2.6066858768463135
1773522827466637800,10.715637939453124,-0.1314358115196228,-0.5554063320159912,2.3396618366241455
1773522827476676900,10.7256767578125,-0.03505334630608559,-0.16566790640354156,1.98715078830719
1773522827486715000,10.73571484375,0.007971140556037426,0.2851485013961792,1.6641682386398315
1773522827496753000,10.7457529296875,-0.008547916077077389,0.6041550040245056,1.4438297748565674
1773522827506791000,10.755791015625,-0.10481151193380356,0.9418150186538696,1.2426053285598755
1773522827516829000,10.765828857421875,-0.12268904596567154,1.1709794998168945,1.1554219722747803
1773522827526868000,10.775867919921875,0.0010013086721301079,1.1534353494644165,1.2017933130264282
1773522827536906000,10.785906005859376,0.1965407133102417,1.1578924655914307,1.1781196594238281
1773522827546944000,10.795944091796875,0.3804652690887451,1.1369396448135376,1.1202718019485474
1773522827556982000,10.80598193359375,0.48534560203552246,0.9549095630645752,1.1381959915161133
1773522827567020800,10.816020751953126,0.4226178228855133,0.7256596088409424,1.1719499826431274
1773522827577059000,10.82605908203125,0.26325079798698425,0.41059166193008423,1.1604962348937988
1773522827587096800,10.836096923828125,0.11089234799146652,0.029966605827212334,1.2042293548583984
1773522827597134800,10.846134765625,-0.02485269494354725,-0.2875692844390869,1.345837950706482
1773522827607174000,10.856173828125,-0.15570178627967834,-0.7024340033531189,1.5469108819961548
1773522827617212000,10.8662119140625,-0.23765550553798676,-1.0359930992126465,1.6849068403244019
1773522827627250000,10.87625,-0.3446165919303894,-1.023306131362915,1.6467058658599854
1773522827637288000,10.886287841796875,-0.37056776881217957,-0.801099419593811,1.5462878942489624
1773522827647327000,10.896326904296876,-0.33676525950431824,-0.4911094009876251,1.4283305406570435
1773522827657364700,10.90636474609375,-0.29096952080726624,-0.32172489166259766,1.3519513607025146
1773522827667403000,10.916403076171875,-0.3319229483604431,-0.25982069969177246,1.303440809249878
1773522827677440800,10.926440673828125,-0.3992338180541992,-0.32950711250305176,1.2905751466751099
1773522827687479000,10.93647900390625,-0.40959641337394714,-0.40908145904541016,1.277233600616455
1773522827697517800,10.946517822265625,-0.44350698590278625,-0.19125646352767944,1.1920584440231323
1773522827707556000,10.95655615234375,-0.4330860674381256,-0.12674680352210999,1.201741099357605
1773522827717593900,10.96659375,-0.5455614924430847,-0.24487051367759705,1.2539020776748657
1773522827727632100,10.976632080078126,-0.8201491832733154,-0.5696849226951599,1.2925249338150024
1773522827737671000,10.9866708984375,-0.9973010420799255,-0.9746800661087036,1.459490418434143
1773522827747709000,10.996708984375,-1.0017991065979004,-1.0412189960479736,1.4161624908447266
1773522827757747000,11.006746826171875,-0.9511370062828064,-0.811648428440094,1.2278586626052856
1773522827767785000,11.016784912109374,-0.9494050145149231,-0.45490437746047974,1.0567837953567505
1773522827777824000,11.026823974609375,-0.9892200827598572,-0.37315356731414795,1.0142661333084106
1773522827787861800,11.03686181640625,-1.0635781288146973,-0.5089211463928223,0.9853036403656006
1773522827797900000,11.046900146484376,-1.1050091981887817,-0.5477867722511292,0.90233314037323
1773522827807937800,11.056937744140624,-1.0879911184310913,-0.384223610162735,0.7722174525260925
1773522827817976800,11.066976806640625,-0.9827960729598999,-0.3146812915802002,0.6684005260467529
1773522827828014800,11.077014892578125,-0.8815346360206604,-0.2630762755870819,0.5984466671943665
1773522827838052900,11.087052978515626,-0.8420681953430176,-0.3256227374076843,0.4982116222381592
1773522827848091000,11.0970908203125,-0.7838032245635986,-0.3083410859107971,0.3553673028945923
1773522827858129200,11.107129150390625,-0.6602354645729065,-0.21682128310203552,0.20647557079792023
1773522827868168000,11.11716796875,-0.37585586309432983,-0.1121235191822052,-0.06649848073720932
1773522827878206000,11.1272060546875,-0.18878930807113647,0.0748695358633995,-0.2694699764251709
1773522827888244000,11.137243896484375,-0.026460913941264153,-0.07806634902954102,-0.35043346881866455
1773522827898282000,11.147281982421875,0.15373842418193817,-0.04771536961197853,-0.47950276732444763
1773522827908321000,11.157321044921876,0.28763794898986816,-0.046358462423086166,-0.5991172194480896
1773522827918359000,11.167359130859374,0.3654419481754303,-0.08563875406980515,-0.6362009048461914
1773522827928397000,11.17739697265625,0.40884923934936523,-0.17775529623031616,-0.7029924988746643
1773522827938435000,11.18743505859375,0.466394305229187,-0.17851802706718445,-0.8109676837921143
1773522827948474000,11.19747412109375,0.5039030909538269,-0.10161246359348297,-0.9696272015571594
1773522827958512000,11.20751220703125,0.5121253728866577,-0.013590458780527115,-1.0921728610992432
1773522827968550000,11.2175498046875,0.4857637584209442,0.017759306356310844,-1.156793475151062
1773522827978588200,11.227588134765625,0.4299907684326172,-0.008210774511098862,-1.1738231182098389
1773522827988626000,11.2376259765625,0.34417712688446045,-0.037601154297590256,-1.174634337425232
1773522827998665200,11.247665283203125,0.2377803921699524,-0.046436723321676254,-1.1762561798095703
1773522828008703000,11.257702880859375,0.17947454750537872,-0.01234443299472332,-1.1980704069137573
1773522828018741200,11.2677412109375,0.10797984898090363,0.09726142138242722,-1.2333184480667114
1773522828028779000,11.277779052734376,-0.004508588463068008,0.07256849855184555,-1.1857177019119263
1773522828038818000,11.287818115234375,-0.036020174622535706,-0.008211571723222733,-1.1818222999572754
1773522828048856000,11.29785595703125,-0.10673397779464722,-0.013065716251730919,-1.2196953296661377
1773522828058894000,11.30789404296875,-0.1649022102355957,0.08349757641553879,-1.2746230363845825
1773522828068932000,11.31793212890625,-0.2062910497188568,0.09736019372940063,-1.269323706626892
1773522828078971100,11.32797119140625,-0.27402323484420776,-0.040433354675769806,-1.244916558265686
1773522828089009200,11.338009033203125,-0.3248504102230072,-0.1668713241815567,-1.2336562871932983
1773522828099047000,11.348046875,-0.3657810688018799,-0.2487374097108841,-1.1495009660720825
1773522828109085200,11.358085205078124,-0.38807302713394165,-0.3105543851852417,-1.0471601486206055
1773522828119123000,11.368123046875,-0.39479508996009827,-0.27006953954696655,-0.9803342223167419
1773522828129162000,11.378161865234375,-0.37918487191200256,-0.19024525582790375,-1.0202492475509644
1773522828139200000,11.388199951171876,-0.32993289828300476,-0.14136958122253418,-1.1022050380706787
1773522828149238000,11.398238037109374,-0.2998230457305908,-0.09548725187778473,-1.264028787612915
1773522828159276000,11.408276123046875,-0.30513766407966614,-0.028310613706707954,-1.4013205766677856
1773522828169315000,11.418315185546875,-0.34429919719696045,0.06386282294988632,-1.4777512550354004
1773522828179353000,11.42835302734375,-0.38577526807785034,0.10284963250160217,-1.539203405380249
1773522828189391000,11.43839111328125,-0.3926401138305664,0.057978302240371704,-1.5140269994735718
1773522828199429000,11.44842919921875,-0.3627677261829376,0.031279247254133224,-1.4297065734863281
1773522828209468200,11.45846826171875,-0.31765520572662354,-0.0011310914997011423,-1.3812395334243774
1773522828219506000,11.468505859375,-0.2779919505119324,0.003163788467645645,-1.3901915550231934
1773522828229544200,11.478544189453125,-0.25442740321159363,0.05308963358402252,-1.4495331048965454
1773522828239582000,11.48858203125,-0.253537654876709,0.03622596710920334,-1.5341435670852661
1773522828249620000,11.498619873046875,-0.25298255681991577,-0.0596773587167263,-1.6355096101760864
1773522828259659000,11.508658935546874,-0.22979971766471863,-0.12976697087287903,-1.6862223148345947
1773522828269697000,11.518697021484375,-0.19229406118392944,-0.012625028379261494,-1.7397260665893555
1773522828279735000,11.528735107421875,-0.1694105863571167,0.07826466113328934,-1.782048225402832
1773522828289773000,11.53877294921875,-0.19144068658351898,0.0581987090408802,-1.7823504209518433
1773522828299812000,11.54881201171875,-0.2353796362876892,-0.03637227043509483,-1.7415635585784912
1773522828309849900,11.558849853515625,-0.31039392948150635,-0.15648695826530457,-1.6737957000732422
1773522828319888100,11.56888818359375,-0.38944026827812195,-0.2007359117269516,-1.6393040418624878
1773522828329926000,11.57892578125,-0.469730019569397,-0.2183683067560196,-1.642433524131775
1773522828339964200,11.588964111328124,-0.5438718795776367,-0.23029448091983795,-1.66796875
1773522828350003000,11.5990029296875,-0.5689598917961121,-0.2594582140445709,-1.6600844860076904
1773522828360041200,11.609041259765625,-0.5968320369720459,-0.26416561007499695,-1.6470695734024048
1773522828370079000,11.619078857421876,-0.6331251859664917,-0.2817988693714142,-1.5987745523452759
1773522828380117200,11.6291171875,-0.6534384489059448,-0.33690953254699707,-1.5522440671920776
1773522828390156000,11.639156005859375,-0.6588178873062134,-0.4017179310321808,-1.5352946519851685
1773522828400194000,11.649194091796875,-0.6254516243934631,-0.4618467688560486,-1.5334171056747437
1773522828410232000,11.659232177734374,-0.5910409688949585,-0.5326026082038879,-1.5339064598083496
1773522828420270000,11.66927001953125,-0.5870499014854431,-0.5942148566246033,-1.5176953077316284
1773522828430309000,11.67930908203125,-0.611927330493927,-0.7059757709503174,-1.5086697340011597
1773522828440347000,11.689346923828126,-0.6312645077705383,-0.837576687335968,-1.5149915218353271
1773522828450385200,11.69938525390625,-0.6554368734359741,-0.9025969505310059,-1.5263243913650513
1773522828460423000,11.7094228515625,-0.6413503289222717,-0.9382495284080505,-1.5392290353775024
1773522828470461200,11.719461181640625,-0.6061103940010071,-0.9801067113876343,-1.5427173376083374
1773522828480500000,11.7295,-0.5554149746894836,-0.988506555557251,-1.5414988994598389
1773522828490538200,11.739538330078124,-0.46971699595451355,-0.9738236665725708,-1.5458413362503052
1773522828500576000,11.749575927734375,-0.37350019812583923,-0.9458346366882324,-1.579638123512268
1773522828510614300,11.7596142578125,-0.2885468304157257,-0.929790735244751,-1.632949948310852
1773522828520653000,11.769653076171876,-0.19686830043792725,-0.9015061259269714,-1.7103980779647827
1773522828530691000,11.779691162109375,-0.10103826969861984,-0.8750377297401428,-1.7974289655685425
1773522828540729000,11.78972900390625,0.014785535633563995,-0.8273591995239258,-1.879125952720642
1773522828550766800,11.799766845703125,0.14524179697036743,-0.758801281452179,-1.9617655277252197
1773522828560806100,11.80980615234375,0.2627606987953186,-0.6213566064834595,-2.0598013401031494
1773522828570844200,11.81984423828125,0.32922324538230896,-0.46060073375701904,-2.177980899810791
1773522828580882200,11.829882080078125,0.3582852780818939,-0.3755524158477783,-2.2903671264648438
1773522828590920000,11.839919921875,0.36046484112739563,-0.3659496307373047,-2.385329008102417
1773522828600958200,11.849958251953124,0.34814077615737915,-0.38204044103622437,-2.4474308490753174
1773522828610997000,11.8599970703125,0.3851034939289093,-0.4636784493923187,-2.451869487762451
1773522828621035000,11.870034912109375,0.40428438782691956,-0.5463986396789551,-2.391310930252075
1773522828631073000,11.880072998046876,0.41653430461883545,-0.5957717299461365,-2.298997640609741
1773522828641111000,11.890111083984374,0.4267027676105499,-0.6051026582717896,-2.1961352825164795
1773522828651150000,11.900150146484375,0.429216206073761,-0.6428237557411194,-2.140403985977173
1773522828661188000,11.91018798828125,0.43993914127349854,-0.7510759234428406,-2.1340672969818115
1773522828671226000,11.92022607421875,0.4623267352581024,-0.8989311456680298,-2.149665594100952
1773522828681264000,11.93026416015625,0.5033301115036011,-1.0866214036941528,-2.185269594192505
1773522828691303000,11.940302978515625,0.542759358882904,-1.2454500198364258,-2.202666759490967
1773522828701341200,11.950341064453125,0.5576608180999756,-1.2967143058776855,-2.1662614345550537
1773522828711379000,11.96037890625,0.5407357215881348,-1.2183258533477783,-2.0609772205352783
1773522828721417000,11.9704169921875,0.5006884336471558,-1.013327956199646,-1.8732978105545044
1773522828731455000,11.980455078125,0.45398974418640137,-0.7639948129653931,-1.6256996393203735
1773522828741494300,11.990494384765626,0.4040887653827667,-0.5369704365730286,-1.366904854774475
1773522828751532000,12.000531982421874,0.35597050189971924,-0.37249836325645447,-1.1544220447540283
1773522828761570000,12.010570068359375,0.31265100836753845,-0.2624288499355316,-1.0075942277908325
1773522828771608000,12.020608154296875,0.271106094121933,-0.21681557595729828,-0.9289096593856812
1773522828781646800,12.030646728515626,0.24597570300102234,-0.24433214962482452,-0.9144087433815002
1773522828791685000,12.04068505859375,0.24982771277427673,-0.3445405960083008,-0.9275923371315002
1773522828801723000,12.050722900390625,0.2791919708251953,-0.44442084431648254,-0.8966701030731201
1773522828811761200,12.06076123046875,0.31277018785476685,-0.4640994966030121,-0.786333441734314
1773522828821799000,12.070798828125,0.3610924482345581,-0.3753475248813629,-0.6086516380310059
1773522828831838200,12.080838134765624,0.4314049184322357,-0.1970958113670349,-0.4068022072315216
1773522828841876000,12.0908759765625,0.4817115068435669,0.004758489318192005,-0.2187792956829071
1773522828851914200,12.100914306640625,0.47259190678596497,0.18912486732006073,-0.037185925990343094
1773522828861952000,12.110951904296876,0.4209529459476471,0.34253811836242676,0.14797113835811615
1773522828871991000,12.120990966796874,0.32923418283462524,0.4540788531303406,0.32279759645462036
1773522828882029000,12.131029052734375,0.20902255177497864,0.47939035296440125,0.4616803824901581
1773522828892067000,12.141067138671875,0.10555276274681091,0.39450234174728394,0.5383540391921997
1773522828902105000,12.15110498046875,0.05052706226706505,0.2353435903787613,0.5552501678466797
1773522828912144000,12.161143798828125,0.021822167560458183,0.06320984661579132,0.5539517998695374
1773522828922182400,12.171182373046875,0.023232312873005867,-0.08923375606536865,0.549874484539032
1773522828932220200,12.18122021484375,0.05557482689619064,-0.1690157800912857,0.5788447856903076
1773522828942258400,12.191258544921874,0.11650688201189041,-0.16409797966480255,0.6322464942932129
1773522828952296200,12.201296142578125,0.20566540956497192,-0.10709314048290253,0.6785639524459839
1773522828962335200,12.211335205078125,0.27155575156211853,-0.020147860050201416,0.6931836605072021
1773522828972373200,12.221373291015626,0.29249000549316406,0.10468155890703201,0.6771425008773804
1773522828982411300,12.231411376953124,0.25447338819503784,0.27212995290756226,0.6279469728469849
1773522828992449300,12.24144921875,0.18353167176246643,0.4489171802997589,0.5229303240776062
1773522829002488300,12.25148828125,0.11088834702968597,0.5720462799072266,0.3626205027103424
1773522829012526300,12.2615263671875,0.06787630170583725,0.5814481973648071,0.17152081429958344
1773522829022564400,12.271564453125,0.0475129708647728,0.4776836633682251,-0.03980446979403496
1773522829032602400,12.281602294921875,-0.0004429491236805916,0.2874443531036377,-0.2559298276901245
1773522829042640100,12.29164013671875,-0.0641699954867363,0.055344000458717346,-0.42831650376319885
1773522829052679400,12.301679443359374,-0.12107620388269424,-0.19056157767772675,-0.538708508014679
1773522829062717200,12.31171728515625,-0.18086417019367218,-0.41327452659606934,-0.5692639946937561
1773522829072755500,12.32175537109375,-0.23380903899669647,-0.5730462074279785,-0.5224248170852661
1773522829082793200,12.331793212890625,-0.25514575839042664,-0.6415266990661621,-0.41497936844825745
1773522829092832300,12.341832275390624,-0.2148234248161316,-0.5731521844863892,-0.23403310775756836
1773522829102870300,12.351870361328125,-0.12990319728851318,-0.3481614589691162,0.003752282587811351
1773522829112908300,12.361908203125,-0.03329877182841301,0.004473397973924875,0.2259480357170105
1773522829122946300,12.3719462890625,0.029853031039237976,0.3438754379749298,0.34835678339004517
1773522829132985300,12.3819853515625,0.05784228816628456,0.579066276550293,0.35803112387657166
1773522829143023400,12.3920234375,0.07164279371500015,0.6710766553878784,0.2940678596496582
1773522829153061400,12.402061279296875,0.08084117621183395,0.6517126560211182,0.20635898411273956
1773522829163099400,12.412099365234376,0.09060565382242203,0.5797985196113586,0.14882537722587585
1773522829173137400,12.422137451171874,0.09651920199394226,0.46059149503707886,0.11529119312763214
1773522829183176200,12.43217626953125,0.1135605126619339,0.2918272316455841,0.08691520988941193
1773522829193214500,12.44221435546875,0.1430540680885315,0.06993386149406433,0.03216272220015526
1773522829203252200,12.452252197265626,0.17208784818649292,-0.1526227742433548,-0.050714850425720215
1773522829213290200,12.462290283203124,0.18788939714431763,-0.29774606227874756,-0.12423109263181686
1773522829223329300,12.472329345703125,0.19816920161247253,-0.34325549006462097,-0.15988071262836456
1773522829233367300,12.4823671875,0.19973410665988922,-0.30989688634872437,-0.11507447808980942
1773522829243405300,12.4924052734375,0.1703898012638092,-0.20899024605751038,0.055004313588142395
1773522829253443300,12.502443359375,0.1065259724855423,-0.04720630869269371,0.3345152735710144
1773522829263481300,12.5124814453125,0.03985613211989403,0.17440970242023468,0.6551411747932434
1773522829273520000,12.52252001953125,0.00021875090897083282,0.41542965173721313,0.9354771375656128
1773522829283558400,12.532558349609374,-0.011243760585784912,0.6052882671356201,1.1247879266738892
1773522829293596200,12.54259619140625,-0.011643652804195881,0.7229722738265991,1.2287906408309937
1773522829303634400,12.552634521484375,-0.010096356272697449,0.7466349601745605,1.292248249053955
1773522829313673200,12.562673095703126,-0.00007889419794082642,0.7021751999855042,1.332745909690857
1773522829323711500,12.57271142578125,0.02204771339893341,0.6110967397689819,1.3635509014129639
