time,seconds_elapsed,roll,rotationRateZ,quaternionY,rotationRateY,quaternionZ,quaternionW,yaw,devicelocation,accelerationZ,pitch,gravityX,gravityZ,quaternionX,rotationRateX,accelerationX,gravityY,accelerationY
1773522817141440500,0.3904404296875,-0.8490959622559363,-1.0899866819381714,-0.41088504497938666,0.11146230250597,1.8601641594403898e-17,0.9106627059721975,-0.03562469737542808,right,-0.33034878969192505,-0.07877653214275619,-7.338859372019767,-6.4587886018604035,-0.04320758887925248,0.6132861375808716,0.7571768760681152,0.7717351177986711,0.029025651514530182
1773522817181440500,0.4304404296875,-0.27849462754710047,-0.8837013244628906,-0.1453942964845225,0.08852197974920273,0.1070661580873362,0.9813947077796586,0.19486785736397114,right,-0.09198188781738281,-0.15994855138041117,-2.661520471444726,-9.30844913393855,-0.06528147973588541,0.48821747303009033,0.2603468596935272,1.5618798986434936,-0.07631918042898178
1773522817221440500,0.4704404296875,-0.10214201804053645,-0.7561274766921997,-0.059699790834334084,0.15459129214286804,0.12961684449647715,0.9875818280061661,0.25353692502336656,right,-0.03222888708114624,-0.14577701094101442,-0.9893245602782815,-9.652064418444036,-0.0657085024446998,0.4970172345638275,0.09002970904111862,1.4245263146564364,-0.09165436029434204
1773522817261440500,0.5104404296875,-0.04161493754130328,-0.6974149942398071,-0.028221684372019027,0.19593319296836853,0.13107514075608404,0.9894195394674936,0.2609749890380856,right,0.003256559371948242,-0.11734197345507032,-0.4051800890693441,-9.73078081228435,-0.0554236847570686,0.5055602788925171,0.02560942992568016,1.1480928343463688,-0.07241649180650711
1773522817301440500,0.5504404296875,-0.02330313330469255,-0.6778654456138611,-0.017174208154937913,0.17725428938865662,0.12656356467426016,0.9908870424304751,0.25303888626978566,right,0.02251368761062622,-0.08923263884590518,-0.22759618323640896,-9.764981188049912,-0.04277329591231356,0.5033917427062988,0.004092087969183922,0.8739125397905707,-0.05638255551457405
1773522817341440500,0.5904404296875,-0.004807129915496944,-0.6583158373832703,-0.006121501234114399,0.1585753858089447,0.12201336017663612,0.9920527450477762,0.24460511191892506,right,0.040644168853759766,-0.061273311015603155,-0.047053505229693836,-9.788133515578508,-0.03010987454913513,0.5012232065200806,-0.0177269596606493,0.6005100612068548,-0.04042793810367584
1773522817381440500,0.6304404296875,-0.004999943064475371,-0.48666101694107056,-0.002939664780052993,0.13804011046886444,0.09488151532842345,0.9954740219578048,0.19002788310053043,right,0.025466859340667725,-0.009507701213039343,-0.049030591156054286,-9.806084182810784,-0.004495204332241085,0.40769532322883606,-0.07850301265716553,0.09323735148538835,-0.09428863227367401
1773522817421440300,0.670440185546875,-0.010516466523862872,-0.40306228399276733,-0.005027946752056733,0.07798518240451813,0.08810370638092939,0.9960945110513569,0.17646414701875013,right,-0.013231396675109863,0.004761744106275603,-0.10312855783742853,-9.80599650452733,0.002834915531370658,0.29722437262535095,-0.07647628337144852,-0.046696526751876806,-0.05392301082611084
1773522817461440500,0.7104404296875,-0.02686036766882218,-0.4329948425292969,-0.012123502205975552,0.0176716186106205,0.07859880291756671,0.9966871945108893,0.1578247646583171,right,-0.027806639671325684,0.03204176887681505,-0.2632436890703626,-9.798080909097195,0.017027444578088722,0.08259949088096619,-0.05541176348924637,-0.31416860607303676,0.017068922519683838
1773522817501440500,0.7504404296875,-0.036618358392053955,-0.46782946586608887,-0.01673889379500727,0.05936587229371071,0.07231973771408984,0.9969954068942517,0.14558579857393802,right,-0.0009652972221374512,0.041721388116358706,-0.358711073763296,-9.791547707936168,0.022131691776875913,0.07563077658414841,-0.03152339160442352,-0.40902832546271384,0.022145798429846764
1773522817541440500,0.7904404296875,-0.046168300888298944,-0.45637398958206177,-0.021676812951209823,0.06696582585573196,0.061664047011490364,0.9975923036378581,0.1244752426707093,right,0.018637537956237793,0.04359000463556454,-0.45216596785634755,-9.786894913694262,0.02318059274295696,0.1398610770702362,-0.023252226412296295,-0.4273365374283865,-0.0007732771337032318
1773522817581440500,0.8304404296875,-0.048148868036723906,-0.4228948652744293,-0.02280073862262316,0.054253917187452316,0.054819484030612514,0.9979596616800607,0.11082164070064444,right,0.007342278957366943,0.04438101027473119,-0.47153223750758916,-9.785639360675216,0.02348105520117657,0.1680292934179306,-0.023639202117919922,-0.4350861286418512,-0.004140909761190414
1773522817621440500,0.8704404296875,-0.050129653542510914,-0.3937869668006897,-0.02389376509790535,0.052793409675359726,0.045303697993864994,0.9983538192955803,0.09193309794658865,right,-0.009269535541534424,0.04939256429500488,-0.490799138437584,-9.78238591183722,0.02581120758924283,0.12456696480512619,-0.010090075433254242,-0.4841786243192851,0.002758186310529709
1773522817661440300,0.910440185546875,-0.05218699674201539,-0.30531129240989685,-0.02503657663761431,-0.030849289149045944,0.0374088201451097,0.9985975597412631,0.07629236176855143,right,-0.02442532777786255,0.053807177066870646,-0.5108073227215558,-9.779125448736547,0.027866278061855793,0.06757260859012604,-0.04027159512042999,-0.5274135530749335,-0.008222851902246475
1773522817701440500,0.9504404296875,-0.05431765934516916,-0.2648935914039612,-0.02616122193123183,-0.08900918066501617,0.03446302829611517,0.9986601171109049,0.07048363651276408,right,-0.025041162967681885,0.05492632082475601,-0.5316097991883755,-9.777419229340552,0.028388986405971994,0.06984296441078186,-0.047336552292108536,-0.5383723886584862,-0.013138052076101303
1773522817741440500,0.9904404296875,-0.05644190298052971,-0.2244758903980255,-0.02728559718365007,-0.1471690833568573,0.031517004115793154,0.9987123407116515,0.06467718013974365,right,-0.025663137435913086,0.05605777931990215,-0.5523434847353026,-9.77565338871181,0.028911400265779347,0.07211332768201828,-0.054408520460128784,-0.5494511242946609,-0.018041037023067474
1773522817781440500,1.0304404296875,-0.06894955080293767,-0.2128116339445114,-0.03366424917622592,-0.07153692841529846,0.02394828922704933,0.9986383587537212,0.05009313003441266,right,0.014547169208526611,0.06204270550904466,-0.6743288557313383,-9.764525260975956,0.03185102569582784,0.09949640929698944,-0.023290112614631653,-0.6080408220378681,-0.02785562351346016
1773522817821440500,1.0704404296875,-0.07368977502479146,-0.13655555248260498,-0.03606735753256272,-0.06376242637634277,0.020993244654181387,0.9985480264291081,0.044495689626556555,right,0.003947138786315918,0.06655823470643812,-0.7203976562060416,-9.75838135139346,0.03406117851292051,0.10189035534858704,-0.025790303945541382,-0.6522315171483903,-0.024432547390460968
1773522817861440500,1.1104404296875,-0.0772888535682727,-0.06943552941083908,-0.0378742604707898,-0.034621380269527435,0.018823304982318902,0.9984301019172708,0.04048498811233575,right,0.007438957691192627,0.07196552108953412,-0.7552307769171893,-9.752066176897287,0.03672227823994373,0.0681077316403389,-0.02759406715631485,-0.7051316249478607,-0.02844524383544922
1773522817901440300,1.150440185546875,-0.08010905356729064,-0.01828673854470253,-0.0392601855536848,-0.011846540495753288,0.018260410723353306,0.9983193453946363,0.039607261333425764,right,0.005138754844665527,0.0755464630413589,-0.7825234191209077,-9.747318105587363,0.0385189556195171,0.047970786690711975,-0.02130761742591858,-0.7401531809031963,-0.022002987563610077
1773522817941440500,1.1904404296875,-0.0827664512244574,0.03399749845266342,-0.04052662528287762,0.012723363935947418,0.018559091220450796,0.998183147558916,0.04047559405221932,right,0.003609895706176758,0.07951344113020797,-0.8081740662712603,-9.742201785486936,0.04054063459500917,0.06962866336107254,-0.0034946128726005554,-0.7789390578281133,-0.027509719133377075
1773522817981440500,1.2304404296875,-0.08396924974781482,0.09300500899553299,-0.04099041192136645,0.019751548767089844,0.020018840044551116,0.998005990621008,0.043707864022611495,right,-0.005853474140167236,0.08553768813148534,-0.8194828843362629,-9.736370010593532,0.043624276419242755,0.11877977102994919,-0.007987640798091888,-0.8378156096886843,-0.03482639789581299
1773522818021440500,1.2704404296875,-0.08482490451297892,0.10406787693500519,-0.0412831022976816,-0.007594829425215721,0.021774639914681943,0.9978610661868048,0.04744351452580569,right,-0.005124032497406006,0.08966660780793875,-0.8275134844481945,-9.732135149502753,0.04577007451926356,0.10392919182777405,0.0013346374034881592,-0.8781512002736329,-0.013596028089523315
1773522818061440500,1.3104404296875,-0.08620896256695001,0.06739918887615204,-0.04179300698364094,-0.03209531307220459,0.024014123181363683,0.9976635946270346,0.052220792377982106,right,-0.007425546646118164,0.09474125972196468,-0.8405879970114678,-9.726415602812171,0.04841653901566079,0.03405379503965378,0.009846501052379608,-0.9277050663851201,-0.004765518009662628
1773522818101440500,1.3504404296875,-0.08723747688517247,0.05040126293897629,-0.042197170363563775,-0.0005937442183494568,0.02536011777578037,0.9975441525306502,0.05508890654039822,right,0.014815747737884521,0.09740541876548318,-0.8503728934448211,-9.723049341249466,0.049818203306818375,0.057359497994184494,0.023084372282028198,-0.9537110297791659,-0.019892267882823944
1773522818141440500,1.3904404296875,-0.08661415150642324,0.04727158695459366,-0.041819327293858725,0.013454407453536987,0.026163412217269606,0.9974955480155235,0.05674389271856981,right,0.012256979942321777,0.09909510611300737,-0.8441715545866638,-9.72195803888142,0.050687582269425685,0.06587907671928406,0.02408565953373909,-0.9702013421352952,-0.013338267803192139
1773522818181440500,1.4304404296875,-0.08542042799526461,0.05012897029519081,-0.04112605604616031,-0.007536310702562332,0.027192387824432524,0.9974236428507743,0.05886984100719077,right,-0.0020660758018493652,0.10188847454757696,-0.8323311138629913,-9.720220839825272,0.05210870507610663,0.03782305493950844,0.020765624940395355,-0.9974567210685461,-0.014770247042179108
1773522818221440500,1.4704404296875,-0.08510887224327571,0.08829019218683243,-0.04085353447142083,-0.043893881142139435,0.028710801365345973,0.997332299432632,0.06199357572714383,right,-0.006180167198181152,0.10404578852099332,-0.8291178509049117,-9.718312960377334,0.05324405944048162,0.016910789534449577,0.015149392187595367,-1.0185006781410426,-0.03129363805055618
1773522818261440500,1.5104404296875,-0.08508845331060377,0.10029959678649902,-0.040756864828043346,-0.02432755008339882,0.03007184043036192,0.9972731331620175,0.06475506234526689,right,-0.012906968593597412,0.10479509179212851,-0.8288543045978992,-9.717566525924205,0.05367368840716311,0.012575809843838215,0.013076983392238617,-1.0258088091973214,-0.027608826756477356
1773522818301440500,1.5504404296875,-0.08470263318270588,0.08442248404026031,-0.040404303996230184,0.023979850113391876,0.032486961991433874,0.9971645601638697,0.0696467560875017,right,0.012027740478515625,0.10635263360207865,-0.8249688414666801,-9.716281746810674,0.054543395904545995,0.011888762004673481,0.020462170243263245,-1.0409980488922446,-0.00946170836687088
1773522818341440500,1.5904404296875,-0.08331224046830643,0.08954942226409912,-0.03964816039146943,0.02458075061440468,0.03358584698759471,0.9971508271701425,0.07178524258850277,right,-0.008778393268585205,0.10659410431093219,-0.8114376711770892,-9.717168466517329,0.05468360001194418,-0.01944636180996895,0.006756231188774109,-1.0433526491943745,-0.006589047610759735
1773522818381440500,1.6304404296875,-0.08291326350510404,0.12436429411172867,-0.03936113927099143,-0.003960276022553444,0.03577977909265617,0.9971221180283397,0.07609905514085243,right,0.008707940578460693,0.1051033160654879,-0.8076886208418756,-9.71903075325787,0.0540187501190872,-0.05843872204422951,-0.001682780683040619,-1.028814786080271,-0.008408702909946442
1773522818421440300,1.670440185546875,-0.08263634609255265,0.1297270506620407,-0.03910014918545869,0.04484777897596359,0.0391428931025177,0.9970683051464456,0.08271776893194335,right,0.025552809238433838,0.10252091805206939,-0.8052138282261788,-9.721869776076078,0.05285616146155213,-0.019638124853372574,-0.0052612051367759705,-1.0036264957446603,-0.021436266601085663
1773522818461440500,1.7104404296875,-0.0820921082239676,0.16447623074054718,-0.03870773896079827,0.03934044390916824,0.041413458265039164,0.9969862193762161,0.08724609900199312,right,0.006152331829071045,0.1025795862295078,-0.7999178407099098,-9.722247961738706,0.05296252911826721,0.00401151180267334,-0.01708773523569107,-1.0041988157398998,-0.036610737442970276
1773522818501440500,1.7504404296875,-0.08227223119710814,0.22719362378120422,-0.038572771116490635,0.008006885647773743,0.045655819685834244,0.9967984631067375,0.09576475820961793,right,-0.011765241622924805,0.10253172340183167,-0.8016730138141661,-9.722151515626907,0.05310718075074781,-0.026615599170327187,-0.0251445472240448,-1.0037318558152764,-0.03696301579475403
1773522818541440500,1.7904404296875,-0.08401256948617156,0.3029066026210785,-0.03917589609224319,-0.010324399918317795,0.05150651779360961,0.9965217509088987,0.10752017087114393,right,-0.007227897644042969,0.10078022265460372,-0.8187379111878573,-9.722478263363241,0.052505295973440565,-0.10291807353496552,-0.03831372410058975,-0.9866441620878875,-0.020184464752674103
1773522818581440500,1.8304404296875,-0.08670507956902761,0.35849881172180176,-0.04038266101975403,-0.05697740241885185,0.0566172441129683,0.9962953928057398,0.11771762760434491,right,-0.007194936275482178,0.09638048886337763,-0.8452804656766355,-9.724469144919514,0.050589439931065246,-0.18520867824554443,-0.03824697434902191,-0.9437070837676524,-0.010853976011276245
1773522818621440500,1.8704404296875,-0.0914202889700825,0.40929609537124634,-0.042637378927905735,-0.03486168384552002,0.0647755578513907,0.9959047490256379,0.1338901167812617,right,0.013570785522460938,0.08715669454476449,-0.8918805965490638,-9.728630356252193,0.046475384302446604,-0.2251455932855606,-0.03261855989694595,-0.8536334296107292,-0.0015601962804794312
1773522818661440300,1.910440185546875,-0.0963110902648998,0.4709393382072449,-0.04505376663802852,-0.06348026543855667,0.07465543070158535,0.9953257810360732,0.15339539169487454,right,0.0017965435981750488,0.07598529228682697,-0.9403088926967232,-9.73303706677854,0.04151364883466343,-0.21724562346935272,-0.04772830754518509,-0.7444443022258579,-0.03163030743598938
1773522818701440500,1.9504404296875,-0.09961077754479877,0.5275899767875671,-0.046701820194680436,-0.06271866708993912,0.08138503334450145,0.9948387670331891,0.16670635834060235,right,0.008534014225006104,0.06929200578497371,-0.972893430763483,-9.734621121099591,0.038618432686467995,-0.2201995849609375,-0.052382126450538635,-0.678978727363795,-0.025311186909675598
1773522818741440500,1.9904404296875,-0.10397738195227446,0.5379371047019958,-0.04887272404892441,-0.04671537131071091,0.0918601172815387,0.9939532487239213,0.18747831249436642,right,0.003672301769256592,0.06078490236264741,-1.0159539893329144,-9.735673260501027,0.035075284630161054,-0.16988605260849,-0.053990915417671204,-0.595729183605872,-0.023295436054468155
1773522818781440500,2.0304404296875,-0.1094076918340214,0.4821974039077759,-0.05154753971679842,-0.03430376574397087,0.10369298418891233,0.9927493109674596,0.21106809537672772,right,0.005763232707977295,0.0533522891075592,-1.069260412910953,-9.734145320281385,0.03224238864965928,-0.09767033159732819,-0.05176597833633423,-0.5229589848188683,-0.029147207736968994
1773522818821440500,2.0704404296875,-0.11440983671265864,0.4048914313316345,-0.05404069235856884,-0.01761423423886299,0.11475191045206086,0.9914708557283615,0.233145620738656,right,0.005095541477203369,0.04701323321504811,-1.1182944198668003,-9.731772745931147,0.029954719149194186,-0.1152590811252594,-0.02699536830186844,-0.4608724214032292,-0.008705954998731613
1773522818861440500,2.1104404296875,-0.11676049693863409,0.3972063362598419,-0.05533211114672457,-0.016675982624292374,0.1205361140835051,0.9907702704477934,0.2445919486156789,right,0.005148351192474365,0.042148940574495426,-1.141415110148117,-9.73122855605185,0.027996145438062215,-0.1616518199443817,-0.012118972837924957,-0.41321744771562513,-0.02722281590104103
1773522818901440300,2.150440185546875,-0.12205028110397531,0.6195673942565918,-0.05835805681522693,-0.14236992597579956,0.13032932690105173,0.9894660720484207,0.26387256435009093,right,0.007252037525177002,0.03185755479935583,-1.1933295679111033,-9.728760120111703,0.023782371222579257,-0.2708052694797516,0.01545628160238266,-0.3123629814231768,-0.06158218905329704
1773522818941440500,2.1904404296875,-0.12892219263030022,1.0842167139053345,-0.06238863206752331,-0.25063133239746094,0.1430801823602362,0.9875680156046016,0.2889768179261219,right,-0.008125603199005127,0.018843473363968615,-1.2605718701221047,-9.723538586071133,0.01857872640925377,-0.41501519083976746,0.05071146786212921,-0.1847803201430477,-0.12025051563978195
1773522818981440500,2.2304404296875,-0.14272628847893415,2.0893306732177734,-0.07116617679470405,-0.35600802302360535,0.1740359894540455,0.9821393007504626,0.34997572583808084,right,0.030671238899230957,-0.010982128383830603,-1.3948356714002788,-9.70634955086112,0.007019902546621342,-0.6529453992843628,0.134121373295784,0.10769583835350349,-0.19560441374778748
1773522819021440500,2.2704404296875,-0.15039994643762444,2.878312349319458,-0.07841472565473356,-0.319306880235672,0.2130037718318355,0.9738730563243703,0.42707941272841865,right,0.030589580535888672,-0.04744573870270538,-1.4677122531712055,-9.68503379110992,-0.007199436885706507,-0.8651870489120483,0.2010383903980255,0.4651093283206224,-0.19434580206871033
1773522819061440500,2.3104404296875,-0.15525130280352065,3.6672940254211426,-0.08551886733370523,-0.28260570764541626,0.2515792469147206,0.9638133355770435,0.5040875384945012,right,0.02953958511352539,-0.08439151416024439,-1.5109901077531278,-9.65422188873887,-0.021405510854853187,-1.0774286985397339,0.264937162399292,0.8266162433475256,-0.19350460171699524
1773522819101440500,2.3504404296875,-0.15150513377621536,4.1174139976501465,-0.0916314057309776,-0.2686123847961426,0.3028318087765233,0.9477961522229247,0.6085477398623658,right,0.034656822681427,-0.1311971272922628,-1.4673608093850314,-9.611002340215444,-0.039736005678923866,-1.1055172681808472,0.3131822347640991,1.2829166806600987,-0.16097617149353027
1773522819141440500,2.3904404296875,-0.1420989348182764,4.320826530456543,-0.09724203391949025,-0.31027960777282715,0.3558148998905785,0.9276949074526862,0.7198520346335547,right,0.01611095666885376,-0.17705944518117456,-1.3671167666085065,-9.556035070753097,-0.05763501948447746,-1.095314860343933,0.3355995714664459,1.7273019315123557,-0.11625503748655319
1773522819181440500,2.4304404296875,-0.12744543128359487,4.5242390632629395,-0.10250617880819599,-0.3519468605518341,0.4075302205931729,0.9042882423148844,0.8326143672485891,right,-0.003638029098510742,-0.2215955031709178,-1.215954656695202,-9.489269226947426,-0.0753286697926912,-1.085112452507019,0.35282471776008606,2.1553685002483425,-0.06986987590789795
1773522819221440500,2.4704404296875,-0.04989909129244034,3.873229742050171,-0.11705197966939986,-0.33125558495521545,0.5714369451841661,0.8028451483804206,1.2286372135958579,right,-0.020063042640686035,-0.33813421981768216,-0.46144254944138224,-9.23983561643958,-0.12328148756464846,-0.6879889965057373,0.29298365116119385,3.2531361187845467,0.11602604389190674
1773522819261440500,2.5104404296875,-0.013744334053153572,3.1323435306549072,-0.11945781286666142,-0.3133535385131836,0.6213044566751073,0.7623317811121746,1.3651168874789599,right,-0.029674232006072998,-0.3641510683510379,-0.1259435888362117,-9.162727242317795,-0.13623780408498984,-0.5439061522483826,0.2303445041179657,3.4926992004022,0.12924262881278992
1773522819301440500,2.5504404296875,0.01624382792001149,2.4929161071777344,-0.12161109838960965,-0.26404619216918945,0.6594822050115755,0.727395828996096,1.4760723798354591,right,-0.018766462802886963,-0.3813432034370034,0.14784795299717224,-9.100994131982326,-0.14556504236098447,-0.4157690405845642,0.18670694530010223,3.6497169775411487,0.1070311963558197
1773522819341440500,2.5904404296875,0.047815228938835136,1.9010274410247803,-0.12313291998358286,-0.16182561218738556,0.6951781052085327,0.6912286266985107,1.5860507953111842,right,-0.010178864002227783,-0.39448497914411,0.4327276924148202,-9.043098992374539,-0.15417052121105904,-0.31971070170402527,0.15146037936210632,3.7690173107042906,0.07852104306221008
1773522819381440500,2.6304404296875,0.07636648945535039,1.3835535049438477,-0.12403625472148531,-0.15492026507854462,0.7238433255506029,0.6592444508955575,1.67975821095555,right,-0.023054957389831543,-0.40326232053738575,0.6881576937932521,-8.993727350962162,-0.16143892484595881,-0.18938665091991425,0.10517554730176926,3.8483363466128706,0.02548310160636902
1773522819421440300,2.670440185546875,0.092466921005924,1.0181478261947632,-0.12400238791708638,-0.24172630906105042,0.7431295277992862,0.6369262495368345,1.743321774115315,right,-0.04162019491195679,-0.40332099146848177,0.8328443240821362,-8.981257745489478,-0.16342186645658593,-0.006695389747619629,0.07051171362400055,3.8488656311839815,-0.020539790391921997
1773522819461440500,2.7104404296875,0.09578789745186543,0.8319485187530518,-0.12457221454595584,-0.2927575707435608,0.7532471164809381,0.6252223456023994,1.7754804185693256,right,-0.03150457143783569,-0.4006970654617443,0.8636291192505509,-8.988464315867423,-0.161856790689979,-0.0065350220538675785,0.05863784998655319,3.825185188128054,-0.033341825008392334
1773522819501440500,2.7504404296875,0.09772964725834775,0.6715037226676941,-0.12600634341871425,-0.2360631823539734,0.7642688498769178,0.6119663368722928,1.810984689305705,right,-0.026015400886535645,-0.39857014351554787,0.881872705014795,-8.9948472949028,-0.15972734245259815,-0.04266738146543503,0.05209572613239288,3.805970492309332,-0.05875515937805176
1773522819541440500,2.7904404296875,0.09917306466004121,0.5909426808357239,-0.12684619417438853,-0.22310395538806915,0.7706000158595618,0.6040781591457498,1.8318862851000313,right,-0.019715726375579834,-0.39758196411015634,0.8952270574327558,-8.997302871361374,-0.1586671245330116,-0.03999160975217819,0.0423741415143013,3.7970375365301963,-0.06785163283348083
1773522819581440500,2.8304404296875,0.09986710095450181,0.4799787998199463,-0.12770438855962982,-0.23443330824375153,0.7778895330699875,0.5949700304953126,1.8557420576215828,right,-0.00983583927154541,-0.3955077261878809,0.9022546179819851,-9.004496582257747,-0.15681206176509804,-0.028742089867591858,0.032455191016197205,3.778274676132202,-0.0782935619354248
1773522819621440500,2.8704404296875,0.09974010205435717,0.3751964569091797,-0.12810205395889016,-0.2034737467765808,0.784574679360256,0.5866720331597122,1.877291986317595,right,-0.0034424662590026855,-0.39218649059273525,0.9023555941384285,-9.017047436273097,-0.1544291730451297,-0.028682973235845566,0.026260249316692352,3.7481981022983786,-0.08062973618507385
1773522819661440300,2.910440185546875,0.10011786765695509,0.2826788127422333,-0.12812505896404153,-0.13389372825622559,0.7882038271860514,0.5820915752257979,1.8891888618762396,right,-0.0065569281578063965,-0.3902267977390347,0.9064943013783544,-9.023997401541472,-0.15325840173003022,-0.053642500191926956,0.035855330526828766,3.730432143983245,-0.07031214237213135
1773522819701440500,2.9504404296875,0.10157883616455242,0.16413938999176025,-0.12824787264768728,-0.044414594769477844,0.7917021041753649,0.5774220485089654,1.9013359913028232,right,-0.01055997610092163,-0.3892706803471927,0.9200383311495184,-9.026207478806375,-0.15278732333596293,-0.07681476324796677,0.05047306418418884,3.7217590081840752,-0.06785741448402405
1773522819741440500,2.9904404296875,0.10423581875095084,0.08265434950590134,-0.1277973912544994,-0.05200556293129921,0.793685388969551,0.5746852495580159,1.9087257138559761,right,-0.04294520616531372,-0.3886477715006423,0.9442585801705717,-9.026035044848918,-0.1531930176423215,-0.042741451412439346,0.04781423509120941,3.716106681510806,-0.08627605438232422
1773522819781440500,3.0304404296875,0.10486593820676025,0.015412658452987671,-0.12704228013951535,-0.0028794407844543457,0.794247461312895,0.5741639575716746,1.910290696874156,right,-0.01977330446243286,-0.38692520437143463,0.9506145250685513,-9.031791416418551,-0.15286286850282604,0.00517355278134346,0.06065009534358978,3.700468382874131,-0.0777052640914917
1773522819821440500,3.0704404296875,0.10549269179045326,-0.05182904005050659,-0.12628698423612106,0.04624667763710022,0.7948084676987605,0.5736418926306623,1.9118532526649297,right,0.003395974636077881,-0.3852016294912656,0.9569451893948018,-9.03752265354693,-0.1525325053790131,0.053088556975126266,0.0734885185956955,3.684809918232262,-0.06913238763809204
1773522819861440500,3.1104404296875,0.10666856343755587,-0.1792624592781067,-0.12374963114745466,0.001054747961461544,0.7932387194263635,0.5764422906939426,1.905343588245643,right,-0.02089589834213257,-0.38097343724891947,0.9692216103829443,-9.051801938790083,-0.15222537904598768,0.0025870203971862793,0.0627155750989914,3.6463510082393884,-0.08029749989509583
1773522819901440300,3.150440185546875,0.10516991111496543,-0.23735225200653076,-0.12271687571329183,0.000631120172329247,0.7911869300847479,0.5796536029339533,1.89718197760744,right,-0.015910327434539795,-0.37886827862787376,0.9564587210521102,-9.060857936426997,-0.15154332282754304,0.014813453890383244,0.06784288585186005,3.6271783979967234,-0.08625033497810364
1773522819941440500,3.1904404296875,0.10263525879556402,-0.3116786479949951,-0.12104693362623842,-0.00005102396244183183,0.78774901203002,0.5849636397657962,1.8836378107584735,right,-0.008411228656768799,-0.37540816462462573,0.9347698171395807,-9.075683165115118,-0.1503880601735242,0.032516658306121826,0.07196500152349472,3.595631167088449,-0.08852538466453552
1773522819981440500,3.2304404296875,0.10124225501829348,-0.3783574104309082,-0.11972064541463105,0.040391210466623306,0.7845825865667445,0.5895887935215736,1.8718464735159965,right,-0.0009236931800842285,-0.37327616658166823,0.922899127408117,-9.084582510885596,-0.1499405010669921,0.021811652928590775,0.06977210938930511,3.576171264337003,-0.08144602179527283
1773522820021440500,3.2704404296875,0.10126697745589093,-0.4555315673351288,-0.11755540338103601,0.13127067685127258,0.7800679518318396,0.5959156737070086,1.8558930119740358,right,-0.024011611938476562,-0.37085433806765344,0.9239965672560035,-9.093149263700843,-0.15019693645794968,0.04701194167137146,0.061773285269737244,3.5540462340295313,-0.07731661200523376
1773522820061440500,3.3104404296875,0.10412640140832807,-0.5740302801132202,-0.1143651867255852,0.2174675464630127,0.7740799910516355,0.6038746827368158,1.8360271903706462,right,-0.11364436149597168,-0.36874285826887593,0.9507717614568769,-9.097913701623678,-0.15184232649526488,0.005669422447681427,0.045292213559150696,3.534739476013183,-0.07263427972793579
1773522820101440500,3.3504404296875,0.10688921906520737,-0.7712914943695068,-0.11106533798561355,0.23403270542621613,0.7605944681123509,0.6203543892870208,1.7932798109886776,right,-0.09886270761489868,-0.3708863631914156,0.9750934250257909,-9.087698012557626,-0.15595142909293128,-0.07136596739292145,-0.05227869749069214,3.5543390794962644,-0.049091994762420654
1773522820141440500,3.3904404296875,0.10491508551861913,-0.8196627497673035,-0.10993529637982495,0.207636296749115,0.749000536611396,0.6339613836250633,1.7566395982953267,right,-0.027906715869903564,-0.37382666750152876,0.9560526244692504,-9.079172176274657,-0.15813052308473766,-0.02208710089325905,-0.14166703820228577,3.581197568066418,-0.034395188093185425
1773522820181440500,3.4304404296875,0.09950235924094915,-0.8883541226387024,-0.11003652190631893,0.22945034503936768,0.7373386648924074,0.6472056848673328,1.719820450571325,right,0.03179037570953369,-0.3772376807716649,0.9056769936461001,-9.072006522428989,-0.15921169256891649,-0.04530537128448486,-0.1841830611228943,3.612316928951442,0.01320803165435791
1773522820221440500,3.4704404296875,0.09336053604881335,-1.0122843980789185,-0.1106669166630671,0.26483720541000366,0.7238154657781954,0.6617753356103518,1.6783736937843243,right,-0.01099085807800293,-0.3824556503632628,0.8481728991825133,-9.058507573908567,-0.16092695004086008,-0.10751497000455856,-0.2175687551498413,3.6598403121486305,0.02748715877532959
1773522820261440500,3.5104404296875,0.08430677138240568,-1.0821772813796997,-0.11321118223054814,0.2643493711948395,0.7083750645296719,0.6773161567863291,1.6323379040676769,right,-0.01857990026473999,-0.39136908299127365,0.7633482515949755,-9.032949938803911,-0.16318994935275216,-0.17004701495170593,-0.22347456216812134,3.7407895796075463,0.04620596766471863
1773522820301440500,3.5504404296875,0.07514039232138263,-1.0738219022750854,-0.11658961160748563,0.2803104519844055,0.6919968761606526,0.6926701300820475,1.5851790604838447,right,-0.03178906440734863,-0.4029746154554923,0.6772130328655243,-8.99566796363592,-0.1665995930903181,-0.24556714296340942,-0.21481803059577942,3.845741069422662,0.06425002217292786
1773522820341440500,3.5904404296875,0.06843174250962229,-1.0493979454040527,-0.1196088026683379,0.3184816837310791,0.6754603628925854,0.7071277828128746,1.5394451127225086,right,0.0075539350509643555,-0.4160466608981599,0.6133593501795083,-8.949086829724907,-0.1715146266476059,-0.23220936954021454,-0.20174527168273926,3.963333721885085,0.047940999269485474
1773522820381440500,3.6304404296875,0.06487448136078364,-0.9587440490722656,-0.1200112996006948,0.3668544888496399,0.659405744191961,0.7209736879626604,1.495643246801382,right,0.028689682483673096,-0.42471838219746366,0.5792713487472385,-8.916579813873767,-0.17600636767925287,-0.08000586926937103,-0.19729650020599365,4.040969627012312,-0.0008684992790222168
1773522820421440300,3.670440185546875,0.06255607271138046,-0.929684042930603,-0.1184580801772563,0.3407936990261078,0.6444453313110838,0.7339001818338463,1.4547912677925452,right,0.017913341522216797,-0.42843289571946913,0.5576552908752114,-8.902856408947706,-0.17902048539285675,0.004948221147060394,-0.1931326985359192,4.074132476423681,0.04050087928771973
1773522820461440500,3.7104404296875,0.056483352563008245,-1.018842339515686,-0.11691071790463918,0.2459859848022461,0.6290440177543553,0.7472264965676231,1.411770402819491,right,-0.0016807317733764648,-0.4286244577953239,0.5035367106640711,-8.905299125924707,-0.179688563978397,0.09377729147672653,-0.19122375547885895,4.075841033907235,0.07415124773979187
1773522820501440500,3.7504404296875,0.04541951547038571,-1.02383291721344,-0.11592086236133492,0.24646741151809692,0.6129601092260507,0.7611006462670438,1.3658092578270564,right,0.013297796249389648,-0.42526899773449617,0.40559977578613904,-8.923937190899252,-0.17767433689308293,0.20608064532279968,-0.1771203875541687,4.045888963235915,0.08190202713012695
1773522820541440500,3.7904404296875,0.033983440900050677,-0.9017504453659058,-0.11469322478097381,0.17635026574134827,0.5976381292573443,0.7740913808717472,1.3221646868003827,right,-0.07083666324615479,-0.419469512841562,0.3043127815616317,-8.951292230814694,-0.17451810718535563,0.23112311959266663,-0.1487932801246643,3.9940135223090647,-0.009842485189437866
1773522820581440500,3.8304404296875,0.02272469068157951,-0.7565693855285645,-0.11399912422182538,0.14231793582439423,0.584569567758371,0.7849117421229158,1.2850386170671586,right,-0.05326652526855469,-0.41316978486753814,0.20408294997354967,-8.97912774772346,-0.17086861131364564,0.15786944329738617,-0.07904872298240662,3.9375115906253453,-0.03718581795692444
1773522820621440500,3.8704404296875,0.014110500343472889,-0.7985630631446838,-0.11335758279838015,0.24418747425079346,0.5721019374186944,0.7945886572814608,1.2509710884786711,right,0.05722755193710327,-0.40921154255406683,0.1269473225186579,-8.996066607564687,-0.16875518262143782,0.09867671132087708,0.03225928544998169,3.901929989634454,0.037950992584228516
1773522820661440300,3.910440185546875,0.005319640302132732,-1.062507152557373,-0.11180631230499002,0.14944586157798767,0.5571481049153885,0.8059095594705418,1.2108518141762172,right,0.09816008806228638,-0.4031714777006898,0.047984762764396144,-9.020238341268897,-0.1661179906580128,0.21765680611133575,0.07001786679029465,3.8475168469235297,0.097770094871521
1773522820701440500,3.9504404296875,-0.012237500960609582,-1.9573979377746582,-0.10971302982054741,0.24032041430473328,0.5338694140787714,0.8232854012189194,1.1481829817337597,right,0.12523949146270752,-0.38791427697398445,-0.11108959071133286,-9.077336193019152,-0.1585802585365279,0.559252917766571,0.15633824467658997,3.7094489771872756,0.2711203694343567
1773522820741440500,3.9904404296875,-0.050140171782350675,-3.3148176670074463,-0.10942535154708587,-0.08163967728614807,0.4907073773221837,0.852633772907231,1.0353851844364912,right,-0.023335397243499756,-0.35761817192453665,-0.4604056076090783,-9.174670193567872,-0.14229581561184257,0.764756977558136,0.1720881164073944,3.4327602800071237,0.3391214609146118
1773522820781440500,4.0304404296875,-0.1121137808038264,-4.210255146026611,-0.11669180391213786,-0.37920311093330383,0.42631127135707275,0.8891372548510157,0.8763085548257138,right,-0.09122508764266968,-0.31569662723146236,-1.0429377847831696,-9.26348361853063,-0.118645733789271,0.6973165273666382,0.24493196606636047,3.044756695459783,0.2721075117588043
1773522820821440500,4.0704404296875,-0.17939094305248088,-4.166468620300293,-0.12901117451400282,-0.4870912432670593,0.35103639414708465,0.9226600946437647,0.7029332206815413,right,-0.07908320426940918,-0.2671214478357216,-1.6877466045849023,-9.307063817059992,-0.09395704693361794,0.4924813508987427,0.2615089416503906,2.5885250855997204,0.11750820279121399
1773522820861440500,4.1104404296875,-0.2348127036850197,-3.305879592895508,-0.1417851616050899,-0.4181791841983795,0.2822210883004657,0.946002291131413,0.5538079822485537,right,0.006319642066955566,-0.21989930143555392,-2.2266807553119956,-9.307865781092643,-0.07299233129294772,0.3623560965061188,0.22663551568984985,2.139137934806943,-0.0159224271774292
1773522820901440300,4.150440185546875,-0.2653289766228068,-2.213671922683716,-0.14811613566894558,-0.04470014572143555,0.23128111948572505,0.9598654179684956,0.44899974926836594,right,0.078235924243927,-0.17854893796824647,-2.530684598788619,-9.313032370075582,-0.056825068303056905,0.39604976773262024,0.20148028433322906,1.7416785396501422,-0.06475379317998886
1773522820941440500,4.1904404296875,-0.2700787607399102,-1.4074090719223022,-0.1451635657554785,0.29233837127685547,0.19830045255254355,0.96838499883937,0.3847753477957771,right,0.08706778287887573,-0.1410033962873638,-2.590519182026386,-9.357359587579966,-0.04283658969214039,0.5451509952545166,0.18442359566688538,1.3781936025485395,-0.03299321234226227
1773522820981440500,4.2304404296875,-0.26132280593207546,-0.9364194869995117,-0.1373371239607439,0.3540421724319458,0.177349342384225,0.9740527345414529,0.3460495106086099,right,0.031417906284332275,-0.10759189860681286,-2.5189827628180383,-9.418923771089315,-0.030117024708991934,0.5222299098968506,0.15980243682861328,1.053081723787263,0.036310337483882904
1773522821021440500,4.2704404296875,-0.2534059106436753,-0.6580225229263306,-0.1311456526647031,0.15625889599323273,0.16312580116906825,0.9776425753793913,0.32018056901389425,right,-0.02467930316925049,-0.08226965361054986,-2.4502369972415265,-9.461357137671113,-0.020145604567383568,0.3543042838573456,0.13906654715538025,0.8058800370499491,0.08479943871498108
1773522821061440500,4.3104404296875,-0.25159103678162426,-0.5228077173233032,-0.1289750164153628,0.0401311069726944,0.1523316665492508,0.9797737493821324,0.2999645767390943,right,-0.01849985122680664,-0.0673334462464758,-2.435786885476112,-9.476389871630072,-0.014283205735746147,0.12480995059013367,0.13585880398750305,0.659816784645617,0.12428902089595795
1773522821101440500,4.3504404296875,-0.2510250021997797,-0.5195454955101013,-0.1280149607267856,-0.004278108477592468,0.1423718260884217,0.9814310844796462,0.2806311789002139,right,-0.09295588731765747,-0.05934515338460067,-2.431654169585556,-9.482570606091619,-0.011645686760365464,0.047976188361644745,0.13045594096183777,0.5816357032584026,0.07937251031398773
1773522821141440500,4.3904404296875,-0.25202706454741464,-0.4468849301338196,-0.12836537774347243,-0.05841175466775894,0.1331884865991093,0.9826625211753349,0.26197044866767416,right,-0.04913145303726196,-0.058904715823515356,-2.4412187012664974,-9.480376310917734,-0.012556231745562231,-0.05759695917367935,0.13312053680419922,0.5773240140717476,0.06463731825351715
1773522821181440500,4.4304404296875,-0.2502506875577816,-0.39964210987091064,-0.1274229453650995,0.041647352278232574,0.12535620752418639,0.9837954934257842,0.24598851812647152,right,0.018600761890411377,-0.05951074591284098,-2.424287147948891,-9.4843569049865,-0.013991277377810817,0.02762046456336975,0.1393282115459442,0.5832567285889759,0.04548918828368187
1773522821221440500,4.4704404296875,-0.24225706456468205,-0.40288111567497253,-0.12323278344669888,0.08939173817634583,0.11764907837430504,0.9852776538077577,0.2307576772626143,right,-0.024665772914886475,-0.05692506171488312,-2.348749968666583,-9.504864855486154,-0.014157367656297945,0.020981956273317337,0.11752873659133911,0.557942802579701,0.015662461519241333
1773522821261440500,4.5104404296875,-0.23650590630252563,-0.34274324774742126,-0.12018821646535423,-0.005937546491622925,0.11050983129547355,0.9864768143645032,0.21659479169798757,right,0.0000890493392944336,-0.05490308311107891,-2.2943071614697574,-9.519293193811178,-0.01434982807863985,0.03391183540225029,0.09067191183567047,0.538144936578162,-0.03802306205034256
1773522821301440500,4.5504404296875,-0.23507875234313086,-0.2594943344593048,-0.11927911832372633,-0.12228952348232269,0.10475991971977183,0.987220829902139,0.20524690907957782,right,0.006328940391540527,-0.05244086911036052,-2.2810209789171814,-9.523817393237351,-0.013890253363408942,0.0005330145359039307,0.03854137659072876,0.514033627824299,-0.056586600840091705
1773522821341440500,4.5904404296875,-0.2380111493903697,-0.25305548310279846,-0.12056019731972008,-0.1133028045296669,0.09995011582987486,0.9875724142190507,0.1957102351379208,right,0.04907393455505371,-0.05032506601226876,-2.3091899655640122,-9.518122980988025,-0.013266781573848734,-0.05224860459566116,0.02160501480102539,0.4933120711065829,-0.05790381133556366
1773522821381440500,4.6304404296875,-0.24026216947433748,-0.24086792767047882,-0.12151905046984865,-0.09744123369455338,0.09462868809758097,0.9879839882277451,0.1851215290398785,right,0.028736233711242676,-0.04849497428786154,-2.3308206364832817,-9.513761863169073,-0.012893727057426965,-0.08011922985315323,-0.04941903054714203,0.4753869036417454,-0.11378854513168335
1773522821421440300,4.670440185546875,-0.24413912431075185,-0.15997764468193054,-0.12331767497460841,-0.14557702839374542,0.0903466563273573,0.9881667286230416,0.17657639400434888,right,0.022390365600585938,-0.04705531463467118,-2.367850390455872,-9.505308507600427,-0.01252585805597219,-0.07362286001443863,-0.11084611713886261,0.4612848015964031,-0.13968610763549805
1773522821461440500,4.7104404296875,-0.2512886885525129,-0.11088690906763077,-0.12674178566487,-0.21855434775352478,0.08742240924371118,0.98800656745814,0.17078478111120782,right,-0.002547621726989746,-0.04530012856220501,-2.4359457292996347,-9.48890623885393,-0.011702600464775184,-0.11887182295322418,-0.15930277109146118,0.44409065181985496,-0.1371246576309204
1773522821501440500,4.7504404296875,-0.2641941308035337,0.013998106122016907,-0.13308324256140863,-0.2911263108253479,0.0854934596867458,0.9873459479774364,0.16675573623475895,right,0.03334605693817139,-0.04508680778440699,-2.5582225940555334,-9.45677097892463,-0.011301023797341554,-0.19641858339309692,-0.17535382509231567,0.4420008034011349,-0.16560609638690948
1773522821541440500,4.7904404296875,-0.27874170670580756,0.3313024640083313,-0.14056998584155547,-0.2947721779346466,0.08735254353271818,0.9861086479785612,0.16934899597142655,right,0.03665006160736084,-0.052425565331512845,-2.694555018301308,-9.41518341551721,-0.014117745707179382,-0.34790951013565063,-0.16460731625556946,0.5138837710248306,-0.22790227830410004
1773522821581440500,4.8304404296875,-0.2933362552550773,0.9888073801994324,-0.14887894219689204,-0.3359965980052948,0.09838806503220239,0.9836754077275913,0.18829755868376943,right,0.06502068042755127,-0.07497491494288053,-2.8276033063098787,-9.361381098181008,-0.023182886478012064,-0.6485879421234131,-0.14436998963356018,0.7345642017897218,-0.2829779386520386
1773522821621440500,4.8704404296875,-0.3010153517158903,1.6870291233062744,-0.1555742499774292,-0.24278247356414795,0.12226073076200974,0.9793034150981962,0.22991696931300287,right,0.08267289400100708,-0.12175458969516381,-2.886049942320585,-9.296369404566287,-0.042587797437862215,-1.0261120796203613,-0.08786642551422119,1.1910568737387657,-0.2911900281906128
1773522821661440300,4.910440185546875,-0.29791529692838997,2.2289650440216064,-0.15973281257025493,-0.09390448033809662,0.15735650668627657,0.9719857882592489,0.2926434308490629,right,0.10057878494262695,-0.18840009602645927,-2.82759132361114,-9.208788151746989,-0.07048330764463896,-1.2222728729248047,-0.06292828917503357,1.8366634928546846,-0.2709621489048004
1773522821701440500,4.9504404296875,-0.28213034004839593,2.4594380855560303,-0.16105341227855952,-0.008876912295818329,0.1994230814998603,0.961147050303265,0.37143433277179705,right,0.08179628849029541,-0.2641662731484819,-2.63548615873903,-9.092201169195771,-0.10241357870083598,-1.2566403150558472,-0.04628428816795349,2.5605609738752246,-0.20596984028816223
1773522821741440500,4.9904404296875,-0.257228321510048,2.372319459915161,-0.16066709745310087,-0.019822366535663605,0.24234765642885148,0.9475645709650419,0.45700581062413065,right,0.07182717323303223,-0.3353644024799272,-2.3558368581876157,-8.955649841502309,-0.13257075672154522,-1.0770928859710693,-0.04535588622093201,3.227498988702893,-0.14846926927566528
1773522821781440500,5.0304404296875,-0.22610573238142606,2.0298075675964355,-0.15846469913562436,0.08811011165380478,0.28058814016828065,0.9333248349402989,0.5386891452333626,right,0.05910724401473999,-0.3946089953194036,-2.029534089141339,-8.822551869133115,-0.15831606635555115,-0.8866904973983765,-0.04734845459461212,3.7701398849934336,-0.0998525321483612
1773522821821440500,5.0704404296875,-0.19617137636836363,1.67966890335083,-0.15679952784093815,-0.02897512912750244,0.3123280014526497,0.9195508445798773,0.6105682020618752,right,0.06353962421417236,-0.4427525095113558,-1.7271572623446583,-8.691096987795829,-0.17969774134070118,-0.7796300649642944,-0.05170559883117676,4.201445435650647,-0.10903611779212952
1773522821861440500,5.1104404296875,-0.17220133087782508,1.371675968170166,-0.1573455562528381,-0.11761000007390976,0.3379015145075702,0.9066358309122299,0.6709539263328316,right,0.11182266473770142,-0.48338277244052447,-1.4878592614039778,-8.554656719261407,-0.19767717861905929,-0.7185917496681213,-0.041028738021850586,4.557905880942941,-0.19525101780891418
1773522821901440300,5.150440185546875,-0.15210765808616447,1.1614749431610107,-0.1591813764945264,-0.14564011991024017,0.3588684354781093,0.8945837936628868,0.7225254830078169,right,0.14421284198760986,-0.5193188441266224,-1.2900136531837283,-8.415416006353498,-0.2135286611020933,-0.7103214263916016,-0.0018118619918823242,4.866931790365278,-0.31672585010528564
1773522821941440500,5.1904404296875,-0.13786958740238095,1.0354092121124268,-0.16369940146027628,-0.28807705640792847,0.37705966657131806,0.8825817776485108,0.7682346248349596,right,0.29757994413375854,-0.5542069296885316,-1.146024576704949,-8.25964501440525,-0.22820560682886096,-0.7331521511077881,0.04025150090456009,5.16093724078834,-0.3688824772834778
1773522821981440500,5.2304404296875,-0.12609717426519784,0.95976722240448,-0.16948257531910174,-0.28867292404174805,0.3933276850292767,0.8705960848959985,0.8104403536742496,right,0.46803969144821167,-0.5882850713582735,-1.025988184352219,-8.093315803563595,-0.2421391681092595,-0.7201399803161621,0.09989960491657257,5.442055444848537,-0.3685576915740967
1773522822021440500,5.2704404296875,-0.109891643991118,0.8797773122787476,-0.17312027978159042,-0.14233441650867462,0.4076373502818368,0.859428662654767,0.8506038403272796,right,0.5353620052337646,-0.6189557729168964,-0.8759794822577387,-7.939186733603477,-0.25542805633513055,-0.6527993083000183,0.13859400153160095,5.689671192279458,-0.2917904853820801
1773522822061440500,5.3104404296875,-0.08845200753340138,0.7933676242828369,-0.17440497915524034,0.147819384932518,0.4207292746549245,0.8489422863743827,0.8906109723212431,right,0.5251043438911438,-0.6459067281083987,-0.6917775647908448,-7.800527619975805,-0.2680795880053226,-0.5423230528831482,0.2131166160106659,5.902846325448155,-0.12341740727424622
1773522822101440500,5.3504404296875,-0.0623935743413938,0.5127418041229248,-0.17265160370990687,0.1694033294916153,0.4280298634097574,0.8410255249067782,0.9197487221712454,right,0.35417985916137695,-0.6719809305880488,-0.4785344078872353,-7.659651999342441,-0.2822372003986154,-0.5859214067459106,0.21232816576957703,6.105007312649488,-0.04025673866271973
1773522822141440500,5.3904404296875,-0.040563130417503736,0.4904899001121521,-0.1715936750380051,0.21917933225631714,0.4340574584891453,0.8341524100026438,0.9449440509972457,right,0.2898794114589691,-0.6934199728826076,-0.30584128803685307,-7.5357432956010095,-0.2938360305415209,-0.48925089836120605,0.18982946872711182,6.2681274983167645,0.06789731979370117
1773522822181440500,5.4304404296875,-0.019544763356199563,0.45464152097702026,-0.17037726427008804,0.08760155737400055,0.43939287159488394,0.8278773972092254,0.96861408672513,right,0.20137107372283936,-0.7120277595583798,-0.1450915121621918,-7.422594470804929,-0.30417855125441223,-0.3698100447654724,0.15699006617069244,6.407373471921682,0.1076352596282959
1773522822221440500,5.4704404296875,0.000675936532878546,0.5225139260292053,-0.1690872480471534,-0.018649868667125702,0.44651354298666646,0.8215234684071735,0.9959637611342069,right,0.07479172945022583,-0.7249230214981333,0.004961720339648309,-7.340770758599042,-0.3116638474908949,-0.3556106388568878,0.10369961708784103,6.502572214007377,0.15669196844100952
1773522822261440500,5.5104404296875,0.019035991274424673,0.4853956699371338,-0.16894512886686253,0.060684554278850555,0.454326110856087,0.8146423242825097,1.0248263098328854,right,0.013355433940887451,-0.7373651056406881,0.13817947688456625,-7.257985507884621,-0.31843878252154684,-0.25946155190467834,0.14196565747261047,6.5934010704457755,0.17383486032485962
1773522822301440500,5.5504404296875,0.03876123112617103,0.6266121864318848,-0.16800921549523395,-0.05826106667518616,0.46246143145224133,0.8079337618436456,1.0549460368228931,right,-0.05365961790084839,-0.746888698485398,0.2788627898162231,-7.190774258399009,-0.32426135654256594,-0.264324426651001,0.0482165589928627,6.662235537219047,0.2043055295944214
1773522822341440500,5.5904404296875,0.06171453087734577,0.4883187413215637,-0.16587596067916405,-0.027185777202248573,0.46996571654269037,0.801440071292426,1.0852267868064638,right,-0.21379512548446655,-0.7557851997006138,0.44015378729496146,-7.123038692778349,-0.3306225165736592,-0.29798170924186707,0.0595705509185791,6.725992262336612,0.28765416145324707
1773522822381440500,5.6304404296875,0.07881930529656761,0.4493143558502197,-0.16534864741744534,-0.03323104977607727,0.4771798757136978,0.7953483135778067,1.1124149122592562,right,-0.21733975410461426,-0.7629457959219759,0.5581148712109774,-7.0662734339833255,-0.3352314757610172,-0.1640675812959671,0.07157199084758759,6.776921654585004,0.31336677074432373
1773522822421440300,5.670440185546875,0.09380955848830283,0.4712545573711395,-0.16554169809476085,-0.11654645949602127,0.4840813064901253,0.7893477052730239,1.1382687271955552,right,-0.2633098363876343,-0.7699210953121186,0.6595294190715998,-7.009879931110143,-0.33939878673183205,-0.2559658885002136,0.048493266105651855,6.826199187973141,0.2559390068054199
1773522822461440500,5.7104404296875,0.10556479127109812,0.44087326526641846,-0.16802707748213228,-0.1754489541053772,0.49160651597831856,0.7823134091065419,1.1654712130947265,right,-0.21219438314437866,-0.7793899525955309,0.7350408793907612,-6.9370525953084226,-0.3436213535667102,-0.304341197013855,0.022810116410255432,6.892561127153039,0.3133388161659241
1773522822501440500,5.7504404296875,0.11730566137431728,0.4089886248111725,-0.17161214222855845,-0.21022525429725647,0.4989933448262132,0.7745382288970986,1.1937090073564183,right,-0.22948694229125977,-0.7916998844611116,0.806443516151607,-6.8431579215586185,-0.3487768888297987,-0.37283676862716675,0.00873323529958725,6.977909506353735,0.3390757441520691
1773522822541440500,5.7904404296875,0.12410747973502449,0.27503448724746704,-0.17642744716422534,-0.19816157221794128,0.5045221466516085,0.7677048216598519,1.2157042560592821,right,-0.19350367784500122,-0.8049347186439675,0.8414639030631631,-6.745276808521151,-0.3534967282771784,-0.31340599060058594,0.023111723363399506,7.0684905255109065,0.3015643358230591
1773522822581440500,5.8304404296875,0.12736824268386357,0.16624677181243896,-0.18092870210012646,-0.23709720373153687,0.5082813325993192,0.762521253399182,1.2310026393286861,right,-0.20248758792877197,-0.8160183570248437,0.8534497436068952,-6.6643748873353,-0.35703812450213956,-0.3291417062282562,0.013167142868041992,7.143396421152353,0.27783727645874023
1773522822621440500,5.8704404296875,0.12636376834047938,0.11621468514204025,-0.18607316549518155,-0.1654714196920395,0.5107340103843258,0.7583214408704377,1.2409412429074174,right,-0.16713428497314453,-0.826844513180011,0.8369592120550572,-6.588121084216237,-0.3598278525205176,-0.23350131511688232,0.022457212209701538,7.215715222910046,0.2708864212036133
1773522822661440300,5.910440185546875,0.1219152698438174,0.03295958787202835,-0.19066566381761033,-0.23969382047653198,0.5123345883781418,0.7555784519162512,1.2457861464336277,right,-0.15111255645751953,-0.8342179088449878,0.8011515472233295,-6.538790943858027,-0.3609169456698589,-0.17345497012138367,-0.0038026422262191772,7.2644859758198255,0.22632724046707153
1773522822701440500,5.9504404296875,0.11473834026814116,-0.05838748812675476,-0.19459065038900256,-0.10785792768001556,0.5130712297864332,0.7542106498447019,1.2459142187285197,right,-0.09310281276702881,-0.8385426616167638,0.7505990254633128,-6.513101206806302,-0.36063656876375966,-0.03518421947956085,-0.003390014171600342,7.292907768183946,0.16378486156463623
1773522822741440500,5.9904404296875,0.10725013763110244,-0.07369716465473175,-0.1966283329844738,-0.03090779483318329,0.5126294612688651,0.7546467831307904,1.2412425944158814,right,-0.0870356559753418,-0.8387384376689512,0.7016542311608791,-6.517119210276007,-0.35924457704959245,0.04210902750492096,-0.002872854471206665,7.294191378253698,0.10480350255966187
1773522822781440500,6.0304404296875,0.10233937753888259,-0.03367934003472328,-0.197617714717363,-0.13782820105552673,0.5127811624718787,0.7550317788270138,1.2387557415651733,right,-0.07217133045196533,-0.837210124140572,0.6707800041433424,-6.5315685913890595,-0.3576728941903716,0.060404933989048004,-0.047405462712049484,7.284165074279904,0.08292573690414429
1773522822821440500,6.0704404296875,0.09898229821939314,0.07335823774337769,-0.19721199755669397,-0.017210550606250763,0.514446232323968,0.7555471125907924,1.2392575060254463,right,-0.016186058521270752,-0.8307621098965757,0.6534771332953125,-6.580385521528124,-0.35440248470791386,0.23839259147644043,-0.07544118165969849,7.241676762640476,0.057111918926239014
1773522822861440500,6.1104404296875,0.10143515717374438,0.133762925863266,-0.19412803155382188,-0.05577815696597099,0.5174057949702182,0.7561516090924788,1.2442687643038344,right,0.006826519966125488,-0.819679017300561,0.6777018392957747,-6.658204674267768,-0.35048584668947363,0.31219208240509033,-0.13445042073726654,7.167943417909741,0.06679880619049072
1773522822901440300,6.150440185546875,0.10970588179588095,0.1317737102508545,-0.18816460734121204,0.0955420732498169,0.5207712867262043,0.7571999123123136,1.2516568460251927,right,-0.05579686164855957,-0.804770501378966,0.7443643688574433,-6.75784928984642,-0.3464673582566768,0.3626622259616852,-0.13563141226768494,7.067374088701605,0.10842239856719971
1773522822941440500,6.1904404296875,0.11425692247042558,0.005610033869743347,-0.18226179239906956,0.05486609414219856,0.52253271103154,0.7595516275822048,1.252799314293619,right,-0.07012581825256348,-0.7890616701331145,0.7876729839038104,-6.863850580975413,-0.341791791932956,0.4118223488330841,-0.1230383813381195,6.959706325665116,0.1363493800163269
1773522822981440500,6.2304404296875,0.11170891456181345,-0.21465279161930084,-0.17575219037738737,0.08830494433641434,0.5216624578197974,0.7649045850082294,1.242295279475471,right,-0.09513437747955322,-0.768574648032364,0.7859132807549088,-7.006079369783401,-0.33451532862754124,0.5748587250709534,-0.08533784747123718,6.816712982225417,0.13357055187225342
1773522823021440500,6.2704404296875,0.10264142016372159,-0.38026994466781616,-0.16822043012592833,0.18588517606258392,0.5189810330437452,0.7731346257884342,1.22224181322015,right,-0.036934494972229004,-0.7406340053016786,0.7415848942067473,-7.199616905546188,-0.3234556616431174,0.9013550281524658,-0.006730623543262482,6.617095834288,0.14704573154449463
1773522823061440500,6.3104404296875,0.09335430533044624,-0.3752776086330414,-0.15784867172408826,0.30394551157951355,0.5148000469654435,0.7838210772578998,1.1965796359990812,right,-0.03905206918716431,-0.7042337934512009,0.6966912749912589,-7.441181097853184,-0.30933659125063195,1.0132765769958496,0.0377565398812294,6.349316419750451,0.100882887840271
1773522823101440500,6.3504404296875,0.09470438087513132,-0.3183805048465729,-0.1437349025607195,0.37279361486434937,0.5098618409534156,0.7945140165339197,1.1738845078352955,right,-0.18751269578933716,-0.6665731417929779,0.7288421708811074,-7.672950456854701,-0.29686475410390745,0.8473721742630005,0.024345867335796356,6.063415657588839,0.16653859615325928
1773522823141440500,6.3904404296875,0.10020273817368992,-0.28203484416007996,-0.1306289097235078,0.391728937625885,0.5053314005201641,0.8031482277386134,1.1561843943485979,right,-0.26758718490600586,-0.6353719530526284,0.7895663964349776,-7.853300594264269,-0.2872789395878454,0.7468615174293518,0.04081493616104126,5.8200207427233455,0.2536328434944153
1773522823181440500,6.4304404296875,0.10309275409101075,-0.24608857929706573,-0.12004804488383625,0.32189419865608215,0.5007436982736682,0.8106814094144331,1.1390620228839698,right,-0.27972084283828735,-0.6089445741848923,0.8278021651964634,-8.001217950102687,-0.27863933620575226,0.6738258600234985,0.041635870933532715,5.609424520131945,0.21825885772705078
1773522823221440500,6.4704404296875,0.10339965664518187,-0.31586888432502747,-0.11085367223468467,0.19483962655067444,0.49634598285632353,0.8177773164137475,1.1220833200154146,right,-0.2314789891242981,-0.5832155065906902,0.84487794929035,-8.141853916761278,-0.2694298261514731,0.6689505577087402,0.039222314953804016,5.40062804043889,0.2283037304878235
1773522823261440500,6.5104404296875,0.10604623430863884,-0.2631078064441681,-0.10030666969857702,0.3674209713935852,0.4917504451708363,0.8250194248068208,1.1052682914649476,right,-0.19830751419067383,-0.555334044240208,0.882022415683791,-8.286137884533405,-0.25973659728666804,0.7624350786209106,0.034492865204811096,5.170332845643163,0.18408697843551636
1773522823301440500,6.5504404296875,0.10830543833696143,-0.2851271331310272,-0.09032462604837482,0.24719974398612976,0.48721031141083293,0.8318373638989603,1.088996885617621,right,-0.13109582662582397,-0.528201196550383,0.9155709034118801,-8.42052180505991,-0.2500286375162279,0.7519561648368835,0.01115928590297699,4.942360540837049,0.1695263385772705
1773522823341440500,6.5904404296875,0.10964986435951077,-0.4652787744998932,-0.07981371076430757,0.1511465162038803,0.48089327588980524,0.8397154307267555,1.0681563529391103,right,-0.20328599214553833,-0.4990577640374341,0.9422570310898125,-8.558860016170144,-0.23926836860021747,0.745300829410553,-0.019989632070064545,4.693447739332914,0.2332126498222351
1773522823381440500,6.6304404296875,0.10745126030367348,-0.5530651807785034,-0.0704047466538147,0.2829320430755615,0.4738188244655674,0.8479529325423338,1.0447875436683645,right,-0.1398463249206543,-0.4685972003744219,0.9383386886022984,-8.699058175933361,-0.22696835234497945,0.9007695317268372,0.00811217725276947,4.429028156617283,0.33006763458251953
1773522823421440300,6.670440185546875,0.09704186947838578,-0.6528427600860596,-0.06307377720972285,0.0037381649017333984,0.46375965614750836,0.8580466477415163,1.012472486230192,right,-0.2125188708305359,-0.43492661911444147,0.8617033388197421,-8.851816542062164,-0.211434720827215,0.9879812002182007,-0.04296402260661125,4.131972086451947,0.219303160905838
1773522823461440500,6.7104404296875,0.08244311859142482,-0.8098325133323669,-0.055193474163953225,-0.20710709691047668,0.4521342572566321,0.8696501541788524,0.9752167567844144,right,-0.23605501651763916,-0.3908806111513943,0.7466628550581633,-9.03617649963498,-0.1903598995254047,1.3326389789581299,-0.08588346838951111,3.7363609495103356,0.3012046813964844
1773522823501440500,6.7504404296875,0.06410807228863862,-0.8764615058898926,-0.04639562748754238,0.03381869196891785,0.4392605831969075,0.8823919142847614,0.9345594578033559,right,-0.07776153087615967,-0.3329808650486103,0.593746046964638,-9.248953573396802,-0.16211734475189823,1.644569754600525,-0.04667798429727554,3.2054177975371476,0.29025107622146606
1773522823541440500,6.7904404296875,0.05571167511460251,-0.7576614618301392,-0.032205483835104506,0.14088383316993713,0.42553632349910003,0.8948487603158685,0.8951966237363777,right,-0.006524860858917236,-0.2647107720107414,0.5270417971530929,-9.450381570148467,-0.13087179054544107,1.8446664810180664,-0.07421666383743286,2.5657152878984806,0.27934831380844116
1773522823581440500,6.8304404296875,0.06032484040572082,-0.6239848136901855,-0.01235081023677305,0.3801775574684143,0.4132685386464146,0.9051624393969377,0.8623552255175615,right,-0.022742509841918945,-0.1899916063800034,0.5805870344556868,-9.61266998116672,-0.09867966346636214,1.9198200702667236,-0.05824676901102066,1.8519925794117151,0.31685471534729004
1773522823621440500,6.8704404296875,0.068908862055195,-0.49410149455070496,0.007432557280860023,0.26757338643074036,0.40281460482171844,0.9127199587470833,0.8353366009190434,right,0.04044073820114136,-0.11846712270201079,0.6704974608749151,-9.714804075473547,-0.0680263959820729,1.7222087383270264,-0.008873820304870605,1.1590502816904336,0.3277515172958374
1773522823661440300,6.910440185546875,0.0753364871411829,-0.3115938901901245,0.024863035831580886,0.18383845686912537,0.39412965958469487,0.9179544648024274,0.812963875510034,right,0.12942302227020264,-0.04919383191513371,0.7372067521877587,-9.767003633788228,-0.0374596534285569,1.6836074590682983,-0.014761075377464294,0.48223238562233744,0.27650120854377747
1773522823701440500,6.9504404296875,0.07770845719067937,-0.2953455448150635,0.03817451465955633,0.13271163403987885,0.38785227175403186,0.9208824012080951,0.7967761941437038,right,0.40821129083633423,0.01224203434760394,0.7612356433551758,-9.77632325079739,-0.009431397470116485,1.6342624425888062,0.034030936658382416,-0.12005011948398314,0.31093066930770874
1773522823741440500,6.9904404296875,0.0868744400492901,-0.11909833550453186,0.05380121031055063,0.1423005312681198,0.38266056132688125,0.9221721646303767,0.7835421273211972,right,0.2151605486869812,0.07180972117432595,0.8486828945312649,-9.74448843511939,0.01657652414744333,1.3326599597930908,-0.03810284286737442,-0.703607484120503,0.2248033732175827
1773522823781440500,7.0304404296875,0.08901843548065619,-0.05527922511100769,0.0667047781276844,0.17475450038909912,0.3791992422323108,0.9217602795330795,0.7745079891408655,right,0.3528323769569397,0.1358153145889898,0.8637915432706474,-9.6778710598737,0.04600402172903433,1.8057016134262085,-0.014079011976718903,-1.3278021165691316,0.25520074367523193
1773522823821440500,7.0704404296875,0.09351114617367641,-0.06564991176128387,0.08152907096139472,0.003806367516517639,0.3759595112061525,0.9197495639881514,0.7664000872936064,right,0.36961519718170166,0.20605143013930985,0.8963247164763509,-9.557265489330888,0.0778979451011426,1.66748046875,-0.029018130153417587,-2.00640572701022,0.2831217646598816
1773522823861440500,7.1104404296875,0.09537495032625341,0.19157929718494415,0.09424410885763004,0.025313373655080795,0.3737789928484561,0.9163336446534275,0.7615286170545419,right,0.3952282667160034,0.2723793757345389,0.8994619185235351,-9.402187740343809,0.10835077242146073,1.6194032430648804,0.015548884868621826,-2.6382225979655978,0.11199943721294403
1773522823901440300,7.150440185546875,0.09216475111515669,0.312056303024292,0.10510257530741071,0.09807614982128143,0.37551889091634616,0.9102554461948177,0.7667698848050793,right,0.5358771085739136,0.33877640157432176,0.8512491648226976,-9.210004541799426,0.1391902051739278,1.6790363788604736,0.12501367926597595,-3.2590760302275417,0.07107174396514893
1773522823941440500,7.1904404296875,0.09263085397528781,0.40894371271133423,0.11859749042842792,0.04034026339650154,0.3792897990587089,0.9017562186576407,0.7771288282959882,right,0.42135030031204224,0.40782462766795974,0.8327045502852648,-8.963770604115725,0.17002803205855627,1.6660096645355225,0.13174860179424286,-3.889447816941142,-0.016409456729888916
1773522823981440500,7.2304404296875,0.09024082795124193,0.3172191381454468,0.12983258458452943,0.03087088093161583,0.3816315446267951,0.8933153659968436,0.7857924800979076,right,0.40557610988616943,0.4713954594790859,0.7873725396525114,-8.70154122492075,0.19871681679183206,1.4712226390838623,0.1726776659488678,-4.4534936125710605,-0.12678426504135132
1773522824021440500,7.2704404296875,0.08601006646080976,0.3417564034461975,0.13988759390904612,-0.012987755239009857,0.3835790201304607,0.8844253327248378,0.794999500099321,right,0.3658176064491272,0.5318548537463842,0.7260640844698995,-8.420793607738613,0.22603205967845788,1.4871090650558472,0.14539462327957153,-4.973274150016904,-0.21727335453033447
1773522824061440500,7.3104404296875,0.07466624616101217,0.28331828117370605,0.14545173018677798,-0.20016351342201233,0.38492717107243996,0.8763784477748298,0.8052962345636748,right,0.2911573648452759,0.5831321944206819,0.6106516255907714,-8.163214684697985,0.25027119447029195,0.9676512479782104,0.07444816827774048,-5.399945318871736,-0.10459566116333008
1773522824101440500,7.3504404296875,0.060937986128922164,0.22479021549224854,0.14572032058550702,-0.21431399881839752,0.38618074051753515,0.8716505634548722,0.8149028264908571,right,0.23886704444885254,0.6105349109426788,0.48933323060348627,-8.020081056004763,0.26430147212070876,0.4187466502189636,0.00869690254330635,-5.622209182903171,-0.033736348152160645
1773522824141440500,7.3904404296875,0.04731182941763362,0.2527957558631897,0.1432733688748932,-0.05481906235218048,0.38827189170415605,0.8690144526281403,0.8251653702304449,right,0.2624059319496155,0.621867226561969,0.3769706973468885,-7.961848647266626,0.27116683553087106,0.18974226713180542,0.02230577915906906,-5.712901261219382,0.024154961109161377
1773522824181440500,7.4304404296875,0.037934654966331784,0.2768609821796417,0.14237391925177326,-0.030388373881578445,0.3923485422415648,0.866060684243679,0.838393335643747,right,0.1851794719696045,0.6290637646355629,0.3007285481330007,-7.923744249799847,0.27519295428677887,0.1885758340358734,0.014783672988414764,-5.770114848303795,0.06027233600616455
1773522824221440500,7.4704404296875,0.029404294651343005,0.1826191544532776,0.14165411305292708,-0.0267029982060194,0.39560045552248146,0.8633892580734269,0.8496089774968755,right,0.07859492301940918,0.6364187723286522,0.2318720156583935,-7.883385935926437,0.2792727976403462,0.1499798744916916,0.08399070799350739,-5.828279452502727,0.07385951280593872
1773522824261440500,7.5104404296875,0.021402889788723508,0.10128402709960938,0.13961932507858052,-0.16140523552894592,0.39732398763148324,0.862247473064187,0.8565206328616548,right,-0.06348323822021484,0.638722851242602,0.16849928488973528,-7.871542353397607,0.28137069702820383,-0.04238505661487579,0.08518573641777039,-5.846435871440172,0.020277440547943115
1773522824301440500,7.5504404296875,0.010349049627196738,0.0664932131767273,0.13436561107062006,-0.2844293713569641,0.3978172938549216,0.862977592764769,0.8605064715553924,right,-0.10506260395050049,0.633397931633268,0.08180100718373433,-7.903942401742935,0.2809928382137817,-0.203925222158432,0.09104245901107788,-5.804428036794066,-0.015893101692199707
1773522824341440500,7.5904404296875,-0.0017728318942975493,-0.04856625199317932,0.1281073164599769,-0.2726081609725952,0.3973029043686063,0.8643249436619866,0.8623047666416662,right,-0.12254583835601807,0.6269582685904344,-0.014079289708624128,-7.94156749126017,0.280501806302946,-0.11128564924001694,0.10181406140327454,-5.753406874608993,-0.0665704607963562
1773522824381440500,7.6304404296875,-0.011408464583687578,-0.1789245456457138,0.12290998244109178,-0.3106636703014374,0.3935237889518329,0.8662221541620815,0.8565375450041944,right,-0.04784435033798218,0.6258649589423978,-0.0906711816586554,-7.947347828227281,0.2822962316614933,0.07168927043676376,0.11204947531223297,-5.74472087932825,-0.09138840436935425
1773522824421440300,7.670440185546875,-0.019751401804392287,-0.15490546822547913,0.11912219228677971,-0.3533846139907837,0.3883235934538877,0.8676530050833642,0.848087857711042,right,-0.0029466748237609863,0.631079256587645,-0.15637776220235972,-7.916258862480521,0.28669327785153337,0.14941462874412537,0.05280996114015579,-5.7860851553738115,-0.09776514768600464
1773522824461440500,7.7104404296875,-0.03170193798549131,-0.16142435371875763,0.11392673672070364,-0.366772323846817,0.38306731213230916,0.8690099111604876,0.8408119742702803,right,0.06540036201477051,0.6363982452541623,-0.2499888332378119,-7.88295222068429,0.29172245199253033,0.10410797595977783,0.0367966890335083,-5.828117539939284,-0.06352514028549194
1773522824501440500,7.7504404296875,-0.041110150876723726,-0.11781790107488632,0.10940094005007354,-0.3469792902469635,0.3784008665836754,0.8704487296395402,0.8337613121437174,right,0.02022373676300049,0.6394667163356978,-0.3234046729845926,-7.862346070507169,0.2952343850693804,0.032354630529880524,-0.002986222505569458,-5.852291027209162,-0.08284199237823486
1773522824541440500,7.7904404296875,-0.052806323301320394,-0.057658616453409195,0.10390402349006464,-0.2608449459075928,0.3746301776240651,0.8717259746368471,0.8293116309772269,right,0.09851831197738647,0.6407868685656585,-0.41493163122236726,-7.850303166013956,0.2982446605541013,-0.06804035604000092,0.008046027272939682,-5.862673889535666,-0.019210517406463623
1773522824581440500,7.8304404296875,-0.061516616174551536,-0.054777052253484726,0.0990070179529854,-0.2367900013923645,0.3725064079983835,0.8731509795673337,0.8267819376868085,right,0.14779072999954224,0.6370945072223843,-0.4846210343245417,-7.867944621166586,0.2984025417303226,-0.2563958168029785,0.018360890448093414,-5.83360736952722,0.07978910207748413
1773522824621440500,7.8704404296875,-0.06285706108416345,-0.23466694355010986,0.09590603472221187,-0.08623889088630676,0.36919730547143187,0.8756543800420231,0.8185204687642994,right,0.22195041179656982,0.6304713462684632,-0.4975832456197589,-7.905675509145856,0.2961836689573813,-0.10734888911247253,0.12434469908475876,-5.781270448568463,0.050466060638427734
1773522824661440300,7.910440185546875,-0.05703188898207504,-0.22375810146331787,0.09637536266413915,-0.11970409750938416,0.3651961970839557,0.8777545016685274,0.8070820335337164,right,0.10350614786148071,0.628419176965464,-0.45219844535384324,-7.920268098121881,0.2947719669800733,-0.09417954087257385,0.10243460536003113,-5.765002619856595,0.008917808532714844
1773522824701440500,7.9504404296875,-0.0578322971900596,-0.19319209456443787,0.09421427029355485,-0.2131395936012268,0.36024559585406773,0.8799335237827867,0.7959391887813148,right,0.16272085905075073,0.6275419924744456,-0.4588298827249557,-7.924948949414492,0.29506563654212453,0.005349829792976379,0.08149158209562302,-5.758041548672318,-0.0427781343460083
1773522824741440500,7.9904404296875,-0.0598652352596353,-0.24650172889232635,0.09138746293744618,-0.30973681807518005,0.3559098998114248,0.8821236488144685,0.7863274258021958,right,0.08236545324325562,0.6247984514226241,-0.4758831992587074,-7.939739106789231,0.29467660669634627,-0.20500747859477997,0.01720019057393074,-5.736241220274567,0.009642958641052246
1773522824781440500,8.0304404296875,-0.05707996205858189,-0.19033002853393555,0.0891927910974083,-0.12949907779693604,0.35112560512005814,0.8854174305205517,0.773265935943037,right,-0.05260157585144043,0.616624334375057,-0.4564268401712179,-7.987580469894409,0.2911896188620111,-0.3516877293586731,-0.011646512895822525,-5.671033127304911,-0.087521493434906
1773522824821440500,8.0704404296875,-0.06071599142780546,-0.045557886362075806,0.08368341000444406,-0.15209388732910156,0.3484927216791581,0.8889190274644779,0.7660729957090259,right,0.0833812952041626,0.6010036770152236,-0.49078258916158224,-8.07331171093285,0.2852590758823872,-0.386811226606369,-0.00910123810172081,-5.54537144241631,-0.006227433681488037
1773522824861440500,8.1104404296875,-0.06411158108997282,-0.0593428909778595,0.07939847131520571,-0.1434517651796341,0.3476883924016646,0.8912370828655735,0.7633332739898778,right,0.04088085889816284,0.5879288140849246,-0.5227941861785947,-8.143263199037312,0.2801874798924276,-0.2728855609893799,-0.0442713163793087,-5.439148617491126,0.07286164164543152
1773522824901440300,8.150440185546875,-0.06794969520012953,-0.0018790438771247864,0.0754132123927068,-0.1442991942167282,0.34652142237700545,0.8932007232757952,0.7603593794415915,right,-0.007927894592285156,0.5777334688381912,-0.5577813649402931,-8.196098717167972,0.2764563787240294,-0.2493082731962204,-0.016849666833877563,-5.355673046424984,0.09415671229362488
1773522824941440500,8.1904404296875,-0.07280931594308003,-0.01841827481985092,0.07155150984181194,-0.07732108235359192,0.3462031654189428,0.8945811964606426,0.7597957201834677,right,-0.052082180976867676,0.56889540988852,-0.601024440469779,-8.240178681913017,0.27340114444793207,-0.223200261592865,-0.02009386196732521,-5.282859739148616,0.1281644105911255
1773522824981440500,8.2304404296875,-0.0747890188189898,-0.10609659552574158,0.06782725919349217,-0.10742077976465225,0.3447659665787714,0.8969203230695967,0.755331772577291,right,-0.12283766269683838,0.5566443775015962,-0.622125790285319,-8.302892619979382,0.2684581176141988,-0.2102089822292328,-0.020431004464626312,-5.1812464538455005,0.07238322496414185
1773522825021440500,8.2704404296875,-0.07491293319780444,-0.1407018005847931,0.06490874147905767,-0.07094201445579529,0.34252774010366727,0.8993683566863981,0.7487564521431636,right,-0.13731008768081665,0.545679327066392,-0.6273690977662801,-8.358968142944574,0.26381448121951234,-0.14492373168468475,-0.038759514689445496,-5.089640183293819,0.03478819131851196
1773522825061440500,8.3104404296875,-0.07416773811401085,-0.05257619172334671,0.06336646820153305,-0.024747449904680252,0.34086189128497835,0.9009923035571449,0.7438420257508604,right,-0.1409912109375,0.5388338971848156,-0.6237069950621574,-8.393982757702469,0.2607885969536756,-0.10356537997722626,-0.07648564875125885,-5.032139595961571,-0.03566235303878784
1773522825101440500,8.3504404296875,-0.07170687867244378,-0.03438542038202286,0.06298589558172994,0.07265467941761017,0.34055683360256733,0.9020851678134629,0.7415122490579703,right,-0.1298457384109497,0.532209773610989,-0.6054236618094145,-8.428555473911763,0.25748021135786026,-0.17165935039520264,-0.09492295980453491,-4.976273916354775,-0.015266060829162598
1773522825141440500,8.3904404296875,-0.06589959134539389,-0.08001963794231415,0.06411067919335746,0.16848812997341156,0.34076400093541637,0.9030565332635356,0.7393762216689235,right,-0.11853671073913574,0.5253657606298271,-0.5586963974259793,-8.465714699482918,0.25349257361911265,-0.09588587284088135,-0.043898433446884155,-4.918323831689357,-0.02786123752593994
1773522825181440500,8.4304404296875,-0.05457593583809252,-0.20520958304405212,0.06858991866966524,0.19023171067237854,0.33944712154036377,0.9036201239357952,0.7333838467885023,right,-0.14525991678237915,0.5260540094522272,-0.4626150272868573,-8.468116499927639,0.2520746676205336,0.14895309507846832,-0.03992422670125961,-4.924162036323547,-0.09214413166046143
1773522825221440500,8.4704404296875,-0.03968667465853164,-0.4033800959587097,0.07544516571998858,0.2634156048297882,0.3347064913832878,0.9040965111837655,0.7200406931448678,right,-0.07930755615234375,0.5364767423306719,-0.33442985180262474,-8.422323886045813,0.25473326078990294,0.3312818109989166,0.00919894129037857,-5.012285140934586,-0.061266303062438965
1773522825261440500,8.5104404296875,-0.02285527990122955,-0.46636703610420227,0.08283888231390546,0.10612644255161285,0.3270964554680757,0.9050279000687733,0.7000794186312957,right,-0.04105329513549805,0.5503187295869097,-0.19102577213756738,-8.356592645984888,0.25897893179317105,0.36655324697494507,-0.022991010919213295,-5.128475233122706,-0.06094139814376831
1773522825301440500,8.5504404296875,-0.009118973313754926,-0.6049016714096069,0.0885833186658951,0.06718256324529648,0.3168730908140695,0.9062372078280876,0.6753982621880629,right,0.0426027774810791,0.5672460781234016,-0.07542014704020693,-8.270427105182408,0.2654780292222632,0.48054179549217224,0.0722564235329628,-5.269225181549787,-0.05285459756851196
1773522825341440500,8.5904404296875,0.011106796050574436,-0.8300004005432129,0.09596553682033464,0.027523327618837357,0.3033771121885216,0.9081636187195491,0.6414554563505255,right,0.020182251930236816,0.5851141124821951,0.09079931981666013,-8.174800493073462,0.2720143213436336,0.40773701667785645,0.12946194410324097,-5.416158787047863,0.002741098403930664
1773522825381440500,8.6304404296875,0.03594595808821174,-0.8312153816223145,0.1034496156083801,-0.06197171285748482,0.2871075477455498,0.9112316698250937,0.5993661176899393,right,-0.007964015007019043,0.5986778098369289,0.2911385349509306,-8.09585847378373,0.2766302002668603,0.29447290301322937,0.06786306202411652,-5.5265445768713946,-0.02412259578704834
1773522825421440300,8.670440185546875,0.05285589456221422,-0.7073693871498108,0.10657452851758219,-0.2455497533082962,0.27159212512722625,0.9149012956317747,0.560650818263434,right,0.04361677169799805,0.604542212919287,0.4262712462844327,-8.057274768367408,0.2789895931445165,0.11490058898925781,-0.0258278027176857,-5.573957485431432,0.024034857749938965
1773522825461440500,8.7104404296875,0.06012649114056115,-0.5219548344612122,0.10557764732608321,-0.32519662380218506,0.2587833383305734,0.91865584244618,0.5304408879779093,right,0.05626511573791504,0.6036268952589774,0.4851470309600234,-8.059052299433946,0.27920613092991264,-0.07449132204055786,-0.09418565779924393,-5.5665697132676835,0.028651416301727295
1773522825501440500,8.7504404296875,0.06023705292917472,-0.4386403262615204,0.10174640569574406,-0.37152910232543945,0.2484976843356173,0.9224247588252559,0.5077413060227339,right,0.0392337441444397,0.5975146366806897,0.4880772391930222,-8.092810192129015,0.27754132541914045,-0.07178515940904617,-0.12588030099868774,-5.517117992356419,-0.06352764368057251
1773522825541440500,8.7904404296875,0.050840649294400846,-0.5610218048095703,0.09494646362019644,-0.41862156987190247,0.23778148538699392,0.9248779305021277,0.4875409891399356,right,0.11061584949493408,0.6006929876908389,0.411120292773284,-8.07948543113172,0.28115129885598983,0.2662597596645355,-0.07363832741975784,-5.542858582812547,-0.10348320007324219
1773522825581440500,8.8304404296875,0.05014028036859528,-0.6973925828933716,0.09214920711104302,-0.23610590398311615,0.22473987511294222,0.9261314978910518,0.4602347739220351,right,0.07099837064743042,0.6137704771123971,0.4017940268276259,-8.006687321424483,0.2885846358811931,0.25936445593833923,-0.08386668562889099,-5.648177736896276,-0.02013927698135376
1773522825621440500,8.8704404296875,0.05496155808931676,-0.6441059112548828,0.09095804229839474,-0.2124251425266266,0.21123967572541658,0.9277505025970775,0.43003503818439126,right,0.07343131303787231,0.6233762322110333,0.4373909349855035,-7.950115539374947,0.29391080368137396,0.06196190416812897,-0.08030281215906143,-5.724923122924566,-0.004233121871948242
1773522825661440300,8.910440185546875,0.0599326246581361,-0.47026437520980835,0.08992393399600554,-0.15109068155288696,0.20062527644201245,0.9296346183396049,0.4057016090767938,right,0.03365302085876465,0.6259670565271775,0.4760159222602844,-7.933010675317049,0.2957071559758853,-0.07629035413265228,-0.12429964542388916,-5.745532195711135,0.011478781700134277
1773522825701440500,8.9504404296875,0.06165830080145215,-0.3629656434059143,0.08781184714348814,-0.1604945957660675,0.19308352084174024,0.9319453003252529,0.38878701494183726,right,0.031207740306854248,0.6212501022033899,0.4913695222040638,-7.959138803786039,0.2940849082499325,-0.20651662349700928,-0.1247306615114212,-5.70798134047389,0.049932658672332764
1773522825741440500,8.9904404296875,0.06220517989983298,-0.2960890233516693,0.08545702385571426,-0.0378417894244194,0.18752019973001266,0.9345145036646314,0.37640624828807207,right,-0.03368562459945679,0.6119224107053235,0.49901035581342873,-8.011661018183826,0.29020002482646795,-0.33743739128112793,-0.11273413896560669,-5.633352508208155,0.05227392911911011
1773522825781440500,9.0304404296875,0.05780795148848503,-0.2483430802822113,0.0806857362239873,-0.06657852232456207,0.18353586990225715,0.9382538130031235,0.36869225109484427,right,0.014356672763824463,0.5927698842427573,0.4699246927130967,-8.120014425396919,0.28192959851952226,-0.545851469039917,-0.07230772078037262,-5.478588062953949,0.07161089777946472
1773522825821440500,9.0704404296875,0.05386126797417795,-0.08377078175544739,0.07642217075946671,-0.018420744687318802,0.18210297728944336,0.9421597184192501,0.36612566273686364,right,-0.024823307991027832,0.5681924412960253,0.4449899022145197,-8.253793950289488,0.27080120436992206,-0.6272923350334167,-0.061840325593948364,-5.277050176087021,0.03880125284194946
1773522825861440500,9.1104404296875,0.04661352885830733,0.004104159772396088,0.07120125140792562,-0.05807073786854744,0.18295108496054405,0.9457252872939091,0.369226633746438,right,-0.007570862770080566,0.5420257922033946,0.39145898569822307,-8.39189250742495,0.25896515047749785,-0.5462690591812134,-0.03731817379593849,-5.058980841135979,0.010318219661712646
1773522825901440300,9.150440185546875,0.040649596818979214,0.07600703090429306,0.06745129780549464,0.0158853642642498,0.18477999823568203,0.9478460749679571,0.3741628541248992,right,0.003338456153869629,0.5239953474369733,0.34505481578931213,-8.483848906588554,0.25078760841917,-0.34575897455215454,0.005163803696632385,-4.906692430606484,-0.028641879558563232
1773522825941440500,9.1904404296875,0.03747794929208271,0.1375381350517273,0.06588763615865019,0.039982542395591736,0.1874567497937452,0.9485782826897311,0.38034686162638814,right,-0.03359931707382202,0.5145933223392488,0.3198598034519702,-8.530625270810722,0.24641019301574638,-0.16474813222885132,0.023489952087402344,-4.826645664945245,-0.04426783323287964
1773522825981440500,9.2304404296875,0.0338559733143341,0.20951011776924133,0.06485771515461133,0.02418595366179943,0.19110318276326668,0.9483889112888291,0.3888425759180703,right,-0.015178918838500977,0.5106566677055692,0.28960100491903723,-8.550651575273275,0.24460493348922663,-0.10327103734016418,0.040419887751340866,-4.793002630801499,-0.02702564001083374
1773522826021440500,9.2704404296875,0.027465545483496324,0.29724520444869995,0.06303864372790662,-0.07270458340644836,0.19591279338225523,0.9477548581887375,0.4005478899502763,right,0.035408973693847656,0.5083032045538882,0.23526226088488472,-8.563580030429362,0.24373155060566773,-0.07199917733669281,0.04397160932421684,-4.772854161264002,-0.0033126771450042725
1773522826061440500,9.3104404296875,0.021701155261492126,0.3468649089336395,0.062025812409199375,-0.029198847711086273,0.20188449781213855,0.946534683031965,0.4146411216086652,right,0.030977308750152588,0.5082940729130214,0.1858957523053512,-8.564837337014078,0.2438598432061797,-0.011762149631977081,0.05063839256763458,-4.772775835330784,0.022540003061294556
1773522826101440500,9.3504404296875,0.016233612648683306,0.35268864035606384,0.06121370421812529,0.010998774319887161,0.2082779377304846,0.9452282924457776,0.42954874549829475,right,0.018796145915985107,0.5078594024987925,0.13909826309676282,-8.56779910942912,0.24375540315351393,-0.07466074079275131,0.055258579552173615,-4.769051554110646,0.042033761739730835
1773522826141440500,9.3904404296875,0.011785057481806473,0.3449592590332031,0.06039440883520821,0.008261690847575665,0.21495815216276948,0.9444101187700376,0.44457050151287636,right,-0.041584789752960205,0.5026778694862741,0.10127254557404666,-8.592927705466746,0.24131959107411224,-0.21571388840675354,0.0719481036067009,-4.724587558484077,0.04027664661407471
1773522826181440500,9.4304404296875,0.007438246992002165,0.3372299075126648,0.059571969841899754,0.005524607840925455,0.2216271459903015,0.9435429608913283,0.45952303297610053,right,-0.10197943449020386,0.4974385243404092,0.06410312283586245,-8.617921861469744,0.23887122752651851,-0.35676702857017517,0.08857067674398422,-4.679498416696489,0.0384557843208313
1773522826221440500,9.4704404296875,0.004634558491631062,0.2953578531742096,0.05821732813670106,0.07602741569280624,0.22745462192473634,0.9438185263808273,0.47182492430275924,right,-0.062039852142333984,0.4841571584695122,0.04022544017478358,-8.679454480797052,0.2325547444579225,-0.1980697065591812,0.14339545369148254,-4.564628174935281,-0.006056427955627441
1773522826261440500,9.5104404296875,0.004237302780498801,0.3206210434436798,0.05868224045617285,0.06904099881649017,0.23355113395803134,0.9431873121416401,0.48444243841062457,right,-0.014447510242462158,0.4771553904295222,0.0369120002112817,-8.71121740028262,0.22892777671171927,-0.056033194065093994,0.15744978189468384,-4.503744667166472,0.04170346260070801
1773522826301440500,9.5504404296875,0.005438509666708357,0.27429455518722534,0.060632375984156925,0.15800915658473969,0.2390873934739797,0.9417258739970685,0.49593379130610776,right,-0.0045008063316345215,0.477744929858336,0.04736149803320877,-8.708509894889593,0.2287209610276292,0.12304268777370453,0.1673182100057602,-4.508879691967368,0.033487677574157715
1773522826341440500,9.5904404296875,0.00805316480399944,0.19536814093589783,0.06325337635468001,0.05472659319639206,0.2434285500947691,0.9402153710257741,0.5047135973317023,right,0.0072737932205200195,0.4809551089904388,0.0700141415445134,-8.69383781093657,0.22964461097482775,0.11784640699625015,0.13932044804096222,-4.5368125317707655,0.06579199433326721
1773522826381440500,9.6304404296875,0.013114048692008343,0.15902619063854218,0.06662984317886422,-0.03226993978023529,0.24586957273651266,0.9390418986776308,0.5089178505099058,right,-0.008895635604858398,0.48520566337385906,0.1137576500099618,-8.67401141296029,0.23088735086546538,0.1481529325246811,0.11822877824306488,-4.573726258148253,0.0647478699684143
1773522826421440300,9.670440185546875,0.014436373407560568,0.10833185911178589,0.06790221253353203,0.0006475076079368591,0.24771367827272286,0.9383249525992176,0.512627277123307,right,0.033641040325164795,0.4870364938739671,0.12510631602816283,-8.665465702933073,0.2314594809085214,0.08243813365697861,0.12072813510894775,-4.589600703628361,0.11349347233772278
1773522826461440500,9.7104404296875,0.02038367344159616,0.010810479521751404,0.0707578826649828,-0.07527287304401398,0.24846568322985915,0.938053294967411,0.5127868404286586,right,-0.06816911697387695,0.4874248184101449,0.1766035895586945,-8.662786254590749,0.23089858212817327,0.03750443086028099,0.07408714294433594,-4.592965503886342,0.07943716645240784
1773522826501440500,9.7504404296875,0.027334405417426738,-0.08789900690317154,0.07385160901912403,0.16981099545955658,0.2473674278184424,0.9380076858109735,0.5088590779140578,right,-0.049984514713287354,0.4897980984196944,0.2365129550657235,-8.650428292798995,0.2312938239305203,0.21718719601631165,0.09742093831300735,-4.613516124483943,0.03788849711418152
1773522826541440500,9.7904404296875,0.03799568954637391,-0.12007129937410355,0.07866264333850581,0.0430510938167572,0.24525506569206137,0.9378360050622383,0.5019667733755314,right,-0.11374294757843018,0.4949170307269141,0.3278210281221196,-8.623702782958745,0.232649318962676,0.22537614405155182,0.024231310933828354,-4.657753033356368,0.029920756816864014
1773522826581440500,9.8304404296875,0.048148328762648455,-0.17487287521362305,0.0829788210337608,0.11008599400520325,0.24161827809863345,0.9378856036138546,0.4919494869214036,right,-0.07756417989730835,0.5011429877691926,0.4139522282635793,-8.590798292222619,0.23474605535279808,0.2729265093803406,-0.03155922889709473,-4.711391976824403,0.007974505424499512
1773522826621440500,9.8704404296875,0.05263290161481733,-0.26007014513015747,0.08461422435858607,-0.01323363184928894,0.23714823702730284,0.938111909141444,0.48154912852800186,right,-0.03628206253051758,0.5078406298630644,0.45080377612505107,-8.55715145868659,0.23779641807624396,0.20998555421829224,-0.02792467176914215,-4.768890810590982,0.04176396131515503
1773522826661440300,9.910440185546875,0.058195286017632006,-0.3057609796524048,0.0861383683847358,-0.08547697961330414,0.2308269509379607,0.9388266804080994,0.4668752200499339,right,0.006521105766296387,0.5139134948482691,0.4967011290229857,-8.525442315214871,0.24063167171408328,0.24429947137832642,-0.075369693338871,-4.8208410703197115,0.011524409055709839
1773522826701440500,9.9504404296875,0.059948495138396486,-0.21411551535129547,0.0864825483884486,-0.05819295346736908,0.22545791255414552,0.9389594768616668,0.45527022270423906,right,0.06942117214202881,0.5226309921031432,0.5091099442191421,-8.482284726011752,0.2450400164027569,0.3062724173069,-0.12325896322727203,-4.8951034073606134,0.03785669803619385
1773522826741440500,9.9904404296875,0.06106432903805796,-0.15492039918899536,0.08693759401354853,-0.06498052924871445,0.22154309565854455,0.9386386982924179,0.446929754233972,right,0.02268373966217041,0.5318821056692546,0.5157887278633192,-8.43614841325879,0.2496357183990026,0.26456591486930847,-0.1630171835422516,-4.97350445164144,0.02154606580734253
1773522826781440500,10.0304404296875,0.059881840182671245,-0.07514898478984833,0.08674573194958124,0.04575961083173752,0.21903583779652214,0.937970163047128,0.4422023987501624,right,0.018780112266540527,0.5412497122055172,0.5030023480590433,-8.38987649142742,0.25438262833556224,0.2294832468032837,-0.14515745639801025,-5.052459330412745,0.003813505172729492
1773522826821440500,10.0704404296875,0.05979641987741725,-0.024690944701433182,0.08741725041582464,-0.07804029434919357,0.21849546805419245,0.9369793469101688,0.4413395302600928,right,-0.12462586164474487,0.549347799771592,0.49982408334910866,-8.348802722761034,0.25823971287105213,0.16569136083126068,-0.17703241109848022,-5.120356808596849,-0.03383982181549072
1773522826861440500,10.1104404296875,0.05049426559414681,-0.09366582334041595,0.08360406296079123,0.03732995688915253,0.21738714228554273,0.9366755626959838,0.4417287383314947,right,0.023048818111419678,0.5542029509233001,0.4208820275267586,-8.328164423879981,0.2615189524441851,0.1307263821363449,-0.09080071747303009,-5.160903923040628,0.02034991979598999
1773522826901440300,10.150440185546875,0.04708596939214758,-0.03691589832305908,0.08233550316487012,-0.011256873607635498,0.2172144139659331,0.9364249896057123,0.44240696584780004,right,0.03849726915359497,0.5565385647066103,0.3919263474816456,-8.317486962521075,0.2629582679623636,0.027301542460918427,-0.09728485345840454,-5.180365579357743,0.042873531579971313
1773522826941440500,10.1904404296875,0.04566429153944759,0.02307167649269104,0.08207729735173744,0.09777101874351501,0.21744048900222684,0.9360067944114577,0.443401794229317,right,0.0437811017036438,0.5592345155291977,0.37946225843429565,-8.304054064974189,0.2643376251836672,0.1098380759358406,-0.10364028066396713,-5.202795437830686,-0.01485741138458252
1773522826981440500,10.2304404296875,0.038449970734796404,0.10918444395065308,0.07976938604483841,-0.08022870123386383,0.21961678305551938,0.9353337338027173,0.45016971794570176,right,0.04304492473602295,0.5608804998889393,0.3192151488728821,-8.29800718602538,0.26562423127169305,0.016187094151973724,-0.10038752108812332,-5.216470911961793,-0.007332146167755127
1773522827021440500,10.2704404296875,0.03424266708130777,0.21418717503547668,0.07912362483330082,0.044958293437957764,0.22245498073924921,0.934249610642323,0.45759387712736743,right,-0.01080542802810669,0.5640209811902924,0.28373793983822687,-8.282862808385492,0.26726572687836303,0.025846514850854874,-0.1491030603647232,-5.242524221628904,-0.08280199766159058
1773522827061440500,10.3104404296875,0.020021675159440692,0.26624760031700134,0.07457725074364602,-0.13623632490634918,0.227756665117705,0.9330275007486746,0.47304208564240346,right,0.10846096277236938,0.5642384159280406,0.16589986124737188,-8.284920325437188,0.26837446019902744,-0.007200784981250763,-0.1047150194644928,-5.244326302614808,-0.036088407039642334
1773522827101440500,10.3504404296875,0.0025729947069796917,0.28967759013175964,0.06867793080492728,-0.3773830831050873,0.2318738263319686,0.9316315355391301,0.48711756659403904,right,0.3239160180091858,0.5672005443261977,0.021280957865878008,-8.2709829854995,0.271257371791173,0.01807623915374279,-0.04014194384217262,-5.268848749452829,0.015108585357666016
1773522827141440500,10.3904404296875,-0.020250363083790957,0.19567328691482544,0.06024286278236067,-0.17478692531585693,0.2344849442258872,0.9303605604756894,0.4997348636549852,right,0.785590410232544,0.5711491612543234,-0.16705723285526036,-8.248450251173972,0.27534866874048713,0.18177537620067596,0.09327711164951324,-5.301466824463009,0.3071255683898926
1773522827181440500,10.4304404296875,-0.02400946059292104,0.2707711458206177,0.06163668960425275,0.028376907110214233,0.23956040358315145,0.9274399084029827,0.5127480411105425,right,0.4810620844364166,0.582102352613547,-0.1966568002944812,-8.189218894526363,0.2804763083005986,0.3022319972515106,0.15158706903457642,-5.391512421569228,0.22812435030937195
1773522827221440500,10.4704404296875,-0.017451765401074175,-0.10763150453567505,0.06563414523938345,0.2218664139509201,0.2396063983312016,0.9261053044464882,0.5116607152774086,right,0.273428738117218,0.5911669450938306,-0.14209183715586549,-8.141132032227516,0.2839188919470425,0.08506351709365845,0.20000995695590973,-5.465543287941813,0.3026013672351837
1773522827261440500,10.5104404296875,-0.019717966655723583,-0.08681729435920715,0.06460576843169083,-0.4717862606048584,0.23814836645892712,0.926057863522486,0.5094527752499228,right,0.21564257144927979,0.5939137194739813,-0.16024430143740026,-8.125748585134744,0.28553145909471683,0.029579952359199524,0.0700281411409378,-5.487887806218862,0.47754761576652527
1773522827301440500,10.5504404296875,-0.030216352576725038,0.11800739169120789,0.05975371403680347,-0.07331410050392151,0.23567049015021216,0.9262854293347461,0.5075636559759805,right,0.13445061445236206,0.596212428468364,-0.24515936725474893,-8.110988238376379,0.28789616140894314,0.007752811536192894,0.1049794852733612,-5.5065556818097825,0.16683971881866455
1773522827341440500,10.5904404296875,-0.032099923856889985,-0.1149115264415741,0.05821347716371325,-0.07535519450902939,0.23435717352621946,0.9269890917451913,0.5050727859862892,right,0.06612974405288696,0.593673774777377,-0.260884376060497,-8.124457960802316,0.2870176484608611,-0.08220779895782471,0.046968817710876465,-5.485937256672978,0.14109206199645996
1773522827381440500,10.6304404296875,-0.03207881005211813,0.03392072021961212,0.05856331909072166,0.036716192960739136,0.2352240733098295,0.9266890425451696,0.5069877118304484,right,-0.12997907400131226,0.5942081722486606,-0.2606187656605616,-8.121531844222545,0.28720627876344546,0.029437847435474396,0.03985201194882393,-5.490280838835239,0.050604820251464844
1773522827421440300,10.670440185546875,-0.03301394899564571,-0.11465497314929962,0.05794808200213788,-0.05268878489732742,0.2325430116752172,0.926675725683049,0.5019225793667026,right,-0.10442692041397095,0.5987189970164118,-0.2673932282315567,-8.096450009936094,0.28954784026747077,0.12451151758432388,0.10384891927242279,-5.5268783388704055,-0.13774728775024414
1773522827461440500,10.7104404296875,-0.028370531687849906,-0.29709821939468384,0.05868671896199244,-0.056587908416986465,0.22770395056564094,0.9275535944453956,0.4902494989799419,right,-0.10882323980331421,0.601051810154062,-0.22942891508890315,-8.084694105690717,0.290432738874446,0.08301977068185806,0.09139803797006607,-5.545761318516731,-0.18646693229675293
1773522827501440500,10.7504404296875,-0.026281547454518633,-0.11221690475940704,0.05891913599568286,0.03218461945652962,0.22541744939217542,0.9280376956047166,0.48471817018938673,right,-0.1887916922569275,0.6016220567824934,-0.2124565000379458,-8.081993030038475,0.29062271450576643,0.0018554851412773132,0.0680079236626625,-5.550372611704469,-0.09291243553161621
1773522827541440500,10.7904404296875,-0.01681804756415865,-0.0848543792963028,0.061946543575153425,-0.014046870172023773,0.22143661205718307,0.9286661162642439,0.47339006578344145,right,-0.3806880712509155,0.6040774866314725,-0.1357345770836342,-8.069990457555651,0.2910457215061638,-0.024119539186358452,-0.03150664269924164,-5.570207192987203,-0.18834257125854492
1773522827581440500,10.8304404296875,-0.013539931352058951,-0.30490416288375854,0.06243705263227866,0.18463778495788574,0.21995631887478917,0.929545152852132,0.46890173524117623,right,-0.20975762605667114,0.6006901142389048,-0.1095343697591219,-8.089212459897995,0.28925171874930383,0.02771262265741825,0.11958419531583786,-5.54283520193696,0.010910451412200928
1773522827621440500,10.8704404296875,-0.0103165015748032,-0.036576807498931885,0.06206733901420923,-0.2717479169368744,0.21598866384769175,0.9310981826212235,0.45905310200503086,right,-0.2646636962890625,0.5966293227917938,-0.08369034632798283,-8.111963805410266,0.28731967147976095,-0.16068924963474274,0.012869243510067463,-5.509938309985399,-0.15526312589645386
1773522827661440300,10.910440185546875,-0.003013462467515085,-0.3323900103569031,0.06351744534089138,0.11006215214729309,0.21163146728370436,0.9324780438638032,0.447273320742934,right,-0.2811044454574585,0.5941757245472451,-0.024487320725712924,-8.125853799074887,0.2857661715896751,-0.12063567340373993,0.053012896329164505,-5.490017219462991,-0.046955406665802
1773522827701440500,10.9504404296875,-0.00010617940381408864,-0.13081887364387512,0.06328321154791873,0.026687808334827423,0.2088598304437095,0.9339070122014154,0.44007317275574026,right,-0.16794151067733765,0.5887969392006992,-0.0008662177012676692,-8.155302596399187,0.2831793207419663,-0.041047655045986176,0.09822544455528259,-5.446230100184679,-0.020371437072753906
1773522827741440500,10.9904404296875,0.008801946222549447,-0.2676090598106384,0.0649684037614496,-0.04299192875623703,0.2039235936212442,0.9358011299625952,0.4264758544522948,right,-0.30023670196533203,0.5833002403252024,0.07204372027651407,-8.184798155474663,0.28012591436682327,-0.20148766040802002,0.053549837321043015,-5.401321283400058,-0.21438831090927124
1773522827781440500,11.0304404296875,0.016567622544904563,-0.36974984407424927,0.06639190075847501,0.136771559715271,0.19990429490576136,0.9375977403052641,0.41521223632363546,right,-0.2883231043815613,0.5767901078571563,0.13618107874211854,-8.218976903930306,0.27666028230517986,-0.15617448091506958,0.13356858491897583,-5.347921117123962,-0.03431648015975952
1773522827821440500,11.0704404296875,0.02419870006794782,0.03636002540588379,0.06773335839503249,-0.07446342706680298,0.1960602529226759,0.9395045229923438,0.4043880610666261,right,-0.43929994106292725,0.5689569530040015,0.1999036549949087,-8.259324696409703,0.2725872849854917,-0.15838900208473206,0.022273335605859756,-5.283368273192644,-0.30696380138397217
1773522827861440500,11.1104404296875,0.020420941458522867,-0.06675244867801666,0.06525708010813211,-0.13216862082481384,0.1956106990187274,0.9406263378355848,0.4041781318270987,right,-0.42386239767074585,0.5618719226806927,0.1694606772677973,-8.297238539740443,0.2696295414423857,-0.23167917132377625,-0.05389341711997986,-5.22470098016858,-0.1873772144317627
1773522827901440300,11.150440185546875,0.01714570999474365,-0.3097968101501465,0.062462352442412085,-0.15268926322460175,0.19336603525353696,0.942129916711582,0.3999844419446099,right,-0.24515807628631592,0.5545773813078304,0.1429340783999767,-8.335634029108286,0.2666446875015762,-0.03156343102455139,0.011103805154561996,-5.1640258544534445,-0.06946223974227905
1773522827941440500,11.1904404296875,0.021653134654198866,-0.5004903078079224,0.061212281183095595,-0.26366397738456726,0.18253787746534467,0.9444790202707078,0.375683633120485,right,-0.19129884243011475,0.5530610190376364,0.1806740721343085,-8.342724279630184,0.2662564436815592,-0.023111311718821526,0.1601828932762146,-5.151377969804406,-0.2501170039176941
1773522827981440500,11.2304404296875,0.024085269627819327,-0.416169673204422,0.05979828140346146,-0.163630872964859,0.17367163801744867,0.9460951340220778,0.3562516056269175,right,-0.14353346824645996,0.5533622670579624,0.20092676923125982,-8.340708263632655,0.2667702935389706,-0.043089233338832855,0.22488197684288025,-5.153891413930058,-0.1201397180557251
1773522828021440500,11.2704404296875,0.02615899972371241,0.09115609526634216,0.06011873561261172,0.22408640384674072,0.17198321050348564,0.9465610420534906,0.35205270484865736,right,-0.1436765193939209,0.5521418024533549,0.21838705913070589,-8.346555820617079,0.2661387480962772,0.04218281805515289,0.15786170959472656,-5.14370553548038,-0.10849082469940186
1773522828061440500,11.3104404296875,0.02506986464153581,0.1571352481842041,0.06013698030472174,-0.1128275990486145,0.1739648296047238,0.9463055088068222,0.35651880249782353,right,-0.20412850379943848,0.551416536291679,0.2093898607426323,-8.350515371897815,0.2657550295872322,0.028484530746936798,-0.004346292465925217,-5.137648135137558,-0.101803719997406
1773522828101440500,11.3504404296875,0.0223149585169691,0.06194267421960831,0.059908260650069066,-0.018743492662906647,0.17691719571335154,0.9455559250483057,0.3635982914552432,right,-0.29985517263412476,0.5529801457480488,0.18620474518928676,-8.343019463184476,0.266524662972235,0.05077133700251579,-0.05171564221382141,-5.150702847021818,0.027103066444396973
1773522828141440500,11.3904404296875,0.01727625362923203,0.21237438917160034,0.05897870633993892,0.12639421224594116,0.17944953872490227,0.9442814275010862,0.3706404203363323,right,-0.2229481339454651,0.5588497517083255,0.14363977898391894,-8.313480064967274,0.26954034828670415,0.16756954789161682,0.006689645349979401,-5.199596349528432,0.04685103893280029
1773522828181440500,11.4304404296875,0.016628736343947226,0.07936306297779083,0.06010005021318135,0.037169091403484344,0.18201068820147107,0.942796369407785,0.37658092034870555,right,-0.19763100147247314,0.5659072003091222,0.13764301365399734,-8.2766733060956,0.2727546055046467,0.276102751493454,-0.03884761407971382,-5.2581473226964475,0.054046571254730225
1773522828221440500,11.4704404296875,0.02179755524631207,-0.03331732004880905,0.06417089461936094,0.1841355264186859,0.18389384623763513,0.94045341059439,0.37970300823392544,right,-0.26400744915008545,0.5794976021653979,0.17884745949534697,-8.203646063807605,0.2785902839336806,0.40265464782714844,-0.009285768494009972,-5.370156914329528,0.08759209513664246
1773522828261440500,11.5104404296875,0.027992071524007792,-0.11535443365573883,0.06802490710227849,0.08194184303283691,0.18118745087275892,0.9377561488357555,0.37304866866170855,right,-0.1629352569580078,0.6010293057779479,0.22637208480155094,-8.084905118092895,0.2883698382011506,0.7643105387687683,0.020958654582500458,-5.545578947687149,0.04070925712585449
1773522828301440500,11.5504404296875,0.04338463539236089,-0.13021153211593628,0.07723835157014644,0.232164204120636,0.17955258107850253,0.9324078604704654,0.3661777996675103,right,-0.30710554122924805,0.6367983561727315,0.3419621470035985,-7.877163115888833,0.3039912538842862,0.8381443619728088,-0.02150895446538925,-5.831272789099812,0.14851924777030945
1773522828341440500,11.5904404296875,0.05425002256056846,-0.03550291061401367,0.0836624554998284,0.12244173139333725,0.17755820329495337,0.9278345638023414,0.3593800756892644,right,-0.23905998468399048,0.6665421821911277,0.41793621986582874,-7.696336593139171,0.3171697196425237,0.6153677701950073,0.02075536921620369,-6.063176588135957,0.08072316646575928
1773522828381440500,11.6304404296875,0.055099568859037384,0.05018630623817444,0.08574142639198097,-0.021288327872753143,0.17731127687824055,0.9242868440275017,0.35933003150328396,right,-0.13015210628509521,0.6877701749661964,0.4172911634279415,-7.565740958979726,0.32696019521561676,0.43746218085289,0.06158508360385895,-6.225417068359255,0.04825270175933838
1773522828421440300,11.670440185546875,0.0516665024232482,0.21303606033325195,0.08614985379724246,-0.018970733508467674,0.1791020499253869,0.9216841736782401,0.3649634375308247,right,-0.13139933347702026,0.7010297874866124,0.3870177518477663,-7.4840294749766585,0.3331649588520649,0.20776119828224182,0.06686477363109589,-6.325338162791729,-0.027561485767364502
1773522828461440500,11.7104404296875,0.038772298442579387,0.21453456580638885,0.08274735947479946,-0.17016878724098206,0.18286374268002417,0.9203180699122742,0.37801227090563416,right,-0.02052438259124756,0.705293242077692,0.28943967687748373,-7.461382174360752,0.33575030998887895,-0.006611421704292297,0.0548921599984169,-6.357230846136808,0.05112415552139282
1773522828501440500,11.7504404296875,0.028934226926453498,0.17154893279075623,0.07973830021954596,-0.06447844207286835,0.1854285482456085,0.919915844334275,0.3871663803106664,right,0.12048107385635376,0.7050540809580638,0.2160652468533255,-7.465388487392664,0.33617395905347375,0.026909280568361282,0.03360523283481598,-6.355445131763815,0.05269026756286621
1773522828541440500,11.7904404296875,0.02058064484851691,0.11364039778709412,0.07724303137482956,-0.051554642617702484,0.18762577258350724,0.91946323988805,0.39501788676294297,right,0.312094509601593,0.7053368203582284,0.15365871250201016,-7.465135973936319,0.33677515603887087,0.018139125779271126,0.01648847572505474,-6.3575564248293635,0.11777687072753906
1773522828581440500,11.8304404296875,0.018786503592720494,0.13061079382896423,0.07757861787928876,0.09015325456857681,0.19004009364579455,0.9186913422492735,0.40103326965673325,right,0.33068057894706726,0.7069411818944629,0.14007317254352383,-7.455192087548971,0.33745008256777276,0.0033617932349443436,-0.016919244080781937,-6.369527433130145,0.15286022424697876
1773522828621440500,11.8704404296875,0.01678075265598253,0.01597810536623001,0.0768869204308057,0.0700213685631752,0.191475500959901,0.9191149713702083,0.404623564365876,right,0.48323845863342285,0.7028890397014018,0.1255517125749495,-7.481203311640024,0.33563849524673967,-0.1746663749217987,-0.009944322519004345,-6.339260305160284,0.2784597873687744
1773522828661440300,11.910440185546875,0.01853107691480221,0.0851549580693245,0.07706368468736563,0.0748855397105217,0.19319487071586794,0.9206668385544707,0.4070027259572086,right,0.5393224954605103,0.6918992668897292,0.1399285764410626,-7.550173972013592,0.3303172182531753,-0.35217154026031494,-0.03885685279965401,-6.256650995534658,0.31944340467453003
1773522828701440500,11.9504404296875,0.020170737709153466,0.0832597091794014,0.07717855297506962,0.18506738543510437,0.19619628429451544,0.9226617092524714,0.41194583019965875,right,0.5071033239364624,0.6765235113955783,0.15423033837750552,-7.6452189848423,0.322871161969376,-0.40201351046562195,-0.01197311282157898,-6.139806238830089,0.2738357484340668
1773522828741440500,11.9904404296875,0.02382486353093868,0.12211467325687408,0.07828241495138479,0.21212249994277954,0.19999037630585395,0.9245233544672271,0.41790256647390295,right,0.4155850410461426,0.6604710857276357,0.18449019635636357,-7.742146158155799,0.31485277031203746,-0.3456859588623047,0.00574742816388607,-6.016271044576167,0.17087239027023315
1773522828781440500,12.0304404296875,0.029267192925749506,0.06090158969163895,0.08055995386686071,0.11281239986419678,0.20337394450786256,0.9254561826529357,0.42276952462622347,right,0.24120450019836426,0.6501367938310604,0.22842982104895634,-7.802760493594407,0.30932188848222153,-0.1366100162267685,0.041031964123249054,-5.935919158488511,-0.0060929059982299805
1773522828821440500,12.0704404296875,0.03351984321187826,0.08367185294628143,0.08338459644356963,0.22417211532592773,0.20561964330253366,0.9244272771892014,0.42637704324003506,right,0.10179930925369263,0.6532106446025965,0.26099733491567895,-7.783445552271604,0.31016404237003137,0.2257562130689621,0.03293965011835098,-5.959885725009441,-0.1358928084373474
1773522828861440500,12.1104404296875,0.03579677197793597,0.11533628404140472,0.08621290471986522,0.11422958225011826,0.2079309236471814,0.9221638525370582,0.43120987101017255,right,0.009625852108001709,0.6636521300403241,0.27647668013097715,-7.720217819464207,0.31455649211267195,0.19850467145442963,0.021709034219384193,-6.0408759090006345,-0.12743008136749268
1773522828901440300,12.150440185546875,0.039260826392170496,0.02303275465965271,0.08846737468820941,0.10484570264816284,0.21117896218692958,0.9218039518904118,0.436937779340859,right,-0.13253092765808105,0.661215137307013,0.30379515089569614,-7.7339008923798795,0.31281676010808523,-0.30522334575653076,0.006042081862688065,-6.022031507799029,-0.03293699026107788
1773522828941440500,12.1904404296875,0.0433066455752331,-0.05355800688266754,0.08922365316732912,0.0842418521642685,0.21164675666853752,0.9232804359523228,0.436052239200859,right,-0.0031151771545410156,0.6514128515655537,0.3376219989074394,-7.7912103410542,0.30789277765501394,-0.11626191437244415,0.06097698211669922,-5.945875319835543,-0.053872525691986084
1773522828981440500,12.2304404296875,0.05001881553456801,-0.09030148386955261,0.09166633324124993,0.10557012259960175,0.21099147867995405,0.923509008058192,0.4323527302827298,right,0.01987379789352417,0.6505216368982077,0.39017471804134546,-7.794058131700754,0.30693796959490693,0.05028919875621796,0.06913570314645767,-5.938923016479611,-0.01158827543258667
1773522829021440500,12.2704404296875,0.055660720783800556,-0.10134486854076385,0.09374115256427544,0.004991188645362854,0.20929400372879087,0.9233205560203138,0.4269451572885011,right,0.03259760141372681,0.6536339274644418,0.43311121183969076,-7.773239800077676,0.3080384100095738,0.051267966628074646,0.06419731676578522,-5.963181843945383,0.004411160945892334
1773522829061440500,12.3104404296875,0.06387218655529116,-0.0999566912651062,0.0965734349078081,0.014207691885530949,0.20648956781320946,0.9231900674482139,0.41829616826931476,right,0.011334359645843506,0.6576195301655542,0.49540465947166085,-7.745641599056124,0.30944426851621104,0.10902492702007294,0.02728254348039627,-5.994163257664442,-0.0412517786026001
1773522829101440500,12.3504404296875,0.06806946942978687,-0.05072754621505737,0.09767635600988117,-0.05492696166038513,0.2041499159096824,0.9233677502673212,0.4118866637622975,right,0.010837435722351074,0.6593333507897484,0.5272113450337201,-7.733233368381858,0.3101195748805365,-0.052053213119506836,0.002921454608440399,-6.007456454479694,-0.009093284606933594
1773522829141440500,12.3904404296875,0.07187535910655887,-0.08045418560504913,0.09828111668379129,-0.018394920974969864,0.20266614655566004,0.9244267816264251,0.4072302982403295,right,-0.021580815315246582,0.6545446322803672,0.5586988085787743,-7.759775922870635,0.3077374826602025,-0.23530986905097961,-0.003133486956357956,-5.970269171857834,0.003401517868041992
1773522829181440500,12.4304404296875,0.0735718339757757,-0.12216898798942566,0.09765915626357363,-0.014644021168351173,0.2007585284205023,0.9260079304978506,0.4023050122901238,right,-0.0186692476272583,0.647246095835502,0.5750499681925401,-7.80206608158946,0.3044142169806209,-0.13350723683834076,0.03571629896759987,-5.913329141017794,-0.04169970750808716
1773522829221440500,12.4704404296875,0.07413191636184485,-0.09917780756950378,0.09675272706165088,-0.07059100270271301,0.19838371393673468,0.9271368045899688,0.39687613558533813,right,0.005440235137939453,0.6433762606745158,0.5811101815469563,-7.824505292412638,0.30282035153456416,-0.061542779207229614,0.0451049841940403,-5.883010575121641,-0.04856592416763306
1773522829261440500,12.5104404296875,0.07294630521843863,-0.04159978777170181,0.09536776317959461,-0.10381534695625305,0.19636971201227293,0.9279996446549394,0.39284315553130333,right,0.030293405055999756,0.6407952256877515,0.5729376887463032,-7.840306672656536,0.30192814321830636,-0.05139049515128136,0.02776283398270607,-5.8627399405092,-0.06961709260940552
1773522829301440500,12.5504404296875,0.06898054422275418,0.07858484238386154,0.09358776892856509,-0.10514865070581436,0.19587809101892348,0.9281200861507614,0.39308338762563205,right,0.10243231058120728,0.641070078281164,0.5417294074688106,-7.840909314724803,0.30243382611262015,0.03242149576544762,-0.002475801855325699,-5.864900333413481,-0.07503747940063477
1773522829341440500,12.5904404296875,0.06379912191748226,0.09015271067619324,0.09204172633240482,-0.04169168323278427,0.19666090070515788,0.9274313317505317,0.3965897338171331,right,0.23898649215698242,0.6447753667380679,0.49970633872095493,-7.821870267733931,0.3045060491367884,0.07710736989974976,-0.024753514677286148,-5.893982050991058,0.033080339431762695
1773522829381440500,12.6304404296875,0.06130975042728663,0.07982387393712997,0.09183588231532244,0.02408411353826523,0.19787173601434524,0.9264799140706429,0.4001863572185613,right,0.32715973258018494,0.6492570653854314,0.47860995734147727,-7.796645810106396,0.30667224459435366,0.13943645358085632,-0.03751417621970177,-5.929049272719025,0.10130023956298828
1773522829421440300,12.670440185546875,0.06109133289817315,0.09358702600002289,0.09292433926577273,0.039592839777469635,0.19921726693955477,0.924943086388497,0.40345976069854234,right,0.41837987303733826,0.6568953095824148,0.4741281722849235,-7.751320229214429,0.3100931085907608,0.23356935381889343,-0.044726431369781494,-5.9885407416075465,0.19099605083465576
1773522829461440500,12.7104404296875,0.062072144369793573,0.09107866883277893,0.0951521995842064,0.11647714674472809,0.201140873278254,0.9224890166539148,0.4077804177378735,right,0.42778077721595764,0.6690711121655528,0.4771718142971396,-7.677503882375359,0.3154398769437592,0.34531205892562866,-0.020237669348716736,-6.0826493503689765,0.2589051127433777
1773522829501440500,12.7504404296875,0.06334561941509916,0.09868309646844864,0.09751954700406272,0.08776285499334335,0.2027069364115276,0.9198514791209715,0.41130098337341675,right,0.4281420111656189,0.6825127899073377,0.48172896614484484,-7.594601727283001,0.32136119248631795,0.3104192018508911,-0.02519395388662815,-6.185494807815552,0.3393738567829132
1773522829541440500,12.7904404296875,0.0668828711934225,-0.07116419821977615,0.10000687926700226,0.1043848916888237,0.20234424226143197,0.9177696178042178,0.40978086628301197,right,0.3480663597583771,0.6947619366483258,0.5034881588146091,-7.516684959387779,0.3267328379044354,0.3092326819896698,-0.0011690892279148102,-6.278242649617791,0.33922654390335083
1773522829581440500,12.8304404296875,0.0665527498819173,-0.12501507997512817,0.099906954212269,-0.13839736580848694,0.20056307672046814,0.9169515427189137,0.40630778497072567,right,0.2475331425666809,0.7017054828502121,0.4980955425234511,-7.47317314991951,0.33014060966067177,0.06536296010017395,-0.0013632066547870636,-6.330400122356415,0.3407043516635895
1773522829621440500,12.8704404296875,0.06287794367812416,-0.024001799523830414,0.09684174986719071,-0.1765459179878235,0.19672573669900462,0.9182308836935149,0.39916899664620353,right,0.127488374710083,0.6994283031436893,0.47153435639943925,-7.4893205671221015,0.32980691767973636,-0.08181284368038177,-0.052410852164030075,-6.313328576046228,0.043515682220458984
1773522829661440300,12.910440185546875,0.05948953422757075,-0.16759777069091797,0.09451073361329047,-0.02471703290939331,0.19543250654254887,0.9194888720650666,0.39733611989559087,right,0.08224219083786011,0.694041824479155,0.44817021275106816,-7.524713367542624,0.3277409300968111,-0.16612309217453003,-0.03292335197329521,-6.272815948393941,0.13868743181228638
1773522829701440500,12.9504404296875,0.06294877626197462,-0.10145636647939682,0.09440073905415218,0.15291297435760498,0.19359137927797818,0.921398664190807,0.3917376292836842,right,0.03520089387893677,0.6849669739897914,0.47775871080700305,-7.579619846728444,0.32347403996227875,-0.2043713629245758,0.061838071793317795,-6.204152162012457,-0.0006730556488037109
1773522829741440500,12.9904404296875,0.07120139924872543,-0.18062889575958252,0.0956277476371951,0.026965394616127014,0.19162229720150678,0.9243745701774371,0.38404741415084187,right,-0.06096339225769043,0.6691292381874385,0.5472157299254089,-7.672475240558385,0.3157023306339392,-0.44444847106933594,0.041144534945487976,-6.083096509614586,-0.07069981098175049
1773522829781440500,13.0304404296875,0.07805987296014393,-0.11876091361045837,0.09701916874736981,0.02521156333386898,0.1914356732217681,0.9268476463834032,0.3808842568605307,right,-0.20278078317642212,0.6537556814427843,0.60704541779235,-7.760866056194901,0.30804744997740163,-0.3813679814338684,0.030744444578886032,-5.964129353928565,0.014745235443115234
1773522829821440500,13.0704404296875,0.07499401940155302,0.08611944317817688,0.09385158892537364,-0.006113899871706963,0.18953016596570918,0.9296469955727391,0.3774057762075173,right,-0.13525831699371338,0.6391785820267037,0.589700570966117,-7.848558368173241,0.30170643927947777,-0.19187380373477936,0.049986016005277634,-5.850023666799068,-0.13687938451766968
1773522829861440500,13.1104404296875,0.0740778457266443,-0.15387460589408875,0.09302100168053881,0.001163459848612547,0.19016726614253937,0.9307231781961596,0.3788784998016465,right,-0.2320680022239685,0.6316882968755143,0.5857363069776446,-7.892572866466641,0.29822455366790823,-0.28808340430259705,0.03777717798948288,-5.7909062919199465,0.07320332527160645
1773522829901440300,13.150440185546875,0.07341669199909605,-0.0016903430223464966,0.09160661753845237,-0.061774104833602905,0.1893167813057081,0.9324640447219201,0.3770132845908023,right,-0.245012104511261,0.6217684013856003,0.584702981874533,-7.949859518787265,0.2937315268089787,-0.15181362628936768,0.02441404014825821,-5.712113910233974,-0.12732738256454468
1773522829941440500,13.1904404296875,0.07197977694514633,-0.22421996295452118,0.08924201667655389,-0.1461380273103714,0.1862241169070893,0.9345249976223513,0.37061685441127706,right,-0.19120162725448608,0.612607903725107,0.5770181629929692,-8.002547152879833,0.289861182205206,-0.2396240532398224,0.07139499485492706,-5.638854028233886,-0.132199227809906
1773522829981440500,13.2304404296875,0.07579140046925316,-0.24104759097099304,0.08917092786425043,-0.12954024970531464,0.18258865939073118,0.9361991822356259,0.3615263975801622,right,-0.3295191526412964,0.605927084368284,0.6103554921884089,-8.037675164884329,0.2867771999826736,-0.21497593820095062,0.05169687792658806,-5.585125945177674,-0.12380588054656982
1773522830021440500,13.2704404296875,0.07400210045338403,0.15506798028945923,0.08696007012215334,0.1486356109380722,0.18026116010013565,0.9380339688349794,0.3569329108533432,right,-0.279570996761322,0.596926323472603,0.5996652444131672,-8.088560717990994,0.2829065720681861,-0.15234330296516418,0.0580664798617363,-5.5123471246927975,-0.3266996145248413
1773522830061440500,13.3104404296875,0.08087468001205163,0.05125078558921814,0.09018386949860703,0.03969695419073105,0.18431257434696416,0.9387866929837179,0.3633308397363501,right,-0.6176030039787292,0.585733469798724,0.6601832068052143,-8.145238298502564,0.2767224428909663,-0.44169169664382935,-0.07468339055776596,-5.421221331134438,-0.2688196301460266
1773522830101440500,13.3504404296875,0.07859839095333246,0.16239184141159058,0.08939010979937963,0.0767100527882576,0.18827765810480768,0.9397212304128462,0.3722568488549556,right,-0.5455169677734375,0.5741744788154581,0.646517815676704,-8.208644310486315,0.27108119774294714,-0.18612456321716309,0.05687914043664932,-5.326401943755149,-0.1606568694114685
1773522830141440500,13.3904404296875,0.07629250251697098,-0.081999272108078,0.08765042648469952,-0.2327030599117279,0.18737531202093388,0.940756947442903,0.37090547959126813,right,-0.49276697635650635,0.5684854282336472,0.6298873641975223,-8.24019446400404,0.2686715523002375,-0.009993508458137512,0.11559796333312988,-5.279471850275993,-0.2488967776298523
1773522830181440500,13.4304404296875,0.0725474298217214,-0.21944712102413177,0.08541912703600875,-0.095340296626091,0.18436322330040913,0.9409952744088328,0.36562696607528883,right,-0.3093613386154175,0.5714158115905907,0.5978988923277706,-8.227030446526408,0.27063217176014326,0.11893360316753387,0.19158212840557098,-5.3036663803339,-0.11849778890609741
1773522830221440500,13.4704404296875,0.07648175392268029,-0.09895236045122147,0.08638737828048414,0.016832508146762848,0.18042102609575472,0.9409834906938299,0.3561936095224259,right,-0.24015474319458008,0.5763556031929905,0.6282525295373051,-8.198391212019324,0.273012071214577,0.15371926128864288,0.15418723225593567,-5.344348519334197,-0.25060945749282837
1773522830261440500,13.5104404296875,0.07494105226965657,-0.08694808185100555,0.08514416462707652,-0.27154532074928284,0.1766338460622046,0.9407826280749474,0.3486926851250043,right,-0.19913733005523682,0.5828701114510704,0.6130007460001856,-8.164457962757348,0.27654833288742703,0.1707148402929306,0.06187329441308975,-5.3978001235365864,-0.24279814958572388
1773522830301440500,13.5504404296875,0.06346678246279258,0.06886881589889526,0.08044161801484467,-0.1812039017677307,0.17674706200757967,0.940592814040915,0.3523626223558276,right,-0.18421167135238647,0.5852262321365049,0.518473217706941,-8.158238649851084,0.2785224028655376,-0.0533442497253418,0.024892132729291916,-5.417075317370891,-0.05437737703323364
1773522830341440500,13.5904404296875,0.052371397811424296,0.245906263589859,0.07597669188849838,-0.031555309891700745,0.17796700908804275,0.9406208727235212,0.3582243868700142,right,-0.13745534420013428,0.5844359537706663,0.42814832873530684,-8.167761680477858,0.2789042686270408,0.040605150163173676,-0.008309561759233475,-5.410613427880406,-0.07414853572845459
1773522830381440500,13.6304404296875,0.049440752362009184,0.1321413815021515,0.07634017007635302,-0.07878194749355316,0.18285470353802014,0.9394343089220553,0.36955168834795027,right,-0.29763662815093994,0.586354705832859,0.4036958783935755,-8.15859754629135,0.2796416878647079,-0.0060475170612335205,-0.07758674025535583,-5.426297319224476,0.07218360900878906
