time,seconds_elapsed,z,y,x
1773522816825593900,0.07459375,-221.10415649414062,25.643890380859375,-34.34619140625
1773522816835707000,0.084706787109375,-221.36660766601562,26.051544189453125,-34.209869384765625
1773522816845821000,0.094821044921875,-221.04454040527344,26.285232543945312,-33.62480163574219
1773522816855935000,0.10493505859375,-220.5616912841797,26.298065185546875,-33.00645446777344
1773522816866047700,0.1150478515625,-220.83815002441406,26.485519409179688,-32.69622802734375
1773522816876162000,0.125162109375,-220.42288208007812,26.3897705078125,-31.684478759765625
1773522816886273000,0.13527294921875,-219.9868621826172,26.400833129882812,-30.387725830078125
1773522816896386800,0.14538671875,-219.4335174560547,25.980804443359375,-29.242813110351562
1773522816906498800,0.155498779296875,-219.3992462158203,24.911727905273438,-28.382308959960938
1773522816916611300,0.165611328125,-219.01840209960938,24.21429443359375,-27.43988037109375
1773522816926724400,0.175724365234375,-219.115234375,22.305862426757812,-26.528579711914062
1773522816936836600,0.185836669921875,-218.8329315185547,20.713607788085938,-25.491455078125
1773522816946950400,0.195950439453125,-218.60694885253906,18.734359741210938,-24.955718994140625
1773522816957062400,0.2060625,-219.0764923095703,17.686050415039062,-25.159103393554688
1773522816967175400,0.216175537109375,-218.8741455078125,18.101943969726562,-25.059005737304688
1773522816977287400,0.226287353515625,-218.4063720703125,18.160293579101562,-24.014617919921875
1773522816987400400,0.236400390625,-217.25596618652344,19.4224853515625,-22.965118408203125
1773522816997514500,0.246514404296875,-216.67005920410156,20.847274780273438,-21.447586059570312
1773522817007625500,0.25662548828125,-214.90921020507812,21.79266357421875,-20.28955078125
1773522817017737500,0.266737548828125,-213.8509979248047,23.514328002929688,-19.198684692382812
1773522817027851500,0.2768515625,-212.68716430664062,24.052444458007812,-18.059539794921875
1773522817037964500,0.286964599609375,-211.99986267089844,24.825302124023438,-17.316268920898438
1773522817048077600,0.29707763671875,-211.39756774902344,25.418914794921875,-16.765716552734375
1773522817058189300,0.307189208984375,-211.1478271484375,25.444198608398438,-16.388595581054688
1773522817068302300,0.31730224609375,-210.35269165039062,26.289657592773438,-16.135650634765625
1773522817078415400,0.327415283203125,-209.85003662109375,25.926177978515625,-15.392135620117188
1773522817088528400,0.3375283203125,-209.96974182128906,26.004684448242188,-15.814727783203125
1773522817098641400,0.347641357421875,-209.91925048828125,26.805389404296875,-15.910888671875
1773522817108755700,0.357755615234375,-209.60679626464844,26.762969970703125,-15.791824340820312
1773522817118869500,0.367869384765625,-209.3667449951172,27.607070922851562,-16.06573486328125
1773522817128981500,0.3779814453125,-209.18516540527344,28.125823974609375,-15.909744262695312
1773522817139094500,0.388094482421875,-209.1970672607422,28.833297729492188,-16.078582763671875
1773522817149208600,0.39820849609375,-209.0591278076172,30.396499633789062,-16.423629760742188
1773522817159322600,0.408322509765625,-208.86648559570312,31.2550048828125,-17.024932861328125
1773522817169435400,0.418435302734375,-208.36505126953125,33.44721984863281,-17.428695678710938
1773522817179549400,0.428549560546875,-207.8363494873047,34.91917419433594,-17.884170532226562
1773522817189660700,0.43866064453125,-206.89767456054688,36.66802978515625,-18.560394287109375
1773522817199771400,0.448771484375,-206.7837677001953,39.243988037109375,-19.499801635742188
1773522817209884400,0.458884521484375,-205.70159912109375,40.636444091796875,-20.350448608398438
1773522817219997400,0.46899755859375,-204.95896911621094,42.98213195800781,-21.176132202148438
1773522817230109400,0.479109375,-203.69354248046875,45.10417175292969,-22.591232299804688
1773522817240222500,0.489222412109375,-202.11737060546875,47.36311340332031,-24.038299560546875
1773522817250333400,0.49933349609375,-200.91600036621094,50.19154357910156,-25.737762451171875
1773522817260444400,0.5094443359375,-198.90823364257812,52.34159851074219,-27.308944702148438
1773522817270556400,0.519556396484375,-196.6947479248047,55.008758544921875,-29.533294677734375
1773522817280668400,0.52966845703125,-194.3265380859375,57.304656982421875,-31.629318237304688
1773522817290779600,0.539779541015625,-191.2726287841797,58.99806213378906,-33.838836669921875
1773522817300890400,0.549890380859375,-188.942138671875,61.24522399902344,-36.22950744628906
1773522817311002400,0.56000244140625,-185.96913146972656,62.35076904296875,-38.534759521484375
1773522817321114600,0.570114501953125,-183.05203247070312,63.6094970703125,-40.92607116699219
1773522817331227600,0.5802275390625,-180.2388153076172,64.46127319335938,-42.8564453125
1773522817341339600,0.590339599609375,-177.66062927246094,64.55914306640625,-44.21942138671875
1773522817351452700,0.60045263671875,-174.62960815429688,65.07853698730469,-45.73493957519531
1773522817361565700,0.610565673828125,-171.5307159423828,64.73808288574219,-46.36647033691406
1773522817371677400,0.620677490234375,-169.27333068847656,64.43560791015625,-47.28453063964844
1773522817381790500,0.63079052734375,-166.111572265625,64.36123657226562,-48.01496887207031
1773522817391902500,0.64090234375,-164.09902954101562,63.26994323730469,-48.16908264160156
1773522817402014500,0.651014404296875,-161.6787872314453,62.96760559082031,-48.58879089355469
1773522817412126500,0.66112646484375,-159.19715881347656,62.15596008300781,-48.29319763183594
1773522817422238500,0.671238525390625,-157.01609802246094,61.28050231933594,-48.094024658203125
1773522817432350500,0.6813505859375,-155.53189086914062,60.94609069824219,-48.230377197265625
1773522817442463500,0.69146337890625,-154.3562774658203,59.57475280761719,-47.62312316894531
1773522817452575500,0.701575439453125,-152.64613342285156,58.974334716796875,-47.632293701171875
1773522817462687500,0.7116875,-151.35340881347656,58.04084777832031,-46.61830139160156
1773522817472797400,0.72179736328125,-150.44171142578125,57.059814453125,-46.04338073730469
1773522817482907600,0.73190771484375,-149.81564331054688,57.18101501464844,-45.63056945800781
1773522817493016600,0.7420166015625,-149.7489471435547,56.42079162597656,-44.73826599121094
1773522817503128600,0.752128662109375,-148.91168212890625,56.43292236328125,-44.98674011230469
1773522817513239300,0.7622392578125,-148.6243438720703,56.81709289550781,-45.318145751953125
1773522817523352300,0.772352294921875,-149.13778686523438,56.618927001953125,-45.527862548828125
1773522817533464300,0.78246435546875,-149.6699981689453,57.30238342285156,-46.77128601074219
1773522817543576600,0.79257666015625,-150.43389892578125,57.53602600097656,-46.96415710449219
1773522817553689600,0.802689697265625,-150.77305603027344,58.11566162109375,-47.264892578125
1773522817563800600,0.812800537109375,-152.20298767089844,58.83723449707031,-46.963958740234375
1773522817573911600,0.82291162109375,-153.41085815429688,58.95643615722656,-45.887603759765625
1773522817584023600,0.8330234375,-154.49862670898438,60.222015380859375,-45.127777099609375
1773522817594134500,0.843134521484375,-155.9441375732422,59.84254455566406,-43.5509033203125
1773522817604246300,0.853246337890625,-156.50802612304688,60.348968505859375,-42.5447998046875
1773522817614359300,0.863359375,-157.2056884765625,60.50950622558594,-41.92619323730469
1773522817624471600,0.873471435546875,-157.2818145751953,59.923309326171875,-40.872100830078125
1773522817634583600,0.88358349609375,-157.09288024902344,60.43617248535156,-40.86116027832031
1773522817644695600,0.893695556640625,-157.07347106933594,60.00129699707031,-39.79924011230469
1773522817654807600,0.9038076171875,-156.87176513671875,60.01594543457031,-39.53422546386719
1773522817664920600,0.913920654296875,-157.45193481445312,60.27189636230469,-39.115020751953125
1773522817675031300,0.92403125,-158.12384033203125,59.70233154296875,-38.254913330078125
1773522817685143600,0.9341435546875,-158.75885009765625,60.37217712402344,-37.88276672363281
1773522817695256600,0.944256591796875,-159.60406494140625,60.167816162109375,-36.6810302734375
1773522817705368600,0.95436865234375,-160.76846313476562,60.38568115234375,-35.9581298828125
1773522817715480600,0.96448046875,-161.62612915039062,60.498687744140625,-35.3052978515625
1773522817725592300,0.97459228515625,-162.6060333251953,60.27958679199219,-34.55012512207031
1773522817735704300,0.984704345703125,-162.62574768066406,60.450103759765625,-34.20970153808594
1773522817745815600,0.994815673828125,-163.0454864501953,60.419586181640625,-33.5948486328125
1773522817755927600,1.004927490234375,-163.59300231933594,60.187103271484375,-33.41453552246094
1773522817766040600,1.01504052734375,-163.71168518066406,60.60029602050781,-33.27687072753906
1773522817776152300,1.02515234375,-163.648681640625,60.03961181640625,-32.84245300292969
1773522817786264300,1.035264404296875,-164.0610809326172,60.453216552734375,-32.546722412109375
1773522817796375600,1.04537548828125,-163.7133331298828,59.7586669921875,-31.955642700195312
1773522817806485500,1.055485595703125,-163.62789916992188,59.45585632324219,-31.355392456054688
1773522817816595500,1.065595458984375,-163.58633422851562,59.14613342285156,-30.547744750976562
1773522817826707500,1.07570751953125,-164.07940673828125,58.57606506347656,-29.705307006835938
1773522817836819500,1.0858193359375,-164.5745391845703,58.64103698730469,-28.906784057617188
1773522817846931500,1.095931396484375,-164.82090759277344,58.43504333496094,-28.6734619140625
1773522817857043500,1.10604345703125,-165.17762756347656,57.669586181640625,-28.068572998046875
1773522817867155500,1.116155517578125,-165.12301635742188,58.33631896972656,-27.971939086914062
1773522817877266400,1.126266357421875,-166.11309814453125,57.99620056152344,-27.552078247070312
1773522817887377400,1.13637744140625,-166.1586151123047,58.1475830078125,-27.609329223632812
1773522817897489700,1.14648974609375,-166.71578979492188,58.9300537109375,-28.017242431640625
1773522817907601700,1.1566015625,-166.78773498535156,58.45307922363281,-28.377166748046875
1773522817917713000,1.166712890625,-167.30311584472656,59.574920654296875,-29.103500366210938
1773522817927824600,1.17682470703125,-167.696533203125,59.40562438964844,-29.747787475585938
1773522817937937000,1.18693701171875,-168.15255737304688,60.19996643066406,-30.601547241210938
1773522817948049700,1.197049560546875,-168.58477783203125,60.55604553222656,-31.294052124023438
1773522817958161000,1.207160888671875,-168.98936462402344,60.83514404296875,-32.26347351074219
1773522817968271600,1.217271728515625,-169.73883056640625,61.995361328125,-33.65461730957031
1773522817978384000,1.2273837890625,-170.77601623535156,62.05181884765625,-34.563140869140625
1773522817988497000,1.237496826171875,-171.01742553710938,62.49859619140625,-35.983245849609375
1773522817998610700,1.247610595703125,-171.02981567382812,63.46421813964844,-37.45869445800781
1773522818008723700,1.2577236328125,-170.65916442871094,62.96238708496094,-38.361083984375
1773522818018836700,1.267836669921875,-170.47406005859375,63.75140380859375,-39.90827941894531
1773522818028948700,1.27794873046875,-169.55029296875,63.600830078125,-40.210662841796875
1773522818039061800,1.288061767578125,-169.44517517089844,63.66621398925781,-40.6834716796875
1773522818049175800,1.29817578125,-169.34085083007812,63.85687255859375,-41.692047119140625
1773522818059288800,1.308288818359375,-169.23524475097656,63.66192626953125,-41.70899963378906
1773522818069402600,1.318402587890625,-168.64834594726562,64.17384338378906,-42.408782958984375
1773522818079515600,1.328515625,-168.5674285888672,63.83573913574219,-42.42597961425781
1773522818089628700,1.338628662109375,-168.4473419189453,63.780670166015625,-42.72929382324219
1773522818099741700,1.34874169921875,-168.64434814453125,64.14215087890625,-43.37767028808594
1773522818109856000,1.35885595703125,-169.14810180664062,63.75975036621094,-43.367584228515625
1773522818119968800,1.36896875,-168.5814971923828,64.06275939941406,-43.90606689453125
1773522818130081800,1.379081787109375,-168.87142944335938,63.95487976074219,-43.982818603515625
1773522818140195800,1.38919580078125,-168.91336059570312,63.76493835449219,-44.33518981933594
1773522818150310000,1.399309814453125,-168.56199645996094,64.4083251953125,-44.83433532714844
1773522818160424700,1.4094248046875,-169.23550415039062,64.08023071289062,-44.890411376953125
1773522818170536700,1.41953662109375,-169.08248901367188,64.27999877929688,-45.13423156738281
1773522818180648700,1.429648681640625,-168.88980102539062,64.49578857421875,-45.40144348144531
1773522818190761700,1.43976171875,-169.5306396484375,64.09953308105469,-45.53544616699219
1773522818200874800,1.449874755859375,-169.58018493652344,64.44400024414062,-46.024810791015625
1773522818210987800,1.45998779296875,-169.92996215820312,64.179443359375,-45.406097412109375
1773522818221100800,1.470100830078125,-170.33383178710938,64.31672668457031,-45.334197998046875
1773522818231214800,1.48021484375,-170.27285766601562,64.45967102050781,-45.340423583984375
1773522818241328600,1.49032861328125,-170.50143432617188,64.13691711425781,-44.9996337890625
1773522818251440600,1.500440673828125,-170.2042999267578,64.47383117675781,-45.28057861328125
1773522818261553000,1.510552978515625,-169.86387634277344,64.08186340332031,-44.936187744140625
1773522818271666000,1.520666015625,-170.24703979492188,64.38206481933594,-45.15989685058594
1773522818281778000,1.53077783203125,-169.87722778320312,64.48820495605469,-45.51237487792969
1773522818291888600,1.540888671875,-169.3920135498047,63.89094543457031,-45.518951416015625
1773522818302000600,1.551000732421875,-169.08892822265625,64.41452026367188,-46.05799865722656
1773522818312113700,1.56111376953125,-168.26956176757812,63.80851745605469,-45.899322509765625
1773522818322226700,1.571226806640625,-168.04959106445312,63.9415283203125,-46.457672119140625
1773522818332339700,1.581339599609375,-167.63014221191406,64.36418151855469,-47.26899719238281
1773522818342452700,1.59145263671875,-166.77415466308594,63.56016540527344,-47.25657653808594
1773522818352566800,1.60156689453125,-166.06996154785156,63.812957763671875,-48.18943786621094
1773522818362679800,1.6116796875,-165.13156127929688,63.56230163574219,-48.21903991699219
1773522818372792800,1.621792724609375,-164.1466522216797,63.127532958984375,-48.8756103515625
1773522818382905600,1.631905517578125,-163.7503204345703,63.36473083496094,-49.74188232421875
1773522818393020000,1.64202001953125,-164.02674865722656,63.31480407714844,-49.99699401855469
1773522818403134000,1.652134033203125,-163.07760620117188,63.06513977050781,-50.8662109375
1773522818413247000,1.6622470703125,-162.46788024902344,62.80436706542969,-51.352203369140625
1773522818423359000,1.67235888671875,-162.56454467773438,62.417999267578125,-51.94952392578125
1773522818433470700,1.682470703125,-162.2319793701172,62.68443298339844,-53.192535400390625
1773522818443582700,1.692582763671875,-162.8781280517578,62.37872314453125,-53.671112060546875
1773522818453695700,1.70269580078125,-162.55821228027344,62.570831298828125,-54.87506103515625
1773522818463808800,1.712808837890625,-162.530029296875,62.580169677734375,-56.03997802734375
1773522818473920800,1.722920654296875,-163.37635803222656,61.89234924316406,-56.5042724609375
1773522818484032800,1.73303271484375,-162.92266845703125,61.884552001953125,-57.33262634277344
1773522818494145000,1.74314501953125,-162.47357177734375,61.50730895996094,-57.43959045410156
1773522818504257800,1.7532578125,-161.81454467773438,61.65803527832031,-57.569305419921875
1773522818514371800,1.763371826171875,-161.70950317382812,61.71556091308594,-57.637115478515625
1773522818524483800,1.77348388671875,-161.48458862304688,61.187774658203125,-56.86424255371094
1773522818534596900,1.783596923828125,-161.02101135253906,61.4744873046875,-56.79435729980469
1773522818544710000,1.7937099609375,-161.1156768798828,61.687225341796875,-56.31501770019531
1773522818554823000,1.803822998046875,-161.19386291503906,61.78468322753906,-56.21142578125
1773522818564936000,1.81393603515625,-161.73980712890625,61.854278564453125,-56.189788818359375
1773522818575050800,1.82405078125,-161.86000061035156,61.589630126953125,-55.45359802246094
1773522818585163800,1.834163818359375,-161.70433044433594,62.018707275390625,-55.68644714355469
1773522818595276800,1.84427685546875,-161.7704315185547,61.9366455078125,-55.1285400390625
1773522818605388800,1.854388916015625,-161.9069366455078,61.91911315917969,-55.209747314453125
1773522818615500800,1.864500732421875,-161.93748474121094,62.217620849609375,-55.280059814453125
1773522818625612800,1.87461279296875,-161.5506134033203,61.58636474609375,-54.6031494140625
1773522818635724800,1.884724853515625,-161.3143768310547,61.75471496582031,-55.01318359375
1773522818645835800,1.894835693359375,-160.40184020996094,61.6141357421875,-54.27561950683594
1773522818655948000,1.904947998046875,-160.17904663085938,61.47438049316406,-54.542572021484375
1773522818666060800,1.915060791015625,-159.2715301513672,61.40338134765625,-54.68896484375
1773522818676171800,1.925171875,-159.34915161132812,61.0533447265625,-54.10749816894531
1773522818686283800,1.93528369140625,-158.75132751464844,60.967315673828125,-53.91978454589844
1773522818696395800,1.945395751953125,-158.2752227783203,61.07008361816406,-53.586822509765625
1773522818706508800,1.9555087890625,-158.64869689941406,60.67716979980469,-53.04710388183594
1773522818716621800,1.965621826171875,-157.95838928222656,60.938720703125,-53.04469299316406
1773522818726733800,1.97573388671875,-158.734619140625,61.07499694824219,-52.25904846191406
1773522818736845800,1.985845703125,-158.33892822265625,60.99119567871094,-52.16029357910156
1773522818746956800,1.995956787109375,-158.3849334716797,60.9813232421875,-51.82000732421875
1773522818757068800,2.00606884765625,-158.6715545654297,60.920989990234375,-51.379058837890625
1773522818767180800,2.016180908203125,-158.72134399414062,61.49021911621094,-51.57243347167969
1773522818777292800,2.026292724609375,-159.37493896484375,61.30889892578125,-51.15782165527344
1773522818787404800,2.03640478515625,-158.94900512695312,61.51210021972656,-50.999267578125
1773522818797516800,2.046516845703125,-159.13328552246094,61.45207214355469,-51.30859375
1773522818807628000,2.0566279296875,-159.35931396484375,61.04588317871094,-50.98774719238281
1773522818817737700,2.06673779296875,-158.61334228515625,61.21044921875,-51.247283935546875
1773522818827849000,2.076848876953125,-158.29319763183594,60.87635803222656,-51.010589599609375
1773522818837960700,2.086960693359375,-157.83348083496094,60.86784362792969,-51.124847412109375
1773522818848072000,2.097072021484375,-157.27853393554688,60.4127197265625,-51.37251281738281
1773522818858184000,2.107183837890625,-156.91165161132812,60.212677001953125,-51.220611572265625
1773522818868294700,2.117294677734375,-156.09169006347656,60.2886962890625,-51.707977294921875
1773522818878406700,2.12740673828125,-155.7393341064453,59.61631774902344,-51.16386413574219
1773522818888518000,2.137517822265625,-155.34906005859375,59.559234619140625,-51.5355224609375
1773522818898630000,2.1476298828125,-154.7819366455078,59.3818359375,-51.65632629394531
1773522818908740900,2.157740966796875,-154.58509826660156,58.7113037109375,-51.311492919921875
1773522818918852400,2.167852294921875,-154.2239990234375,59.029083251953125,-51.55900573730469
1773522818928964000,2.177964111328125,-153.83192443847656,58.75794982910156,-51.038299560546875
1773522818939077000,2.1880771484375,-154.04913330078125,58.653778076171875,-50.94407653808594
1773522818949189000,2.198189208984375,-154.23089599609375,59.174896240234375,-50.88264465332031
1773522818959300400,2.20830029296875,-153.9403533935547,58.82463073730469,-50.397003173828125
1773522818969410300,2.218410400390625,-154.41183471679688,59.06007385253906,-50.50315856933594
1773522818979521300,2.228521240234375,-154.29295349121094,58.99574279785156,-50.533294677734375
1773522818989632300,2.23863232421875,-154.8104705810547,59.20259094238281,-51.45030212402344
1773522818999744300,2.248744140625,-155.79348754882812,59.89888000488281,-53.16365051269531
1773522819009855200,2.258855224609375,-156.47286987304688,59.55015563964844,-54.437042236328125
1773522819019968300,2.26896826171875,-156.9407196044922,59.914825439453125,-56.516510009765625
1773522819030080300,2.279080322265625,-157.32090759277344,59.7340087890625,-57.571868896484375
1773522819040193300,2.289193359375,-156.9898223876953,58.94886779785156,-58.13560485839844
1773522819050304300,2.29930419921875,-155.74502563476562,58.93873596191406,-58.75343322753906
1773522819060416300,2.309416259765625,-155.34576416015625,58.14720153808594,-58.332916259765625
1773522819070528300,2.3195283203125,-153.76539611816406,57.669891357421875,-57.93446350097656
1773522819080639200,2.32963916015625,-152.3289794921875,57.24235534667969,-56.81553649902344
1773522819090751200,2.339751220703125,-151.66439819335938,56.828277587890625,-55.38153076171875
1773522819100862200,2.3498623046875,-150.4721221923828,56.60438537597656,-53.79876708984375
1773522819110973200,2.35997314453125,-149.90237426757812,56.31224060058594,-52.03181457519531
1773522819121085200,2.370085205078125,-148.31263732910156,56.109619140625,-49.88262939453125
1773522819131197200,2.380197265625,-147.88348388671875,55.302520751953125,-47.86930847167969
1773522819141308400,2.390308349609375,-146.73214721679688,54.08912658691406,-46.99589538574219
1773522819151418000,2.400418212890625,-144.46273803710938,52.82423400878906,-47.86640930175781
1773522819161531100,2.41053125,-143.7022705078125,51.20341491699219,-49.63505554199219
1773522819171643100,2.42064306640625,-142.5567626953125,50.31654357910156,-52.57283020019531
1773522819181755400,2.43075537109375,-142.31068420410156,50.309906005859375,-55.73518371582031
1773522819191867100,2.4408671875,-143.62086486816406,49.69480895996094,-58.1795654296875
1773522819201978000,2.45097802734375,-143.61094665527344,49.72846984863281,-60.294891357421875
1773522819212090400,2.46109033203125,-144.77197265625,50.03147888183594,-61.32330322265625
1773522819222201000,2.471201171875,-144.8013153076172,49.90217590332031,-61.97528076171875
1773522819232313000,2.48131298828125,-143.7486572265625,50.206878662109375,-61.76716613769531
1773522819242425000,2.491425048828125,-144.46214294433594,50.22007751464844,-60.60554504394531
1773522819252536300,2.501536376953125,-144.4374237060547,50.84672546386719,-59.78889465332031
1773522819262648300,2.5116484375,-144.5132293701172,51.72007751464844,-58.01116943359375
1773522819272759300,2.52175927734375,-145.5817413330078,52.60693359375,-57.04087829589844
1773522819282871300,2.531871337890625,-146.1668243408203,53.70782470703125,-56.02851867675781
1773522819292983300,2.5419833984375,-146.7312469482422,54.06103515625,-54.15553283691406
1773522819303095300,2.55209521484375,-147.0278778076172,55.154388427734375,-53.10935974121094
1773522819313208300,2.562208251953125,-146.74169921875,55.20854187011719,-51.038360595703125
1773522819323320000,2.572320068359375,-147.32992553710938,55.351837158203125,-49.836456298828125
1773522819333432300,2.582432373046875,-147.592041015625,55.9759521484375,-48.80976867675781
1773522819343545000,2.592545166015625,-148.53872680664062,56.010223388671875,-47.58818054199219
1773522819353658000,2.602658203125,-148.38514709472656,56.817779541015625,-47.2578125
1773522819363770400,2.612770263671875,-148.63217163085938,56.702789306640625,-46.785858154296875
1773522819373882400,2.62288232421875,-149.26116943359375,56.75433349609375,-46.48442077636719
1773522819383995400,2.632995361328125,-149.56332397460938,57.29545593261719,-46.751007080078125
1773522819394106000,2.643106201171875,-150.2124786376953,57.457489013671875,-46.82945251464844
1773522819404219100,2.65321923828125,-150.2499237060547,57.684173583984375,-47.15708923339844
1773522819414330400,2.663330322265625,-150.67694091796875,57.89469909667969,-47.49626159667969
1773522819424441300,2.67344140625,-151.42276000976562,58.05744934082031,-47.63349914550781
1773522819434551300,2.68355126953125,-151.11346435546875,58.097076416015625,-47.772064208984375
1773522819444663300,2.693663330078125,-151.65191650390625,58.22428894042969,-47.698760986328125
1773522819454774000,2.70377392578125,-151.0871124267578,58.5478515625,-47.989654541015625
1773522819464885200,2.71388525390625,-151.54678344726562,58.43998718261719,-48.388702392578125
1773522819474996200,2.723996337890625,-151.9760284423828,58.18489074707031,-48.29191589355469
1773522819485107200,2.734107177734375,-151.37159729003906,58.24140930175781,-48.2891845703125
1773522819495219200,2.74421923828125,-151.96278381347656,58.24061584472656,-47.98365783691406
1773522819505330400,2.754330322265625,-151.4361572265625,58.138153076171875,-47.850341796875
1773522819515442200,2.764442138671875,-151.4353485107422,58.589019775390625,-47.74751281738281
1773522819525553200,2.77455322265625,-151.6887969970703,58.174896240234375,-47.2655029296875
1773522819535664400,2.784664306640625,-151.3444061279297,58.28948974609375,-46.97407531738281
1773522819545774300,2.7947744140625,-151.6891632080078,58.26179504394531,-46.434051513671875
1773522819555885300,2.80488525390625,-151.75657653808594,58.412933349609375,-46.20152282714844
1773522819565996300,2.814996337890625,-151.5771942138672,58.60443115234375,-45.81163024902344
1773522819576107300,2.825107177734375,-152.1056671142578,58.32908630371094,-45.48362731933594
1773522819586216200,2.83521630859375,-151.4073486328125,58.23890686035156,-45.19404602050781
1773522819596328200,2.845328125,-151.8358154296875,58.175384521484375,-44.46958923339844
1773522819606438100,2.855438232421875,-151.98707580566406,57.797607421875,-44.269439697265625
1773522819616548400,2.86554833984375,-151.52073669433594,58.36711120605469,-44.158111572265625
1773522819626658300,2.875658203125,-151.9971466064453,57.97026062011719,-43.81324768066406
1773522819636768300,2.885768310546875,-151.21365356445312,57.892486572265625,-43.58427429199219
1773522819646879200,2.895879150390625,-150.64710998535156,57.77485656738281,-43.09098815917969
1773522819656989400,2.905989501953125,-150.76605224609375,57.148040771484375,-42.95526123046875
1773522819667101200,2.91610107421875,-150.35511779785156,57.62449645996094,-43.21165466308594
1773522819677212200,2.926212158203125,-150.7135009765625,56.96836853027344,-42.986328125
1773522819687323400,2.936323486328125,-150.3715362548828,57.2421875,-43.30564880371094
1773522819697434000,2.94643408203125,-150.56153869628906,56.9259033203125,-43.11701965332031
1773522819707545300,2.95654541015625,-150.48858642578125,56.75901794433594,-43.07759094238281
1773522819717656000,2.966656005859375,-149.9378204345703,57.22343444824219,-43.224639892578125
1773522819727767300,2.976767333984375,-150.505859375,56.86466979980469,-43.13165283203125
1773522819737878300,2.986878173828125,-150.13320922851562,56.9852294921875,-43.086212158203125
1773522819747988200,2.99698828125,-149.88607788085938,57.000732421875,-43.12335205078125
1773522819758098200,3.00709814453125,-150.5607452392578,56.70536804199219,-42.9261474609375
1773522819768208400,3.01720849609375,-150.245361328125,57.01959228515625,-42.88459777832031
1773522819778317300,3.0273173828125,-150.7018280029297,56.88883972167969,-42.594940185546875
1773522819788427000,3.037427001953125,-150.4413604736328,57.083587646484375,-42.745147705078125
1773522819798537200,3.047537109375,-150.60147094726562,57.23663330078125,-42.76130676269531
1773522819808647200,3.057647216796875,-151.1455841064453,57.077850341796875,-42.81910705566406
1773522819818756400,3.06775634765625,-150.90603637695312,57.39985656738281,-42.78718566894531
1773522819828866300,3.0778662109375,-151.65887451171875,57.327880859375,-42.71305847167969
1773522819838975200,3.087975341796875,-151.5589599609375,57.48982238769531,-43.27098083496094
1773522819849085400,3.09808544921875,-151.5569610595703,58.0562744140625,-43.30763244628906
1773522819859196200,3.108196044921875,-151.55482482910156,57.53907775878906,-43.467132568359375
1773522819869306400,3.118306396484375,-151.43443298339844,57.80816650390625,-43.85545349121094
1773522819879416300,3.128416259765625,-151.73751831054688,57.725921630859375,-43.61238098144531
1773522819889525200,3.138525146484375,-152.19247436523438,57.97052001953125,-44.433746337890625
1773522819899634200,3.14863427734375,-151.44606018066406,58.11524963378906,-44.463043212890625
1773522819909742000,3.1587421875,-152.1468048095703,58.06219482421875,-44.737091064453125
1773522819919850800,3.168850830078125,-152.00289916992188,58.1453857421875,-45.02009582519531
1773522819929960000,3.1789599609375,-152.2176971435547,58.58912658691406,-44.94075012207031
1773522819940068900,3.18906884765625,-152.8109130859375,58.361846923828125,-45.182464599609375
1773522819950177800,3.199177734375,-152.44329833984375,58.47230529785156,-45.649383544921875
1773522819960288000,3.2092880859375,-152.89878845214844,58.42022705078125,-45.77580261230469
1773522819970398000,3.21939794921875,-152.7484130859375,58.626312255859375,-46.16062927246094
1773522819980507000,3.2295068359375,-153.01515197753906,58.88446044921875,-46.23802185058594
1773522819990618000,3.2396181640625,-153.3614044189453,58.690277099609375,-46.229400634765625
1773522820000728800,3.249728759765625,-153.21131896972656,59.05609130859375,-46.87242126464844
1773522820010840000,3.259840087890625,-153.77664184570312,58.81922912597656,-46.67138671875
1773522820020952000,3.2699521484375,-153.15589904785156,59.029541015625,-47.25897216796875
1773522820031064000,3.28006396484375,-153.80014038085938,58.71662902832031,-47.465484619140625
1773522820041174800,3.2901748046875,-153.65357971191406,58.475616455078125,-47.31828308105469
1773522820051285000,3.300284912109375,-153.09080505371094,59.01849365234375,-47.91468811035156
1773522820061396700,3.310396728515625,-153.6969451904297,59.01347351074219,-47.863250732421875
1773522820071507000,3.3205068359375,-153.11920166015625,58.83110046386719,-47.94898986816406
1773522820081618000,3.330617919921875,-152.95947265625,58.893646240234375,-48.20556640625
1773522820091730000,3.34072998046875,-153.45230102539062,58.43275451660156,-47.86285400390625
1773522820101842000,3.350842041015625,-153.1266632080078,58.66868591308594,-47.72267150878906
1773522820111954000,3.360953857421875,-152.76837158203125,58.44746398925781,-47.41839599609375
1773522820122065000,3.37106494140625,-152.45265197753906,58.21905517578125,-47.32470703125
1773522820132176000,3.38117578125,-152.33493041992188,58.262481689453125,-47.391845703125
1773522820142287000,3.391287109375,-152.08973693847656,57.931884765625,-47.32295227050781
1773522820152398800,3.40139892578125,-150.78280639648438,57.54826354980469,-46.860595703125
1773522820162509000,3.411509033203125,-150.3722381591797,57.095947265625,-46.76373291015625
1773522820172618000,3.421617919921875,-149.9471893310547,56.82855224609375,-47.07664489746094
1773522820182729000,3.43172900390625,-149.60169982910156,57.018707275390625,-47.5072021484375
1773522820192840000,3.44183984375,-150.7727508544922,56.81315612792969,-47.57395935058594
1773522820202951000,3.451950927734375,-150.4035186767578,57.51856994628906,-48.37190246582031
1773522820213062100,3.462062255859375,-151.59031677246094,57.88818359375,-48.42051696777344
1773522820223172900,3.4721728515625,-153.332763671875,58.50907897949219,-49.38008117675781
1773522820233284000,3.4822841796875,-153.89007568359375,59.395263671875,-50.26591491699219
1773522820243394800,3.492394775390625,-155.85731506347656,59.55158996582031,-50.777313232421875
1773522820253507800,3.5025078125,-155.71923828125,60.002410888671875,-51.7476806640625
1773522820263619000,3.512619140625,-156.28675842285156,60.38519287109375,-52.23393249511719
1773522820273731000,3.52273095703125,-157.19520568847656,60.35383605957031,-53.04046630859375
1773522820283844000,3.532843994140625,-158.02664184570312,60.927825927734375,-54.04339599609375
1773522820293954800,3.542954833984375,-158.78070068359375,60.60993957519531,-54.20759582519531
1773522820304066000,3.553066162109375,-158.8859100341797,61.24467468261719,-55.29583740234375
1773522820314177000,3.563177001953125,-159.36807250976562,61.26033020019531,-55.23567199707031
1773522820324288000,3.5732880859375,-160.42047119140625,61.0570068359375,-55.51239013671875
1773522820334399000,3.58339892578125,-159.8437042236328,61.48039245605469,-56.12940979003906
1773522820344511000,3.593510986328125,-160.6467742919922,61.33616638183594,-55.92918395996094
1773522820354622000,3.6036220703125,-160.5877227783203,61.73625183105469,-56.6485595703125
1773522820364734000,3.61373388671875,-160.70361328125,61.70509338378906,-56.73298645019531
1773522820374845000,3.623844970703125,-160.79678344726562,61.099700927734375,-56.661773681640625
1773522820384956000,3.633955810546875,-160.84957885742188,61.55291748046875,-57.52973937988281
1773522820395067000,3.64406689453125,-160.45335388183594,60.95091247558594,-57.25932312011719
1773522820405177900,3.654177734375,-160.42430114746094,61.06561279296875,-57.59919738769531
1773522820415291000,3.664290771484375,-160.18365478515625,61.00080871582031,-58.17774963378906
1773522820425403000,3.67440283203125,-159.93252563476562,60.576385498046875,-58.040863037109375
1773522820435513900,3.684513916015625,-159.67349243164062,60.50642395019531,-58.7174072265625
1773522820445624800,3.694624755859375,-159.4918670654297,60.243743896484375,-58.57521057128906
1773522820455735800,3.70473583984375,-158.79071044921875,60.07295227050781,-58.73304748535156
1773522820465845800,3.714845703125,-157.9601593017578,60.144500732421875,-59.233001708984375
1773522820475956000,3.7249560546875,-158.48992919921875,59.66093444824219,-58.950439453125
1773522820486066000,3.73506591796875,-157.3173370361328,59.67741394042969,-59.145660400390625
1773522820496178000,3.745177978515625,-156.930908203125,59.28108215332031,-58.680816650390625
1773522820506289000,3.755288818359375,-156.28077697753906,58.96588134765625,-58.76332092285156
1773522820516401200,3.765401123046875,-154.90896606445312,59.00604248046875,-58.811553955078125
1773522820526511900,3.775511962890625,-154.60317993164062,58.2528076171875,-58.27119445800781
1773522820536622000,3.7856220703125,-153.4761505126953,58.03192138671875,-58.45921325683594
1773522820546733800,3.79573388671875,-152.62442016601562,57.44407653808594,-57.8671875
1773522820556845000,3.805844970703125,-151.70172119140625,56.747314453125,-57.856048583984375
1773522820566957000,3.81595703125,-150.52197265625,56.119140625,-58.18586730957031
1773522820577069000,3.826069091796875,-150.33322143554688,55.47088623046875,-58.24650573730469
1773522820587180800,3.836180908203125,-149.32577514648438,54.577484130859375,-59.37043762207031
1773522820597292800,3.846292724609375,-149.54037475585938,54.380157470703125,-60.49212646484375
1773522820607405000,3.856405029296875,-150.36683654785156,54.39361572265625,-61.222991943359375
1773522820617517000,3.86651708984375,-150.47015380859375,55.183807373046875,-62.04801940917969
1773522820627630000,3.876630126953125,-151.8583221435547,55.30665588378906,-61.16949462890625
1773522820637742000,3.8867421875,-152.4944305419922,56.305206298828125,-61.138519287109375
1773522820647855000,3.896855224609375,-153.22181701660156,56.86885070800781,-60.21531677246094
1773522820657965800,3.9069658203125,-154.0720672607422,57.227294921875,-59.22418212890625
1773522820668077000,3.9170771484375,-154.51803588867188,58.34049987792969,-59.0946044921875
1773522820678189000,3.92718896484375,-155.41604614257812,58.52137756347656,-58.3084716796875
1773522820688300800,3.93730078125,-155.811279296875,59.191436767578125,-57.89668273925781
1773522820698412800,3.947412841796875,-156.5713348388672,59.41770935058594,-57.967132568359375
1773522820708525000,3.957525146484375,-156.53953552246094,58.9244384765625,-57.3538818359375
1773522820718637000,3.967636962890625,-156.14614868164062,59.30232238769531,-57.63865661621094
1773522820728747000,3.9777470703125,-156.43519592285156,59.22456359863281,-57.064910888671875
1773522820738859000,3.98785888671875,-155.642822265625,59.10691833496094,-57.36122131347656
1773522820748970000,3.997969970703125,-155.06602478027344,59.23431396484375,-57.799224853515625
1773522820759081700,4.008081787109375,-154.84750366210938,58.322021484375,-57.414886474609375
1773522820769194800,4.01819482421875,-153.99595642089844,58.28736877441406,-57.99754333496094
1773522820779304000,4.028303955078125,-153.33290100097656,57.45161437988281,-57.478179931640625
1773522820789412900,4.038412841796875,-152.77293395996094,57.09919738769531,-57.83489990234375
1773522820799522800,4.048522705078125,-151.72210693359375,56.72718811035156,-58.10838317871094
1773522820809631700,4.0586318359375,-151.32777404785156,56.18524169921875,-57.7486572265625
1773522820819742000,4.068741943359375,-150.49708557128906,56.16358947753906,-58.331634521484375
1773522820829853000,4.07885302734375,-150.82005310058594,55.90834045410156,-58.091064453125
1773522820839965000,4.08896484375,-151.41600036621094,56.04573059082031,-58.50752258300781
1773522820850078000,4.099077880859375,-151.43032836914062,56.465087890625,-58.76768493652344
1773522820860189000,4.10918896484375,-152.07888793945312,56.31611633300781,-58.10411071777344
1773522820870301000,4.119301025390625,-152.21804809570312,56.752960205078125,-58.33856201171875
1773522820880414000,4.1294140625,-151.7183837890625,57.02925109863281,-57.975433349609375
1773522820890527000,4.13952685546875,-152.9566192626953,56.808990478515625,-58.20806884765625
1773522820900638700,4.149638671875,-152.60751342773438,57.000885009765625,-58.669830322265625
1773522820910751000,4.1597509765625,-152.8920135498047,56.759796142578125,-58.46089172363281
1773522820920862700,4.16986279296875,-153.46815490722656,57.0234375,-59.31529235839844
1773522820930973700,4.1799736328125,-152.70887756347656,56.490509033203125,-59.398223876953125
1773522820941084700,4.190084716796875,-153.1877899169922,56.138519287109375,-59.60040283203125
1773522820951196700,4.20019677734375,-152.50323486328125,56.242279052734375,-60.38116455078125
1773522820961310700,4.210310791015625,-152.9549102783203,56.1734619140625,-60.39134216308594
1773522820971423700,4.220423828125,-152.71493530273438,55.896942138671875,-60.90118408203125
1773522820981537500,4.23053759765625,-152.50880432128906,56.09733581542969,-61.28062438964844
1773522820991649500,4.2406494140625,-152.19134521484375,55.471771240234375,-61.03172302246094
1773522821001762600,4.250762451171875,-152.36001586914062,55.48323059082031,-61.83012390136719
1773522821011874600,4.26087451171875,-152.22239685058594,55.15068054199219,-61.60346984863281
1773522821021986800,4.27098681640625,-151.82542419433594,55.191741943359375,-62.24299621582031
1773522821032097500,4.28109765625,-151.90377807617188,55.08135986328125,-62.933837890625
1773522821042209500,4.29120947265625,-152.45860290527344,54.74543762207031,-62.81401062011719
1773522821052320800,4.30132080078125,-152.2388916015625,54.799407958984375,-63.72239685058594
1773522821062432800,4.311432861328125,-152.7053680419922,54.672698974609375,-63.676422119140625
1773522821072543700,4.321543701171875,-152.63214111328125,54.62055969238281,-64.01486206054688
1773522821082654700,4.33165478515625,-153.19671630859375,55.20860290527344,-64.81657409667969
1773522821092765700,4.341765625,-153.7263946533203,54.691650390625,-64.56069946289062
1773522821102876700,4.351876708984375,-153.91708374023438,54.859375,-65.4466552734375
1773522821112987600,4.361987548828125,-154.33079528808594,54.875274658203125,-65.20661926269531
1773522821123098600,4.3720986328125,-155.0139923095703,54.99114990234375,-65.61276245117188
1773522821133208800,4.382208740234375,-155.3303680419922,55.37153625488281,-66.07656860351562
1773522821143320800,4.39232080078125,-155.99847412109375,55.17448425292969,-66.11561584472656
1773522821153431600,4.402431640625,-156.10549926757812,55.40473937988281,-66.53874206542969
1773522821163542800,4.412542724609375,-156.08270263671875,55.752716064453125,-66.58108520507812
1773522821173653500,4.422653564453125,-156.85292053222656,55.5250244140625,-66.88005065917969
1773522821183762700,4.4327626953125,-157.07276916503906,55.866485595703125,-67.46957397460938
1773522821193871600,4.44287158203125,-157.6890411376953,55.52665710449219,-67.18333435058594
1773522821203982600,4.452982666015625,-157.5662384033203,55.76219177246094,-67.86347961425781
1773522821214091800,4.463091796875,-157.64060974121094,55.83534240722656,-67.72657775878906
1773522821224201700,4.47320166015625,-157.70700073242188,55.55125427246094,-67.67823791503906
1773522821234310700,4.483310546875,-157.8330841064453,55.53758239746094,-68.22950744628906
1773522821244419600,4.493419677734375,-157.8369140625,55.75700378417969,-67.89451599121094
1773522821254529800,4.50352978515625,-157.2902374267578,55.57453918457031,-68.32099914550781
1773522821264641800,4.513641845703125,-157.29312133789062,55.11395263671875,-68.17373657226562
1773522821274753500,4.52375341796875,-157.0363311767578,54.78521728515625,-67.84382629394531
1773522821284865500,4.533865478515625,-156.56642150878906,55.0345458984375,-68.51290893554688
1773522821294976800,4.543976806640625,-156.51719665527344,54.509735107421875,-68.09384155273438
1773522821305088800,4.5540888671875,-156.96543884277344,54.69651794433594,-68.74203491210938
1773522821315199500,4.564199462890625,-157.0624542236328,54.72007751464844,-69.41441345214844
1773522821325311700,4.574311767578125,-158.01535034179688,54.4898681640625,-69.35423278808594
1773522821335422700,4.584422607421875,-158.22984313964844,54.60160827636719,-70.46206665039062
1773522821345533700,4.59453369140625,-158.6931915283203,54.50148010253906,-70.2642822265625
1773522821355644700,4.604644775390625,-159.10232543945312,54.6527099609375,-70.66044616699219
1773522821365756000,4.614755859375,-159.51885986328125,54.58815002441406,-71.56385803222656
1773522821375866600,4.62486669921875,-159.3158721923828,54.350677490234375,-71.20578002929688
1773522821385976800,4.634976806640625,-159.8040771484375,54.5501708984375,-72.25088500976562
1773522821396088600,4.645088623046875,-159.72621154785156,54.37290954589844,-71.96089172363281
1773522821406198800,4.65519873046875,-160.0886993408203,54.342315673828125,-72.19703674316406
1773522821416308700,4.665308837890625,-160.26458740234375,54.29481506347656,-72.61111450195312
1773522821426419700,4.675419677734375,-160.39183044433594,54.0496826171875,-72.34686279296875
1773522821436531700,4.68553173828125,-160.84881591796875,54.22796630859375,-73.35177612304688
1773522821446642700,4.695642578125,-160.95419311523438,54.05744934082031,-72.96279907226562
1773522821456753700,4.705753662109375,-161.42796325683594,53.773590087890625,-73.43528747558594
1773522821466864600,4.71586474609375,-162.0118408203125,54.36970520019531,-74.21786499023438
1773522821476973800,4.725973876953125,-162.48214721679688,53.95161437988281,-74.24615478515625
1773522821487084500,4.73608447265625,-162.93557739257812,54.04811096191406,-74.78453063964844
1773522821497196800,4.74619677734375,-163.27015686035156,54.38935852050781,-74.7252197265625
1773522821507307800,4.756307861328125,-163.8198699951172,53.92912292480469,-74.95828247070312
1773522821517419500,4.76641943359375,-164.2778778076172,54.08673095703125,-75.58479309082031
1773522821527531500,4.776531494140625,-164.67161560058594,54.06294250488281,-75.25776672363281
1773522821537642800,4.786642822265625,-165.19918823242188,54.048675537109375,-75.80033874511719
1773522821547755800,4.796755859375,-165.44265747070312,53.972900390625,-75.77964782714844
1773522821557867800,4.80686767578125,-165.601318359375,53.70426940917969,-75.65089416503906
1773522821567978500,4.816978515625,-165.74224853515625,53.87968444824219,-76.3048095703125
1773522821578088700,4.827088623046875,-166.22494506835938,54.116546630859375,-75.90158081054688
1773522821588200400,4.837200439453125,-166.29962158203125,54.08689880371094,-76.33134460449219
1773522821598312700,4.847312744140625,-166.35508728027344,54.09584045410156,-76.24864196777344
1773522821608422700,4.857422607421875,-166.08335876464844,53.95001220703125,-75.88423156738281
1773522821618533600,4.86753369140625,-166.20993041992188,54.1484375,-76.48710632324219
1773522821628644600,4.87764453125,-166.60018920898438,54.30183410644531,-75.83528137207031
1773522821638756900,4.8877568359375,-166.1553497314453,54.27415466308594,-75.97413635253906
1773522821648868900,4.897868896484375,-166.0938720703125,54.26902770996094,-76.34188842773438
1773522821658979600,4.9079794921875,-166.3549346923828,54.084136962890625,-75.89430236816406
1773522821669090800,4.9180908203125,-166.11630249023438,54.073883056640625,-76.45942687988281
1773522821679201500,4.928201416015625,-165.35662841796875,54.042572021484375,-75.9552001953125
1773522821689312800,4.938312744140625,-165.47024536132812,54.0633544921875,-76.09716796875
1773522821699423700,4.948423828125,-165.37457275390625,53.89910888671875,-76.30381774902344
1773522821709534700,4.95853466796875,-164.91159057617188,53.47900390625,-75.8314208984375
1773522821719645700,4.968645751953125,-164.91920471191406,53.7789306640625,-76.442138671875
1773522821729756700,4.978756591796875,-164.41526794433594,53.334930419921875,-75.86827087402344
1773522821739865900,4.988865966796875,-164.44085693359375,53.591827392578125,-75.70181274414062
1773522821749975800,4.998975830078125,-163.44525146484375,54.067413330078125,-76.05335998535156
1773522821760087800,5.009087890625,-163.5858154296875,53.52479553222656,-75.49639892578125
1773522821770199800,5.01919970703125,-163.7122344970703,53.691375732421875,-75.85523986816406
1773522821780311600,5.0293115234375,-162.91281127929688,53.61103820800781,-75.29771423339844
1773522821790423600,5.039423583984375,-162.71292114257812,53.34526062011719,-75.17791748046875
1773522821800533800,5.04953369140625,-162.24362182617188,53.595245361328125,-75.475341796875
1773522821810644700,5.059644775390625,-161.79739379882812,53.62580871582031,-74.67068481445312
1773522821820755700,5.069755615234375,-162.30641174316406,53.54704284667969,-74.87068176269531
1773522821830867700,5.07986767578125,-161.52818298339844,53.59928894042969,-74.30854797363281
1773522821840978700,5.089978759765625,-161.50990295410156,53.568389892578125,-74.15843200683594
1773522821851090700,5.100090576171875,-161.29574584960938,54.04090881347656,-74.625
1773522821861201700,5.11020166015625,-161.80584716796875,53.49853515625,-73.93858337402344
1773522821871313700,5.120313720703125,-162.02342224121094,53.81800842285156,-74.38511657714844
1773522821881423600,5.130423583984375,-161.57281494140625,54.30430603027344,-74.30589294433594
1773522821891533600,5.140533447265625,-161.808837890625,53.967498779296875,-73.79080200195312
1773522821901643800,5.150643798828125,-161.63705444335938,54.098785400390625,-74.23297119140625
1773522821911755800,5.160755859375,-161.78201293945312,54.14677429199219,-73.56329345703125
1773522821921871000,5.17087109375,-161.60025024414062,54.36006164550781,-73.6417236328125
1773522821931983000,5.180983154296875,-161.3856658935547,54.47276306152344,-73.703857421875
1773522821942095000,5.19109521484375,-161.05862426757812,54.16636657714844,-72.83546447753906
1773522821952208100,5.2012080078125,-161.1090545654297,54.58489990234375,-73.29736328125
1773522821962320100,5.211320068359375,-161.33114624023438,54.795166015625,-72.60444641113281
1773522821972432100,5.22143212890625,-160.74822998046875,54.994598388671875,-72.45132446289062
1773522821982543000,5.231543212890625,-161.17098999023438,55.4334716796875,-72.49971008300781
1773522821992655000,5.241655029296875,-161.7761688232422,55.18086242675781,-71.76437377929688
1773522822002767000,5.25176708984375,-161.90081787109375,55.42564392089844,-72.176513671875
1773522822012879000,5.261879150390625,-161.7241973876953,55.69427490234375,-71.52056884765625
1773522822022990000,5.271989990234375,-161.869140625,55.85664367675781,-71.47773742675781
1773522822033102000,5.28210205078125,-161.88681030273438,56.46788024902344,-71.78665161132812
1773522822043214000,5.292214111328125,-162.48228454589844,56.13603210449219,-71.14271545410156
1773522822053326000,5.302326171875,-161.8724365234375,56.54652404785156,-71.36189270019531
1773522822063436000,5.31243603515625,-162.3758087158203,56.631103515625,-70.93743896484375
1773522822073547000,5.322547119140625,-162.98460388183594,56.60011291503906,-70.66830444335938
1773522822083657000,5.332656982421875,-163.22677612304688,57.07728576660156,-70.90789794921875
1773522822093768200,5.342768310546875,-164.05630493164062,57.108612060546875,-70.12046813964844
1773522822103880200,5.352880126953125,-164.59388732910156,57.39024353027344,-70.59664916992188
1773522822113992200,5.3629921875,-164.96026611328125,58.02113342285156,-69.79856872558594
1773522822124102100,5.37310205078125,-166.06918334960938,58.03541564941406,-69.41529846191406
1773522822134213000,5.383213134765625,-167.18858337402344,58.826873779296875,-69.89964294433594
1773522822144324000,5.393323974609375,-167.80648803710938,58.708404541015625,-69.23208618164062
1773522822154436000,5.40343603515625,-168.93751525878906,58.941802978515625,-69.54193115234375
1773522822164549000,5.413549072265625,-169.34713745117188,59.54203796386719,-69.18643188476562
1773522822174660000,5.42366015625,-170.35987854003906,59.24351501464844,-69.00923156738281
1773522822184771000,5.43377099609375,-171.07086181640625,59.808013916015625,-69.17636108398438
1773522822194883000,5.443883056640625,-171.82505798339844,59.916229248046875,-68.414306640625
1773522822204995000,5.4539951171875,-172.23699951171875,59.94142150878906,-68.31045532226562
1773522822215106000,5.46410595703125,-172.52926635742188,60.34271240234375,-67.81033325195312
1773522822225218000,5.474218017578125,-172.94668579101562,60.286346435546875,-66.89247131347656
1773522822235329000,5.4843291015625,-173.40533447265625,60.85008239746094,-67.12312316894531
1773522822245440000,5.49443994140625,-173.64666748046875,60.85343933105469,-66.13681030273438
1773522822255551000,5.504551025390625,-174.4520721435547,61.07293701171875,-65.97590637207031
1773522822265663200,5.514663330078125,-175.30160522460938,61.41925048828125,-66.34458923339844
1773522822275775200,5.524775146484375,-175.61056518554688,60.672088623046875,-66.04339599609375
1773522822285887000,5.534886962890625,-176.57334899902344,61.19195556640625,-67.01344299316406
1773522822295999000,5.5449990234375,-177.2250213623047,60.91606140136719,-66.77436828613281
1773522822306111000,5.555111083984375,-178.16854858398438,60.71290588378906,-66.97016906738281
1773522822316222200,5.56522216796875,-179.1248321533203,60.699462890625,-67.40629577636719
1773522822326334000,5.575333984375,-179.6978302001953,60.30415344238281,-67.12413024902344
1773522822336445200,5.585445068359375,-180.1256866455078,60.68611145019531,-67.56051635742188
1773522822346558200,5.59555810546875,-180.3220672607422,60.34437561035156,-67.11201477050781
1773522822356670200,5.605670166015625,-180.7872314453125,60.17866516113281,-67.35354614257812
1773522822366781000,5.615781005859375,-181.73411560058594,60.25653076171875,-67.69927978515625
1773522822376892200,5.62589208984375,-182.4062042236328,59.96266174316406,-67.2186279296875
1773522822387003100,5.636003173828125,-183.00054931640625,59.801727294921875,-67.59791564941406
1773522822397113000,5.646113037109375,-183.1761474609375,59.94677734375,-67.2822265625
1773522822407224000,5.65622412109375,-183.90469360351562,59.49171447753906,-67.23782348632812
1773522822417336000,5.666336181640625,-184.72225952148438,59.52391052246094,-67.77301025390625
1773522822427447000,5.676447021484375,-184.7962646484375,59.030364990234375,-67.2498779296875
1773522822437560000,5.68656005859375,-185.4772186279297,58.973541259765625,-67.86904907226562
1773522822447672000,5.696672119140625,-185.07186889648438,58.98323059082031,-67.33837890625
1773522822457782000,5.706781982421875,-185.98980712890625,58.47772216796875,-67.43583679199219
1773522822467892200,5.716892333984375,-186.4235382080078,58.625885009765625,-67.86639404296875
1773522822478003000,5.7270029296875,-186.8517608642578,58.30754089355469,-67.47512817382812
1773522822488114200,5.7371142578125,-187.20436096191406,58.20843505859375,-67.88807678222656
1773522822498226200,5.74722607421875,-187.14906311035156,58.06687927246094,-67.84747314453125
1773522822508337000,5.7573369140625,-187.4813232421875,57.80828857421875,-67.64633178710938
1773522822518448000,5.7674482421875,-187.86061096191406,57.935333251953125,-68.25648498535156
1773522822528558000,5.77755810546875,-188.49459838867188,57.73370361328125,-67.80805969238281
1773522822538669000,5.7876689453125,-188.5687713623047,57.7735595703125,-68.00982666015625
1773522822548780300,5.7977802734375,-188.88833618164062,57.33393859863281,-68.11215209960938
1773522822558890000,5.807889892578125,-189.1060028076172,57.098968505859375,-67.72087097167969
1773522822569001200,5.818001220703125,-188.9044952392578,57.55931091308594,-67.97967529296875
1773522822579111200,5.828111083984375,-189.2759552001953,57.343414306640625,-67.49447631835938
1773522822589221000,5.83822119140625,-188.6807403564453,57.2734375,-67.58009338378906
1773522822599330300,5.848330322265625,-189.480224609375,57.35833740234375,-68.05511474609375
1773522822609440000,5.85843994140625,-189.44471740722656,56.88056945800781,-67.37483215332031
1773522822619551200,5.86855126953125,-189.9212188720703,57.29182434082031,-67.92048645019531
1773522822629662000,5.878661865234375,-189.64744567871094,57.42585754394531,-67.43051147460938
1773522822639772200,5.888772216796875,-189.71815490722656,57.198883056640625,-67.30799865722656
1773522822649884000,5.8988837890625,-189.90814208984375,57.25434875488281,-67.49447631835938
1773522822659995100,5.9089951171875,-190.1250457763672,56.969207763671875,-67.04325866699219
1773522822670107100,5.919107177734375,-189.73892211914062,57.26869201660156,-67.40925598144531
1773522822680219100,5.92921923828125,-190.2307586669922,57.303253173828125,-67.13131713867188
1773522822690330000,5.939330078125,-190.07162475585938,56.917694091796875,-66.69546508789062
1773522822700441000,5.949441162109375,-190.1130828857422,57.4354248046875,-67.24592590332031
1773522822710552300,5.95955224609375,-189.94216918945312,57.07395935058594,-66.76164245605469
1773522822720662000,5.969662109375,-189.76553344726562,57.37420654296875,-67.0018310546875
1773522822730772000,5.97977197265625,-189.6460418701172,57.383331298828125,-66.56591796875
1773522822740883200,5.98988330078125,-189.6649169921875,57.28157043457031,-66.4375
1773522822750994200,5.999994140625,-189.49815368652344,57.68605041503906,-67.10923767089844
1773522822761107200,6.010107177734375,-189.1606903076172,57.5743408203125,-66.4974365234375
1773522822771219000,6.020218994140625,-189.6044921875,57.496612548828125,-66.90736389160156
1773522822781330200,6.030330078125,-189.30775451660156,57.74443054199219,-66.57015991210938
1773522822791440100,6.040440185546875,-188.94912719726562,57.481536865234375,-66.44125366210938
1773522822801552100,6.05055224609375,-189.32765197753906,57.83331298828125,-66.81623840332031
1773522822811663000,6.0606630859375,-189.33856201171875,57.72271728515625,-66.255126953125
1773522822821774000,6.070774169921875,-189.82562255859375,57.340606689453125,-66.72703552246094
1773522822831886000,6.080885986328125,-189.3258056640625,57.62666320800781,-66.80014038085938
1773522822841998000,6.090998046875,-189.3806915283203,57.09660339355469,-66.47789001464844
1773522822852109300,6.101109375,-189.5094757080078,57.56135559082031,-67.04728698730469
1773522822862220000,6.111219970703125,-189.59439086914062,57.105743408203125,-66.56986999511719
1773522822872332000,6.12133203125,-189.27578735351562,57.26469421386719,-66.70158386230469
1773522822882443300,6.131443359375,-189.42190551757812,57.35723876953125,-66.82685852050781
1773522822892554000,6.141553955078125,-189.27330017089844,57.37812805175781,-66.49795532226562
1773522822902666000,6.151666015625,-189.61688232421875,57.590057373046875,-66.89341735839844
1773522822912772600,6.161772705078125,-189.61976623535156,57.65663146972656,-66.33987426757812
1773522822922884600,6.171884521484375,-189.1548614501953,57.497650146484375,-65.95527648925781
1773522822932995800,6.181995849609375,-190.0168914794922,57.932647705078125,-66.51084899902344
1773522822943107600,6.192107666015625,-189.57168579101562,57.49906921386719,-65.60560607910156
1773522822953217800,6.2022177734375,-190.137939453125,57.88861083984375,-65.94242858886719
1773522822963329800,6.212329833984375,-189.51528930664062,58.16960144042969,-65.28631591796875
1773522822973440800,6.222440673828125,-189.38174438476562,57.91993713378906,-65.02381896972656
1773522822983552800,6.232552734375,-189.42518615722656,58.14128112792969,-65.35118103027344
1773522822993662700,6.242662841796875,-189.47509765625,58.008880615234375,-65.01130676269531
1773522823003775500,6.252775390625,-189.5946502685547,58.39073181152344,-65.28594970703125
1773522823013886700,6.26288671875,-189.47178649902344,58.32087707519531,-64.94380187988281
1773522823023996700,6.27299658203125,-189.25,58.129119873046875,-64.77001953125
1773522823034106600,6.283106689453125,-189.53526306152344,58.79771423339844,-65.39854431152344
1773522823044216600,6.293216552734375,-189.105712890625,58.51750183105469,-64.86383056640625
1773522823054326800,6.303326904296875,-189.04818725585938,58.35284423828125,-65.25312805175781
1773522823064437500,6.3134375,-188.81446838378906,58.76951599121094,-64.95896911621094
1773522823074547700,6.323547607421875,-188.9164581298828,58.310302734375,-64.87850952148438
1773522823084657700,6.33365771484375,-188.6474609375,58.69781494140625,-65.37208557128906
1773522823094768600,6.3437685546875,-188.80941772460938,58.547088623046875,-64.928466796875
1773522823104878600,6.353878662109375,-188.9104461669922,58.526031494140625,-65.46022033691406
1773522823114988800,6.36398876953125,-188.09800720214844,58.67610168457031,-65.10154724121094
1773522823125099800,6.374099853515625,-188.07730102539062,58.71748352050781,-65.10835266113281
1773522823135209700,6.384209716796875,-187.897216796875,58.90592956542969,-65.37425231933594
1773522823145321700,6.39432177734375,-187.5106201171875,58.86021423339844,-65.04965209960938
1773522823155432700,6.4044326171875,-187.7670135498047,59.04216003417969,-65.31466674804688
1773522823165544700,6.414544677734375,-187.38623046875,58.90657043457031,-65.31484985351562
1773522823175656700,6.42465673828125,-187.0124053955078,58.89912414550781,-64.94554138183594
1773522823185768700,6.434768798828125,-186.52162170410156,59.4930419921875,-65.53887939453125
1773522823195879700,6.444879638671875,-186.26832580566406,59.304931640625,-65.25677490234375
1773522823205991000,6.454990966796875,-185.83853149414062,59.473968505859375,-65.5863037109375
1773522823216101600,6.4651015625,-185.5155792236328,59.83966064453125,-65.89646911621094
1773522823226214700,6.475214599609375,-185.5642852783203,59.37774658203125,-65.66973876953125
1773522823236324900,6.485324951171875,-184.76271057128906,59.89955139160156,-66.26251220703125
1773522823246436600,6.4954365234375,-183.84759521484375,59.839141845703125,-66.15390014648438
1773522823256548600,6.505548583984375,-183.64036560058594,59.65547180175781,-66.23641967773438
1773522823266659800,6.515659912109375,-183.4468231201172,60.110260009765625,-66.97016906738281
1773522823276770600,6.5257705078125,-182.56121826171875,59.868255615234375,-66.82424926757812
1773522823286881800,6.5358818359375,-181.48011779785156,60.2418212890625,-67.47654724121094
1773522823296993800,6.545993896484375,-181.5852813720703,59.95783996582031,-67.38565063476562
1773522823307105800,6.556105712890625,-180.94488525390625,60.17366027832031,-67.51890563964844
1773522823317218800,6.56621875,-180.51071166992188,60.322540283203125,-67.95660400390625
1773522823327331800,6.576331787109375,-179.40164184570312,59.86845397949219,-67.65705871582031
1773522823337444900,6.58644482421875,-178.89910888671875,60.38679504394531,-68.35543823242188
1773522823347555600,6.5965556640625,-178.37677001953125,60.465087890625,-68.06765747070312
1773522823357667600,6.60666748046875,-177.76556396484375,60.027374267578125,-68.10098266601562
1773522823367778800,6.61677880859375,-177.54981994628906,60.516632080078125,-68.91781616210938
1773522823377889500,6.6268896484375,-177.09304809570312,60.24864196777344,-68.56056213378906
1773522823388000800,6.637000732421875,-176.50389099121094,60.21971130371094,-69.15753173828125
1773522823398110700,6.64711083984375,-175.6207733154297,60.50634765625,-69.06520080566406
1773522823408221700,6.6572216796875,-175.31826782226562,60.16168212890625,-69.315185546875
1773522823418332700,6.667332763671875,-174.5160369873047,60.50077819824219,-70.03143310546875
1773522823428442600,6.677442626953125,-174.15408325195312,59.960968017578125,-69.83436584472656
1773522823438552600,6.687552490234375,-173.42881774902344,59.90293884277344,-70.54808044433594
1773522823448663800,6.697663818359375,-173.23696899414062,60.03828430175781,-70.76693725585938
1773522823458774800,6.70777490234375,-172.52923583984375,59.31449890136719,-70.75251770019531
1773522823468885800,6.7178857421875,-172.2135772705078,59.694366455078125,-71.75662231445312
1773522823478997800,6.727997802734375,-171.74191284179688,58.88935852050781,-71.60391235351562
1773522823489109800,6.73810986328125,-171.24476623535156,59.047271728515625,-72.39894104003906
1773522823499220700,6.748220703125,-171.14865112304688,58.78102111816406,-73.05047607421875
1773522823509331700,6.758331787109375,-170.06787109375,58.30201721191406,-73.09970092773438
1773522823519442700,6.768442626953125,-169.8308868408203,58.21043395996094,-74.1141357421875
1773522823529553700,6.7785537109375,-169.50070190429688,57.81999206542969,-74.16342163085938
1773522823539664600,6.78866455078125,-169.3299560546875,57.5220947265625,-74.56935119628906
1773522823549775600,6.798775634765625,-169.71310424804688,57.308441162109375,-75.63914489746094
1773522823559887600,6.8088876953125,-169.0727996826172,56.48857116699219,-75.21937561035156
1773522823569998800,6.818998779296875,-168.35508728027344,56.22981262207031,-76.22526550292969
1773522823580110800,6.82911083984375,-168.56983947753906,55.85328674316406,-76.42578125
1773522823590222600,6.83922265625,-167.8944091796875,55.20152282714844,-76.55387878417969
1773522823600333600,6.84933349609375,-167.74102783203125,54.81135559082031,-77.35020446777344
1773522823610446600,6.859446533203125,-167.3848419189453,53.635101318359375,-76.68025207519531
1773522823620557800,6.869557861328125,-167.10726928710938,53.06294250488281,-77.16181945800781
1773522823630669600,6.879669677734375,-166.42474365234375,52.553955078125,-76.60739135742188
1773522823640779800,6.88977978515625,-165.8857421875,51.85630798339844,-75.8109130859375
1773522823650889700,6.8998896484375,-165.21945190429688,51.52854919433594,-75.86776733398438
1773522823661000700,6.910000732421875,-164.8194580078125,51.218780517578125,-74.32528686523438
1773522823671111700,6.920111572265625,-164.19650268554688,51.31144714355469,-73.95986938476562
1773522823681222700,6.93022265625,-163.12109375,51.7611083984375,-72.98072814941406
1773522823691334000,6.940333984375,-163.06610107421875,52.060089111328125,-72.06080627441406
1773522823701443600,6.950443603515625,-162.830322265625,52.86531066894531,-72.07981872558594
1773522823711553500,6.960553466796875,-162.6780548095703,53.375457763671875,-70.81378173828125
1773522823721663700,6.970663818359375,-162.07818603515625,54.0745849609375,-70.91343688964844
1773522823731775700,6.980775634765625,-161.47154235839844,54.68995666503906,-70.14398193359375
1773522823741885700,6.9908857421875,-161.6504364013672,54.74711608886719,-69.57798767089844
1773522823751996700,7.00099658203125,-161.26475524902344,55.63789367675781,-69.86248779296875
1773522823762107600,7.011107666015625,-161.24081420898438,55.64825439453125,-68.99443054199219
1773522823772217900,7.0212177734375,-161.0832977294922,56.24583435058594,-69.1416015625
1773522823782327600,7.03132763671875,-161.12423706054688,56.71244812011719,-68.80909729003906
1773522823792438800,7.041438720703125,-160.679443359375,56.51161193847656,-67.83792114257812
1773522823802549500,7.051549560546875,-160.37094116210938,57.5809326171875,-67.87841796875
1773522823812659700,7.06165966796875,-159.9334716796875,57.461456298828125,-66.52931213378906
1773522823822768600,7.0717685546875,-159.78131103515625,57.96607971191406,-65.6773681640625
1773522823832880600,7.081880615234375,-159.09249877929688,58.25975036621094,-64.925048828125
1773522823842991600,7.09199169921875,-159.29209899902344,58.26318359375,-63.53135681152344
1773522823853102600,7.1021025390625,-159.18650817871094,58.996734619140625,-63.53370666503906
1773522823863213800,7.1122138671875,-158.84759521484375,58.795684814453125,-62.117401123046875
1773522823873325600,7.12232568359375,-158.1647491455078,59.07574462890625,-61.22932434082031
1773522823883437600,7.1324375,-157.95596313476562,59.20491027832031,-61.30439758300781
1773522823893546500,7.14254638671875,-157.42996215820312,59.03233337402344,-60.350555419921875
1773522823903657700,7.15265771484375,-156.7225341796875,58.93601989746094,-60.0736083984375
1773522823913771000,7.16277099609375,-156.577880859375,58.797637939453125,-59.077911376953125
1773522823923881700,7.1728818359375,-156.16171264648438,58.87928771972656,-58.490966796875
1773522823933993700,7.18299365234375,-156.2047119140625,59.074127197265625,-58.566680908203125
1773522823944105000,7.19310498046875,-155.66494750976562,58.81306457519531,-57.74888610839844
1773522823954215700,7.203215576171875,-155.73170471191406,58.983062744140625,-57.842071533203125
1773522823964328000,7.213327880859375,-155.88314819335938,58.93910217285156,-57.36573791503906
1773522823974439000,7.22343896484375,-155.70506286621094,58.82920837402344,-57.25431823730469
1773522823984550700,7.233550537109375,-155.64552307128906,59.07511901855469,-57.65022277832031
1773522823994662000,7.243661865234375,-155.94435119628906,58.845611572265625,-57.606903076171875
1773522824004774000,7.25377392578125,-155.75331115722656,59.07667541503906,-58.38592529296875
1773522824014884600,7.263884521484375,-155.5721435546875,58.856597900390625,-58.56819152832031
1773522824024995800,7.273995849609375,-155.29632568359375,58.38104248046875,-58.85133361816406
1773522824035105800,7.284105712890625,-154.94895935058594,58.51216125488281,-59.579742431640625
1773522824045216800,7.294216796875,-155.0016632080078,57.99896240234375,-59.22486877441406
1773522824055328000,7.304327880859375,-154.89224243164062,58.02142333984375,-59.800537109375
1773522824065437700,7.314437744140625,-154.545166015625,58.140167236328125,-59.49560546875
1773522824075547600,7.324547607421875,-154.51475524902344,57.56123352050781,-59.04795837402344
1773522824085659000,7.334658935546875,-154.10501098632812,58.10893249511719,-59.52781677246094
1773522824095769900,7.344769775390625,-154.51974487304688,57.842437744140625,-58.983734130859375
1773522824105881900,7.3548818359375,-155.0857696533203,57.956756591796875,-58.9931640625
1773522824115993900,7.364993896484375,-154.7952117919922,58.41917419433594,-59.10215759277344
1773522824126104800,7.375104736328125,-155.43646240234375,58.17533874511719,-58.454254150390625
1773522824136215800,7.3852158203125,-154.96011352539062,58.86961364746094,-58.66839599609375
1773522824146326800,7.395326904296875,-155.47946166992188,58.52783203125,-57.87944030761719
1773522824156437800,7.405437744140625,-155.982177734375,58.95335388183594,-57.571563720703125
1773522824166550000,7.415550048828125,-156.1113739013672,59.21141052246094,-57.65934753417969
1773522824176661800,7.425661865234375,-156.5598602294922,59.103973388671875,-57.14482116699219
1773522824186773800,7.435773681640625,-156.58302307128906,59.75169372558594,-57.40496826171875
1773522824196885800,7.4458857421875,-156.66725158691406,59.512359619140625,-57.02049255371094
1773522824206997800,7.455997802734375,-156.6364288330078,59.48133850097656,-56.86744689941406
1773522824217108700,7.466108642578125,-156.72618103027344,60.094024658203125,-57.35008239746094
1773522824227219700,7.4762197265625,-157.78683471679688,60.04740905761719,-57.36882019042969
1773522824237331000,7.4863310546875,-157.96160888671875,60.306610107421875,-57.62770080566406
1773522824247441700,7.496441650390625,-158.36685180664062,60.235137939453125,-57.718963623046875
1773522824257554700,7.5065546875,-158.6383819580078,60.16087341308594,-57.49150085449219
1773522824267666000,7.516666015625,-159.14747619628906,60.55683898925781,-58.10249328613281
1773522824277776600,7.526776611328125,-158.94802856445312,60.23411560058594,-57.8116455078125
1773522824287888000,7.536887939453125,-159.56671142578125,60.68409729003906,-58.2423095703125
1773522824297998800,7.546998779296875,-159.63568115234375,60.55805969238281,-58.008026123046875
1773522824308108800,7.55710888671875,-159.94287109375,60.629730224609375,-57.9498291015625
1773522824318218800,7.56721875,-159.71807861328125,61.005828857421875,-58.18989562988281
1773522824328330800,7.577330810546875,-159.90316772460938,60.82954406738281,-57.81683349609375
1773522824338441000,7.58744091796875,-159.92355346679688,60.73103332519531,-57.85252380371094
1773522824348551700,7.5975517578125,-159.7388458251953,61.078125,-57.58221435546875
1773522824358663700,7.60766357421875,-159.5499725341797,60.53260803222656,-57.22723388671875
1773522824368773600,7.617773681640625,-159.1031036376953,60.6397705078125,-57.439483642578125
1773522824378885600,7.6278857421875,-158.88246154785156,60.65745544433594,-56.83363342285156
1773522824388996900,7.637996826171875,-158.1707305908203,60.25273132324219,-56.662750244140625
1773522824399106800,7.64810693359375,-157.10760498046875,60.55615234375,-56.25022888183594
1773522824409217800,7.6582177734375,-157.41387939453125,59.70068359375,-55.292999267578125
1773522824419329000,7.6683291015625,-156.1801300048828,59.77064514160156,-55.33360290527344
1773522824429439700,7.678439697265625,-156.0867156982422,59.425201416015625,-54.638671875
1773522824439551000,7.688551025390625,-155.8018798828125,59.39697265625,-54.65277099609375
1773522824449660700,7.69866064453125,-155.433349609375,59.66998291015625,-55.06756591796875
1773522824459772000,7.70877197265625,-155.21714782714844,59.04115295410156,-54.555206298828125
1773522824469881900,7.7188818359375,-154.6551055908203,58.90800476074219,-54.766357421875
1773522824479991800,7.72899169921875,-154.30052185058594,58.314117431640625,-54.85716247558594
1773522824490101800,7.739101806640625,-153.4964599609375,58.3914794921875,-55.05485534667969
1773522824500213000,7.749212890625,-153.37872314453125,58.280120849609375,-56.21820068359375
1773522824510324700,7.75932470703125,-152.62217712402344,57.4468994140625,-56.3944091796875
1773522824520435000,7.76943505859375,-152.6991424560547,57.47547912597656,-57.43229675292969
1773522824530548000,7.7795478515625,-152.19369506835938,56.96882629394531,-57.671539306640625
1773522824540658700,7.78965869140625,-152.11392211914062,56.64445495605469,-58.05946350097656
1773522824550770700,7.799770751953125,-152.6492462158203,57.23808288574219,-59.03770446777344
1773522824560882700,7.809882568359375,-152.6072540283203,56.83949279785156,-58.54856872558594
1773522824570995000,7.819994873046875,-152.96414184570312,56.8939208984375,-59.07279968261719
1773522824581105700,7.830105712890625,-152.7731475830078,57.15388488769531,-59.223175048828125
1773522824591217000,7.840216796875,-153.07554626464844,56.68310546875,-59.02519226074219
1773522824601327900,7.850327880859375,-152.77371215820312,57.01936340332031,-59.575775146484375
1773522824611439600,7.860439697265625,-152.9495086669922,56.725677490234375,-59.31193542480469
1773522824621550800,7.87055078125,-152.94903564453125,56.67341613769531,-59.81494140625
1773522824631661800,7.880661865234375,-152.46910095214844,56.63783264160156,-59.91749572753906
1773522824641773800,7.89077392578125,-152.75328063964844,56.19874572753906,-60.188079833984375
1773522824651884800,7.900884765625,-152.47337341308594,56.530364990234375,-61.00367736816406
1773522824661995800,7.910995849609375,-152.93736267089844,56.39479064941406,-60.93730163574219
1773522824672106800,7.921106689453125,-153.20928955078125,56.684173583984375,-61.52461242675781
1773522824682218800,7.93121875,-153.26417541503906,56.77662658691406,-61.69073486328125
1773522824692330000,7.941330078125,-153.85984802246094,56.461090087890625,-61.707794189453125
1773522824702440700,7.951440673828125,-154.3675079345703,57.07521057128906,-62.31190490722656
1773522824712551000,7.961551025390625,-155.00942993164062,57.164642333984375,-62.33552551269531
1773522824722664000,7.971663818359375,-155.36131286621094,57.54539489746094,-62.5904541015625
1773522824732776000,7.98177587890625,-155.62045288085938,57.76454162597656,-62.931732177734375
1773522824742886700,7.99188671875,-156.4527587890625,57.76921081542969,-62.97654724121094
1773522824752999000,8.0019990234375,-157.06690979003906,57.944183349609375,-63.50538635253906
1773522824763111000,8.01211083984375,-157.2433624267578,57.858184814453125,-63.35340881347656
1773522824773223000,8.022222900390625,-157.44943237304688,58.18717956542969,-63.499359130859375
1773522824783334000,8.032333984375,-158.09918212890625,58.323394775390625,-63.78901672363281
1773522824793446700,8.04244677734375,-157.89959716796875,58.222991943359375,-63.39558410644531
1773522824803559700,8.0525595703125,-158.06448364257812,58.41314697265625,-63.8095703125
1773522824813672700,8.062672607421876,-158.2021026611328,58.53303527832031,-63.45896911621094
1773522824823786800,8.072786865234375,-158.5089111328125,58.45252990722656,-63.02708435058594
1773522824833899800,8.082899658203125,-159.25218200683594,59.05596923828125,-63.77821350097656
1773522824844011800,8.09301171875,-159.2541046142578,58.626495361328125,-63.41481018066406
1773522824854124800,8.103124755859374,-159.94349670410156,59.188873291015625,-63.6131591796875
1773522824864238800,8.11323876953125,-160.3874969482422,59.35650634765625,-63.610809326171875
1773522824874350800,8.123350830078126,-160.67347717285156,59.18507385253906,-63.55155944824219
1773522824884460800,8.133460693359375,-161.3900146484375,59.68475341796875,-64.29931640625
1773522824894572800,8.14357275390625,-161.6134490966797,59.416534423828125,-64.1090087890625
1773522824904683800,8.153683837890625,-162.4026336669922,59.48222351074219,-64.42375183105469
1773522824914793700,8.163793701171874,-162.7131805419922,59.671173095703125,-64.57839965820312
1773522824924906800,8.17390673828125,-163.29620361328125,59.56428527832031,-64.57905578613281
1773522824935019800,8.184019775390626,-163.09461975097656,59.770172119140625,-65.08470153808594
1773522824945131800,8.1941318359375,-163.97763061523438,59.755126953125,-64.88470458984375
1773522824955243800,8.204243896484375,-164.5880889892578,59.82261657714844,-65.11814880371094
1773522824965355000,8.21435498046875,-164.4854736328125,60.05963134765625,-65.12252807617188
1773522824975464700,8.224464599609375,-164.64483642578125,59.82344055175781,-64.87982177734375
1773522824985576000,8.234575927734374,-165.04566955566406,59.93231201171875,-65.3333740234375
1773522824995686700,8.244686767578125,-165.80902099609375,59.94209289550781,-64.98466491699219
1773522825005798000,8.2547978515625,-166.04025268554688,60.2587890625,-65.02781677246094
1773522825015908600,8.26490869140625,-165.86245727539062,60.278045654296875,-65.03526306152344
1773522825026020900,8.275020751953125,-166.01446533203125,59.953338623046875,-64.65092468261719
1773522825036131800,8.2851318359375,-165.60076904296875,60.10066223144531,-65.03904724121094
1773522825046242800,8.295242919921876,-166.20645141601562,60.16462707519531,-64.62954711914062
1773522825056353800,8.305353759765625,-166.61456298828125,60.17454528808594,-64.46324157714844
1773522825066465000,8.315465087890624,-166.1670684814453,60.42463684082031,-64.62155151367188
1773522825076576800,8.32557666015625,-165.92071533203125,60.30772399902344,-64.18119812011719
1773522825086689800,8.335689697265625,-166.42474365234375,60.33363342285156,-64.25765991210938
1773522825096802800,8.345802734375,-166.2144012451172,60.46624755859375,-63.66355895996094
1773522825106914800,8.355914794921874,-165.6061553955078,60.418914794921875,-63.42218017578125
1773522825117025800,8.36602587890625,-165.45826721191406,60.458648681640625,-63.43072509765625
1773522825127136800,8.37613671875,-165.54127502441406,60.478302001953125,-62.761749267578125
1773522825137247700,8.386247802734376,-165.59129333496094,60.623748779296875,-62.70854187011719
1773522825147357700,8.396357666015625,-165.6763458251953,60.8892822265625,-62.189422607421875
1773522825157468000,8.406468017578124,-165.58990478515625,60.797760009765625,-61.47770690917969
1773522825167576800,8.416576904296875,-166.65054321289062,61.11524963378906,-62.007659912109375
1773522825177687000,8.42668701171875,-166.5491485595703,60.99684143066406,-61.545806884765625
1773522825187796700,8.436796630859375,-167.3889617919922,61.40966796875,-61.75352478027344
1773522825197906700,8.44690673828125,-167.16641235351562,61.277740478515625,-61.65168762207031
1773522825208017000,8.457016845703125,-167.56040954589844,61.43959045410156,-61.41200256347656
1773522825218125800,8.467125732421875,-167.9804229736328,61.65046691894531,-61.73687744140625
1773522825228234800,8.47723486328125,-167.896728515625,61.63067626953125,-61.68531799316406
1773522825238345000,8.487344970703125,-168.75909423828125,61.509857177734375,-62.02897644042969
1773522825248454000,8.497453857421876,-169.1496124267578,61.740753173828125,-62.19075012207031
1773522825258562800,8.507562744140625,-169.3473663330078,61.26255798339844,-62.17747497558594
1773522825268671700,8.517671630859375,-168.9771270751953,61.7064208984375,-62.74456787109375
1773522825278780700,8.52778076171875,-169.48606872558594,61.400848388671875,-62.40971374511719
1773522825288891000,8.537890869140625,-169.79197692871094,61.71653747558594,-62.75471496582031
1773522825298999800,8.547999755859376,-170.19366455078125,61.77226257324219,-62.671661376953125
1773522825309108700,8.558108642578125,-170.2333526611328,61.51164245605469,-62.3095703125
1773522825319218000,8.568218017578126,-170.7308807373047,61.67816162109375,-62.7152099609375
1773522825329327900,8.578327880859375,-170.93663024902344,61.61869812011719,-62.31793212890625
1773522825339437800,8.588437744140625,-171.4733428955078,61.801849365234375,-62.1029052734375
1773522825349547800,8.5985478515625,-171.7239990234375,62.15191650390625,-62.24818420410156
1773522825359658800,8.60865869140625,-171.58096313476562,61.837066650390625,-61.8497314453125
1773522825369769700,8.618769775390625,-171.76808166503906,62.2393798828125,-62.2071533203125
1773522825379881000,8.628880859375,-171.903564453125,62.38401794433594,-61.83390808105469
1773522825389991700,8.63899169921875,-172.45408630371094,62.38154602050781,-61.948638916015625
1773522825400102000,8.649101806640624,-172.8708953857422,62.31591796875,-62.08851623535156
1773522825410211800,8.6592119140625,-172.91200256347656,61.85554504394531,-61.645721435546875
1773522825420322800,8.66932275390625,-173.13900756835938,62.272430419921875,-62.267608642578125
1773522825430432800,8.679432861328126,-173.40467834472656,62.297943115234375,-62.11932373046875
1773522825440542700,8.689542724609375,-173.5771484375,61.91307067871094,-61.98085021972656
1773522825450653000,8.69965283203125,-173.7004852294922,62.470428466796875,-62.32096862792969
1773522825460762600,8.7097626953125,-173.65884399414062,62.32847595214844,-61.98167419433594
1773522825470873900,8.719873779296876,-174.1622772216797,62.43736267089844,-62.36805725097656
1773522825480984800,8.72998486328125,-173.89089965820312,62.52899169921875,-62.175750732421875
1773522825491094800,8.7400947265625,-173.35980224609375,62.21549987792969,-61.68318176269531
1773522825501206000,8.7502060546875,-173.52366638183594,62.40545654296875,-61.968231201171875
1773522825511315700,8.760315673828124,-173.3135528564453,62.354461669921875,-61.542755126953125
1773522825521427000,8.770427001953125,-173.3726806640625,62.4609375,-61.55513000488281
1773522825531537700,8.78053759765625,-172.98646545410156,62.476104736328125,-61.439727783203125
1773522825541650000,8.79064990234375,-172.890625,62.25654602050781,-61.026458740234375
1773522825551761000,8.800760986328125,-172.83631896972656,62.88250732421875,-61.31993103027344
1773522825561874000,8.8108740234375,-172.63746643066406,62.52903747558594,-60.93003845214844
1773522825571985700,8.820985595703124,-172.8950653076172,62.67851257324219,-60.943511962890625
1773522825582100000,8.831099853515624,-172.8221435546875,63.05601501464844,-60.96040344238281
1773522825592210700,8.841210693359375,-172.5206756591797,62.56050109863281,-60.68559265136719
1773522825602323000,8.851322998046875,-172.44354248046875,62.70875549316406,-61.042724609375
1773522825612434000,8.861433837890624,-172.58226013183594,62.74797058105469,-60.727386474609375
1773522825622544600,8.871544677734375,-172.78773498535156,62.972381591796875,-61.11634826660156
1773522825632654800,8.88165478515625,-172.0803680419922,63.06034851074219,-61.083831787109375
1773522825642766600,8.8917666015625,-172.131591796875,62.39710998535156,-61.21539306640625
1773522825652877800,8.9018779296875,-172.1370086669922,62.34651184082031,-61.854736328125
1773522825662989800,8.91198974609375,-171.53842163085938,62.33671569824219,-61.93244934082031
1773522825673101800,8.922101806640624,-171.53758239746094,62.250457763671875,-62.57933044433594
1773522825683212800,8.932212890625,-171.48724365234375,61.90472412109375,-63.00242614746094
1773522825693323800,8.94232373046875,-171.4628143310547,61.73411560058594,-63.20709228515625
1773522825703435800,8.952435791015626,-171.0872802734375,61.65596008300781,-63.87770080566406
1773522825713546800,8.962546630859375,-171.01707458496094,61.35514831542969,-64.1641845703125
1773522825723657700,8.97265771484375,-170.33978271484375,61.2119140625,-64.30755615234375
1773522825733767700,8.982767578125,-169.93272399902344,61.15672302246094,-64.85400390625
1773522825743879000,8.99287890625,-169.62327575683594,60.9344482421875,-64.90531921386719
1773522825753991000,9.002990966796874,-169.68234252929688,60.78923034667969,-65.33729553222656
1773522825764101600,9.0131015625,-169.18612670898438,60.37355041503906,-65.53511047363281
1773522825774214000,9.0232138671875,-168.2641143798828,60.3165283203125,-65.53254699707031
1773522825784324900,9.033324951171876,-168.16009521484375,60.3516845703125,-66.12551879882812
1773522825794435800,9.043435791015625,-168.0381317138672,60.15788269042969,-66.19189453125
1773522825804548900,9.053548828125,-167.84422302246094,59.95231628417969,-66.51187133789062
1773522825814659800,9.063659912109374,-168.2803955078125,59.9659423828125,-66.59683227539062
1773522825824771800,9.073771728515625,-167.40736389160156,59.8050537109375,-66.49842834472656
1773522825834883800,9.0838837890625,-167.5247802734375,59.7012939453125,-67.16053771972656
1773522825844995800,9.093995849609374,-167.1952667236328,59.807281494140625,-67.04327392578125
1773522825855105800,9.104105712890625,-167.86233520507812,59.70770263671875,-67.2354736328125
1773522825865215700,9.1142158203125,-167.7470703125,59.74119567871094,-67.54481506347656
1773522825875327000,9.124326904296876,-167.7451934814453,59.19342041015625,-67.62171936035156
1773522825885436700,9.134436767578125,-166.83741760253906,59.35206604003906,-68.16725158691406
1773522825895547000,9.144546875,-164.88327026367188,58.65345764160156,-67.6131591796875
1773522825905656800,9.15465673828125,-164.24020385742188,58.48213195800781,-67.42955017089844
1773522825915769300,9.164769287109374,-163.4720001220703,58.62495422363281,-66.97438049316406
1773522825925880300,9.17488037109375,-162.18096923828125,58.176361083984375,-66.50636291503906
1773522825935993000,9.1849931640625,-161.6855926513672,58.3192138671875,-66.69328308105469
1773522825946105300,9.195105224609375,-161.42225646972656,58.334442138671875,-66.59361267089844
1773522825956217300,9.20521728515625,-161.53286743164062,58.136444091796875,-66.45405578613281
1773522825966329300,9.215329345703125,-160.9960479736328,58.12126159667969,-66.7117919921875
1773522825976441300,9.22544140625,-161.37615966796875,57.955230712890625,-66.70887756347656
1773522825986554400,9.235554443359375,-161.70289611816406,57.98194885253906,-67.40060424804688
1773522825996666000,9.245666015625,-162.02235412597656,57.76441955566406,-67.67353820800781
1773522826006777300,9.25577734375,-161.7477264404297,57.53691101074219,-67.89338684082031
1773522826016888300,9.265888427734374,-161.30902099609375,57.44541931152344,-68.34678649902344
1773522826027000300,9.276000244140626,-161.10459899902344,57.15025329589844,-67.97236633300781
1773522826037111300,9.286111328125,-160.71798706054688,56.912322998046875,-68.24198913574219
1773522826047222300,9.29622216796875,-159.99819946289062,57.03379821777344,-67.85340881347656
1773522826057331200,9.306331298828125,-159.39544677734375,56.89024353027344,-67.11343383789062
1773522826067441200,9.316441162109374,-159.2141571044922,56.86865234375,-67.21368408203125
1773522826077551400,9.32655126953125,-158.77891540527344,56.871826171875,-66.57147216796875
1773522826087660300,9.336660400390626,-158.76527404785156,56.92070007324219,-66.52230834960938
1773522826097770200,9.346770263671875,-158.0420379638672,56.72343444824219,-66.25376892089844
1773522826107882200,9.35688232421875,-157.38818359375,56.49171447753906,-65.46652221679688
1773522826117993500,9.366993408203125,-157.19442749023438,56.44551086425781,-65.81333923339844
1773522826128104200,9.377104248046875,-157.63018798828125,56.63584899902344,-65.58094787597656
1773522826138216200,9.38721630859375,-157.4839324951172,56.7744140625,-65.55366516113281
1773522826148328200,9.397328125,-157.30001831054688,56.62884521484375,-65.64192199707031
1773522826158439400,9.407439453125,-156.84059143066406,56.46556091308594,-65.26600646972656
1773522826168551200,9.41755126953125,-156.77728271484375,56.440582275390625,-65.80226135253906
1773522826178662400,9.427662353515625,-156.56338500976562,56.38031005859375,-65.30293273925781
1773522826188772000,9.437772216796875,-156.42425537109375,56.36505126953125,-65.26046752929688
1773522826198883300,9.44788330078125,-156.23135375976562,56.34367370605469,-65.12950134277344
1773522826208993300,9.4579931640625,-155.98434448242188,56.14204406738281,-64.87007141113281
1773522826219104300,9.468104248046876,-156.02334594726562,55.985870361328125,-65.09461975097656
1773522826229215500,9.478215576171875,-155.5039825439453,55.98846435546875,-64.71797180175781
1773522826239326200,9.488326171875,-155.52980041503906,56.269622802734375,-64.28251647949219
1773522826249438200,9.498438232421876,-155.56802368164062,56.831695556640625,-63.83319091796875
1773522826259550200,9.50855029296875,-155.7170867919922,56.56776428222656,-63.38116455078125
1773522826269662500,9.518662353515625,-156.09432983398438,57.07209777832031,-63.147064208984375
1773522826279773200,9.528773193359376,-156.3406524658203,57.28251647949219,-63.03984069824219
1773522826289884400,9.538884521484375,-156.42738342285156,57.23875427246094,-62.63623046875
1773522826299995400,9.548995361328124,-156.40118408203125,57.843231201171875,-62.852630615234375
1773522826310106400,9.5591064453125,-157.01608276367188,57.54710388183594,-62.71684265136719
1773522826320217300,9.56921728515625,-157.43121337890625,57.639892578125,-62.90406799316406
1773522826330327300,9.579327392578126,-157.63504028320312,57.885284423828125,-62.89570617675781
1773522826340439300,9.589439208984375,-157.92251586914062,57.855010986328125,-62.98139953613281
1773522826350550500,9.599550537109375,-158.36569213867188,58.17012023925781,-63.68006896972656
1773522826360661200,9.6096611328125,-158.86004638671875,58.126800537109375,-63.39141845703125
1773522826370773200,9.619773193359375,-159.1097412109375,58.038818359375,-63.96270751953125
1773522826380884500,9.629884521484374,-158.91976928710938,58.036285400390625,-63.97442626953125
1773522826390996200,9.639996337890626,-159.08279418945312,57.71978759765625,-63.72483825683594
1773522826401109200,9.650109130859375,-158.94883728027344,58.251007080078125,-64.32623291015625
1773522826411221200,9.66022119140625,-158.94618225097656,57.98783874511719,-64.12010192871094
1773522826421334300,9.670334228515625,-158.95294189453125,57.89125061035156,-64.20945739746094
1773522826431446300,9.6804462890625,-158.5590057373047,57.70957946777344,-64.17898559570312
1773522826441559300,9.690559326171876,-158.1007537841797,57.64863586425781,-63.784698486328125
1773522826451671300,9.70067138671875,-157.62603759765625,57.39018249511719,-63.97557067871094
1773522826461784300,9.710784423828125,-157.14376831054688,57.152557373046875,-63.490020751953125
1773522826471896300,9.720896240234374,-156.49822998046875,56.848907470703125,-63.33589172363281
1773522826482008300,9.73100830078125,-155.9461212158203,56.50468444824219,-63.35475158691406
1773522826492120300,9.741120361328125,-155.11888122558594,56.169830322265625,-63.10888671875
1773522826502232300,9.751232421875,-154.23178100585938,55.698394775390625,-63.361541748046875
1773522826512345300,9.761345458984374,-153.67315673828125,55.38755798339844,-63.35400390625
1773522826522457300,9.771457275390626,-153.46365356445312,55.041259765625,-63.75019836425781
1773522826532569300,9.7815693359375,-153.54261779785156,54.999359130859375,-64.67881774902344
1773522826542681300,9.791681396484375,-154.9876251220703,55.2618408203125,-64.8177490234375
1773522826552792300,9.801792236328126,-155.8076629638672,55.96708679199219,-65.56202697753906
1773522826562903300,9.8119033203125,-157.01988220214844,56.14671325683594,-65.45869445800781
1773522826573015300,9.822015380859375,-158.1639862060547,56.98490905761719,-65.58172607421875
1773522826583127300,9.832127197265624,-158.7157745361328,57.448455810546875,-65.46855163574219
1773522826593239300,9.8422392578125,-159.5213623046875,57.45375061035156,-65.31011962890625
1773522826603350500,9.8523505859375,-159.946044921875,58.099822998046875,-65.52281188964844
1773522826613461200,9.862461181640626,-160.20339965820312,57.97264099121094,-65.25736999511719
1773522826623572200,9.872572265625,-160.83016967773438,58.07073974609375,-65.24089050292969
1773522826633684500,9.8826845703125,-161.06153869628906,58.48695373535156,-65.63401794433594
1773522826643797500,9.892797607421874,-161.5569610595703,58.47810363769531,-65.47451782226562
1773522826653908200,9.902908203125,-161.1494140625,58.50404357910156,-65.730712890625
1773522826664020200,9.913020263671875,-161.5808868408203,58.435577392578125,-65.68522644042969
1773522826674132200,9.92313232421875,-161.5804901123047,58.59814453125,-65.67573547363281
1773522826684243200,9.9332431640625,-162.79600524902344,58.862579345703125,-66.16957092285156
1773522826694354200,9.943354248046875,-163.92222595214844,59.189849853515625,-66.23820495605469
1773522826704463400,9.95346337890625,-165.42210388183594,59.22596740722656,-66.7197265625
1773522826714574300,9.96357421875,-166.13174438476562,59.77935791015625,-67.01997375488281
1773522826724684300,9.973684326171876,-166.82937622070312,59.6263427734375,-66.98674011230469
1773522826734793500,9.98379345703125,-168.1338653564453,59.84785461425781,-67.68562316894531
1773522826744904200,9.993904296875,-169.06939697265625,59.89720153808594,-67.54689025878906
1773522826755014400,10.004014404296875,-170.09059143066406,59.90412902832031,-68.0074462890625
1773522826765126100,10.014126220703124,-171.37501525878906,60.119384765625,-68.34384155273438
1773522826775238400,10.02423828125,-171.7228546142578,59.65867614746094,-67.91412353515625
1773522826785349400,10.034349365234375,-172.96385192871094,59.81431579589844,-68.79338073730469
1773522826795460400,10.04446044921875,-173.7482452392578,60.07197570800781,-68.57586669921875
1773522826805572400,10.054572265625,-175.0225067138672,59.885406494140625,-68.85009765625
1773522826815683300,10.064683349609375,-175.3703155517578,59.88236999511719,-69.00958251953125
1773522826825794300,10.074794189453126,-176.2865753173828,59.594329833984375,-68.80842590332031
1773522826835905300,10.0849052734375,-176.28466796875,59.88859558105469,-69.35507202148438
1773522826846017300,10.095017333984375,-176.04147338867188,60.01936340332031,-69.19691467285156
1773522826856129300,10.10512939453125,-176.3790740966797,59.68589782714844,-69.10415649414062
1773522826866240300,10.115240234375,-176.2913055419922,59.85902404785156,-69.28103637695312
1773522826876351200,10.125351318359375,-176.37472534179688,60.18363952636719,-69.24935913085938
1773522826886463500,10.13546337890625,-176.21365356445312,60.024200439453125,-69.48945617675781
1773522826896575200,10.1455751953125,-175.80914306640625,59.67955017089844,-69.34234619140625
1773522826906687200,10.155687255859375,-175.44520568847656,59.94061279296875,-69.18125915527344
1773522826916798700,10.165798828125,-174.70718383789062,59.863250732421875,-69.47576904296875
1773522826926911000,10.175910888671876,-174.17054748535156,59.68821716308594,-69.4195556640625
1773522826937023000,10.18602294921875,-173.9476318359375,59.95317077636719,-69.79710388183594
1773522826947135000,10.196135009765625,-173.37269592285156,59.65855407714844,-69.71127319335938
1773522826957245000,10.206244873046876,-172.81356811523438,59.53196716308594,-69.45274353027344
1773522826967356000,10.21635595703125,-172.2046661376953,59.52104187011719,-69.636962890625
1773522826977467000,10.226466796875,-171.40760803222656,59.47798156738281,-69.28799438476562
1773522826987579000,10.236578857421875,-170.6090087890625,59.47563171386719,-69.3251953125
1773522826997691000,10.24669091796875,-169.28634643554688,59.40031433105469,-69.19956970214844
1773522827007803000,10.256802978515625,-168.0357208251953,59.19285583496094,-68.74676513671875
1773522827017915100,10.2669150390625,-167.2293243408203,59.094451904296875,-68.76901245117188
1773522827028027000,10.27702685546875,-166.2265625,59.127777099609375,-68.36299133300781
1773522827038140000,10.287139892578125,-165.5995635986328,58.96038818359375,-68.14108276367188
1773522827048252000,10.297251953125,-164.66696166992188,59.065032958984375,-67.67436218261719
1773522827058364000,10.307364013671876,-164.31417846679688,59.124481201171875,-66.76666259765625
1773522827068475100,10.31747509765625,-164.0021209716797,59.15264892578125,-67.09889221191406
1773522827078587000,10.3275869140625,-164.15689086914062,59.13328552246094,-66.72848510742188
1773522827088697900,10.33769775390625,-164.2627410888672,59.528656005859375,-66.60441589355469
1773522827098809900,10.347809814453125,-163.96766662597656,59.50138854980469,-66.62440490722656
1773522827108921000,10.357921142578125,-164.5579376220703,59.59437561035156,-66.22732543945312
1773522827119031800,10.36803173828125,-164.98504638671875,59.64312744140625,-66.50602722167969
1773522827129142000,10.37814208984375,-165.43545532226562,59.71104431152344,-66.50332641601562
1773522827139253800,10.388253662109374,-165.64715576171875,59.614105224609375,-66.76065063476562
1773522827149366000,10.398365966796876,-165.57119750976562,59.61470031738281,-66.94279479980469
1773522827159478000,10.40847802734375,-165.91468811035156,59.69874572753906,-66.69839477539062
1773522827169590000,10.418590087890625,-165.65069580078125,59.55790710449219,-66.60299682617188
1773522827179702000,10.428701904296876,-165.96058654785156,59.89448547363281,-66.13958740234375
1773522827189815000,10.43881494140625,-167.05433654785156,60.14447021484375,-65.65110778808594
1773522827199926800,10.4489267578125,-168.17767333984375,61.04473876953125,-65.51644897460938
1773522827210039800,10.459039794921875,-170.3863525390625,61.3416748046875,-65.63880920410156
1773522827220151800,10.46915185546875,-171.2173309326172,61.17997741699219,-66.05169677734375
1773522827230264800,10.479264892578126,-172.44651794433594,61.079986572265625,-66.4000244140625
1773522827240376800,10.489376953125,-173.2712860107422,60.80287170410156,-66.78691101074219
1773522827250489900,10.49948974609375,-174.24569702148438,60.98118591308594,-67.09564208984375
1773522827260601000,10.50960107421875,-174.99801635742188,60.63323974609375,-67.200439453125
1773522827270712800,10.519712890625,-176.5167236328125,60.86749267578125,-67.75674438476562
1773522827280824000,10.529823974609375,-177.7679443359375,60.72569274902344,-67.72979736328125
1773522827290933800,10.539933837890626,-179.54664611816406,60.43431091308594,-67.28097534179688
1773522827301043000,10.55004296875,-181.26220703125,60.388916015625,-67.5394287109375
1773522827311154000,10.56015380859375,-182.60494995117188,60.31901550292969,-66.9981689453125
1773522827321265000,10.570264892578125,-183.564453125,60.17262268066406,-66.32843017578125
1773522827331377200,10.580377197265625,-184.35874938964844,60.50199890136719,-65.92829895019531
1773522827341489000,10.590489013671874,-184.3216552734375,60.48854064941406,-64.60462951660156
1773522827351599900,10.600599853515625,-185.3686065673828,60.86729431152344,-64.16078186035156
1773522827361713000,10.610712890625,-186.1708526611328,60.962982177734375,-63.08485412597656
1773522827371826000,10.620825927734375,-187.13568115234375,60.95703125,-62.28266906738281
1773522827381939000,10.63093896484375,-187.9539031982422,61.04656982421875,-61.679779052734375
1773522827392051000,10.641051025390626,-188.60189819335938,60.81916809082031,-60.87199401855469
1773522827402163000,10.651162841796875,-189.41897583007812,60.67486572265625,-60.90736389160156
1773522827412276000,10.66127587890625,-190.40782165527344,60.37721252441406,-60.69712829589844
1773522827422387700,10.6713876953125,-191.60108947753906,59.861846923828125,-60.64881896972656
1773522827432499000,10.6814990234375,-192.87074279785156,59.543914794921875,-60.81294250488281
1773522827442610000,10.69160986328125,-193.67079162597656,59.09385681152344,-60.94285583496094
1773522827452721000,10.701720947265626,-194.93289184570312,58.54624938964844,-61.25871276855469
1773522827462831900,10.711831787109375,-195.28109741210938,58.04133605957031,-61.239654541015625
1773522827472945000,10.72194482421875,-196.33001708984375,57.461029052734375,-61.1510009765625
1773522827483057000,10.732056884765624,-197.28585815429688,56.92596435546875,-61.160858154296875
1773522827493167900,10.74216796875,-197.79263305664062,56.43086242675781,-60.88133239746094
1773522827503279900,10.75227978515625,-198.6949462890625,56.03694152832031,-60.9388427734375
1773522827513393000,10.762392822265625,-199.31649780273438,55.89091491699219,-60.619354248046875
1773522827523505000,10.7725048828125,-199.54150390625,55.23492431640625,-60.14973449707031
1773522827533617000,10.782616943359375,-200.24807739257812,54.72566223144531,-59.75370788574219
1773522827543727900,10.792727783203125,-200.73817443847656,54.511444091796875,-59.118804931640625
1773522827553838800,10.8028388671875,-201.27854919433594,54.19244384765625,-58.84303283691406
1773522827563949800,10.81294970703125,-201.6355743408203,53.93721008300781,-58.56935119628906
1773522827574060800,10.823060791015624,-202.14747619628906,53.32933044433594,-58.029388427734375
1773522827584170800,10.833170654296875,-202.2335968017578,53.43084716796875,-57.8778076171875
1773522827594282000,10.843281982421875,-203.0021209716797,52.697235107421875,-57.825286865234375
1773522827604394000,10.85339404296875,-203.8518829345703,52.3314208984375,-57.86018371582031
1773522827614506000,10.863506103515626,-203.8142852783203,51.84791564941406,-58.10209655761719
1773522827624618000,10.873617919921875,-204.677978515625,51.14710998535156,-58.20231628417969
1773522827634731000,10.88373095703125,-205.22689819335938,50.6383056640625,-58.71842956542969
1773522827644842800,10.8938427734375,-204.92381286621094,50.15773010253906,-58.668914794921875
1773522827654955800,10.903955810546876,-205.64549255371094,49.34100341796875,-58.844757080078125
1773522827665068000,10.914068115234375,-206.0921173095703,48.90147399902344,-59.09559631347656
1773522827675180800,10.924180908203125,-206.318603515625,48.41609191894531,-59.00244140625
1773522827685293000,10.93429296875,-206.4888458251953,48.04438781738281,-59.59385681152344
1773522827695406000,10.944406005859374,-207.07347106933594,47.351348876953125,-59.55146789550781
1773522827705518000,10.95451806640625,-207.3784942626953,46.882293701171875,-59.80220031738281
1773522827715630000,10.964630126953125,-207.79600524902344,46.426177978515625,-59.99794006347656
1773522827725741800,10.974741943359374,-207.89718627929688,45.78007507324219,-60.06318664550781
1773522827735853800,10.984853759765626,-208.29747009277344,45.44142150878906,-60.75648498535156
1773522827745965000,10.994965087890625,-208.57009887695312,44.66639709472656,-61.434783935546875
1773522827756075000,11.005074951171874,-208.7999725341797,43.939422607421875,-61.70426940917969
1773522827766186000,11.01518603515625,-209.20706176757812,43.27655029296875,-62.24436950683594
1773522827776298000,11.025298095703125,-209.0987091064453,42.7838134765625,-62.51155090332031
1773522827786409000,11.035408935546876,-209.10354614257812,42.433807373046875,-63.13542175292969
1773522827796520000,11.04552001953125,-209.2115478515625,42.19224548339844,-63.444610595703125
1773522827806631000,11.055630859375,-209.2788543701172,41.51393127441406,-63.652008056640625
1773522827816743000,11.065742919921876,-209.79615783691406,40.968536376953125,-64.04638671875
1773522827826854000,11.07585400390625,-209.4291534423828,40.695526123046875,-64.29867553710938
1773522827836966100,11.085966064453125,-209.74740600585938,40.08599853515625,-64.75523376464844
1773522827847076900,11.096076904296876,-209.49822998046875,40.07972717285156,-65.10716247558594
1773522827857188000,11.10618798828125,-209.41200256347656,39.94883728027344,-65.162841796875
1773522827867300000,11.116300048828125,-209.5127716064453,39.526031494140625,-65.33866882324219
1773522827877410800,11.126410888671876,-209.45497131347656,39.577789306640625,-65.24046325683594
1773522827887522000,11.13652197265625,-209.2822723388672,39.52598571777344,-65.58146667480469
1773522827897634000,11.146634033203124,-209.03273010253906,39.9476318359375,-65.72918701171875
1773522827907745800,11.156745849609376,-209.109619140625,40.26075744628906,-65.4801025390625
1773522827917857300,11.166857177734375,-208.78895568847656,40.298370361328125,-65.6795654296875
1773522827927968000,11.176968017578124,-208.27679443359375,40.5819091796875,-65.44607543945312
1773522827938079200,11.187079345703125,-208.7673797607422,40.866851806640625,-65.53160095214844
1773522827948191200,11.197191162109375,-208.36285400390625,41.324432373046875,-65.516357421875
1773522827958302000,11.207302001953124,-207.58468627929688,41.789642333984375,-65.13169860839844
1773522827968413200,11.2174130859375,-208.00001525878906,42.24623107910156,-65.31649780273438
1773522827978524000,11.22752392578125,-207.3086395263672,42.441131591796875,-64.8291015625
1773522827988635100,11.23763525390625,-207.16078186035156,42.77362060546875,-65.0968017578125
1773522827998747100,11.2477470703125,-206.8265380859375,43.48493957519531,-65.15774536132812
1773522828008859100,11.257859130859375,-206.00076293945312,43.79475402832031,-64.81109619140625
1773522828018972200,11.26797216796875,-206.2197265625,44.24957275390625,-65.06230163574219
1773522828029084000,11.278083984375,-205.7099151611328,44.76490783691406,-65.02200317382812
1773522828039196000,11.28819580078125,-205.66323852539062,44.88240051269531,-64.8780517578125
1773522828049308200,11.29830810546875,-205.1526336669922,45.18194580078125,-65.01284790039062
1773522828059420200,11.308420166015624,-204.70956420898438,45.57084655761719,-64.78323364257812
1773522828069532200,11.3185322265625,-204.5033416748047,46.037261962890625,-65.11434936523438
1773522828079644000,11.328643798828125,-204.2162322998047,46.36979675292969,-65.11752319335938
1773522828089756000,11.338755859375,-203.94287109375,46.5762939453125,-65.24284362792969
1773522828099868200,11.3488681640625,-203.74264526367188,47.09626770019531,-65.67825317382812
1773522828109980200,11.358980224609375,-203.26974487304688,47.17942810058594,-65.75509643554688
1773522828120091000,11.3690908203125,-202.8551483154297,47.435302734375,-66.22027587890625
1773522828130202000,11.3792021484375,-202.4239044189453,47.87553405761719,-66.31317138671875
1773522828140313000,11.38931298828125,-202.267578125,48.1689453125,-66.22871398925781
1773522828150424000,11.399424072265624,-201.64817810058594,48.42633056640625,-66.27229309082031
1773522828160537000,11.409537109375,-201.7444305419922,48.919097900390625,-66.62786865234375
1773522828170650000,11.419650146484376,-201.463623046875,49.11909484863281,-66.88720703125
1773522828180763000,11.429762939453125,-200.75489807128906,49.57698059082031,-67.05313110351562
1773522828190875100,11.439875244140625,-200.0389862060547,50.12602233886719,-66.93568420410156
1773522828200988200,11.44998828125,-199.6314239501953,50.65272521972656,-67.40824890136719
1773522828211099100,11.46009912109375,-199.186767578125,50.84454345703125,-67.26449584960938
1773522828221211000,11.4702109375,-199.28970336914062,51.277862548828125,-67.75065612792969
1773522828231323000,11.480322998046875,-198.61949157714844,51.58784484863281,-67.91671752929688
1773522828241435100,11.49043505859375,-198.02171325683594,51.79707336425781,-67.59318542480469
1773522828251547100,11.500547119140625,-197.4541473388672,52.30082702636719,-68.09797668457031
1773522828261659100,11.5106591796875,-197.09304809570312,52.61724853515625,-68.22802734375
1773522828271771000,11.52077099609375,-196.5830078125,53.251434326171875,-68.50355529785156
1773522828281882000,11.530882080078126,-196.16888427734375,53.77546691894531,-68.69937133789062
1773522828291994000,11.540994140625,-195.0079803466797,54.0452880859375,-68.33900451660156
1773522828302104800,11.551104736328124,-194.80638122558594,54.393646240234375,-68.96429443359375
1773522828312216000,11.561216064453125,-193.99082946777344,54.50364685058594,-68.96925354003906
1773522828322327000,11.5713271484375,-193.55142211914062,55.00205993652344,-69.26734924316406
1773522828332439000,11.58143896484375,-192.6092071533203,55.1787109375,-69.78713989257812
1773522828342550000,11.591550048828125,-191.52796936035156,55.361663818359375,-69.66798400878906
1773522828352661200,11.6016611328125,-191.10992431640625,55.41642761230469,-70.26490783691406
1773522828362771000,11.61177099609375,-190.2855987548828,55.64964294433594,-70.56121826171875
1773522828372881200,11.621881103515625,-190.02259826660156,55.881927490234375,-70.87286376953125
1773522828382992100,11.6319921875,-189.5990447998047,56.26560974121094,-71.47053527832031
1773522828393103000,11.64210302734375,-188.4240264892578,56.19207763671875,-71.41436767578125
1773522828403213000,11.652213134765624,-187.86695861816406,56.38636779785156,-72.21929931640625
1773522828413325000,11.662324951171875,-186.93531799316406,56.08979797363281,-72.29194641113281
1773522828423436300,11.672436279296875,-186.4270477294922,56.17692565917969,-72.552001953125
1773522828433547000,11.682547119140626,-185.3071746826172,56.30506896972656,-73.02972412109375
1773522828443658200,11.692658203125,-184.74327087402344,56.40992736816406,-73.36984252929688
1773522828453769000,11.70276904296875,-183.4969482421875,56.19252014160156,-73.81648254394531
1773522828463880000,11.7128798828125,-182.88441467285156,56.09678649902344,-74.06549072265625
1773522828473991200,11.7229912109375,-181.73623657226562,55.93072509765625,-74.26029968261719
1773522828484103000,11.73310302734375,-180.85653686523438,56.198394775390625,-74.64015197753906
1773522828494215000,11.74321484375,-180.29922485351562,55.958099365234375,-74.71566772460938
1773522828504326100,11.753326171875,-179.6233673095703,55.9542236328125,-75.05364990234375
1773522828514436900,11.763436767578124,-178.57875061035156,55.84968566894531,-75.27870178222656
1773522828524548000,11.773548095703125,-177.4678497314453,55.846466064453125,-75.36465454101562
1773522828534659000,11.7836591796875,-176.5319366455078,55.89430236816406,-75.47317504882812
1773522828544771000,11.79377099609375,-175.36094665527344,55.849884033203125,-75.29019165039062
1773522828554883000,11.803883056640625,-174.81155395507812,55.77745056152344,-75.3419189453125
1773522828564996000,11.81399609375,-173.82485961914062,55.99717712402344,-75.45184326171875
1773522828575106000,11.82410595703125,-172.18606567382812,55.96197509765625,-75.0238037109375
1773522828585218000,11.834218017578126,-171.8076629638672,55.96636962890625,-75.14533996582031
1773522828595328000,11.844327880859375,-170.5947265625,56.140625,-74.947021484375
1773522828605438000,11.85443798828125,-169.82176208496094,55.97901916503906,-74.64906311035156
1773522828615548200,11.864548095703125,-168.65182495117188,55.968292236328125,-74.79409790039062
1773522828625659000,11.874658935546876,-167.7909393310547,55.696624755859375,-74.04713439941406
1773522828635769000,11.88476904296875,-166.98446655273438,55.409423828125,-74.29487609863281
1773522828645880000,11.894880126953124,-165.3074188232422,55.836822509765625,-73.93962097167969
1773522828655991000,11.904990966796875,-164.8950958251953,55.55924987792969,-73.65983581542969
1773522828666102300,11.915102294921875,-163.59039306640625,55.6307373046875,-73.63970947265625
1773522828676214000,11.925214111328126,-162.46116638183594,55.276824951171875,-72.91236877441406
1773522828686326000,11.935325927734375,-161.0726776123047,55.087066650390625,-72.80526733398438
1773522828696438000,11.94543798828125,-160.07423400878906,54.88121032714844,-72.46086120605469
1773522828706549200,11.95554931640625,-159.4711456298828,54.270263671875,-71.76432800292969
1773522828716661000,11.965660888671875,-158.5017852783203,54.2071533203125,-71.7071533203125
1773522828726771200,11.975771240234375,-157.35340881347656,54.05914306640625,-71.232177734375
1773522828736882000,11.9858818359375,-156.3589324951172,53.785614013671875,-70.86424255371094
1773522828746993200,11.9959931640625,-155.7032928466797,53.89173889160156,-70.61477661132812
1773522828757105200,12.006105224609374,-155.4261932373047,53.566070556640625,-70.22708129882812
1773522828767218200,12.01621826171875,-154.83160400390625,53.49797058105469,-70.23043823242188
1773522828777330200,12.026330078125,-154.7834014892578,53.178314208984375,-69.9453125
1773522828787442000,12.03644189453125,-154.5685272216797,52.9571533203125,-69.93263244628906
1773522828797555000,12.046554931640625,-153.55746459960938,53.0157470703125,-69.94709777832031
1773522828807666200,12.056666259765626,-153.71304321289062,52.69903564453125,-69.46804809570312
1773522828817778200,12.066778076171875,-152.5508575439453,52.713531494140625,-69.39291381835938
1773522828827890200,12.07689013671875,-152.86607360839844,52.67881774902344,-69.01838684082031
1773522828838003200,12.087003173828125,-152.13905334472656,52.76271057128906,-69.04873657226562
1773522828848115000,12.097114990234376,-152.43531799316406,52.91461181640625,-68.97856140136719
1773522828858227000,12.10722705078125,-152.8533477783203,52.63836669921875,-68.58316040039062
1773522828868340000,12.117340087890625,-152.2662353515625,52.99430847167969,-68.88424682617188
1773522828878453000,12.127452880859375,-152.93695068359375,52.98291015625,-68.55848693847656
1773522828888566000,12.13756591796875,-153.2829132080078,53.2723388671875,-68.67964172363281
1773522828898680000,12.14768017578125,-153.49830627441406,53.2579345703125,-68.87835693359375
1773522828908793000,12.15779296875,-153.6388397216797,53.31976318359375,-68.39236450195312
1773522828918906000,12.167906005859376,-153.6810760498047,53.55451965332031,-68.8267822265625
1773522828929020400,12.1780205078125,-154.07821655273438,53.596771240234375,-68.58319091796875
1773522828939133400,12.188133544921875,-154.50177001953125,53.78643798828125,-68.68475341796875
1773522828949245200,12.1982451171875,-154.41229248046875,54.16450500488281,-68.72537231445312
1773522828959358200,12.208358154296874,-154.69412231445312,54.36790466308594,-68.14065551757812
1773522828969470200,12.21847021484375,-154.86500549316406,54.58555603027344,-68.41191101074219
1773522828979582200,12.228582275390625,-155.117431640625,54.790008544921875,-68.48875427246094
1773522828989694500,12.238694580078125,-155.1851806640625,55.069427490234375,-68.49668884277344
1773522828999807200,12.24880712890625,-155.77737426757812,55.399505615234375,-68.64666748046875
1773522829009920300,12.258920166015624,-155.94097900390625,55.16522216796875,-68.42886352539062
1773522829020032500,12.269032470703126,-156.65744018554688,55.66993713378906,-68.85264587402344
1773522829030145300,12.279145263671875,-156.6122589111328,55.22108459472656,-68.74290466308594
1773522829040257300,12.28925732421875,-156.02987670898438,54.87907409667969,-68.5731201171875
1773522829050369300,12.299369384765624,-156.20703125,55.246551513671875,-68.78048706054688
1773522829060481300,12.309481201171875,-155.86117553710938,54.98103332519531,-68.63179016113281
1773522829070594300,12.31959423828125,-155.54110717773438,54.68280029296875,-68.81599426269531
1773522829080706300,12.329706298828125,-155.21343994140625,54.64915466308594,-68.83592224121094
1773522829090819300,12.3398193359375,-154.97119140625,54.32513427734375,-68.38032531738281
1773522829100932400,12.349932373046874,-154.7422332763672,54.330596923828125,-68.52189636230469
1773522829111042300,12.360042236328125,-154.6255340576172,54.33564758300781,-68.49409484863281
1773522829121154300,12.370154296875,-154.9240264892578,54.337860107421875,-68.70823669433594
1773522829131267300,12.380267333984374,-155.33328247070312,54.58448791503906,-68.76605224609375
1773522829141380400,12.39038037109375,-154.9562530517578,54.69190979003906,-68.83102416992188
1773522829151493400,12.400493408203126,-155.21571350097656,54.46571350097656,-68.75956726074219
1773522829161606400,12.4106064453125,-156.24899291992188,55.04389953613281,-69.08842468261719
1773522829171717400,12.42071728515625,-156.072265625,54.588623046875,-69.20442199707031
1773522829181830400,12.430830322265624,-156.2335968017578,55.028961181640625,-69.29057312011719
1773522829191942100,12.440942138671875,-156.28575134277344,54.788848876953125,-68.94879150390625
1773522829202054100,12.45105419921875,-156.15115356445312,54.88145446777344,-69.15022277832031
1773522829212167200,12.461167236328125,-156.09112548828125,55.06724548339844,-69.01654052734375
1773522829222280200,12.4712802734375,-156.24635314941406,55.0289306640625,-68.67959594726562
1773522829232393200,12.481393310546874,-156.18600463867188,55.058990478515625,-68.84840393066406
1773522829242504400,12.49150439453125,-155.87831115722656,55.06208801269531,-68.29942321777344
1773522829252616400,12.501616455078125,-155.66587829589844,54.983551025390625,-68.61856079101562
1773522829262729500,12.5117294921875,-156.1589813232422,55.074615478515625,-68.51141357421875
1773522829272841200,12.52184130859375,-156.62376403808594,55.14097595214844,-68.46363830566406
1773522829282951400,12.531951416015625,-157.1638641357422,55.86613464355469,-68.82049560546875
1773522829293063400,12.5420634765625,-157.04901123046875,55.77430725097656,-68.516357421875
1773522829303176400,12.552176513671874,-158.190673828125,55.95216369628906,-68.98367309570312
1773522829313287200,12.562287109375,-158.75927734375,56.117889404296875,-69.17315673828125
1773522829323397400,12.5723974609375,-159.6058807373047,56.279815673828125,-69.01118469238281
1773522829333510400,12.582510498046876,-160.3932342529297,56.71907043457031,-69.53485107421875
1773522829343621400,12.592621337890625,-160.7396240234375,56.83831787109375,-69.24008178710938
1773522829353733400,12.6027333984375,-161.31332397460938,57.52703857421875,-69.41934204101562
1773522829363844400,12.61284423828125,-161.9869842529297,57.38677978515625,-69.44207763671875
1773522829373956000,12.6229560546875,-162.73590087890625,57.28001403808594,-69.08747863769531
1773522829384067300,12.6330673828125,-162.87379455566406,57.9735107421875,-69.18406677246094
1773522829394179300,12.643179443359376,-163.19448852539062,57.76568603515625,-68.80320739746094
1773522829404289300,12.653289306640625,-163.14492797851562,57.92120361328125,-68.77352905273438
1773522829414399500,12.6633994140625,-163.2790069580078,58.12165832519531,-68.56820678710938
1773522829424510200,12.67351025390625,-163.42056274414062,58.33641052246094,-68.01316833496094
1773522829434621400,12.683621337890624,-163.69639587402344,58.511688232421875,-68.10142517089844
1773522829444732400,12.693732421875,-165.08035278320312,58.588714599609375,-68.15635681152344
1773522829454844200,12.70384423828125,-165.9430694580078,59.01222229003906,-68.44036865234375
1773522829464956200,12.7139560546875,-166.47174072265625,59.1324462890625,-68.54823303222656
1773522829475068400,12.724068359375,-168.1600799560547,59.1702880859375,-68.33895874023438
1773522829485179400,12.734179443359375,-168.68377685546875,59.67359924316406,-68.55867004394531
1773522829495291100,12.744291015625,-169.6201171875,59.64347839355469,-68.41709899902344
1773522829505402400,12.75440234375,-170.5135040283203,59.62312316894531,-68.50886535644531
1773522829515513300,12.764513427734375,-171.38356018066406,59.696502685546875,-68.76397705078125
1773522829525624300,12.774624267578124,-172.1739044189453,59.66981506347656,-68.54623413085938
1773522829535734500,12.784734619140625,-173.10205078125,60.01513671875,-68.8006591796875
1773522829545845200,12.79484521484375,-174.0492706298828,60.0765380859375,-68.623046875
1773522829555956500,12.80495654296875,-175.3253936767578,59.76164245605469,-68.34608459472656
1773522829566068500,12.815068359375,-176.35794067382812,60.11631774902344,-68.65287780761719
1773522829576179200,12.82517919921875,-177.2921142578125,59.92823791503906,-68.10098266601562
1773522829586291200,12.835291259765626,-178.24632263183594,60.006744384765625,-68.65798950195312
1773522829596402400,12.84540234375,-179.45176696777344,59.91001892089844,-68.76998901367188
1773522829606513200,12.85551318359375,-180.54400634765625,59.38545227050781,-68.43417358398438
1773522829616623400,12.865623291015625,-182.34161376953125,59.315948486328125,-68.920654296875
1773522829626734300,12.875734375,-183.55787658691406,59.00675964355469,-68.498779296875
1773522829636843300,12.88584326171875,-184.79200744628906,59.09986877441406,-68.73411560058594
1773522829646953500,12.895953369140624,-186.04005432128906,58.66795349121094,-68.28829956054688
1773522829657064200,12.906064208984375,-186.78846740722656,58.54136657714844,-67.89923095703125
1773522829667175200,12.916175048828125,-187.51980590820312,58.615081787109375,-67.73152160644531
1773522829677286400,12.926286376953126,-188.56320190429688,58.31159973144531,-66.78627014160156
1773522829687396400,12.936396240234375,-189.36520385742188,58.37770080566406,-66.52040100097656
1773522829697506300,12.94650634765625,-190.03404235839844,58.21849060058594,-66.01547241210938
1773522829707616300,12.9566162109375,-190.76205444335938,57.85862731933594,-65.142578125
1773522829717727500,12.9667275390625,-191.74288940429688,57.97125244140625,-65.20559692382812
1773522829727837400,12.97683740234375,-192.54530334472656,57.476898193359375,-64.83482360839844
1773522829737949400,12.986949462890625,-193.27670288085938,57.09466552734375,-64.83134460449219
1773522829748062500,12.9970625,-194.19007873535156,56.821868896484375,-64.86231994628906
1773522829758175500,13.007175537109376,-195.22647094726562,56.04779052734375,-64.80978393554688
1773522829768287500,13.01728759765625,-195.9243927001953,55.2691650390625,-65.06163024902344
