time,seconds_elapsed,z,y,x
1772548035738410200,0.08641015625,0.9821966811597347,-0.025338147135078905,0.01787438712567091
1772548035748447200,0.096447265625,1.09330377099514,-0.17526742731779812,-0.06869082051888108
1772548035758484200,0.106484130859375,0.9926765741199255,-0.23657909737080335,-0.2985878097772598
1772548035768522200,0.116522216796875,0.8058475960850715,-0.03161620449125767,-0.47202831392884254
1772548035778559200,0.126559326171875,0.613338818848133,0.537215802501887,-0.7536265565909445
1772548035788596200,0.13659619140625,0.2643114461660385,0.9401786173805594,-1.159857579485327
1772548035798633200,0.14663330078125,0.21324059962034225,1.0540789911963044,-1.2085025140583514
1772548035808670000,0.156669921875,0.10393033007383345,0.6104138713121414,-1.0263124478705228
1772548035818707200,0.166707275390625,0.2516483639478683,0.3085390026882291,-0.43913229876011606
1772548035828745200,0.1767451171875,1.0535480991899966,0.17823796756118535,0.6160175365380942
1772548035838782000,0.186781982421875,1.6662351761311291,-0.4785157762520015,1.2556725537732243
1772548035848819200,0.196819091796875,1.1944178746044636,-0.32808848341926933,-0.05122852132543921
1772548035858856200,0.206856201171875,0.9408072706729174,0.5681713511273264,-0.7235736558936536
1772548035868893200,0.21689306640625,1.2287637963205575,0.5938656182236969,-0.6341960211768746
1772548035878931000,0.226930908203125,0.25525544852912424,-0.802388980063796,0.06745704094022512
1772548035888968200,0.23696826171875,-1.4457213706374168,-1.5588506139501928,-0.13997136527001858
1772548035899005200,0.247005126953125,-1.2223147663116454,-1.0859323654443025,0.38775165561288594
1772548035909042200,0.257042236328125,-0.5451274524092674,-0.401166067655012,-0.44523324598371977
1772548035919079200,0.2670791015625,-0.3313303879499435,-0.06446911117061972,-1.8519439179643988
1772548035929117200,0.2771171875,-0.4481681303918361,0.34786008246839045,-2.073399680483341
1772548035939154200,0.287154296875,-1.4012187965661287,0.5910486976394429,-1.4775208227410912
1772548035949191200,0.297191162109375,-1.5268816504985092,-0.13493654944058506,-0.07864478990882634
1772548035959228200,0.307228271484375,-1.9547119262605905,-1.392364020589739,1.537403044512868
1772548035969265200,0.31726513671875,-1.4171797512859106,-1.6045257389321923,1.6811811085894703
1772548035979302100,0.32730224609375,-0.32084055811762807,0.25000291656209156,0.13242460315227508
1772548035989340200,0.337340087890625,1.5928788480192422,1.9685694789603352,-0.5428191754668951
1772548035999377200,0.347377197265625,1.2207476631253957,-0.12732136172913014,1.3362705235764383
1772548036009414100,0.3574140625,0.5836690722495317,0.19272254785178228,0.4413502670705318
1772548036019451100,0.367451171875,0.11652385418713092,-0.09419669803683646,0.5160013111680746
1772548036029488000,0.377488037109375,-0.8324830895543098,-1.6426016409568487,-0.5541115538537502
1772548036039526100,0.387526123046875,-1.2252338686287403,-0.8917626692578196,-0.5428928252249956
1772548036049563100,0.397563232421875,-0.7887152594983577,-1.113648493757099,-1.2233265737026928
1772548036059600100,0.40760009765625,-0.2818757444292307,-0.13056538515165447,-1.046281323057413
1772548036069637000,0.41763720703125,2.182198493376374,1.4755739264570176,-1.3825626114130019
1772548036079674400,0.42767431640625,4.481034822708368,0.18529764028172938,-0.7468424494087695
1772548036089711000,0.437711181640625,4.381261612313986,-0.5382395925916731,-0.7282680973201989
1772548036099749600,0.44774951171875,4.136762535598874,0.5908088975341991,-1.5385034069702028
1772548036109786600,0.45778662109375,4.245869391527772,0.8772443145617842,-2.845881598061323
1772548036119823600,0.46782373046875,4.864019994571804,1.6162698066093026,-3.8302681904807683
1772548036129860600,0.477860595703125,5.080277311664819,1.8780191472023724,-4.6171828302979465
1772548036139897600,0.487897705078125,5.058344881319999,2.0313034369014202,-5.8496367133080955
1772548036149935600,0.497935546875,4.407891260564327,3.123525404009223,-7.658698644140363
1772548036159972600,0.50797265625,4.343991912105679,3.494301374901831,-9.297889746001362
1772548036170009600,0.518009521484375,2.8246383190244435,4.170132598020136,-9.793401811370252
1772548036180046600,0.528046630859375,2.142009690850973,5.315632712459564,-9.551644726839662
1772548036190083800,0.538083740234375,2.1775819394916294,5.552977825766802,-8.457696812722087
1772548036200121600,0.54812158203125,2.4552912118911743,4.581642145839333,-6.38648967384696
1772548036210158600,0.55815869140625,3.7858682000011203,3.941576063585281,-4.888783264428377
1772548036220195800,0.56819580078125,5.378650017386675,4.3201188690871,-4.272047788879275
1772548036230232800,0.57823291015625,6.293496917372941,4.982887197014689,-4.5963878795504565
1772548036240269600,0.58826953125,6.515982899722457,7.022662840315699,-4.830463761928677
1772548036250307600,0.5983076171875,6.814655465173721,8.252904307973385,-4.91136276050508
1772548036260344800,0.6083447265625,6.091252343541384,8.04733263554573,-5.415702859973907
1772548036270381600,0.618381591796875,3.85410879253447,7.2812874730169765,-6.096532914292812
1772548036280418600,0.62841845703125,1.5608862114310265,7.201200959867238,-6.369969331678748
1772548036290455600,0.63845556640625,0.0011643676042556762,7.900685445773601,-5.7445537060678005
1772548036300492800,0.648492919921875,-0.7722247279465198,7.698709752011299,-3.9682390295833345
1772548036310530600,0.658530517578125,0.9523340423375367,6.555207825651764,-1.7128163100421427
1772548036320567600,0.668567626953125,3.064253715351224,6.707272948819399,0.2628635854452848
1772548036330604500,0.6786044921875,4.807884265851974,7.957115189003944,1.6062100387573242
1772548036340641800,0.688641845703125,5.970448620077967,9.519897004923225,3.1499104298487306
1772548036350679600,0.698679443359375,5.691320128530264,10.106533110284804,4.7592289560154075
1772548036360716500,0.708716552734375,3.5805993099123237,10.107400540769099,6.15369915510416
1772548036370753800,0.71875390625,0.46750937519967556,9.874025500136613,7.188489362332224
1772548036380790800,0.728790771484375,-2.655988264019787,9.657630235877633,8.523519238197803
1772548036390827800,0.738827880859375,-4.872805943095684,9.380487949711084,10.10221349352002
1772548036400865500,0.748865478515625,-5.221255808150768,8.62932529901564,11.509801825118064
1772548036410902800,0.75890283203125,-4.470378404137492,7.950495478603243,12.46023441774845
1772548036420939800,0.768939697265625,-3.4892245100289583,7.410368610960245,13.067206624174117
1772548036430976500,0.7789765625,-2.7948154276907444,7.060918628951907,13.076561312496661
1772548036441013500,0.789013427734375,-2.80823254314661,6.70920946983993,13.063804706776141
1772548036451050800,0.79905078125,-3.7716403526842592,6.2236658407777545,13.208247079980373
1772548036461088800,0.8090888671875,-4.979967510175705,5.576718182316422,13.590105878162383
1772548036471125500,0.81912548828125,-6.4364043360948555,4.398967364874482,13.932313049435615
1772548036481162500,0.82916259765625,-7.410941442412137,3.894787424403429,13.326851247572899
1772548036491199700,0.83919970703125,-6.643881549882888,3.7269220900356768,12.2486889316082
1772548036501236700,0.84923681640625,-6.603196488273143,2.43230371953547,11.4038046256423
1772548036511274500,0.8592744140625,-5.946174595043063,1.3955904352903366,10.570489176917075
1772548036521311700,0.869311767578125,-5.929540855628252,0.5174094244003296,9.800558697387576
1772548036531348700,0.8793486328125,-8.435622343558073,-0.46462475967407224,8.127465325924753
1772548036541385700,0.8893857421875,-11.280381659591198,-2.2974288006216286,6.923102980411052
1772548036551423500,0.899423583984375,-12.143231830358504,-2.7479467090100047,5.738671077769994
1772548036561460700,0.909460693359375,-11.70846795594096,-3.0556080520808693,4.486130976803601
1772548036571497700,0.919497802734375,-11.389986528170109,-3.0715292593121526,3.1843729636818168
1772548036581534700,0.92953466796875,-10.167331570118666,-2.7299294062823054,2.743701618786156
1772548036591571500,0.939571533203125,-8.196760980468987,-2.2065999441832305,2.9117136681482196
1772548036601609700,0.949609619140625,-5.962124443846941,-2.076736131429672,3.4862791042268273
1772548036611646700,0.959646728515625,-3.991825656875968,-2.4048984107375144,4.191985241127014
1772548036621683700,0.96968359375,-2.6952318946495653,-3.024447190141678,4.35622478621304
1772548036631720400,0.979720458984375,-1.4959727174937725,-2.8566642733603715,1.5814719033420086
1772548036641757700,0.9897578125,-1.4799255457952618,-3.1869138803362844,-1.67798289707005
1772548036651795700,0.999795654296875,-1.2480351907625793,-3.8632209042727945,-1.0090238978087902
1772548036661832400,1.00983251953125,-0.5303048540696501,-3.137005647829175,0.12872224150300024
1772548036671869700,1.01986962890625,0.8962441985860466,-2.439418519976735,-2.5354022749602794
1772548036681906700,1.02990673828125,2.118113266956806,-2.3340181173503396,-5.101025500661135
1772548036691943700,1.039943603515625,1.53416333193928,-3.020155630427599,-5.127374578404426
1772548036701981400,1.0499814453125,-0.1417930277392268,-2.3109265800982715,-4.035504639604688
1772548036712018700,1.060018798828125,-2.108103621856868,-1.704518437296152,-2.814952791312337
1772548036722055700,1.0700556640625,-2.5357468506142498,-0.3042845601141453,-3.5770074229002
1772548036732092700,1.0800927734375,-1.7005381354883313,0.9329267465561628,-4.157294451496004
1772548036742130700,1.090130615234375,-0.8617569687031209,1.514483941218257,-2.2027467758864163
1772548036752167700,1.100167724609375,0.38570743643417954,-1.309040279084444,0.20805881306827068
1772548036762204700,1.11020458984375,0.5173369436860085,-0.6730208418726921,0.7700695957392454
1772548036772241700,1.12024169921875,1.5269228592917323,2.0748492947697637,0.36708033124506473
1772548036782278700,1.130278564453125,3.4055051933348177,3.1750451633661982,-1.5063310299009083
1772548036792316700,1.140316650390625,4.457440012109279,2.377429389053583,-3.1747102323234078
1772548036802353700,1.150353759765625,2.6887761426389214,3.3697143335074182,-3.415536758005619
1772548036812390700,1.160390625,0.7203668957415967,3.663977850344777,-3.1527339628368614
1772548036822427600,1.170427734375,0.7966893071174621,2.8525422249943015,-2.6277649168372155
1772548036832464600,1.180464599609375,0.604160583071038,4.284629622554779,-2.621534498015046
1772548036842502700,1.190502685546875,0.9130255297780037,5.59315318428874,-3.1941163590610024
1772548036852539600,1.20053955078125,2.5158020869553086,2.9574130507886407,-2.376265605971217
1772548036862576600,1.21057666015625,1.8945523488521574,0.7076847434967756,-1.8192103998810052
1772548036872613600,1.220613525390625,0.4049054003138095,0.37757542177438735,-1.9510469740122556
1772548036882650600,1.230650634765625,-0.641511604887247,1.8129688751429318,-1.9145973580151796
1772548036892688600,1.240688720703125,0.232177866737172,1.2690519675672054,-2.086393017569184
1772548036902725600,1.2507255859375,0.47522097249031064,0.579179359614849,-2.308959079417586
1772548036912762600,1.2607626953125,0.6775684221744537,-0.40058044978678226,-2.859164273482561
1772548036922799600,1.270799560546875,0.5040039993822575,-1.0470482157766818,-3.1537983771979805
1772548036932837600,1.280837646484375,1.1964146013796328,-0.12009879006445408,-2.512230073687434
1772548036942874600,1.29087451171875,3.0080443368732928,1.4436913261145352,-2.028333627310395
1772548036952911600,1.30091162109375,2.868196305721998,1.0418284353017806,-1.5207909324079751
1772548036962948600,1.310948486328125,1.2338520593702793,0.8464823888123035,0.5829162080556154
1772548036972985900,1.32098583984375,0.19820552757382393,0.8398392975360155,0.419853890055418
1772548036983023600,1.331023681640625,-0.881229804001376,0.5703828896969556,2.4217764803022144
1772548036993060600,1.341060546875,-0.35993221305608747,0.435633642989397,4.116188534125685
1772548037003097900,1.351097900390625,-0.704385190494731,-0.03690320498347282,3.9567403149694202
1772548037013134600,1.361134521484375,-1.1302269958533346,-0.02398819383084774,3.8967724607408045
1772548037023172600,1.371172607421875,-1.709002743103355,0.16932137839496134,4.139289423727989
1772548037033209600,1.381209716796875,-1.4549053785681723,0.4394306971848011,5.129031113439798
1772548037043246800,1.391246826171875,-1.3710405159235,0.6256278070569038,5.707689079529047
1772548037053283600,1.40128369140625,-0.7051170119006186,0.4665057511150837,5.388178308710455
1772548037063320600,1.411320556640625,-0.6021428865730762,0.024735212805867195,3.9358185229718683
1772548037073358600,1.421358642578125,-0.9036696724116802,-0.6167413207679987,2.46704828518033
1772548037083395800,1.431395751953125,-1.2845919203959404,-1.4540969847947358,2.8629280099302528
1772548037093432600,1.4414326171875,-0.8671687646187841,-1.2798983557522297,3.275031139728427
1772548037103469800,1.4514697265625,0.41523952812775966,-0.642362084236741,4.354758805313706
1772548037113507000,1.461507080078125,1.1041736861862241,0.04887888945937156,5.231832147222757
1772548037123544800,1.471544921875,0.4057213198065758,0.8804653224349022,5.333267737871408
1772548037133581800,1.481581787109375,-0.3793044375240803,1.75536248934865,5.6191965570837255
1772548037143619000,1.491619140625,-0.7878304394878447,1.8021996438473462,5.725042365390062
1772548037153656000,1.501656005859375,-0.2548715637780726,1.9334382520854472,5.377986585041881
1772548037163693800,1.51169384765625,0.9157903183162212,1.7348627221554516,4.475397109082341
1772548037173730800,1.521730712890625,0.6395546256005764,1.6449439662992953,2.0260183361053468
1772548037183768000,1.53176806640625,-0.4135430994734168,1.1018640940696,0.6188935303658246
1772548037193805000,1.54180517578125,0.7844128861293196,1.2247615749418734,1.103663836967945
1772548037203842000,1.551842041015625,0.05057458746135234,2.4185955121785403,-0.8483815004318952
1772548037213880000,1.561880126953125,0.9104980571269988,2.739949280515313,-2.5256986270695925
1772548037223917000,1.5719169921875,2.1074369746416806,3.676689740140736,-4.64946012904644
1772548037233954000,1.5819541015625,-0.3023626521408558,2.7806176832512017,-7.502519655913114
1772548037243990800,1.59199072265625,-2.675667947001755,1.2902484848529099,-9.69568261089623
1772548037254029000,1.602029052734375,-2.865721440041065,0.9113996821418404,-9.541937571817636
1772548037264066000,1.612066162109375,-1.8291110316485166,1.4177528749987482,-7.221751580464839
1772548037274103000,1.62210302734375,-0.8158914357155561,1.6878794371843338,-5.620424637573957
1772548037284139800,1.632139892578125,0.08979074556231498,1.0962757725432515,-3.8254771568119526
1772548037294177000,1.642177001953125,1.158215511366725,1.4658824073955417,-0.43099195466339585
1772548037304215000,1.652215087890625,0.7384194889783858,0.9009691812813282,1.663590799102187
1772548037314251800,1.662251708984375,-0.07364537418633699,-0.399433910100162,1.3769371727466582
1772548037324288800,1.672288818359375,-0.8325348197415471,-1.9097581012904643,0.5805903954565524
1772548037334326000,1.682325927734375,-1.1806187740936875,-3.1591859154552218,-1.0395213274031876
1772548037344364000,1.692364013671875,-1.1786571186318993,-4.256931760551035,-3.4268595315307375
1772548037354400800,1.70240087890625,-1.1574036104619503,-5.142296837726235,-5.2378158978074785
1772548037364438000,1.71243798828125,-1.1423474956274031,-4.8207168594181535,-4.1451597770661115
1772548037374475000,1.72247509765625,-1.2699401485785842,-4.537065337488055,-3.543779691559076
1772548037384512000,1.732511962890625,-0.42691798322275276,-3.935660117539763,-2.916597056275606
1772548037394549800,1.7425498046875,0.3993069227196276,-3.027919542427361,-2.4406676432549954
1772548037404587000,1.7525869140625,0.6481061808466911,-2.726958866038918,-2.3636405176758766
1772548037414624000,1.7626240234375,0.637280981580168,-2.6748952090635894,-2.491065705105662
1772548037424661000,1.772660888671875,1.4545267545141278,-1.5767852068305015,-2.63167244566977
1772548037434699000,1.782698974609375,2.7704899647295473,0.9589411855176091,-1.8099071494847534
1772548037444736000,1.792736083984375,3.552353458636999,2.7673770934060213,-0.32940263475775716
1772548037454773000,1.80277294921875,0.9080407271027564,5.142456996724009,1.1582932527780532
1772548037464810000,1.81281005859375,0.06181085174679756,2.8163907151609657,3.8522307237029074
1772548037474848000,1.822847900390625,-0.6771849027495831,1.5547235971480606,4.934646020936966
1772548037484885000,1.832885009765625,-2.0992881549775597,3.495480063292384,3.9788083543926476
1772548037494922000,1.842921875,-3.3830513694643973,4.046852547571063,2.326093754091859
1772548037504959000,1.852958984375,-2.399257774502039,2.345666469568014,0.10245207421481609
1772548037514996000,1.862995849609375,0.6198562379181385,1.9534329923659561,-1.7720979355722666
1772548037525034000,1.873033935546875,1.794739975491166,2.9205811574757097,-2.7234090646028517
1772548037535071000,1.883071044921875,1.795286503458023,2.929144987681508,-3.245646055290103
1772548037545108000,1.89310791015625,1.7023405087351797,2.377505961421132,-3.6765450709730385
1772548037555145000,1.90314501953125,0.7629179704189301,1.8238018193244934,-3.4588621049910784
1772548037565183000,1.913182861328125,-0.5906733615210279,1.3139052547723054,-3.203190476876497
1772548037575220000,1.923219970703125,-0.7649439232885837,1.2520002950012683,-3.2565245921790598
1772548037585257000,1.933257080078125,-1.4572621708273887,1.7172493240535258,-2.262826858317852
1772548037595294000,1.9432939453125,-1.3952268626749516,1.9883534990996121,-0.4054524397373199
1772548037605332000,1.95333203125,-0.23755320309996603,1.5138649325370788,1.723863773757219
1772548037615369000,1.963368896484375,1.1994202129364013,0.4292296211659908,3.2661855699717997
1772548037625406000,1.973406005859375,2.0462872171521185,0.11528116064965724,3.654679276123643
1772548037635443000,1.98344287109375,3.12707403640151,0.6402981374442577,4.254740095725655
1772548037645480000,1.99347998046875,2.4076935944139954,-0.30524434505701065,4.695211241874098
1772548037655518000,2.00351806640625,1.7278772471822796,-1.2178162858486175,4.233348932650685
1772548037665555000,2.013554931640625,0.7988485309779644,-2.496166827636957,3.036172114726901
1772548037675592000,2.023592041015625,-0.7016590534664691,-3.3337107077121733,1.8376701856791973
1772548037685629000,2.03362890625,-2.0267313066802917,-4.000926078176498,0.7467337283372879
1772548037695667000,2.0436669921875,-2.1106958303071557,-4.881089787316322,0.5855231756836176
1772548037705704000,2.053703857421875,-2.3024619724832474,-4.423774473872781,0.8814590096473693
1772548037715741000,2.063740966796875,-2.253372801274061,-2.7632869014829398,1.7805840243667364
1772548037725778000,2.07377783203125,-1.7148397786937652,-1.3965093037009237,3.181073922136426
1772548037735816000,2.08381591796875,-1.4348434182703493,-1.2053338208943605,3.6608997580736875
1772548037745853000,2.09385302734375,-1.3804815673552453,-1.4446265611380338,4.198592092046141
1772548037755890000,2.103889892578125,-1.1840133849680423,-1.5197709417104721,4.641704692614078
1772548037765927000,2.113927001953125,-1.1537727066136896,-1.2911276057749985,4.2176673793941735
1772548037775965000,2.12396484375,-1.256767655533552,-0.8757914854049682,3.170265527874231
1772548037786002000,2.134001953125,-0.9959714509468525,-1.3201654842108488,1.2747913880020378
1772548037796039000,2.144038818359375,-0.5663841023843735,-1.5341028339236973,-0.6928706207245587
1772548037806076200,2.154076171875,-0.7379682380795478,-1.7067951500564813,-2.3777467844396827
1772548037816113000,2.16411279296875,-1.4528151282906532,-1.748849746453762,-3.4849978322446344
1772548037826151000,2.17415087890625,-1.9620342319726942,-0.7663648960024118,-4.029914272251725
1772548037836188000,2.18418798828125,-2.603988904452324,0.8697001827925444,-4.144992019283771
1772548037846225000,2.194224853515625,-3.800529762560129,0.611891542649269,-3.1956361159741875
1772548037856262000,2.204261962890625,-1.8949369642555713,-3.3560511343359947,-1.176703061954677
1772548037866300000,2.2142998046875,5.9979690796881915,0.9989087465077638,1.5427034890085458
1772548037876337200,2.224337158203125,2.7556121290713547,4.084368916016817,3.057526160661876
1772548037886374000,2.234373779296875,0.6737322050124407,3.029379385846853,3.7233541684210296
1772548037896411000,2.244410888671875,5.022446469464898,4.785523965483904,3.3642323949649926
1772548037906449000,2.254448974609375,6.401375692811608,5.375521071711182,2.0954580752953884
1772548037916486100,2.264486083984375,4.498942235320806,2.6787515922307965,0.3037158203154802
1772548037926523000,2.27452294921875,2.686232887896895,-0.8521499130547047,-0.25829993079155683
1772548037936559900,2.284559814453125,3.1203982118993996,-3.931791167151928,-0.45896308065056796
1772548037946598100,2.29459814453125,3.517614153689146,-4.460705151385069,-0.3143769150614738
1772548037956635000,2.304634765625,2.659214532589912,-1.4780232193052767,-1.3810767567694187
1772548037966672000,2.314671875,-5.43009437341988,-0.4940647891700268,-4.153043808314204
1772548037976708900,2.324708984375,-4.1836809386402365,3.1689059299588203,-3.538476032193005
1772548037986747100,2.3347470703125,-0.03332127310978249,5.494242143681645,-1.4112737421125172
1772548037996783900,2.344783935546875,1.0304477941095829,3.534060846099257,0.026697745050489902
1772548038006820900,2.35482080078125,1.8106553375035523,0.9756646490424871,0.5487894820481538
1772548038016857900,2.36485791015625,1.3521376625329256,0.25810908439457414,1.2218228911414741
1772548038026896000,2.374895751953125,0.3141168028205633,0.337418767952919,1.8574062750235198
1772548038036932900,2.384932861328125,-0.61274786721766,-0.5021317757695913,1.5328151322007177
1772548038046969900,2.394969970703125,-0.7908283061295748,-1.699820634868741,0.5232905913934112
1772548038057006800,2.4050068359375,-0.812719235420227,-1.36926883007586,-0.0933344095185399
1772548038067044000,2.415044189453125,-0.10459902311563492,-0.8399415888667107,-0.3321051717147231
1772548038077081900,2.425081787109375,0.44217210484743114,-0.6966483856976032,-0.3005325141042471
1772548038087118800,2.435118896484375,-0.24909049615859985,-0.03450608071386814,0.27743425485044715
1772548038097156000,2.445156005859375,-0.21951953375935554,0.055821840465068814,0.7466913505002856
1772548038107192600,2.455192626953125,-0.29784314715610816,-0.4140677078694105,0.9124956606850028
1772548038117230300,2.465230224609375,-1.1131143868803977,-0.504068296790123,1.0387807381689549
1772548038127267600,2.475267578125,-2.0328163256824014,-0.12385609677135943,1.1519772014990448
1772548038137304600,2.4853046875,-1.753495526432991,-0.22922493521571158,0.7998027629628777
1772548038147341600,2.495341552734375,-2.2746797931969165,0.6504284863144159,0.4740051669597625
1772548038157379600,2.505379638671875,-1.5365736079514025,0.26357144145369527,0.4150114184603095
1772548038167416600,2.51541650390625,-0.3449415646731853,0.04768003506362438,0.27466829726845027
1772548038177453600,2.52545361328125,-0.4128817129552364,0.8249065168201923,0.4088564029619097
1772548038187490600,2.535490478515625,-0.5659861160427332,1.4361954174011944,0.6085255733475089
1772548038197528600,2.545528564453125,-0.11176876861453056,1.1432955901324748,0.7995759684696793
1772548038207565600,2.555565673828125,0.19934242264926433,0.24953005661964414,0.7727081275492906
1772548038217602600,2.5656025390625,0.47112581213116644,-0.817629803815484,0.30331717638671396
1772548038227639600,2.5756396484375,0.45048166803121564,-0.8657271875083447,-0.26648937472701073
1772548038237677600,2.585677490234375,1.1492495301008223,-1.0741928278118371,-0.8329211887106299
1772548038247714600,2.595714599609375,2.2417665346324442,-1.3099135547876357,-1.2565484598249197
1772548038257751600,2.60575146484375,1.743195081692934,-0.8010960176438092,-1.4273910564377903
1772548038267788300,2.615788330078125,0.8616986626446247,0.19622107575833797,-1.2072808633089065
1772548038277826600,2.62582666015625,0.8346130873203277,1.109553479528427,-0.5322054269939661
1772548038287863600,2.635863525390625,1.6148808364689349,-0.09930500836074352,0.6557488045543431
1772548038297900500,2.645900634765625,1.5625532678604126,-0.9311182358294725,1.3862690647155045
1772548038307937500,2.6559375,0.2977472672998905,-0.5814186629742384,1.3669503240004182
1772548038317975600,2.6659755859375,-1.0019102664113044,-0.9673790512561797,1.0433058143779634
1772548038328012500,2.676012451171875,-1.9392811328947543,-1.3273048345714806,0.8444359776765108
1772548038338049500,2.686049560546875,-2.13822900326848,-1.5136059893399476,0.6157222068533301
1772548038348086500,2.69608642578125,-1.2327590034365654,-0.6261842718958854,0.1148643965423107
1772548038358124500,2.70612451171875,0.17635025411844252,-0.2629506792068481,-0.02712298472523689
1772548038368161500,2.71616162109375,-0.6623574090391398,0.025212182667851447,0.39540041680037974
1772548038378198500,2.726198486328125,-2.212016708534956,-0.20268705690205097,0.9672533790498972
1772548038388235500,2.736235595703125,-1.4556114810109138,-0.8105114962428808,1.4884934676542878
1772548038398273500,2.7462734375,-0.31383272518217564,-0.056908466657996176,1.0894739835739136
1772548038408310500,2.756310546875,0.000834112736582756,-0.0657698185056448,0.08934709344804287
1772548038418347500,2.766347412109375,0.059024399366043506,-3.81009546328485,0.3924418592557311
1772548038428384500,2.776384521484375,-0.7304933721542358,-6.622707828950881,0.2713376915410161
1772548038438422500,2.786422607421875,-1.2495868041187523,-7.762765167814493,-0.21570055999308824
1772548038448459500,2.79645947265625,0.40672790303323414,-7.6874273104965685,-0.709118283431232
1772548038458496500,2.80649658203125,2.5764655222326516,-5.69617575186789,-1.3489248379662633
1772548038468533500,2.816533447265625,3.5887475450545545,-2.57922914172709,-1.1041592192694545
1772548038478571500,2.826571533203125,3.5176258441269397,0.4662351174801588,-1.2842550896570086
1772548038488608500,2.8366083984375,1.5000725540280342,2.390808510586619,-2.251308854481578
1772548038498645500,2.8466455078125,0.42100656722187996,3.686328213840723,-2.3420509094193576
1772548038508682500,2.8566826171875,0.3360392962932586,4.238703737682104,-1.3051859417438507
1772548038518720500,2.866720458984375,0.8214192592263221,3.8780829578399656,-0.5691089242383838
1772548038528757500,2.876757568359375,1.4573217920601367,3.4467145710796117,-0.28413053761869667
1772548038538794500,2.88679443359375,1.650531995564699,2.5081530335068702,-0.29515403593629597
1772548038548832500,2.89683251953125,1.280958678460121,0.2158610112518072,-0.7697539539188146
1772548038558869500,2.906869384765625,1.340937638604641,-2.7302053006142377,-0.8591060158029198
1772548038568906500,2.916906494140625,1.161254294540733,-6.205248725077509,-0.9425488536432385
1772548038578943500,2.926943603515625,0.6333575245261192,-8.85756589936912,-1.3445678118005395
1772548038588981500,2.9369814453125,-0.22279534055963157,-8.802221613287925,-1.8241859963364897
1772548038599018500,2.9470185546875,-1.2167992177605629,-6.2738096356064075,-1.5200449363462627
1772548038609055500,2.957055419921875,-2.2098587998487056,-1.6434177796453238,-0.15596125382333992
1772548038619092500,2.967092529296875,-1.796364361822605,1.2640256638377905,0.42806444984413683
1772548038629130500,2.977130615234375,0.44080753849595783,-1.111340362945199,0.4384204606963321
1772548038639167500,2.98716748046875,1.7990857496105133,-6.363413334164023,0.9828439660873264
1772548038649204500,2.99720458984375,0.38366950086578727,-6.799976951479912,1.0991265588644892
1772548038659241500,3.007241455078125,-0.7359167123772203,-6.641078767421841,1.2592398908659814
1772548038669279500,3.017279541015625,-2.8485823814526197,-5.521865479144454,1.217371464690566
1772548038679316500,3.02731640625,-2.6805776386141775,-1.5777514215141535,0.6743881847031414
1772548038689353500,3.037353515625,-1.3040649748899042,4.076104361018539,-1.0997668295294045
1772548038699390500,3.047390380859375,-0.32947058542743324,11.012614520013331,-2.319851790962368
1772548038709428500,3.057428466796875,-0.20481763918995857,14.084510859072207,-2.8430861221238968
1772548038719465500,3.067465576171875,-0.5471149729646742,13.68427469267845,-2.140544732864946
1772548038729502500,3.07750244140625,-0.42602658734098076,12.953991748404501,-0.7324725632727146
1772548038739539700,3.087539794921875,0.08405074060559273,11.93243920841217,-0.4789665887594223
1772548038749577500,3.097577392578125,-0.6053903440617024,12.687678899288176,0.09309417102187871
1772548038759614500,3.107614501953125,-1.4269034190513192,10.162927782201766,1.2501628504410385
1772548038769651500,3.1176513671875,-1.313995563404262,6.175424664700031,2.3087708633691073
1772548038779688700,3.127688720703125,-2.0925978635586797,2.4566800359010696,2.371656650871038
1772548038789726500,3.1377265625,-1.7762144309803842,-0.10678688854873179,2.12101483361721
1772548038799763500,3.147763427734375,-1.084703262040764,-1.4489841718256473,1.5469108775705098
1772548038809800700,3.15780078125,-0.4358347185194492,-2.032881207612157,1.3454852189064026
1772548038819838500,3.16783837890625,0.4306918026730418,-2.5862287913560866,1.1907798103630542
1772548038829875500,3.17787548828125,1.7132219682335852,-3.4182851799309253,0.28641689499020573
1772548038839912400,3.187912353515625,2.5033888878449795,-3.2639456820905206,-0.41313773354291916
1772548038849949700,3.19794970703125,2.7545333939239383,-1.8372779714912175,-0.4031482544481754
1772548038859987500,3.207987548828125,2.8780811553984877,-0.45387715568840503,-0.4821031332194805
1772548038870024400,3.2180244140625,2.896987808181345,0.431359034410119,-0.7014297747552395
1772548038880061700,3.228061767578125,2.326745349868387,0.7223591655373572,-0.7107803714245557
1772548038890098700,3.2380986328125,0.34513825628906486,0.6619014819651842,-0.7323778707265853
1772548038900136400,3.248136474609375,-1.497137377358973,0.1968295630455017,-1.0647621516436339
1772548038910173400,3.25817333984375,-1.6976079272553324,-0.3245475959420204,-1.3991957663059233
1772548038920210700,3.268210693359375,-0.8840157083928585,-0.5139011240184307,-1.463091607633233
1772548038930247400,3.278247314453125,-0.0772004363194108,-0.4876882398754358,-1.3673334780991078
1772548038940285400,3.288285400390625,0.4917340081349015,-0.3553910624951124,-1.1909113277882337
1772548038950322700,3.29832275390625,0.6228352537289261,-0.3359574632287025,-1.217095570358634
1772548038960359700,3.308359619140625,0.607879238267988,-0.24776129338145256,-1.369388072541356
1772548038970396400,3.318396484375,0.6785455966435372,-0.0504196891605854,-1.5675573597580195
1772548038980434400,3.328434326171875,0.6996297395959497,-0.055775663235783576,-1.529187004831433
1772548038990471700,3.3384716796875,0.750493373131752,-0.31648996169269084,-1.2479776153564452
1772548039000508700,3.3485087890625,0.5817592931054533,-0.9916291108936071,-0.5186912809044122
1772548039010546400,3.35854638671875,0.20368278994113206,-1.41041098780334,0.21497662963271139
1772548039020583700,3.368583740234375,-0.33972660650387404,-1.398713535746932,0.6743062055081128
1772548039030620700,3.37862060546875,-0.87051939022094,-1.9578911408185957,1.242386663481593
1772548039040657400,3.388657470703125,-1.0221607350185513,-2.2244962508797643,1.5419915413469076
1772548039050695400,3.3986953125,-0.9411866253793238,-1.8735884712785482,1.360943484801054
1772548039060732700,3.408732666015625,-0.34411475846022366,-0.9796937584280967,0.8689140008509159
1772548039070769700,3.418769775390625,0.5233882065489888,0.2505547234922647,0.21770225520431993
1772548039080806400,3.428806396484375,1.5102103555522859,1.3475193550825117,-0.38183483278453345
1772548039090844700,3.4388447265625,1.7522835202947258,1.8326099796801805,-0.5715320597320794
1772548039100881700,3.448881591796875,1.2875465324178337,2.170654186055064,-0.5631371563524007
1772548039110918700,3.458918701171875,0.2670692204415798,1.9434020122170448,-0.2543511931657791
1772548039120955600,3.46895556640625,-0.8860150655165314,1.239863282483816,0.1717512358903885
1772548039130994000,3.478993896484375,-1.54029905821532,0.4103443034321069,0.6363011767625808
1772548039141031000,3.489031005859375,-1.45207512357831,-0.1516331614911556,0.9635036711275577
1772548039151067600,3.499067626953125,-0.8278082296110689,-0.08605155903398991,0.9139356303602456
1772548039161106000,3.50910595703125,0.03235416337698698,0.20516659875810145,0.5303589223444461
1772548039171143000,3.519142822265625,0.6166615335300565,0.2374105797588825,0.21306582757532597
1772548039181179600,3.5291796875,0.6996224330723285,0.16531798797249794,0.06475684207081794
1772548039191216600,3.539216552734375,0.4094514462456107,0.09769991125166416,0.046509237718582154
1772548039201255000,3.5492548828125,0.029142800115048884,0.13266367260515688,0.06936462812721729
1772548039211292000,3.5592919921875,-0.24100568164139985,0.18260113120675087,0.13605039243400097
1772548039221328600,3.56932861328125,-0.37114801907539363,0.21178630915880203,0.22074995233714578
1772548039231367000,3.579366943359375,-0.40703766310214995,0.22322247993052005,0.36802433409690855
1772548039241404000,3.58940380859375,-0.4140624471724033,0.2560369542956352,0.5797217959284782
1772548039251440600,3.599440673828125,-0.46564065871834753,0.34855975517034526,0.7654927893429994
1772548039261477600,3.6094775390625,-0.5755915642559528,0.5348176553189754,0.8986579817295074
1772548039271516000,3.619515869140625,-0.698714232186228,0.7420394330412149,1.0017103599250317
1772548039281553000,3.629552978515625,-0.7988356714963912,0.8844956008642911,1.0822726738929749
1772548039291589600,3.639589599609375,-0.8449965341687202,0.9162760560065507,1.1129074661314486
1772548039301626600,3.649626708984375,-0.8308115030802786,1.010585155776143,1.160526126396656
1772548039311665000,3.659664794921875,-0.7758665915802121,1.1025555834650993,1.196679389795661
1772548039321702000,3.669701904296875,-0.6922822994425892,1.1315876166820527,1.2354612481325864
1772548039331738600,3.679738525390625,-0.6140469671174883,1.0594564464509486,1.2559516629755496
1772548039341776000,3.68977587890625,-0.5252905330389738,0.9463900392413139,1.2238099733054637
1772548039351814000,3.69981396484375,-0.3083691990792751,0.8696844007015228,1.006927802312374
1772548039361850600,3.7098505859375,0.14756591205224395,0.8392115210264921,0.5360357989370823
1772548039371887600,3.7198876953125,0.3786376441784203,0.6583148556500673,0.32945115007460113
1772548039381926000,3.72992578125,-0.07849427552223205,0.13596271415054798,0.6398930637747049
1772548039391963000,3.739962890625,-0.761868169105053,-0.4775760111838579,0.9021066608786582
1772548039401999600,3.74999951171875,-0.8385096563674509,-0.29653496890068054,0.5793740054041147
1772548039412036900,3.760036865234375,-0.3906488383591175,0.3338724736481905,0.14676117154061794
1772548039422075000,3.770074951171875,0.4911265437610447,0.6872913592875003,-0.2311228777915239
1772548039432111600,3.780111572265625,1.3161796294450758,0.5170762469232082,-0.428061746430397
1772548039442148600,3.790148681640625,1.741904457360506,0.17739128760397432,-0.49000411560237406
1772548039452187000,3.800186767578125,1.7378829467594623,-0.22689853809475896,-0.5056511820673942
1772548039462224000,3.810223876953125,1.0649284481212495,-0.8075491393059492,-0.35016426775753495
1772548039472260600,3.820260498046875,0.6120552087783813,-1.0616606784969567,-0.5367097526758909
1772548039482297900,3.8302978515625,0.22384178087264298,-1.0819593701601027,-0.7142799039781094
1772548039492335900,3.8403359375,0.10647855325192213,-1.182173310059309,-0.8841782054781914
1772548039502372900,3.850372802734375,0.636364305126667,-1.0065665677845477,-1.1902467263996601
1772548039512409600,3.86040966796875,0.9700187521100043,-0.7994125946015119,-1.4214146123766898
1772548039522446800,3.87044677734375,0.9025757396951317,-0.4173538899332285,-1.589703140592575
1772548039532484900,3.88048486328125,0.944326969231665,0.08291326100826263,-1.6542337726920842
1772548039542521600,3.890521484375,1.0740575109943746,-0.1425543675005436,-1.1250514929115771
1772548039552558600,3.90055859375,0.9367452819310128,-1.3438403743088245,-0.14727847341299055
1772548039562596900,3.910596923828125,0.7154957095086574,-1.919922936952114,0.32163024719059463
1772548039572633900,3.9206337890625,0.6329938057802618,-1.5205793354839086,0.19799393064975737
1772548039582670600,3.930670654296875,0.6078980890989303,-0.855135066345334,-0.2869225064247846
1772548039592707800,3.940707763671875,0.6053522040084004,-0.2031423994541168,-0.6573749444514513
1772548039602745900,3.950745849609375,0.2401717150352895,0.39136546219587326,-0.6276134279161691
1772548039612782600,3.960782470703125,-0.4958870361611247,0.4750234040915966,-0.3905097221493721
1772548039622819600,3.970819580078125,-0.7747640371657908,0.6698363666176795,-0.31261282799839973
1772548039632856800,3.98085693359375,-0.7759384877726435,0.7394751355111598,-0.2518301502555609
1772548039642894800,3.990894775390625,-0.6024991526648402,0.37614918836355205,-0.027296587726473805
1772548039652929800,4.0009296875,-0.18093305186405778,0.10981120480597019,0.045294601231813426
1772548039662966800,4.010966796875,-0.1625917778789997,0.15741057584881782,0.246913736641407
1772548039673004800,4.0210048828125,-0.24001871643066405,-0.09169745596647262,0.3884048588246107
1772548039683041800,4.031041748046875,-0.1805599807679653,-0.3093283995002508,0.3965349737882614
1772548039693078800,4.041078857421875,-0.2595559222020209,-0.17571429430246352,0.32727380603551864
1772548039703115800,4.05111572265625,-0.4317205611988902,0.1572194371908903,0.20862930643260477
1772548039713153800,4.06115380859375,-0.489588228277862,0.2692091550797224,0.1352156951755285
1772548039723190800,4.071190673828125,-0.4800713351309299,0.17961773148179053,0.07743161472678184
1772548039733227800,4.081227783203125,-0.44508316998854275,0.05038403332531452,0.030223873350024223
1772548039743265800,4.091265869140625,-0.4766907527819276,-0.20992343789637088,0.16817513096928596
1772548039753302800,4.101302734375,-0.3575169686079025,-0.2960340336412191,0.3217389682620764
1772548039763339800,4.11133984375,-0.1662494236037135,-0.11887655479311943,0.3276788797050714
1772548039773376800,4.121376708984375,-0.13196283085942268,0.1399491534382105,0.34384441708624364
1772548039783414800,4.131414794921875,-0.2118178733408451,0.48704000509977335,0.3977098627865314
1772548039793451800,4.14145166015625,-0.4026012880899012,0.8631067758768797,0.45042847653925416
1772548039803488800,4.15148876953125,-0.5271218401193618,1.2393646853119133,0.47773909279108046
1772548039813525800,4.16152587890625,-0.616671762663126,1.5689280635893343,0.49987727484107014
1772548039823563800,4.171563720703125,-0.6952826503023505,1.7619044583380221,0.54290334661901
1772548039833600800,4.181600830078125,-0.8384874445356428,1.7194687536686657,0.649990094897151
1772548039843637800,4.1916376953125,-0.9486939322695136,1.4252707032829521,0.8410416590631008
1772548039853675800,4.20167578125,-0.8817164915397763,0.702101974928379,1.2243062323898077
1772548039863712800,4.211712646484375,-0.6294660700455308,-0.4790647884368896,1.7120915028989314
1772548039873749800,4.221749755859375,-0.17064736630171537,-1.3122452126055955,1.9701877278119324
1772548039883786800,4.231786865234375,0.23457331050634384,-1.4258160622060299,1.9231500823050736
1772548039893824800,4.24182470703125,0.6581976590111851,-1.0292729051113128,1.6587778458625078
1772548039903861800,4.25186181640625,1.1112420171372592,-0.5403320348262787,1.3188456337839365
1772548039913898800,4.261898681640625,1.4365395546637474,-0.1764472847521305,0.9672188922584056
1772548039923936800,4.271936767578125,1.6886635732993482,0.08306757478713989,0.5772796634733677
1772548039933973800,4.281973876953125,1.8029121760308742,0.6281102715224027,-0.04612286874949932
1772548039944010800,4.2920107421875,1.5157086607076227,1.1360440115690231,-0.7481587927043437
1772548039954047700,4.3020478515625,0.8623803612984716,1.39838152731359,-1.3327636844992636
1772548039964085800,4.312085693359375,0.12219547008275986,1.2895920667707919,-1.666140483585
1772548039974122800,4.322122802734375,-0.5082053965948522,0.8355787174820899,-1.7351321867465972
1772548039984159700,4.33215966796875,-0.810069013172388,0.22161153760254382,-1.6306366240054369
1772548039994197800,4.34219775390625,-0.6825029559671878,-0.26159634198844434,-1.5369202294319868
1772548040004234800,4.35223486328125,-0.28559067329913373,-0.41960897538363934,-1.6254115828335285
1772548040014271700,4.362271728515625,0.2791827059529722,-0.03579144434928894,-1.9271850369095802
1772548040024308700,4.372308837890625,0.5265640601061284,0.2686865925103426,-2.1239579013317824
1772548040034346800,4.3823466796875,0.5436565030738711,0.3743096979767084,-2.120496947222948
1772548040044383700,4.3923837890625,0.3817983001664281,0.2543482705563307,-1.8544044628590344
1772548040054420700,4.402420654296875,0.37536388320475816,-0.630375878366828,-1.242625732934475
1772548040064458000,4.4124580078125,0.44846857464313505,-0.5883458318889141,-1.1021820739775896
1772548040074495700,4.422495849609375,0.38908231969475743,-0.26616554960012434,-1.0948141755580902
1772548040084532700,4.43253271484375,0.01975201756581664,0.0684013360530138,-1.0506056159973145
1772548040094569700,4.44256982421875,-0.6134067695178091,-0.3525853574246168,-0.7066501397520303
1772548040104607700,4.452607666015625,-1.024192240846157,-1.4063292714476585,0.12082768886089325
1772548040114644700,4.462644775390625,-1.450539146182686,-2.599906019052863,1.2109154204189776
1772548040124681700,4.472681640625,-1.5258302417494356,-3.311849589037895,1.8998434409976004
1772548040134719700,4.4827197265625,-1.2193126618862151,-2.8997172331452368,1.8773311649382114
1772548040144756700,4.4927568359375,-0.733351976455748,-1.5828092894256114,1.2694658090651034
1772548040154793700,4.502793701171875,-0.2654996330372989,-0.00035831191837787623,0.502611668241024
1772548040164830700,4.512830810546875,0.044699265687167644,1.075308095577359,0.029035540348291394
1772548040174868700,4.52286865234375,0.16022782522663473,1.9176421325385569,-0.21938450920283792
1772548040184905700,4.53290576171875,0.14372764906361699,2.558687288957834,-0.1413426536232233
1772548040194942700,4.542942626953125,0.10476488120183348,2.7725182556867596,0.30001871936321256
1772548040204980000,4.55297998046875,-0.13762714023143052,2.039042652851343,1.1611053875893353
1772548040215017700,4.563017822265625,-0.24179186358302832,0.38054128584265706,2.0675076998353004
1772548040225054700,4.5730546875,-0.08150470938459038,-0.6379653105825185,2.325634319886565
1772548040235091700,4.583091796875,0.011303192041814326,-0.3186830878227949,1.9708125817120075
1772548040245129700,4.593129638671875,0.24494828178733585,0.18151625857949255,1.2774375185966491
1772548040255166700,4.603166748046875,0.5984004851743578,1.0170371083945036,0.4144698589295149
1772548040265203700,4.61320361328125,1.1543503603711724,2.0093653074681757,-0.3700777594953775
1772548040275241000,4.623240966796875,1.4067819836512208,1.6085095478713511,-0.5712514892250299
1772548040285278700,4.63327880859375,1.4681854236409067,0.6518640720754861,-0.32290684299767014
1772548040295315700,4.643315673828125,1.37783821323961,0.39953415560424327,-0.301616217687726
1772548040305352700,4.653352783203125,1.372246969103813,0.8744201970517634,-0.8312795589834451
1772548040315390700,4.663390625,0.5111911344073713,-0.0017892215043306349,-0.7141209140241146
1772548040325427700,4.673427734375,-0.9599285891197621,-2.190259050235152,0.19029636188447474
1772548040335464700,4.683464599609375,-1.3659959458850324,-3.167438780015707,0.5152063613981008
1772548040345503000,4.6935029296875,-0.6598600392654538,-2.5445050343483686,0.0984258874386549
1772548040355539700,4.703539794921875,-0.05937690259814262,-1.4960791004776954,-0.4359317491531372
1772548040365576700,4.71357666015625,0.17991335342749953,-0.6501841561645268,-0.9476420851290226
1772548040375613700,4.72361376953125,0.05979775835871696,0.1558253524839878,-1.1542816790491341
1772548040385651700,4.733651611328125,-0.1740028142094612,0.7575123119831084,-1.0599918685019016
1772548040395688700,4.743688720703125,-0.5301867806479335,0.7103717906236648,-0.5839081417024136
1772548040405725700,4.7537255859375,-1.0320015994228422,0.19308336225450037,0.16970014857947827
1772548040415764000,4.763763916015625,-1.2972758992716669,-0.09499006777107714,0.6500742660492658
1772548040425800700,4.77380078125,-1.1558566732808946,0.03438800729215145,0.6197890179008245
1772548040435837700,4.783837646484375,-0.8494178577423095,0.3511351586163044,0.39382688387334347
1772548040445874700,4.793874755859375,-0.363222048381716,0.9078799835830926,0.05650047037899494
1772548040455912700,4.80391259765625,-0.07687427310496568,1.0704565638929604,0.10866846451163291
1772548040465949700,4.81394970703125,-0.2253141915127635,0.5139408715069294,0.4936404262781143
1772548040475986700,4.823986572265625,-0.4953086517512798,-0.1301753629207611,0.8426555240005255
1772548040486023700,4.834023681640625,-0.24989260632172225,0.2583352943658829,0.4375514593094587
1772548040496061700,4.844061767578125,0.2052528157368302,0.7914777099490166,-0.031681670942902564
1772548040506098700,4.8540986328125,0.2195005367979407,0.6706067664682864,-0.027630934247374533
1772548040516135700,4.8641357421875,0.18032047292366624,0.4868313307851553,-0.09496376428604125
1772548040526174000,4.874174072265625,-0.0073855802066624164,0.46283787625730033,-0.026734862190484997
1772548040536210700,4.884210693359375,0.023726620285212992,0.5355214196741581,0.1946247464776039
1772548040546247700,4.89424755859375,0.3200758573554456,0.6156038411706686,0.5465665453016758
1772548040556286000,4.904285888671875,0.5904805058300495,0.5976233633220196,0.8975053045630454
1772548040566322700,4.91432275390625,0.4328244307875633,0.20644436360895632,1.4905711507111787
1772548040576359700,4.924359619140625,0.4972938342191279,0.023752046987414357,2.0692215180158615
1772548040586396700,4.934396728515625,1.1457258860193191,0.27421733863055703,1.772486642628908
1772548040596435000,4.94443505859375,0.6755095899485051,0.6793646579414606,0.6203174256891012
1772548040606471700,4.9544716796875,-0.7828887453019618,0.5740536871641874,-0.2488917587161064
1772548040616508700,4.9645087890625,-1.3482337869621812,0.7179740823209285,-1.074163017195463
1772548040626547000,4.974546875,-1.2852818023562431,0.4085018904358148,-1.443529413551092
1772548040636583700,4.984583740234375,-0.8981143763720989,-0.8206605498135089,-0.9820072960674762
1772548040646620700,4.99462060546875,0.43002354802265763,-1.7256483190864325,-0.7699819174557924
1772548040656657700,5.00465771484375,1.6283035048827528,-2.080971577042341,-0.8921125056087971
1772548040666696000,5.014696044921875,1.7887769754335283,-2.215669970345497,-1.124482753112912
1772548040676732700,5.024732666015625,1.1605591518834233,-1.2748644532382487,-1.669532464110851
1772548040686769700,5.034769775390625,-0.23197233422771094,0.5622878460466861,-1.7666309023380278
1772548040696808000,5.044807861328125,-1.1492919079378248,0.9577946458309888,-1.1979676760405302
1772548040706845000,5.054844970703125,-0.9434535473980009,0.1478255859017372,-0.41953357205986974
1772548040716881700,5.064881591796875,-0.0693748572602868,-0.5765238766700029,-0.019608955833315848
1772548040726918700,5.074918701171875,0.3340402314305305,-0.7760819878965616,0.29615912132561206
1772548040736957000,5.08495703125,0.41382951519936323,-0.22699089255332947,0.30525837358236313
1772548040746993700,5.09499365234375,0.49849546509385106,0.3432137179672718,0.24468320111036299
1772548040757030700,5.10503076171875,0.8695578517124056,0.6492910067170858,0.7140875962764024
1772548040767069000,5.11506884765625,1.2724858875386416,0.2912456303209066,3.351097311320901
1772548040777106000,5.12510595703125,0.3007340280257165,-1.3429109845042229,3.425292428344488
1772548040787142700,5.135142578125,-1.3361831375539301,-0.3929658831298351,1.8180863642871379
1772548040797179600,5.1451796875,-1.0033034743353724,1.3957792358607053,0.8722826005011797
1772548040807218000,5.155218017578125,-0.3451987543046474,1.7257196307569742,0.24242343948483466
1772548040817254700,5.165254638671875,-0.47989597856402394,1.7571698310315609,-0.2339560553908348
1772548040827291600,5.175291748046875,-0.12528276857361198,0.9878203662604093,0.20786241371333597
1772548040837330000,5.185329833984375,0.9203412596188485,0.13301438573896884,0.9424760806679725
1772548040847367000,5.195366943359375,-0.36062998606190083,0.1430465349316597,0.8340057690769433
1772548040857403600,5.205403564453125,-1.363974961451441,1.9168162031084297,0.9789853178977965
1772548040867440600,5.215440673828125,0.4381916569091379,0.560805498534441,-0.5439736061990261
1772548040877479000,5.22547900390625,1.555824397996813,-0.6628963382214308,-1.5313473977357148
1772548040887516000,5.235515869140625,0.5203703200325369,0.9054191464275121,-1.398726395228505
1772548040897552600,5.245552734375,-0.4455484494127333,0.6408487570643424,-1.8085194945186376
1772548040907591000,5.2555908203125,-0.7026106551028788,-0.6106079325795173,-1.3157096738457679
1772548040917628000,5.2656279296875,-1.1858524369634686,-1.115372394940257,-1.2229156548142432
1772548040927664600,5.27566455078125,-1.41130589081645,-0.49601241610646246,-1.6906541625946758
1772548040937701600,5.28570166015625,-1.4160790965676306,0.2990326309353113,-2.143716494768858
1772548040947740000,5.295739990234375,-1.1505123896434903,-0.3046317661166191,-2.230465388417244
1772548040957777000,5.30577685546875,-1.6288950410351157,-1.1654431245326995,-2.2695208029985428
1772548040967813600,5.315813720703125,-1.4129719243325292,-1.2775602681934832,-2.1718033560901877
1772548040977852000,5.325851806640625,-0.27347090417742725,-1.3470645970523356,-1.7081453956216572
1772548040987889000,5.335888916015625,0.02551175013631582,-1.6644330951452255,-1.0241226827412844
1772548040997925600,5.345925537109375,-0.21072335610240697,-1.672839688962698,-0.22463702290356158
1772548041007964000,5.3559638671875,0.33898411757349967,-2.201951241594553,0.07891688484847545
1772548041018001000,5.3660009765625,0.5234966353595256,-1.8125778299987314,0.02492576694190502
1772548041028038000,5.376037841796875,-0.1264224401280284,-0.38253742809593677,-0.4667489122211933
1772548041038074600,5.38607470703125,-0.907847542618215,1.0515911199033259,-0.694449998870492
1772548041048113000,5.39611279296875,-1.6740611935816705,1.454905963090062,-0.012154548174142837
1772548041058150000,5.40614990234375,-1.7181668772898613,1.0061042109698057,0.9490671494960784
1772548041068187000,5.416186767578125,-0.7408744809150696,0.5198053796261549,1.42376439037323
1772548041078225000,5.426224853515625,0.39812385041490195,0.3344026350021362,1.5354776294082402
1772548041088262000,5.436261962890625,1.1104841845072806,0.6621750382095575,1.4718255337089299
1772548041098299000,5.446298828125,1.3597382006645202,1.1653420022457837,1.433247673511505
1772548041108335600,5.456335693359375,1.553072322809696,1.8404034100353717,1.3462684782385825
1772548041118373600,5.46637353515625,1.7619349996067581,2.332417696416378,1.478069396534562
1772548041128410600,5.47641064453125,1.9517478157579897,1.463625276118517,1.976171478396654
1772548041138447600,5.486447509765625,2.205030502909422,-0.13772913930118083,1.970552469471097
1772548041148485400,5.4964853515625,2.289550030070543,-0.499383353844285,1.3091525072872638
1772548041158522600,5.506522705078125,1.833035073224455,-0.12219547008275986,0.4371142369359731
1772548041168559600,5.5165595703125,1.0835177055180072,-0.23194179295897482,-0.11920447157323359
1772548041178596600,5.5265966796875,0.49072936113700266,-0.8484224169641733,-0.380392232760787
1772548041188634600,5.536634521484375,0.253996972900629,-1.3973907627105713,-0.7098392911821604
1772548041198671600,5.546671630859375,0.33655236038193104,-1.7828402788609266,-1.2153706462621687
1772548041208708600,5.55670849609375,0.501311691558361,-1.7223253121435642,-1.6814157941281795
1772548041218746400,5.566746337890625,0.5768786814570427,-0.8406967911481856,-1.7022808875024318
1772548041228783600,5.57678369140625,0.4962180216811597,0.4031587758421898,-1.608756216108799
1772548041238820600,5.586820556640625,-0.35501287683248517,0.8931862723201512,-1.1915016948968171
1772548041248858400,5.5968583984375,-1.6377238057874142,0.4587631741642952,-0.4470604614108801
1772548041258895600,5.6068955078125,-2.7790590556323527,-0.10698621051311492,0.16306582513153553
1772548041268932600,5.6169326171875,-2.585603060673177,-0.3841647370368242,0.5532406162381172
1772548041278969600,5.626969482421875,-1.7483882664218544,-0.8061381034642457,1.0486357772290706
1772548041289007400,5.63700732421875,-0.837630097053945,-1.0869172848284243,1.3141104219555855
1772548041299044600,5.647044677734375,-0.2618810041487217,-0.399586762574315,0.34125966129004953
1772548041309081600,5.65708154296875,-0.04358165983408689,0.42133623756766314,-0.4701321249186992
1772548041319119400,5.667119384765625,0.7112897822514176,0.7502484584599733,-0.2886713959187269
1772548041329156600,5.677156494140625,0.7924712510310113,0.8178110056012868,0.08028408154845237
1772548041339193600,5.687193603515625,0.3531882917538285,-0.6247972014516592,0.16872399702370167
1772548041349230600,5.697230712890625,0.3579018762722611,-2.3299270486444232,-0.46278585380911824
1772548041359268400,5.707268310546875,0.4896928576961159,-0.9170108000218867,-1.7385557314544915
1772548041369305600,5.7173056640625,1.0513725087165833,2.806925552201271,-2.756826181036234
1772548041379342600,5.727342529296875,0.08631839327663182,5.713450127273798,-2.1194255185991526
1772548041389380400,5.73738037109375,-1.130046963111311,5.19750960638225,-0.243245277261734
1772548041399417600,5.74741748046875,-1.8770694452621042,3.182432351008057,1.3545271880179643
1772548041409454600,5.75745458984375,-2.1267899098873135,1.28944652082026,2.3021628434062005
1772548041419491600,5.76749169921875,-2.066764187991619,-0.16447569192945957,2.768867916485667
1772548041429529300,5.777529296875,-1.5407283895432948,-1.0947259127527476,2.956047607654333
1772548041439566600,5.787566650390625,-0.8166336323849857,-1.6145605184733867,2.887356933265924
1772548041449603600,5.797603515625,0.15318565163016318,-1.1920324407726526,2.2184084553986785
1772548041459641300,5.807641357421875,1.0655357663646339,-0.29200667782127854,1.2204705997496843
1772548041469678600,5.8176787109375,1.4206637940093874,0.3615098376363516,0.3387631682991981
1772548041479715600,5.827715576171875,1.4080723157227037,0.580662291648984,-0.25874445968866344
1772548041489753600,5.837753662109375,1.1096961028695105,0.5783890860199928,-0.5037146610468626
1772548041499790300,5.847790283203125,0.6250736803054809,0.29679975731670855,-0.4273462916374206
1772548041509827600,5.85782763671875,0.1916732031956315,-0.1213262860327959,-0.2808458168596029
1772548041519864600,5.867864501953125,-0.015830167946964502,-0.43159284316599367,-0.21795418413877485
1772548041529902300,5.87790234375,-0.026559505623579022,-0.5820616370528936,-0.2721066300868988
1772548041539939600,5.887939697265625,0.08198124085515737,-0.6161416013091803,-0.4056961853653192
1772548041549976600,5.8979765625,0.21377923654168843,-0.6860299610495567,-0.5402051935762167
1772548041560014600,5.9080146484375,0.3135670599833131,-0.769844554811716,-0.6424895100086927
1772548041570051300,5.91805126953125,0.4008744642972946,-0.8453548460870981,-0.7476157718688249
1772548041580088600,5.928088623046875,0.43661476298123597,-0.836792769446969,-0.8392810791313647
1772548041590125600,5.93812548828125,0.4032578523024916,-0.6755687727898358,-0.8575029645204544
1772548041600163600,5.94816357421875,0.29253654691427944,-0.5844307042717933,-0.7620727517664432
1772548041610200600,5.95820068359375,0.1328270464733243,-0.5903852287620306,-0.5509335083395243
1772548041620237600,5.968237548828125,0.049860886234045027,-0.5265934323310851,-0.40149814915359017
1772548041630275600,5.978275634765625,0.06706365770846605,-0.39250177274942394,-0.3121644997090101
1772548041640312300,5.988312255859375,0.08618176128491759,-0.2863631189763546,-0.22828560853898525
1772548041650349600,5.998349609375,0.10412468360215425,-0.20446867962181567,-0.15438742863535881
1772548041660387600,6.0083876953125,0.09206336666941642,-0.1324988374322653,-0.08664426423013209
1772548041670424600,6.018424560546875,0.04878419691324234,-0.049957916867733,-0.07429331670105457
1772548041680461600,6.028461669921875,-0.0323529943332076,-0.0009165303230285644,-0.110607908141613
1772548041690498600,6.03849853515625,-0.07814940760731696,0.0004968436062335968,-0.17158523167371748
1772548041700536600,6.04853662109375,-0.06491232489347458,-0.0017044658303260803,-0.23564357008635997
1772548041710573300,6.0585732421875,-0.021550299159437417,-0.030505612900853154,-0.2770814958900213
1772548041720610600,6.068610595703125,0.02510053898692131,-0.05869242746531963,-0.30289865871369837
1772548041730648600,6.078648681640625,0.05580430480837822,-0.06528408081531524,-0.3171569011688232
1772548041740685600,6.088685546875,0.0829576846718788,-0.06641162354052066,-0.32394144674241543
1772548041750722600,6.09872265625,0.04336801708340644,-0.07815992900133133,-0.28529578200578687
1772548041760759600,6.108759521484375,-0.011400661066919565,-0.06439619206488133,-0.17400924395024775
1772548041770797600,6.118797607421875,-0.05721563291102647,-0.016180734950304032,0.02969897269308567
1772548041780834600,6.12883447265625,-0.09023746641650796,0.06609481267631054,0.25284897190928457
1772548041790871600,6.13887158203125,-0.11171733068823814,0.2055950533032417,0.423679001301527
1772548041800909600,6.14890966796875,-0.1450043910011649,0.387807477453351,0.5256868388801813
1772548041810946600,6.158946533203125,-0.13673369852304457,0.6019155075579882,0.5738058498829602
1772548041820983300,6.1689833984375,-0.09661284666731954,0.7062286994695663,0.6418839453309774
1772548041831020500,6.1790205078125,-0.041318391077220434,0.6905366248190402,0.7853338003665208
1772548041841058600,6.18905859375,0.009835019185394048,0.568729861792922,0.9601000001639127
1772548041851095600,6.199095458984375,0.02140957551449537,0.5071066415727138,1.0842384210079907
1772548041861132500,6.209132568359375,0.039638621296733616,0.5254050993293523,1.085192945253849
1772548041871170600,6.219170654296875,0.09456146709546447,0.6121393799304962,0.9970914679527282
1772548041881207600,6.22920751953125,0.15166852506548165,0.7327759301334619,0.8960182808756828
1772548041891244300,6.239244384765625,0.15358926399499176,0.8105038974583149,0.8586626559495926
1772548041901282600,6.249282470703125,0.04450111276656389,0.7376666247844695,0.8662152632862329
1772548041911319600,6.259319580078125,-0.06867898395061492,0.6217641173660755,0.8557873927742242
1772548041921356500,6.2693564453125,-0.0840972100958228,0.5530033003509044,0.7753156796991825
1772548041931393500,6.2793935546875,-0.004989478850364684,0.5087959098339081,0.6616583208590745
1772548041941431600,6.289431640625,0.03498480414152145,0.5052811797112227,0.4807055413812399
1772548041951468500,6.299468505859375,0.00027969372421503063,0.4411842628538608,0.3111106067419052
1772548041961505500,6.309505615234375,-0.08245295002013445,0.33775954421460624,0.18977730644643306
1772548041971543600,6.31954345703125,-0.1485936476647854,0.184904147452116,0.06638941170871257
1772548041981580500,6.32958056640625,-0.2088929258048534,0.006031681379675865,-0.09766133280694485
1772548041991617500,6.339617431640625,-0.2573556356787681,-0.10074000959992409,-0.295717222777009
1772548042001654500,6.349654541015625,-0.33114655581563707,-0.15986556778550148,-0.45679859609305856
1772548042011692500,6.359692626953125,-0.39707594879716634,-0.136296476149559,-0.5659434459447861
1772548042021729500,6.3697294921875,-0.4196192045167088,-0.010136778610944747,-0.6022188744187355
1772548042031766500,6.3797666015625,-0.4517318142227828,0.12671265524625777,-0.5114443785160779
1772548042041804500,6.389804443359375,-0.4974862880513072,0.3216922065109014,-0.37788463385403154
1772548042051841500,6.399841552734375,-0.5902475738570093,0.454923449870944,-0.17439327483177183
1772548042061878500,6.40987841796875,-0.754713913436234,0.5036608850330114,0.08108487653732299
1772548042071915500,6.41991552734375,-0.8683829627141356,0.4906050041049719,0.3376829718470573
1772548042081953500,6.42995361328125,-0.855640385518968,0.4676075748771429,0.5128548298358917
1772548042091990500,6.439990478515625,-0.8004268862105905,0.5182371073961257,0.563821046963334
1772548042102027500,6.450027587890625,-0.6690674280717969,0.5630810422509909,0.4591436979144811
1772548042112065500,6.4600654296875,-0.5137617155477404,0.5718137992829084,0.2608563372761011
1772548042122102500,6.4701025390625,-0.3776867731943726,0.49535950515568256,0.13407353940308092
1772548042132139500,6.480139404296875,-0.23525515529066324,0.35430969699919224,0.1299614279091358
1772548042142177500,6.490177490234375,-0.05065846635252237,0.2233376307427883,0.2242313647121191
1772548042152214500,6.500214599609375,0.15961173915490506,0.1624310343593359,0.31451077057421206
1772548042162251500,6.51025146484375,0.3525787815533578,0.19766718291342258,0.36148002701997756
1772548042172288500,6.52028857421875,0.5007715933322906,0.2420902620077133,0.39714989081621166
1772548042182326500,6.530326416015625,0.5799298857212066,0.2986176203936338,0.4644751220703125
1772548042192363500,6.540363525390625,0.6363232424639165,0.3084124536991119,0.5593962162584066
1772548042202400500,6.550400390625,0.7451940976798533,0.40771278588473797,0.6151490831404924
1772548042212438500,6.5604384765625,0.8861879378654062,0.5573118111997842,0.6655600044727326
1772548042222475500,6.5704755859375,1.0202161768220364,0.62986851336658,0.7401736391693353
1772548042232512500,6.580512451171875,1.1472058954440056,0.5791507180422544,0.7979056971698999
1772548042242549500,6.590549560546875,1.2452759551823138,0.5669926627367735,0.8567793264210224
1772548042252587500,6.60058740234375,1.3229422554478047,0.5772206267625093,0.8992518559694289
1772548042262624500,6.61062451171875,1.3907166917741298,0.603299655392766,0.9226303934693336
1772548042272661500,6.62066162109375,1.421537361973524,0.6246171687096357,0.9144295513570309
1772548042282699500,6.630699462890625,1.3457063143111765,0.6271048938721419,0.8660182794094086
1772548042292736500,6.640736572265625,1.0566776293873785,0.5809808560788631,0.795161951419711
1772548042302773500,6.6507734375,0.6438274806141853,0.49489305668771266,0.7083014140903949
1772548042312811500,6.6608115234375,0.2381213583767414,0.4206026625961065,0.5752022726774215
1772548042322848500,6.6708486328125,-0.09357143314480781,0.39759237388670443,0.415070162910223
1772548042332885500,6.680885498046875,-0.22154446371570227,0.400838223940134,0.2558271109372377
1772548042342922500,6.690922607421875,-0.19352584532499312,0.3811503576517105,0.09503098430335521
1772548042352960500,6.70096044921875,-0.08950272240117192,0.3411906877070665,-0.06641746875941754
1772548042362997500,6.71099755859375,-0.049089171209186315,0.22610767997801304,-0.1824988398760557
1772548042373034500,6.721034423828125,-0.10874912853240966,0.08301321425139903,-0.2480418638885021
1772548042383072500,6.731072509765625,-0.23581351982578633,-0.10209142420887947,-0.2913765632241964
1772548042393109500,6.741109619140625,-0.36975451889038086,-0.2765104180037975,-0.37808863199353215
1772548042403146500,6.751146484375,-0.420377913929522,-0.41376492553055283,-0.48692894594073294
1772548042413183500,6.76118359375,-0.422955363202095,-0.43937984378039835,-0.593890606534481
1772548042423221500,6.771221435546875,-0.415272553614527,-0.43769758978188034,-0.6892839944094419
1772548042433258500,6.781258544921875,-0.43849297794327136,-0.4025637325584888,-0.7626964366227388
1772548042443295500,6.79129541015625,-0.4793361527241766,-0.4492383899718523,-0.8159726842582226
1772548042453333500,6.80133349609375,-0.4939046301722526,-0.3927262291550636,-0.8189525768518447
1772548042463370500,6.81137060546875,-0.45342195926681156,-0.3697948509007692,-0.8361345977991819
1772548042473407500,6.821407470703125,-0.4224212563253939,-0.27953298069536686,-0.8359148175686597
1772548042483445800,6.83144580078125,-0.4274221333526075,-0.1854664575099945,-0.8237175992965697
1772548042493482500,6.841482421875,-0.4819115561701357,-0.14464987847507,-0.8051146056354045
1772548042503519500,6.85151953125,-0.5646142431676388,-0.17242343606352806,-0.7618108859598636
1772548042513556500,6.861556396484375,-0.6426058298647404,-0.24436580572426317,-0.6658142714947461
1772548042523594500,6.871594482421875,-0.6905401319503783,-0.28391981747746464,-0.5748252560585737
1772548042533631500,6.881631591796875,-0.6965105846621096,-0.3154588650792837,-0.5260960042029619
1772548042543668500,6.89166845703125,-0.629751024466753,-0.2345347320616245,-0.5827332527041434
1772548042553706800,6.901706787109375,-0.5320167725540698,-0.033599487262964245,-0.7337105806350708
1772548042563743500,6.911743408203125,-0.4374728411152959,0.15057693043649195,-0.8466314418941736
1772548042573780500,6.921780517578125,-0.45529564418420193,0.22284020261466503,-0.8453647829592228
1772548042583817500,6.9318173828125,-0.512193004926294,0.11737374901473521,-0.7135650337070226
1772548042593855700,6.941855712890625,-0.5318412698566913,-0.08395195640623569,-0.49846039378046986
1772548042603892500,6.951892578125,-0.5049546511705965,-0.24713760852515695,-0.273023744931817
1772548042613929500,6.961929443359375,-0.36906602516956627,-0.3034592152059078,-0.1524316183924675
1772548042623967700,6.9719677734375,-0.20047128054872154,-0.27326164534091946,-0.15389584572613238
1772548042634004500,6.98200439453125,-0.0668412471294403,-0.20225626426935195,-0.31860709997713565
1772548042644041500,6.99204150390625,0.05800444520115852,-0.14994097062051295,-0.585106411576271
1772548042654079500,7.00207958984375,0.1107435902852565,-0.2019669259339571,-0.7788754180073738
1772548042664116700,7.01211669921875,0.2012918762166053,-0.27629882107973097,-0.9727291801124811
1772548042674153500,7.022153564453125,0.23418518797159193,-0.3460129932969808,-1.180906651124358
1772548042684190500,7.0321904296875,0.20683650473169982,-0.4730260927945375,-1.3819950406581163
1772548042694228500,7.042228515625,0.11295191398449242,-0.6281833367586136,-1.5572428864926098
1772548042704265500,7.052265380859375,0.021714988201856612,-0.8141916460603476,-1.6578940487653016
1772548042714302500,7.062302490234375,-0.07605331211090087,-1.0319044226586818,-1.624045555177331
1772548042724340500,7.072340576171875,-0.20959435207247734,-1.2589034985184668,-1.464910055232048
1772548042734377700,7.082377685546875,-0.33131175631470977,-1.4317641569554804,-1.1411217532247304
1772548042744414500,7.09241455078125,-0.3963993647098541,-1.6021604711055755,-0.7586445308834314
1772548042754451500,7.102451416015625,-0.3335270212113857,-1.58424779779613,-0.41583880919516086
1772548042764489500,7.112489501953125,-0.06434768588119186,-1.4018611861228942,-0.12771569480895995
1772548042774526700,7.122526611328125,0.4132663283586502,-1.1465806031525134,0.12434767968058585
1772548042784563500,7.1325634765625,0.6497451802253723,-0.8192267176181077,0.4767956744611263
1772548042794601500,7.1426015625,0.9962000720709562,-0.5946592528194189,0.7448176655828952
1772548042804638700,7.152638671875,1.3958511320531368,-0.3103782008141279,0.9952759429633616
1772548042814675500,7.162675537109375,1.5075462509095667,-0.01634673916697502,1.164819439676404
1772548042824713500,7.17271337890625,1.7326438770622015,0.235154909786582,1.205403378999233
1772548042834750500,7.18275048828125,1.854996583533287,0.423317182251811,1.231968729841709
1772548042844787700,7.19278759765625,1.8469032934486864,0.36483167553544044,1.1966571779638528
1772548042854824400,7.202824462890625,1.7834107722252606,0.10155950928926467,0.9777858789801597
1772548042864862500,7.212862548828125,1.6567530620366333,-0.31729660190045833,0.6984282548516988
1772548042874899700,7.222899658203125,1.4736948347121477,-0.7006786641269922,0.3922323081582784
1772548042884936400,7.2329365234375,1.2229933962255715,-1.001761797851324,0.07115443415343761
1772548042894974500,7.242974365234375,0.9806476981520652,-1.1901473576784134,-0.2018880154788494
1772548042905011500,7.253011474609375,0.8755974241375922,-1.339631816703081,-0.43099955344796176
1772548042915048700,7.263048583984375,0.8345885374009608,-1.495863411900401,-0.592588876286149
1772548042925086500,7.27308642578125,0.7898258510887622,-1.6346943749636411,-0.6864104847997426
1772548042935123500,7.28312353515625,0.7270821024060249,-1.6159470043957231,-0.8522475282102823
1772548042945160700,7.29316064453125,0.6260404795110225,-1.4947995820611715,-1.1043120717436075
1772548042955197700,7.30319775390625,0.25574936952590943,-1.4059978475362063,-1.2392594713717697
1772548042965235500,7.3132353515625,-0.20685414998624474,-1.2165905434459447,-1.2764128517240285
1772548042975272400,7.3232724609375,-0.4957084281912073,-0.978441712540388,-1.32340841165483
1772548042985309700,7.333309814453125,-0.7384873665828258,-0.7795704145342112,-1.3158598959714174
1772548042995347500,7.343347412109375,-1.1358265694260596,-0.531907320830226,-1.2302017201691866
1772548043005384400,7.353384521484375,-1.6793828269958495,-0.22116028670370577,-1.0866174250990153
1772548043015421700,7.363421630859375,-2.228225500535965,0.06876490866839885,-0.8784276791274547
1772548043025458700,7.373458740234375,-2.4853075799703594,0.2933744590431452,-0.7046341237545013
1772548043035496400,7.383496337890625,-2.2198037091493603,0.3762450499534607,-0.6115525199532509
1772548043045533400,7.393533447265625,-1.6808230889320372,0.2891395979523659,-0.5178057302415371
1772548043055570700,7.40357080078125,-1.0069370815973728,0.17389701574742794,-0.4664163192659616
1772548043065608400,7.4136083984375,-0.4080582383215427,0.10565700773596763,-0.434516621658206
1772548043075645400,7.4236455078125,-0.059389835144951934,0.2554541859716177,-0.4079284744620323
1772548043085682700,7.4336826171875,-0.0759258863389492,0.4893213940352201,-0.3218506119430065
1772548043095720400,7.443720458984375,-0.1414566353917122,0.8911883765012025,-0.10517360813319683
1772548043105757400,7.45375732421875,-0.1468108559012413,1.3605565313100814,0.293781286278367
1772548043115798800,7.463798828125,0.09823109551891684,1.7355886983424424,0.8633008371442555
1772548043125835800,7.473835693359375,0.2942985150855034,1.9922937611579894,1.5215227538138627
1772548043135873800,7.483873779296875,0.22319982970729468,1.9952052646905183,2.1730980720758435
1772548043145910800,7.493910888671875,0.012536752424761653,1.9159177929639815,2.5937562642514704
1772548043155948000,7.503947998046875,-0.317149886906147,1.8056272802084683,2.6250305234372613
1772548043165985800,7.51398583984375,-0.6487830571949481,1.6237632311046122,2.146256826901436
1772548043176022800,7.524022705078125,-0.8820761916976422,1.2557581862300633,1.269088207924366
1772548043186059800,7.534059814453125,-1.0795897184193133,0.8008066793084144,0.4607090475350618
1772548043196097800,7.544097900390625,-1.3236463120639324,0.389236048951745,-0.1453290929108858
1772548043206134800,7.554134765625,-1.473306127655506,0.033217794468998904,-0.5664636704266071
1772548043216171800,7.564171875,-1.4720155033230782,-0.3084177143961191,-0.8271399749606847
1772548043226209000,7.574208984375,-1.2825333804309367,-0.5915840831577778,-0.892121857959032
1772548043236246800,7.584246826171875,-0.773071115642786,-0.7644254523724318,-0.6853519156575203
1772548043246283800,7.59428369140625,0.06454400303773582,-0.729168845552206,-0.22239947310984134
1772548043256320800,7.60432080078125,0.8355671731747686,-0.5008522573530674,0.39008302116990085
1772548043266358800,7.61435888671875,1.258994683933258,-0.23482933109402654,0.968520037984848
1772548043276395800,7.624395751953125,1.3148434124052524,0.09494739767313003,1.3384013981252907
1772548043286432800,7.634432861328125,1.0954664289217442,0.5446931526452302,1.3422048820614814
1772548043296470800,7.644470703125,0.6503085131965577,1.0740227319419384,0.9871861600100994
1772548043306507800,7.6545078125,0.13973704505749046,1.4577753810465335,0.35419045453369613
1772548043316544800,7.664544677734375,-0.37280806124210353,1.3743044861555098,-0.4857698390334844
1772548043326581800,7.674581787109375,-0.5866074637889862,0.8304992222607135,-1.3018494907975195
1772548043336619800,7.684619873046875,-0.5313689761698246,-0.14156769455075263,-1.618174032795429
1772548043346656800,7.69465673828125,0.12424012765288352,-0.9752063838809728,-1.5931062270343304
1772548043356693800,7.70469384765625,1.1144506039202213,-1.5063216775506734,-1.4438444708496332
1772548043366731800,7.714731689453125,1.1886720244288445,-2.0170161144822836,-0.8351631224185228
1772548043376768800,7.724768798828125,0.9369056601244956,-1.8873779271781443,-0.16307751556932926
1772548043386805800,7.7348056640625,0.8160370547313243,-1.198150631392002,0.3306459128171205
1772548043396842800,7.7448427734375,0.572080852721259,-0.3352911082744598,0.6530985823065042
1772548043406880800,7.754880859375,0.13579605234675107,0.5593465318977833,0.8344348081439733
1772548043416917800,7.764917724609375,-0.28423429025411606,1.213859657177329,0.8826824139624834
1772548043426954800,7.774954833984375,-0.639447073572874,1.5357219595581293,0.7988222274929284
1772548043436992800,7.78499267578125,-0.9691524906694888,1.5223971985608338,0.5958014085918665
1772548043447029800,7.79502978515625,-1.152678335505724,1.2739233729958535,0.392542689281702
1772548043457066800,7.805066650390625,-1.0485924495439976,0.9159867176711559,0.2532657360166311
1772548043467105000,7.81510498046875,-0.8165338252723217,0.543246460968256,0.12375088283121585
1772548043477141800,7.825141845703125,-0.6455868915021419,0.2667068168699741,0.016559505134820938
1772548043487178800,7.8351787109375,-0.4060463139772415,0.06407002885043621,-0.04434416863918304
1772548043497215700,7.8452158203125,-0.15187288853116332,-0.09177461285591125,-0.04041910414993763
1772548043507253800,7.855253662109375,0.01657112250737846,-0.19887948131263256,0.04385258572995662
1772548043517290800,7.865290771484375,0.16958265967965125,-0.23268413575887678,0.18780279150307178
1772548043527327700,7.87532763671875,0.27883089684061707,-0.17369067952036857,0.2885229273587465
1772548043537366000,7.885365966796875,0.34227380676865576,-0.04745031796097755,0.3173486243486404
1772548043547402800,7.89540283203125,0.3935270241439342,0.0841390034109354,0.2900105355679989
1772548043557439700,7.905439697265625,0.4267301325004548,0.21974223659932612,0.2179395710915327
1772548043567477800,7.915477783203125,0.45339960130453105,0.269041981819272,0.1305675771087408
1772548043577515000,7.925514892578125,0.41026188584566115,0.1945855835109949,0.08644143513441085
1772548043587551700,7.9355517578125,0.325671047013998,0.09885551102757453,0.08893909716904162
1772548043597588700,7.945588623046875,0.303876563835144,0.040517303827404975,0.11270108102858066
1772548043607627000,7.955626953125,0.30127061912044883,0.0456792166352272,0.11378303104639052
1772548043617663700,7.965663818359375,0.21333638814501463,0.07265957801938057,0.05770984616875648
1772548043627700700,7.97570068359375,0.10098660477213561,0.09460545236766338,0.008194412371516227
1772548043637738800,7.98573876953125,0.1065161818485707,0.07446984231173992,-0.03841711667776108
1772548043647776000,7.99577587890625,0.11493095897249876,-0.004684942945837974,-0.04530629166960716
1772548043657812700,8.005812744140625,0.17052973127141594,-0.01821077947318554,0.00699263536632061
1772548043667850800,8.015850830078126,0.24834946853294967,0.03977145389616489,0.11644903538525103
1772548043677888000,8.025887939453124,0.2544448627986014,0.11958733341097831,0.27297639865875245
1772548043687924700,8.0359248046875,0.2657927707649767,0.2102051774471998,0.3885433905124664
1772548043697961700,8.045961669921875,0.2893814438842237,0.297311798492074,0.437785852587223
1772548043707999700,8.055999755859375,0.30526999095492063,0.4583031554371118,0.41193303392827507
1772548043718037000,8.066037109375,0.22703758123926818,0.4536474385857582,0.3877852656215429
1772548043728073700,8.07607373046875,0.16827216160297392,0.4077934499055147,0.2982049479395151
1772548043738111700,8.08611181640625,0.20529344000816344,0.43094285482466216,0.14920271947383879
1772548043748149000,8.09614892578125,0.20794022818990052,0.36279578579366206,0.03234042711257935
1772548043758186000,8.10618603515625,0.1178442160706967,0.1612625751018524,0.006501636978983879
1772548043768223700,8.1162236328125,0.09733115100450813,-0.04628828844428062,-0.019559855994582175
1772548043778260700,8.1262607421875,0.24779994489140808,-0.19111586157381533,-0.05705342808663845
1772548043788298000,8.136298095703125,0.4199650222796947,-0.2648790169209242,-0.12457155156433582
1772548043798334700,8.146334716796876,0.6047627867478877,-0.22214228347837925,-0.2175853508263826
1772548043808372700,8.156372802734374,0.7478560103654861,-0.16537644016146658,-0.33577392335534095
1772548043818410000,8.166409912109375,0.8259937275350093,-0.2005073747754097,-0.4315747229874134
1772548043828447000,8.176447021484375,0.7606640540122985,-0.30570845543742176,-0.44765842730402944
1772548043838484700,8.186484619140625,0.7329588854849338,-0.44915071168839926,-0.4223410306960344
1772548043848521700,8.196521728515625,0.8832733655929564,-0.6868792713552713,-0.3944476461201906
1772548043858559000,8.20655908203125,1.010821887141466,-0.932963571435213,-0.4321966542780399
1772548043868596700,8.2165966796875,0.9584791209638118,-1.0823884092271328,-0.5290735587090254
1772548043878633700,8.2266337890625,0.910523776090145,-0.997839655971527,-0.5791343514293432
1772548043888671000,8.2366708984375,0.8984674275934695,-0.7724117749512195,-0.5753741221129894
1772548043898708000,8.2467080078125,0.7621499086558818,-0.5608867470771074,-0.5704980405092239
1772548043908745700,8.256745849609375,0.5623240864038467,-0.3430687565386295,-0.5269844774752855
1772548043918782700,8.26678271484375,0.5813771619200706,-0.11426701517105102,-0.4392886583656072
1772548043928820000,8.276820068359376,0.6169032333314418,0.03429097665846348,-0.3195838360548019
1772548043938857700,8.286857666015624,0.42749008402228356,0.11672668328285217,-0.2632534615457058
1772548043948894700,8.296894775390625,0.1469242531478405,0.24812720408439634,-0.1944727707862854
1772548043958932000,8.306931884765625,-0.04604103111836593,0.3204407451450825,-0.16549042192995547
1772548043968970800,8.316970703125,-0.1646574782371521,0.3257593098193407,-0.23830139111876486
1772548043979007700,8.3270078125,-0.12591301103485747,0.2865694552034139,-0.380959218993783
1772548043989045000,8.337044921875,0.10442012288477272,0.19213468322753904,-0.6032634150356054
1772548043999082800,8.347082763671875,0.3025806422730908,-0.008425298517942428,-0.6393038657099008
1772548044009119700,8.35711962890625,0.17336802343726157,-0.07558277198970317,-0.43471302101314063
1772548044019157000,8.367156982421875,-0.00412438645362854,-0.08358078500628471,-0.25822248164117334
1772548044029194800,8.37719482421875,0.24723288559317588,0.014069441884756088,-0.2896715128719807
1772548044039231700,8.387231689453126,0.303895268535614,-0.19498598100543021,-0.341409883415699
1772548044049268700,8.397268798828126,-0.07662380547523498,-0.11880173599123954,-0.10132862314283847
1772548044059306800,8.407306640625,0.19710005054995416,-0.4077653928548097,-0.09561784428060054
1772548044069343700,8.41734375,0.398734529659152,-0.7035182714670896,-0.042023032215237614
1772548044079380700,8.427380615234375,-0.14621245161667465,-0.5389373655974865,0.3399503322571516
1772548044089418000,8.43741796875,-0.26513328394293784,-0.4694622628331184,0.5375064560115337
1772548044099455700,8.447455810546876,-0.024173487269878387,-0.45289983508884907,0.44123920791149135
1772548044109488600,8.457488525390625,0.19444544438794253,-0.5034264917552471,0.31750586073696613
1772548044119526000,8.46752587890625,-0.4672364034771919,0.2402297288328409,0.7323024674028158
1772548044129564000,8.47756396484375,-0.7166027939677238,0.4860726213723421,0.9970528895080089
1772548044139600600,8.4876005859375,-0.5592508164383471,0.17279869911670684,1.0115759203791619
1772548044149638000,8.497637939453124,-1.2709200995266436,0.2207230643302202,1.3350304603874683
1772548044159676000,8.507676025390625,-2.1074030723720787,0.4939601597517729,1.7009128140196204
1772548044169713000,8.517712890625,-1.968376440606266,0.7692325603932142,1.7610259219378233
1772548044179749600,8.52774951171875,-1.9522075422242282,1.1526432641923428,1.7961130174100397
1772548044189788000,8.537787841796876,-1.6912157420001923,1.0355950938701628,1.4733400299251078
1772548044199825000,8.547824951171876,-1.7030998026698827,1.1873042432069778,1.4843313795387745
1772548044209861600,8.557861572265624,-2.128329394414276,1.467699978211522,1.679350386030972
1772548044219899000,8.56789892578125,-1.4975338293306528,1.1325637682378291,1.352657302492857
1772548044229937000,8.57793701171875,-1.3516934258967637,0.6714344494640827,1.1201195894673466
1772548044239974000,8.587973876953125,-1.8788544289827345,0.29780630401074887,1.2643527038350701
1772548044250010600,8.5980107421875,-1.8234876388087868,-0.09398819725215435,1.5047776629790663
1772548044260049000,8.608048828125,-1.76888364970088,-0.08024082692861556,2.122678967437148
1772548044270086000,8.6180859375,-2.194657285194099,0.35749767938554283,2.7906165146961808
1772548044280123000,8.628122802734374,-1.7092451735571026,0.3979343191921711,2.5907310712113976
1772548044290161000,8.638160888671875,-1.0683020162075758,0.35172961737811564,2.011355019980669
1772548044300198000,8.648197998046875,-1.8666843909785151,0.8905617690354585,1.9633412229180336
1772548044310235000,8.65823486328125,-1.8589032355830073,0.769609577012062,1.6271420598879456
1772548044320271600,8.668271728515625,-1.5835595232710242,0.4063414975315332,1.3814201633796095
1772548044330310000,8.678309814453126,-1.6007880137085915,0.271770530000329,1.510970087878406
1772548044340347000,8.688346923828124,-1.3961384245619177,0.097088501355052,1.80760121062994
1772548044350383900,8.6983837890625,-0.8296583875223994,-0.2562900522738695,2.0373098377093672
1772548044360422000,8.708421875,-0.3455988595381379,-0.5807903019428253,2.1197423294633624
1772548044370459000,8.718458984375,-0.048128655613958835,-0.8269710481345653,2.1394909860283136
1772548044380496000,8.728495849609375,0.5761062357798218,-1.3139192832976578,2.0300097438290714
1772548044390534000,8.738533935546876,0.4878279406070709,-0.8986077128469944,2.5206124098464846
1772548044400571000,8.74857080078125,-0.294861190469563,-0.20888883415162562,3.013866174894571
1772548044410607900,8.75860791015625,-0.27393443003594875,-0.15520926641225813,2.660555718065798
1772548044420645600,8.768645751953125,-0.9904048297956586,-0.058503626894950866,2.320427398893237
1772548044430683000,8.778682861328125,-0.7316565707147121,0.00817687671482563,1.8471750961273907
1772548044440720000,8.788719970703125,-1.0961290575489402,0.10542027637064456,1.8135025436282157
1772548044450756900,8.7987568359375,-0.08385667933821678,-0.3004880904406309,1.3661325778767466
1772548044460795000,8.808794921875,-0.2239075395852327,-0.40819618548750874,1.5534288811624049
1772548044470831900,8.818831787109374,-0.3095394119024277,0.15700667122304438,2.060693635906279
1772548044480868900,8.828868896484375,0.1754050822228193,0.7440016730248927,2.7483219720631835
1772548044490906600,8.83890673828125,0.6975012031346559,0.7659422866761684,3.042744186593592
1772548044500944000,8.84894384765625,0.5219388845235109,0.4983715464532375,2.49806418569088
1772548044510980900,8.85898095703125,0.49414603771269316,0.5125538010627031,1.2385986693754791
1772548044521018600,8.8690185546875,-2.056900088842213,1.4486948334902525,1.1479752723813057
1772548044531055900,8.879055908203124,-2.907479099318385,2.6576345699220894,0.01175268937498331
1772548044541092900,8.8890927734375,-3.362217840272188,3.5556355490475893,-0.712236415451765
1772548044551131000,8.899130859375,-3.394549499556422,4.325245710581541,-0.27834552447646854
1772548044561167600,8.909167724609375,-4.4061610757708545,5.599709766325354,0.18722674518078564
1772548044571204900,8.919204833984375,-4.218817718473076,6.476744529789686,-0.6990270975276828
1772548044581241900,8.929241943359376,-3.3830829336464405,6.544471327582001,-1.7783137413471937
1772548044591279900,8.93927978515625,-4.3386873759567735,5.913200546202063,-1.963826229956001
1772548044601316900,8.94931689453125,-2.726360900145769,4.377820531949401,-2.9142981316834686
1772548044611353900,8.959353759765625,-0.7979962980628014,2.4421248563259836,-3.514009991717338
1772548044621392000,8.969391845703125,0.7430541630417108,0.9002350217878818,-3.762707104644179
1772548044631428600,8.9794287109375,2.1149907510221,-0.5865694698661565,-3.7044583292931317
1772548044641465900,8.9894658203125,2.7973236111193893,-2.161553180232644,-3.1679312397077677
1772548044651503900,8.99950390625,3.3897184261381623,-3.5807992163985967,-2.13048511114344
1772548044661540900,9.009540771484374,4.178101677203178,-4.892264092281461,-1.1246056488402187
1772548044671577900,9.019577880859375,4.266424103778601,-5.922449436062574,-0.33498759528324007
1772548044681614800,9.02961474609375,3.2893472498506307,-6.01117576726377,-0.27691914493516084
1772548044691652900,9.03965283203125,2.5117887596607207,-5.455111910298466,-0.8426357963867485
1772548044701689600,9.049689697265626,2.8848423200964928,-4.607839832413196,-1.4912097408756613
1772548044711726800,9.059726806640626,3.010237463003397,-3.5945816580355165,-1.6024778664916752
1772548044721764900,9.069764892578124,2.6442326520353556,-2.5703461625695225,-1.3777726006574929
1772548044731801900,9.0798017578125,2.345927166330814,-1.920917208686471,-1.1071334127746522
1772548044741838800,9.0898388671875,2.1357775184631347,-1.6871061147242783,-0.8645172271966933
1772548044751876900,9.099876953125,1.7822721235841512,-1.8581664457410574,-0.5736566506706178
1772548044761913900,9.109913818359376,1.1611971575260163,-2.270060901224613,-0.13317308343201875
1772548044771950800,9.119950927734376,0.5610317085057497,-2.667157600548863,0.3745739018708467
1772548044781988900,9.12998876953125,-0.06858487592637538,-2.9542993026822804,0.9440534129872917
1772548044792025900,9.14002587890625,-0.5997492694348097,-2.9141771356523036,1.656567184075713
1772548044802062800,9.150062744140625,-1.137422314184904,-2.651802210506797,2.3205730909742415
1772548044812099800,9.160099853515625,-1.3618307890295982,-2.67094939404726,2.7043027975946665
1772548044822137900,9.170137939453125,-1.0389216079443693,-2.9793343752175567,3.099255470627546
1772548044832174800,9.1801748046875,-0.8665051861435175,-3.3105285695672033,3.648122694087028
1772548044842211800,9.1902119140625,-1.8038555943608283,-3.198630621615052,4.376313634517788
1772548044852249900,9.200249755859375,-3.359119874256849,-2.1638965284883973,5.037348855042457
1772548044862286800,9.210286865234375,-3.3100486770957707,-0.8487251993030309,5.3962464643537995
1772548044872323800,9.22032373046875,-5.536469174036383,1.722417082080245,6.84785513946414
1772548044882361900,9.23036181640625,-6.092875560829043,4.069911351597309,7.387976746410131
1772548044892398800,9.24039892578125,-7.044174999421834,5.968219838112592,6.643424453765154
1772548044902435800,9.250435791015626,-6.3061214211463925,6.774090230551361,3.9773786138504743
1772548044912473900,9.260473876953125,-5.503456546750664,6.569913227352499,1.013350382705778
1772548044922510800,9.2705107421875,-3.7785108229756355,4.763219779217243,-2.1341827966175972
1772548044932547800,9.2805478515625,-0.44521337223947044,2.3466034581571815,-4.409223970472812
1772548044942584800,9.290584716796875,0.44169747307300566,1.347209558480978,-4.85609241644293
1772548044952622800,9.300622802734376,2.3061183030337093,-0.39691257492899895,-3.2743729680806397
1772548044962659800,9.310659912109376,4.293125063699484,-3.814181271293759,-1.379239019948244
1772548044972696800,9.32069677734375,3.6491689882695675,-7.210810499733686,-1.9606889548435806
1772548044982734800,9.33073486328125,0.8025397867113352,-7.931817081618308,-3.8466476628735657
1772548044992771800,9.340771728515625,-0.46486382912695406,-5.482172935703397,-4.074404279102385
1772548045002808800,9.350808837890625,1.6445558437645433,-2.8954806184887882,-2.6836139375701547
1772548045012846600,9.3608466796875,3.9610499948620794,-0.7576005747884511,-1.7504326317310333
1772548045022883800,9.3708837890625,3.4759172846883533,0.29751404306590556,-1.7194670001029968
1772548045032920800,9.3809208984375,0.5395359160125255,0.8097580475270748,-1.9019100181385873
1772548045042958800,9.390958740234375,-0.1111877538561821,1.5312901145905256,-1.8762560830526054
1772548045052995800,9.400995849609375,1.0433838480502367,1.9541268198490143,-1.2662483083233236
1772548045063032800,9.41103271484375,1.9632219804525375,1.992027803698182,-0.7578270770207047
1772548045073070800,9.42107080078125,1.8934370810866354,2.0230816981315614,-0.7669815665960311
1772548045083107600,9.431107666015626,1.3452777136355638,2.3126930052489043,-1.2331871657207607
1772548045093144800,9.441144775390624,0.9031038552224635,2.443236032438278,-1.6135615705639124
1772548045103181800,9.451181884765624,0.6496960803866386,2.4841017113119364,-1.7854542607516048
1772548045113220000,9.46122021484375,0.7685936779677868,2.5124434241771696,-1.5809142694592475
1772548045123256800,9.4712568359375,1.253427697455883,2.414466449549794,-1.0910253046691416
1772548045133293800,9.4812939453125,1.64299575484097,2.3622785816729066,-0.7954056970477104
1772548045143332000,9.49133203125,1.8247282865196466,2.3814023843377825,-0.6171273974761367
1772548045153368800,9.501368896484376,1.3919886114060878,2.1188602859318255,-0.6617044980883598
1772548045163405800,9.51140576171875,0.9916969154328107,2.1221780321776866,-0.566797724686563
1772548045173443800,9.52144384765625,1.3107120116889477,1.982600050139427,-0.3904498086556792
1772548045183481000,9.531481201171875,1.561545552122593,1.650937069234252,-0.061553077593445776
1772548045193517800,9.541517822265625,1.8124033502146601,1.2773019095182419,0.3887821677044034
1772548045203555800,9.551555908203126,1.9684417609274387,0.6442781469911336,0.7408005388960242
1772548045213593000,9.561593017578126,1.993251208013296,0.29216859038472176,1.0648740875855087
1772548045223629800,9.5716298828125,2.3048475524455307,-0.08129004372060299,1.3470909005373715
1772548045233666800,9.581666748046874,2.1837010068938136,-0.25531214715242384,1.5644889120981096
1772548045243704800,9.591704833984375,1.8218638369992375,-0.3292939136862755,1.7124924849152563
1772548045253742000,9.6017421875,1.6239049776628613,-0.22531799090504645,1.8263766382485627
1772548045263778800,9.61177880859375,1.4343877834573386,0.11267185493409633,1.858504299393296
1772548045273816800,9.62181689453125,1.1641671132475138,0.18645254593789576,1.687474071253836
1772548045283854000,9.63185400390625,0.7937696202784776,0.22101824788451194,1.391132286837697
1772548045293891000,9.64189111328125,0.4529994960710406,0.2497726332038641,1.1537696378737687
1772548045303928800,9.6519287109375,0.4435962924316525,0.29272213261425495,0.9263821472182869
1772548045313965800,9.6619658203125,0.603642769742012,0.51289516184628,0.614129676964879
1772548045324003000,9.672003173828125,0.4030465476393699,0.8741466408073901,0.4651537519842386
1772548045334040800,9.682040771484376,0.6558323911845684,1.2539099280148744,0.3722913438916206
1772548045344077800,9.692077880859374,0.8702186537086963,1.8722452399760483,0.2450464814648032
1772548045354115000,9.702114990234374,0.8148913187623024,2.6198347083598374,0.07855214318931102
1772548045364152800,9.71215283203125,0.1602344010978937,3.1326386847913263,-0.4321525228753686
1772548045374189800,9.72218994140625,-0.950198199352622,3.3571219784379003,-1.0111845829740167
1772548045384226800,9.732226806640625,-2.1055092214494944,3.2698446770012377,-1.4218664477974177
1772548045394264800,9.742264892578126,-2.865503121115267,2.8772388593554497,-1.7728490462005138
1772548045404301800,9.7523017578125,-2.8065763003721833,2.331376662930846,-1.9329948922321198
1772548045414338800,9.7623388671875,-2.1692153854236005,1.9143261398583649,-1.786429535524547
1772548045424376000,9.7723759765625,-1.7340610503837466,2.076952404528856,-1.677543044348061
1772548045434413800,9.782413818359375,-1.5592781917124985,2.445632572185993,-1.790880961975455
1772548045444450800,9.792450927734375,-1.1993068156898021,2.4806512785971164,-2.012940243345499
1772548045454487800,9.80248779296875,-0.34627310553789137,1.6465566621929406,-2.1404192067891357
1772548045464525800,9.81252587890625,0.8305056520015001,0.2713742241591215,-2.0707824837222693
1772548045474562800,9.822562744140624,1.8483990849643945,-1.2242647313356398,-1.7704080827891826
1772548045484599800,9.832599853515624,2.4065824183017015,-2.7260505190223454,-1.220209902986884
1772548045494638000,9.84263818359375,2.8203081808656454,-4.267100395604968,-0.5571992907360196
1772548045504674800,9.8526748046875,3.4394004486739633,-5.629020031961798,-0.03644523208290338
1772548045514711800,9.8627119140625,3.9556446286872027,-6.623485827586054,0.20822394050210713
1772548045524750000,9.87275,4.103961797498166,-7.076603104817867,-0.009823182617127895
1772548045534786800,9.882786865234374,4.038105762013792,-6.831376882871985,-0.6079086104929446
1772548045544823800,9.89282373046875,3.8724393989950414,-6.136598967221379,-0.8894985237181187
1772548045554862000,9.902862060546875,4.264883304077387,-5.509393535584211,-0.8757131594717502
1772548045564899000,9.912899169921875,4.587064755409956,-5.205986342826486,-1.0537398223698138
1772548045574935800,9.922935791015625,2.82298470659852,-5.1476294309258455,-0.8921762184947729
1772548045584972800,9.932972900390626,-1.8940116661041975,-5.250749613660574,0.8939549186050891
1772548045595011000,9.943010986328124,-2.428072365576029,-4.27914505366385,3.085792177942395
1772548045605048000,9.953048095703124,0.779158326601982,-1.890868107381463,3.5516567085444923
1772548045615084800,9.963084716796875,0.23993279171288012,1.2451345008850097,1.8184744868218898
1772548045625122800,9.973122802734375,-2.875775801065564,4.213007570889592,-0.6315647958904504
1772548045635160000,9.98316015625,-4.166765459674597,8.173522728222608,-2.5829998924374578
1772548045645196800,9.99319677734375,-4.551474971112609,13.810073155689238,-4.093927602478861
1772548045655234800,10.00323486328125,-5.168486340993643,15.49611134892106,-2.951348051661253
1772548045665272000,10.01327197265625,-3.0177468157202005,9.661974402561784,-1.297993984413147
1772548045675309000,10.02330908203125,-0.8467486385330557,2.0932564735978842,-0.42957916525602335
1772548045685346800,10.033346923828125,-0.049071489422023294,-1.7333832972526548,-0.3461576624646783
1772548045695383800,10.0433837890625,0.6552630668640136,-3.376794647157192,-0.7408338566437364
1772548045705421000,10.053421142578125,1.4310399343341589,-4.286787092849612,-1.2620467649802565
1772548045715458800,10.063458740234376,2.204875604608655,-5.028812497365474,-1.696318179705739
1772548045725495800,10.073495849609374,2.5533055959194897,-5.529243314436077,-1.9217770403861998
1772548045735533000,10.083532958984375,2.861816541557014,-5.577926973584294,-2.131511677712202
1772548045745570800,10.09357080078125,2.76044174118489,-5.032925777903199,-2.3047212957173584
1772548045755607800,10.10360791015625,2.301809499923885,-4.42547309448421,-2.4118214879989623
1772548045765644800,10.113644775390625,1.7810329371780156,-3.34932620999515,-1.8804057500779627
1772548045775682800,10.123682861328126,0.8439099079757928,-2.38375683850944,-1.3856997403949498
1772548045785719800,10.1337197265625,-0.25883272249400613,-1.1844780798703431,-0.7416618319004774
1772548045795756800,10.1437568359375,-1.6424264305204153,0.7122650570243597,0.00031681086421012875
1772548045805794000,10.1537939453125,-2.5914842276662586,3.5351246759384867,0.6187368784993886
1772548045815831800,10.163831787109375,-2.291803361955285,6.28682343095839,0.8064911546856165
1772548045825868800,10.173868896484375,-1.6695079141914844,7.381539991360903,0.45428719779402016
1772548045835905800,10.18390576171875,-1.2091975105851889,5.824060958024859,0.1879115125745535
1772548045845943800,10.19394384765625,-0.9519202008396387,2.86806186568737,0.5501365127429366
1772548045855980800,10.203980712890624,-0.6095762514442205,0.323244696649909,1.0397206493675708
1772548045866017800,10.214017822265625,-0.059090779133141036,-1.1705471696734429,1.431022983199358
1772548045876056000,10.22405615234375,0.6247989550173282,-1.8373615581214426,1.558358154258132
1772548045886092800,10.2340927734375,0.9807783387944101,-1.901972269719839,1.1882003152638674
1772548045896129800,10.2441298828125,1.0812249184057117,-1.617523459932208,0.3662970719128847
1772548045906168000,10.25416796875,0.9958920290350913,-1.1575620158940554,-0.6097755734086037
1772548045916205000,10.264205078125,0.7482900178685784,-0.4900906248420477,-1.4788567475199699
1772548045926241800,10.27424169921875,0.5698182415515184,0.25750644232630726,-1.7996610652804375
1772548045936280000,10.284280029296875,0.12849486248791217,0.7442728911817074,-1.3957482562005519
1772548045946317000,10.294317138671875,-0.2684355403587222,0.988406641715765,-0.5532213270157575
1772548045956353800,10.304353759765625,-0.3444400448918342,1.1015987211316822,0.3827455178886652
1772548045966391800,10.314391845703126,0.1413029061347246,0.8482803781449795,0.8493956459105014
1772548045976429000,10.324428955078124,0.6563052693933248,0.11157295378148555,0.9018354427218437
1772548045986466000,10.334466064453125,1.1013298410624266,-0.5462485653936863,0.6393658250302076
1772548045996503800,10.34450390625,0.9661948099076747,-0.8451835811734199,0.26958500265479085
1772548046006541000,10.354541015625,0.5312409658759832,-0.8544219496399164,0.1443102712571621
1772548046016578000,10.364578125,0.1393950266867876,-0.6541945608496665,0.3798299227029085
1772548046026614800,10.37461474609375,0.0764072401151061,-0.2721341026157141,0.6896271087586879
1772548046036652800,10.38465283203125,0.30964696393012997,0.20141864440143106,0.912918562272191
1772548046046690000,10.39468994140625,0.5767822353452444,0.6323159065186977,1.1040978444710374
1772548046056727000,10.40472705078125,0.8171762148290872,0.8984802870750427,1.3438257612615823
1772548046066764800,10.414764892578125,0.5120955359011888,0.9230606015801429,1.4321391277477145
1772548046076802000,10.424802001953125,-0.025882337014377116,0.7943167327672243,1.3356763570755719
1772548046086839000,10.434839111328126,-0.3923988968968391,0.6440303097099065,1.1298980561599135
1772548046096876800,10.444876708984374,-0.6528592205926775,0.6661141312241554,0.8686179405137896
1772548046106913800,10.454913818359374,-0.5071373289719223,0.7113800908833742,0.7668950573563575
1772548046116951000,10.464950927734375,-0.31349545605182644,0.5762661025166511,0.781571817484498
1772548046126989000,10.474989013671875,-0.2482429394185543,0.23167992715239524,0.7928969290971756
1772548046137026000,10.485026123046875,-0.15158815330564976,-0.16411796453297137,0.6462178828820586
1772548046147063000,10.49506298828125,-0.0018669629156589508,-0.34068449175059795,0.31073826629817486
1772548046157101000,10.50510107421875,0.11547113026380539,-0.2738660409748554,-0.10441752906888722
1772548046167138000,10.515137939453124,0.08867313970923424,-0.23640695567429065,-0.3745291859462857
1772548046177175000,10.525175048828125,0.014448212069272994,-0.3546533958703279,-0.4488955678835511
1772548046187213000,10.535213134765625,0.005636544582247734,-0.5763169559210538,-0.3909831848800182
1772548046197250000,10.54525,0.07685176901221275,-0.6894932532459497,-0.32272856382131576
1772548046207287000,10.555287109375,0.1342097330033779,-0.527272646766901,-0.5255468458876014
1772548046217325000,10.565324951171876,0.15869330913573504,-0.12147066293954849,-0.8276420792639255
1772548046227362000,10.575362060546874,0.2323351761907339,0.13162556172907353,-0.9871610255688428
1772548046237399000,10.58539892578125,0.048700318022072316,0.16728841126263141,-1.0781704992711543
1772548046247437000,10.59543701171875,-0.1996615716010332,0.0633645109295845,-0.963210241138935
1772548046257474300,10.605474365234375,-0.19909926154315472,-0.16052549299895763,-0.7403060333773493
1772548046267511000,10.615510986328125,-0.0058580783784389495,-0.16119593960642814,-0.5589569480583071
1772548046277549000,10.625549072265626,0.20950345891863106,0.23110884926617145,-0.41015170346945523
1772548046287586000,10.6355859375,0.17318156095445156,0.7779302461117505,-0.5184183091819285
1772548046297623000,10.645623046875,-0.18823592222332952,1.187630406421423,-0.7940724026173352
1772548046307660000,10.655659912109375,-0.44303018298149105,1.2178835058659314,-0.8902434968665242
1772548046317698000,10.665697998046875,-0.5643523773610591,0.860620219758153,-0.8447931205511092
1772548046327735300,10.6757353515625,-0.558390254086256,0.43701895986795425,-0.6761945034727453
1772548046337772000,10.68577197265625,-0.3085445556461811,0.12411270188093185,-0.5378431406199932
1772548046347810000,10.69581005859375,-0.12517653172016144,0.06013678105473518,-0.7307406249135732
1772548046357847000,10.705846923828124,-0.22116262479126453,0.2220359004944563,-0.9858657250612973
1772548046367884000,10.715884033203125,-0.3033274055197835,0.3207341751337051,-0.9779279177993535
1772548046377922000,10.725922119140625,-0.3676674834832549,0.2738964361131191,-0.8364017243027687
1772548046387959000,10.735958984375,-0.40630262682586904,0.21479951950013637,-0.6679539138719439
1772548046397996300,10.745996337890626,-0.39223698433339593,0.1492062266051769,-0.6372846348419785
1772548046408034000,10.756033935546874,-0.5457543521359562,0.07031739880740642,-0.7218383565336466
1772548046418071000,10.766071044921874,-0.6232464648783207,0.003251110750436783,-0.7077019868925214
1772548046428108000,10.77610791015625,-0.5350485414654016,-0.10427928964197634,-0.6685892891660332
1772548046438146000,10.78614599609375,-0.4859072016775608,-0.21050153004527092,-0.5834066219210624
1772548046448183000,10.79618310546875,-0.40219928316026926,-0.1947469115525484,-0.23565379921942947
1772548046458220000,10.806219970703125,-0.2720461320713162,-0.11526888568997383,0.007736731731891632
1772548046468258000,10.816258056640624,-0.1496063318386674,-0.06088847620487213,0.0700046795964241
1772548046478295000,10.826294921875,-0.10641659393161534,-0.03653203358352184,0.24799247178882358
1772548046488332000,10.83633203125,-0.06190232942253351,-0.06716624130010604,0.4914946464210748
1772548046498370000,10.8463701171875,-0.027289281202852723,-0.17518880912363527,0.6595622253626585
1772548046508407000,10.856406982421875,-0.11891425645500421,-0.239655143815279,0.6357274685278534
1772548046518444000,10.866444091796875,-0.13554361195564268,-0.2732037776738405,0.5596832165062428
1772548046528482000,10.87648193359375,-0.10753449204564094,-0.30306407840847965,0.49534752245694397
1772548046538519000,10.88651904296875,-0.05034779296815395,-0.29839374850988387,0.4967594350814819
1772548046548556000,10.89655615234375,0.1404325530409813,-0.23640578663051126,0.7142603224948049
1772548046558594000,10.906593994140625,0.3552060613170266,-0.1074620113313198,0.96182083260715
1772548046568631300,10.91663134765625,0.3329752325475216,0.06466156500279903,1.0590616019144654
1772548046578668000,10.92666796875,0.04209434388577938,0.30335224770009517,1.0356187670066952
1772548046588706000,10.9367060546875,-0.12964286347925663,0.49467444550096984,0.9144950178086757
1772548046598743000,10.946742919921874,-0.050120998474955554,0.42423488161861894,0.7965747408270836
1772548046608780000,10.956780029296874,-0.05233399834930896,0.19455401932895183,0.705507399457693
1772548046618818000,10.966818115234375,-0.13822832099497318,0.07076748066246509,0.5217778487429022
1772548046628855000,10.97685498046875,-0.0807400086224079,0.07292144382596015,0.39459173076599835
1772548046638892300,10.986892333984375,-0.02737403687685728,-0.009647533789277076,0.4032251190766692
1772548046648929000,10.996928955078126,-0.02227496017217636,-0.10926993753612041,0.35278555617183444
1772548046658967000,11.006967041015624,-0.061277183261513705,-0.05319675265848636,0.1796127630457282
1772548046669004000,11.017004150390624,-0.16829378891289234,0.09390227253437042,-0.05121551571339369
1772548046679041000,11.027041015625,-0.1209685586363077,0.10652210013270377,-0.055845221340656274
1772548046689079000,11.0370791015625,-0.054469841334223744,-0.06505144110321998,-0.032549978210031985
1772548046699116000,11.047115966796875,0.003465630283951759,-0.12099427759945391,-0.09565700724720955
1772548046709153300,11.0571533203125,0.1262909227028489,-0.08115326559841632,-0.14084960940927266
1772548046719191000,11.06719091796875,0.24575287616848945,-0.11835866839885711,-0.36576018855720754
1772548046729228000,11.07722802734375,0.2502583708941936,-0.09162146812081337,-0.750428198941052
1772548046739265000,11.08726513671875,0.14551044082716105,0.07607026324570179,-1.11412648653239
1772548046749303000,11.097302978515625,0.11782923769727349,0.2608569217979908,-1.3574106344997883
1772548046759340000,11.107340087890625,0.37749651131927964,0.4135580047816038,-1.5445356728717683
1772548046769377000,11.117376953125,0.6395756683886051,0.4915706342667341,-1.500945829731226
1772548046779415000,11.1274150390625,0.6968887703247368,0.4219955782592296,-1.382085057029128
1772548046789452000,11.1374521484375,0.4545245136812329,0.22182897974550722,-1.4418243631988763
1772548046799489000,11.147489013671875,0.36885493970215316,0.08413549627959728,-1.5840052212119102
1772548046809527000,11.157527099609375,0.4761160216338932,-0.03995148663818836,-1.6237603084951637
1772548046819564000,11.16756396484375,0.5150339274406432,-0.18577040889263152,-1.6742340659305452
1772548046829601000,11.17760107421875,0.6086626437306404,-0.2918570402175188,-1.7783526120528577
1772548046839639300,11.187639404296876,0.7338811148963869,-0.24546938305199145,-1.8325050580009816
1772548046849676000,11.197676025390624,0.8700248847022652,-0.20038345613479613,-1.713043689057231
1772548046859713000,11.207713134765624,1.0298901602268218,-0.29659926630854605,-1.513614757168293
1772548046869751000,11.2177509765625,1.111644022066891,-0.4149743013203144,-1.3516753057181834
1772548046879788300,11.227788330078125,0.9387596904933452,-0.5115168592303991,-1.3605389956533909
1772548046889825000,11.237824951171875,0.7686516917653381,-0.6604460224598646,-1.4623895968437195
1772548046899863000,11.247863037109376,0.7951514300256967,-0.871727889227867,-1.509136734971404
1772548046909900300,11.257900390625,0.8849532815039157,-1.1808815166831015,-1.4576087923079728
1772548046919937000,11.26793701171875,0.8058300604283809,-1.4419652329742907,-1.2945453052639961
1772548046929975000,11.27797509765625,0.45377004205211996,-1.3883768506497143,-1.0391133311241865
1772548046940012000,11.288011962890625,-0.03950666548013687,-0.9772598092794418,-0.7014864733785391
1772548046950049300,11.29804931640625,-0.5655453865379094,-0.29082126742899417,-0.4740466680139303
1772548046960087000,11.308087158203126,-1.1099036081403493,0.5811076973289251,-0.42815117827951904
1772548046970124000,11.3181240234375,-1.313359311327338,1.5199024591356516,-0.3442717025876045
1772548046980161000,11.3281611328125,-0.9123976071380078,2.291155711701512,-0.16961305481791494
1772548046990198000,11.338197998046875,-0.4479363674625754,2.2704162905335425,-0.017410569006204604
1772548047000236000,11.348236083984375,-0.3181657859504223,1.4478215577870606,0.04071194961667061
1772548047010273000,11.35827294921875,-0.6127976977087557,0.15029168375432492,-0.03440203581750393
1772548047020310300,11.368310302734375,-0.9243786984413862,-1.0323059891968964,-0.06399754813611506
1772548047030348000,11.37834814453125,-0.5445487757384777,-1.8594272594571113,-0.15503157175779342
1772548047040385000,11.388385009765624,0.1378092918653041,-2.260775186485052,-0.2628349438726902
1772548047050422000,11.398422119140625,0.3702987087696791,-2.3564117354661227,-0.22112696895599365
1772548047060460000,11.4084599609375,0.42370647383034227,-2.0435732820183037,-0.16365794580578802
1772548047070497000,11.4184970703125,0.5622286632053554,-1.2276742475181817,-0.17276304328143596
1772548047080534000,11.428533935546875,0.6831744985532016,-0.18884382498860358,-0.24344693731367587
1772548047090572000,11.438572021484376,0.3560411239016801,0.5549164404958487,-0.39248891326785085
1772548047100609000,11.448609130859374,0.06199965231716632,0.9006383418917655,-0.44700376278758047
1772548047110646000,11.45864599609375,-0.11782741106636821,1.253461015203595,-0.3936164559930563
1772548047120687900,11.46868798828125,-0.7387147455979138,1.5552853226840495,-0.23089432973265647
1772548047130725000,11.47872509765625,-0.8897703263968229,1.5055805037945509,-0.0640524931937456
1772548047140762000,11.48876220703125,0.01044423712491989,1.0854448741883038,0.26317688917815685
1772548047150800000,11.4987998046875,0.16607435929775238,0.48921150391995905,0.8121136707425117
1772548047160836900,11.5088369140625,-0.19500174483014268,0.12019523617625236,1.1025614286839962
1772548047170874000,11.5188740234375,0.06417875905507243,-0.20601006384491918,0.9934259311825037
1772548047180912000,11.528912109375,0.16826690090596674,-0.37271687582731244,0.733200877547264
1772548047190948900,11.538948974609376,-0.5483960988163947,-0.28310148683190345,0.5148766910523176
1772548047200986000,11.548986083984374,-0.5147942734658718,-0.2726800460606813,0.09900222602188587
1772548047211024100,11.559024169921875,-0.4421440477967262,-0.020942250263690947,-0.0869488001346588
1772548047221060900,11.569060791015625,-0.46449846641328185,0.06194295369386672,0.0559749852001667
1772548047231097900,11.579097900390625,-0.4005821668198332,-0.14149755192399024,0.43379765973389145
1772548047241136000,11.58913623046875,-0.14418635261654852,-0.34709260522723195,0.9453928448975085
1772548047251173000,11.599173095703126,0.2623684223394841,-0.6664046386033297,1.49927818877995
1772548047261209900,11.6092099609375,0.3506628649294376,-0.6816267576545476,1.8087205700486897
1772548047271248100,11.619248046875,-0.09978848102875053,-0.31173955229520794,1.826070348778367
1772548047281285000,11.62928515625,-0.4788649915484711,0.27777123171985146,1.8244670052349565
1772548047291322000,11.639322021484375,-0.14985029666237532,0.7406342424184084,1.8754039962679148
1772548047301360000,11.649360107421876,0.18963526762723923,1.0064911644607781,1.993525348779559
1772548047311397000,11.659397216796876,-0.7663724947869778,1.307936117234826,2.225920146203041
1772548047321434000,11.66943408203125,-1.9500234761834143,1.6398434282898902,2.4811124663680793
1772548047331472000,11.679471923828125,-2.515004799097776,1.753868451398611,2.7001263886928557
1772548047341509000,11.689509033203125,-2.338523612076044,1.4826421112775803,2.5849042647540568
1772548047351546000,11.699546142578125,-1.6227227821409702,0.724866179922223,2.1173779384195806
1772548047361583900,11.709583984375,-0.7693629818398505,-0.2294248417019844,1.3928548728466033
1772548047371621000,11.71962109375,0.3047697132825851,-1.0015683211058377,0.5457727645754814
1772548047381658000,11.729658203125,1.3717735063731669,-1.490689808654785,-0.1595937651067972
1772548047391696000,11.73969580078125,1.7506430596113205,-1.5961983478307724,-0.6844055747181177
1772548047401732900,11.74973291015625,1.7583493962049483,-1.4671750775545835,-1.1295990732133387
1772548047411770000,11.75977001953125,1.8823826031088828,-1.0546727193057537,-1.1764286289274692
1772548047421808000,11.76980810546875,2.356599366992712,-0.8496534200638532,-0.9692238023400306
1772548047431844900,11.779844970703126,2.400889759618044,-0.521893876338005,-0.7729805147498846
1772548047441882000,11.789882080078126,1.8483716124355791,-0.055443654802441594,-0.5264695136904716
1772548047451919000,11.799919189453124,1.3760264876425266,0.4018669824659824,-0.2918476878672838
1772548047461956900,11.809956787109375,1.0419874252557755,0.9781021053224801,0.049718847414851185
1772548047471993900,11.819993896484375,0.5756511854887009,1.757452739626169,0.6785550951242446
1772548047482031000,11.830031005859375,0.17110358563661573,2.425824294388294,1.5612047758609056
1772548047492069000,11.840069091796876,-0.2688543502926826,2.819267731902003,2.487039518329501
1772548047502105900,11.85010595703125,-0.8095125483334064,2.781333430305123,3.0540730975985526
1772548047512143000,11.86014306640625,-0.8371791384160518,2.55630711582303,3.116605833879113
1772548047522181000,11.87018115234375,-0.30431144812107086,2.210587552514672,2.748358212420344
1772548047532217900,11.8802177734375,0.318323022338748,1.9060855502575635,2.222352224588394
1772548047542254800,11.8902548828125,1.173075811368227,1.560444897404313,1.8031378014802932
1772548047552293000,11.900293212890626,1.758113249361515,1.2651730803072452,1.5146780024856328
1772548047562330000,11.910330078125,2.1049398971289395,1.005926516315341,1.2737082689404486
1772548047572366800,11.920366943359374,2.737632820266485,0.8336644082933664,1.142269754216075
1772548047582405000,11.930405029296875,3.5501872205138203,0.6069716219037771,0.9496709606081247
1772548047592442000,11.940442138671875,3.826994575637579,0.22659107958078384,0.6042109250187874
1772548047602479000,11.95047900390625,3.4087732552200554,-0.2248836911410093,0.09619242929816245
1772548047612517000,11.96051708984375,2.9021739786475895,-0.6139958214521408,-0.5579004247426986
1772548047622554000,11.97055419921875,1.951053403753042,-0.9478443297028541,-1.570200567743182
1772548047632591000,11.980591064453124,0.6478419769525527,-1.1149503701359034,-3.0872073054373264
1772548047642629000,11.990629150390625,-0.9633492842834442,-1.1579875478297472,-4.749775775754451
1772548047652665000,12.0006650390625,-2.3584084622412917,-1.0699152966231107,-5.665943695211411
1772548047662702000,12.0107021484375,-2.683151873016357,-0.8505354635953902,-5.478320936450362
1772548047672739000,12.020739013671875,-1.5156114839434622,-0.8430787178486585,-5.057822903272509
1772548047682776800,12.03077685546875,0.26837986464872954,-1.1998527591347694,-4.456144711601734
1772548047692814000,12.04081396484375,1.230561639522761,-1.4490321026206017,-3.9516596507042645
1772548047702851000,12.05085107421875,1.5864759952396152,-1.5525462531089782,-3.6115661105841395
1772548047712888800,12.060888916015625,1.6802385670423508,-1.3720306960046291,-3.422923945647478
1772548047722926000,12.070926025390625,1.2267775909394025,-1.0511328547418117,-3.5985879710674284
1772548047732963000,12.080963134765625,0.568743744187802,-1.265951078942418,-3.936718102160096
1772548047743001000,12.0910009765625,-0.03136719816625118,-1.109396827661991,-4.049690401345491
1772548047753037800,12.101037841796876,-0.5284241548895836,-0.9083090226501226,-3.5870682136654852
1772548047763075000,12.111074951171876,-1.0807160921007395,-0.6638713207334279,-2.288731699424982
1772548047773113000,12.121113037109374,-1.8392526325650511,-0.31743922524154183,-0.5346516511023044
1772548047783150000,12.131150146484375,-2.626124163892865,-0.12639175272881983,1.0283049368619919
1772548047793187000,12.14118701171875,-3.1048692188560962,-0.1340402216553688,2.329004673102498
1772548047803225000,12.15122509765625,-3.326678324857354,-0.10332067374289035,3.290005421498418
1772548047813262000,12.161261962890626,-3.865882816958427,0.46610301553308964,3.900712722799182
1772548047823298800,12.171298828125,-4.519977424564957,1.386279586109519,4.223262422922254
1772548047833337000,12.181337158203124,-5.427900078245997,2.593382170242071,4.837728784495591
1772548047843374000,12.1913740234375,-6.101697165188193,3.2329017245292664,5.514141606894135
1772548047853411000,12.2014111328125,-5.530669547846913,3.0779204216539857,6.160891696956753
1772548047863449000,12.211448974609375,-4.965101949477195,3.192041890874505,7.052014022484421
1772548047873486000,12.221486083984376,-3.3214073987171053,3.1471845120161768,7.273479429614543
1772548047883523000,12.231523193359376,-0.5765361516296863,2.891264462098479,6.780922122398018
1772548047893561000,12.24156103515625,2.3766174881488085,2.3382424570471048,5.201243532213568
1772548047903598000,12.25159814453125,3.6223034854367375,1.3610767557919026,3.2113264370590446
1772548047913635000,12.261635009765625,3.460894779862463,0.03266308319568634,0.9342606255084276
1772548047923672800,12.2716728515625,2.0399325874283907,-1.5064467652350664,-1.7773253148317336
1772548047933710000,12.2817099609375,-0.0214671509206295,-3.206534526607394,-3.835093710941076
1772548047943747000,12.2917470703125,-0.8605693663537501,-4.439741273811459,-3.943081207451224
1772548047953784800,12.301784912109374,0.17675035935193298,-5.6496542391896245,-3.399678094616532
1772548047963823000,12.311822998046875,3.0024037006378173,-5.9116690988510845,-1.8701520670890808
1772548047973860900,12.32186083984375,5.846019691854715,-6.223413911843299,-0.8815016797453165
1772548047983897900,12.33189794921875,7.765198532441258,-6.664992726972699,-0.06942366483807563
1772548047993935000,12.34193505859375,8.806644105905294,-6.922187619131803,0.5175374346941709
1772548048003973000,12.35197314453125,8.902224540784955,-6.8203469548135995,0.5844657755851745
1772548048014009900,12.362009765625,7.154690553104877,-6.5593649453312155,0.31100422375798226
1772548048024047000,12.372047119140625,4.109070811074972,-6.842251912629604,-0.14429974986314772
1772548048034085000,12.382085205078125,1.581094302201271,-7.42634125611782,-0.9200649268954991
1772548048044121900,12.392121826171875,1.1853782435804605,-6.4492404367923735,-2.138619463890791
1772548048054158800,12.402158935546876,1.1794956152826548,-2.9724715037107465,-3.1350013222694395
1772548048064197000,12.412197021484374,-3.0863059726834297,3.4370109231889248,-3.591072773131728
1772548048074234000,12.422234130859374,-9.648794018471241,11.496806734466553,-4.000073260739446
1772548048084270800,12.432270751953125,-10.558456209295988,11.322111846339702,-3.2487346689552066
1772548048094308000,12.44230810546875,-5.610248695996403,10.64590185303688,-2.3072037601828574
1772548048104346000,12.45234619140625,-3.1495500721037386,9.67208780029714,-0.7700485529512167
1772548048114378800,12.462378662109375,-3.7949914176553485,8.700242417281865,0.8946253652125596
1772548048124416500,12.47241650390625,-4.9462727458447215,8.008785755008459,2.310138060069084
1772548048134453500,12.48245361328125,-5.260310053688287,7.206538813763856,3.2960055386960505
1772548048144490800,12.49249072265625,-4.42673975341916,5.683029270046949,3.9816578986048694
1772548048154527700,12.50252783203125,-3.2897225129038095,3.0454864710390566,3.65004051040709
1772548048164565500,12.5125654296875,-3.281726253452897,0.23588673119246958,2.4644781424313784
1772548048174602800,12.522602783203125,-3.372144775524735,-1.2166413968503476,1.2148171040326357
1772548048184640800,12.532640869140625,-2.055895003452897,-1.914928197404742,0.039591421154141423
1772548048194677500,12.542677490234375,-0.12330723071694373,-2.085200008392334,-0.5552390965789556
1772548048204714500,12.552714599609375,1.5468910038262604,-2.6645342663079497,-0.7040595387369394
1772548048214751700,12.562751708984376,2.594513804620504,-2.9107793099075554,-0.5538783296197652
1772548048224789500,12.57278955078125,2.7106735016703603,-2.952448121857643,-0.43481589686572547
1772548048234826500,12.582826416015624,2.5638743362069127,-2.890352023428678,-0.6489291876673698
1772548048244863700,12.59286376953125,2.3385019847661255,-2.511372580075264,-0.9651812489509582
1772548048254901800,12.60290185546875,2.312650335150957,-2.170035177373886,-1.2335551222503185
1772548048264938500,12.6129384765625,2.667897020739317,-1.8143623753279448,-1.2630436670631169
1772548048274975500,12.6229755859375,2.8172265814632174,-1.3084201013594865,-0.7842407444328069
1772548048285013800,12.633013671875,2.428433600103855,-0.7571043157041072,-0.013370353704690932
1772548048295050500,12.643050537109374,1.5313813000053167,-0.06368775153458119,0.6987789679855108
