time,seconds_elapsed,z,y,x
1772548035738410200,0.08641015625,-0.27270111441612244,-0.19343364238739014,-0.08728816360235214
1772548035748447200,0.096447265625,-0.3039802312850952,-0.21745988726615906,-0.3048010468482971
1772548035758484200,0.106484130859375,-0.30612778663635254,-0.19942280650138855,-0.5258939266204834
1772548035768522200,0.116522216796875,-0.2240734100341797,-0.019118012860417366,-0.7043555378913879
1772548035778559200,0.126559326171875,-0.08421885222196579,0.21196399629116058,-0.8190231919288635
1772548035788596200,0.13659619140625,0.05747516453266144,0.4161253571510315,-0.8914864659309387
1772548035798633200,0.14663330078125,0.18684807419776917,0.4043669104576111,-0.90876704454422
1772548035808670000,0.156669921875,0.22783145308494568,0.2068200409412384,-0.8489676117897034
1772548035818707200,0.166707275390625,0.15252898633480072,0.13316956162452698,-0.7888438701629639
1772548035828745200,0.1767451171875,0.16357950866222382,0.4604185223579407,-0.8796113133430481
1772548035838782000,0.186781982421875,0.28020572662353516,0.9299874901771545,-1.2319676876068115
1772548035848819200,0.196819091796875,0.3833126723766327,1.604207992553711,-1.5899587869644165
1772548035858856200,0.206856201171875,0.39141401648521423,2.39300274848938,-1.7555391788482666
1772548035868893200,0.21689306640625,0.2658025622367859,2.9442996978759766,-1.73622727394104
1772548035878931000,0.226930908203125,0.18973281979560852,2.761505365371704,-1.5115625858306885
1772548035888968200,0.23696826171875,-0.044030942022800446,2.3373124599456787,-1.152491807937622
1772548035899005200,0.247005126953125,-0.2395450472831726,2.0506699085235596,-0.9995882511138916
1772548035909042200,0.257042236328125,-0.39635756611824036,2.041102170944214,-1.0976855754852295
1772548035919079200,0.2670791015625,-0.6050886511802673,2.285830497741699,-1.2600260972976685
1772548035929117200,0.2771171875,-0.9465386867523193,2.514180898666382,-1.1127078533172607
1772548035939154200,0.287154296875,-1.1841262578964233,2.5872957706451416,-0.7290892004966736
1772548035949191200,0.297191162109375,-1.2765917778015137,2.1434247493743896,-0.30774760246276855
1772548035959228200,0.307228271484375,-1.228919506072998,1.498777151107788,0.03197963163256645
1772548035969265200,0.31726513671875,-1.112534999847412,1.0794848203659058,0.14654776453971863
1772548035979302100,0.32730224609375,-1.01986563205719,1.3073625564575195,0.06538879126310349
1772548035989340200,0.337340087890625,-0.7350026965141296,1.6681058406829834,-0.26485514640808105
1772548035999377200,0.347377197265625,-0.43770793080329895,2.057701587677002,-0.5383592247962952
1772548036009414100,0.3574140625,-0.2145504653453827,2.318577289581299,-0.4365692138671875
1772548036019451100,0.367451171875,0.013980711810290813,2.212829113006592,0.02145317755639553
1772548036029488000,0.377488037109375,-0.017494123429059982,1.698620080947876,0.5761440396308899
1772548036039526100,0.387526123046875,-0.008169062435626984,0.7828620076179504,0.9562021493911743
1772548036049563100,0.397563232421875,0.049222856760025024,-1.007540225982666,1.3074896335601807
1772548036059600100,0.40760009765625,0.10241923481225967,-2.1130404472351074,1.113633394241333
1772548036069637000,0.41763720703125,0.3651840090751648,-2.2877144813537598,0.49393975734710693
1772548036079674400,0.42767431640625,0.6476846933364868,-1.937986969947815,-0.046518560498952866
1772548036089711000,0.437711181640625,0.7286950945854187,-1.211815595626831,-0.37083005905151367
1772548036099749600,0.44774951171875,0.8293277025222778,-0.3511877954006195,-0.5873287320137024
1772548036109786600,0.45778662109375,0.8550668954849243,0.4366069436073303,-0.7808510661125183
1772548036119823600,0.46782373046875,0.795908510684967,0.9437643885612488,-1.2065929174423218
1772548036129860600,0.477860595703125,0.6630090475082397,1.2339493036270142,-1.8064558506011963
1772548036139897600,0.487897705078125,0.261201411485672,1.4225952625274658,-2.4021899700164795
1772548036149935600,0.497935546875,-0.2532792389392853,1.7799626588821411,-2.7789957523345947
1772548036159972600,0.50797265625,-0.8362211585044861,1.7376022338867188,-2.9708750247955322
1772548036170009600,0.518009521484375,-1.3292018175125122,1.4828578233718872,-2.9153058528900146
1772548036180046600,0.528046630859375,-1.6505452394485474,1.1211434602737427,-2.739546537399292
1772548036190083800,0.538083740234375,-1.7672290802001953,0.5999904870986938,-2.6217708587646484
1772548036200121600,0.54812158203125,-1.6114332675933838,0.2869012951850891,-2.621269464492798
1772548036210158600,0.55815869140625,-1.3151286840438843,0.3610548973083496,-2.8260085582733154
1772548036220195800,0.56819580078125,-1.0892348289489746,0.7965521216392517,-3.1681833267211914
1772548036230232800,0.57823291015625,-1.2482571601867676,1.3187143802642822,-3.6591150760650635
1772548036240269600,0.58826953125,-1.664975643157959,1.8129804134368896,-4.205441951751709
1772548036250307600,0.5983076171875,-2.0546767711639404,2.113389730453491,-4.809178352355957
1772548036260344800,0.6083447265625,-2.4392921924591064,1.8826676607131958,-5.326639652252197
1772548036270381600,0.618381591796875,-2.841914653778076,1.0313820838928223,-5.39036750793457
1772548036280418600,0.62841845703125,-3.1764938831329346,-0.20522762835025787,-4.973005294799805
1772548036290455600,0.63845556640625,-3.383880376815796,-1.5648080110549927,-4.299249649047852
1772548036300492800,0.648492919921875,-3.3299992084503174,-2.3603200912475586,-3.680551290512085
1772548036310530600,0.658530517578125,-3.217210531234741,-2.376898765563965,-3.530979871749878
1772548036320567600,0.668567626953125,-3.1332967281341553,-1.6296217441558838,-3.802989959716797
1772548036330604500,0.6786044921875,-3.1412229537963867,-0.3677734434604645,-4.321041584014893
1772548036340641800,0.688641845703125,-3.1607418060302734,1.0133415460586548,-5.037606239318848
1772548036350679600,0.698679443359375,-3.1399874687194824,2.051229953765869,-5.762463569641113
1772548036360716500,0.708716552734375,-3.070523977279663,2.474621295928955,-6.1684746742248535
1772548036370753800,0.71875390625,-2.9490017890930176,2.273442029953003,-6.06390380859375
1772548036380790800,0.728790771484375,-2.741262435913086,1.7616521120071411,-5.49000883102417
1772548036390827800,0.738827880859375,-2.3830184936523438,1.3723030090332031,-4.678831100463867
1772548036400865500,0.748865478515625,-1.9686702489852905,1.2003014087677002,-4.0210394859313965
1772548036410902800,0.75890283203125,-1.5821154117584229,1.2943168878555298,-3.745384454727173
1772548036420939800,0.768939697265625,-1.2040692567825317,1.6817395687103271,-3.7357876300811768
1772548036430976500,0.7789765625,-0.8930397033691406,2.1007392406463623,-3.8074116706848145
1772548036441013500,0.789013427734375,-0.5603333711624146,2.3868138790130615,-3.8532652854919434
1772548036451050800,0.79905078125,-0.13808897137641907,2.506072998046875,-3.829709768295288
1772548036461088800,0.8090888671875,0.3859092891216278,2.644756555557251,-3.5948126316070557
1772548036471125500,0.81912548828125,0.9760125279426575,2.5748579502105713,-3.277907371520996
1772548036481162500,0.82916259765625,1.4297515153884888,2.4538984298706055,-2.9660205841064453
1772548036491199700,0.83919970703125,1.7858524322509766,2.2536842823028564,-2.690032482147217
1772548036501236700,0.84923681640625,2.0449256896972656,2.103671073913574,-2.495901584625244
1772548036511274500,0.8592744140625,2.2752878665924072,2.1368601322174072,-2.3115649223327637
1772548036521311700,0.869311767578125,2.3600194454193115,2.939290761947632,-1.4771004915237427
1772548036531348700,0.8793486328125,2.3959639072418213,3.393108367919922,-0.5087116956710815
1772548036541385700,0.8893857421875,2.4021809101104736,3.441235065460205,0.10033398866653442
1772548036551423500,0.899423583984375,2.5275847911834717,3.3009090423583984,0.4915499687194824
1772548036561460700,0.909460693359375,2.6452343463897705,2.898221731185913,0.8194434642791748
1772548036571497700,0.919497802734375,2.8570146560668945,2.4512338638305664,1.1432769298553467
1772548036581534700,0.92953466796875,3.0912537574768066,1.9943976402282715,1.4279396533966064
1772548036591571500,0.939571533203125,3.334860324859619,1.6632274389266968,1.539652705192566
1772548036601609700,0.949609619140625,3.564743757247925,1.54410719871521,1.4469733238220215
1772548036611646700,0.959646728515625,3.7729690074920654,1.4475244283676147,1.193047046661377
1772548036621683700,0.96968359375,3.679502010345459,1.338273286819458,0.8414736390113831
1772548036631720400,0.979720458984375,3.287724256515503,1.1815904378890991,0.6382691264152527
1772548036641757700,0.9897578125,3.184910535812378,1.0630524158477783,0.7644908428192139
1772548036651795700,0.999795654296875,3.075894832611084,0.7163175940513611,0.7979207038879395
1772548036661832400,1.00983251953125,2.475346803665161,0.13213206827640533,0.5724256038665771
1772548036671869700,1.01986962890625,1.6939167976379395,-0.15497399866580963,0.3429660499095917
1772548036681906700,1.02990673828125,1.1704297065734863,-0.3320135176181793,0.18984387814998627
1772548036691943700,1.039943603515625,0.9684967994689941,-0.6656324863433838,0.261872798204422
1772548036701981400,1.0499814453125,0.9234102964401245,-1.2080740928649902,0.5260701179504395
1772548036712018700,1.060018798828125,0.7633572816848755,-1.8150795698165894,0.6499590873718262
1772548036722055700,1.0700556640625,0.6420190930366516,-2.381822109222412,0.4962488114833832
1772548036732092700,1.0800927734375,0.7369322776794434,-2.7409749031066895,0.33537018299102783
1772548036742130700,1.090130615234375,1.2381404638290405,-2.726274013519287,0.1087065264582634
1772548036752167700,1.100167724609375,1.5789921283721924,-2.4174134731292725,-0.08698255568742752
1772548036762204700,1.11020458984375,1.718385934829712,-2.051389694213867,-0.2505122423171997
1772548036772241700,1.12024169921875,1.5872915983200073,-1.4817583560943604,-0.4553740620613098
1772548036782278700,1.130278564453125,1.3704900741577148,-0.837311863899231,-0.6880468130111694
1772548036792316700,1.140316650390625,1.0545949935913086,-0.6566377282142639,-0.7636025547981262
1772548036802353700,1.150353759765625,0.8203930854797363,-0.9637901186943054,-0.5720490217208862
1772548036812390700,1.160390625,0.8268759846687317,-1.2365307807922363,-0.42967483401298523
1772548036822427600,1.170427734375,0.8047773838043213,-1.3835340738296509,-0.23764491081237793
1772548036832464600,1.180464599609375,0.6028727889060974,-1.297813057899475,0.06220651790499687
1772548036842502700,1.190502685546875,0.5716922283172607,-0.7892293930053711,0.14717218279838562
1772548036852539600,1.20053955078125,0.6909805536270142,-0.33229488134384155,0.06827976554632187
1772548036862576600,1.21057666015625,0.7316927909851074,-0.16042983531951904,0.018941715359687805
1772548036872613600,1.220613525390625,0.47823232412338257,-0.14128756523132324,0.1684158891439438
1772548036882650600,1.230650634765625,0.13438597321510315,0.022106559947133064,0.3647848963737488
1772548036892688600,1.240688720703125,-0.24109522998332977,0.24384933710098267,0.45967066287994385
1772548036902725600,1.2507255859375,-0.6450059413909912,0.34001222252845764,0.5038778781890869
1772548036912762600,1.2607626953125,-1.0692138671875,0.08639460057020187,0.5871258974075317
1772548036922799600,1.270799560546875,-1.4329426288604736,-0.03998411074280739,0.6462827324867249
1772548036932837600,1.280837646484375,-1.8409407138824463,0.14855144917964935,0.5951744914054871
1772548036942874600,1.29087451171875,-2.3055319786071777,0.13789546489715576,0.2794407308101654
1772548036952911600,1.30091162109375,-2.2553930282592773,0.05954207107424736,0.10855821520090103
1772548036962948600,1.310948486328125,-2.389251232147217,-0.06684348732233047,-0.01261586882174015
1772548036972985900,1.32098583984375,-2.1685128211975098,-0.11189485341310501,-0.05547545105218887
1772548036983023600,1.331023681640625,-1.737387776374817,0.22429348528385162,-0.11796922981739044
1772548036993060600,1.341060546875,-1.3966126441955566,0.43489518761634827,-0.2331240475177765
1772548037003097900,1.351097900390625,-1.1030592918395996,0.5477489829063416,-0.2954660654067993
1772548037013134600,1.361134521484375,-0.754411518573761,0.6070605516433716,-0.3601164221763611
1772548037023172600,1.371172607421875,-0.3405328392982483,0.5970295071601868,-0.3919292092323303
1772548037033209600,1.381209716796875,0.05875195190310478,0.40314045548439026,-0.3557424247264862
1772548037043246800,1.391246826171875,0.3081386089324951,0.3827720582485199,-0.3518800735473633
1772548037053283600,1.40128369140625,0.3409178555011749,0.31722554564476013,-0.4216215908527374
1772548037063320600,1.411320556640625,0.24111004173755646,0.253720223903656,-0.5103989839553833
1772548037073358600,1.421358642578125,0.22287483513355255,0.22648219764232635,-0.4705757200717926
1772548037083395800,1.431395751953125,0.24272549152374268,0.20950978994369507,-0.35932639241218567
1772548037093432600,1.4414326171875,0.4063362777233124,0.4391155540943146,-0.3369736969470978
1772548037103469800,1.4514697265625,0.7316083908081055,0.7263542413711548,-0.43181154131889343
1772548037113507000,1.461507080078125,1.1784948110580444,0.8540189862251282,-0.5331712365150452
1772548037123544800,1.471544921875,1.6972692012786865,0.7834247946739197,-0.6384758353233337
1772548037133581800,1.481581787109375,2.290104389190674,0.6465793251991272,-0.7344591021537781
1772548037143619000,1.491619140625,2.8023667335510254,0.7617117762565613,-0.8228234648704529
1772548037153656000,1.501656005859375,3.051420211791992,1.2124545574188232,-0.8572877049446106
1772548037163693800,1.51169384765625,2.806995153427124,1.7742995023727417,-0.6988641619682312
1772548037173730800,1.521730712890625,2.544924259185791,1.9427568912506104,-0.6066998839378357
1772548037183768000,1.53176806640625,2.621098756790161,1.8132944107055664,-0.7039673328399658
1772548037193805000,1.54180517578125,2.580195903778076,0.9986526370048523,-0.650533139705658
1772548037203842000,1.551842041015625,2.531287908554077,0.21694634854793549,-0.6746970415115356
1772548037213880000,1.561880126953125,2.1732077598571777,-0.2417333424091339,-0.9688946008682251
1772548037223917000,1.5719169921875,1.460498571395874,-0.7045485377311707,-1.082102656364441
1772548037233954000,1.5819541015625,0.6518440246582031,-0.9898172616958618,-0.8862484693527222
1772548037243990800,1.59199072265625,0.00004017725586891174,-0.8724986910820007,-0.7057415246963501
1772548037254029000,1.602029052734375,-0.3406369984149933,-0.5790942311286926,-0.6678692102432251
1772548037264066000,1.612066162109375,-0.5615381598472595,-0.27583807706832886,-0.619663655757904
1772548037274103000,1.62210302734375,-0.692111611366272,-0.02855665050446987,-0.4819638133049011
1772548037284139800,1.632139892578125,-0.32988208532333374,0.05460570380091667,-0.4529401659965515
1772548037294177000,1.642177001953125,0.2045019567012787,-0.19150766730308533,-0.4912097752094269
1772548037304215000,1.652215087890625,0.6096848845481873,-0.3921445906162262,-0.5094766616821289
1772548037314251800,1.662251708984375,0.8331177234649658,-0.47045668959617615,-0.5121656656265259
1772548037324288800,1.672288818359375,0.796886682510376,-0.4316790997982025,-0.35811206698417664
1772548037334326000,1.682325927734375,0.4863429665565491,-0.32651302218437195,-0.09205639362335205
1772548037344364000,1.692364013671875,0.11457499116659164,-0.32228678464889526,0.19863925874233246
1772548037354400800,1.70240087890625,0.20473924279212952,-0.842642605304718,0.4339582920074463
1772548037364438000,1.71243798828125,0.37510591745376587,-1.6548231840133667,0.6891825199127197
1772548037374475000,1.72247509765625,0.41756948828697205,-2.234166145324707,0.9062207937240601
1772548037384512000,1.732511962890625,0.2968105971813202,-2.4394776821136475,1.066168189048767
1772548037394549800,1.7425498046875,-0.05199560523033142,-2.3757097721099854,1.2156530618667603
1772548037404587000,1.7525869140625,-0.5795859098434448,-2.167790174484253,1.3280633687973022
1772548037414624000,1.7626240234375,-1.1789500713348389,-1.7878265380859375,1.3100281953811646
1772548037424661000,1.772660888671875,-1.8102238178253174,-1.1564826965332031,1.1572251319885254
1772548037434699000,1.782698974609375,-2.232088327407837,-0.3056085705757141,1.0225070714950562
1772548037444736000,1.792736083984375,-2.4454638957977295,-0.07764048129320145,1.0896846055984497
1772548037454773000,1.80277294921875,-2.031074285507202,-0.20258668065071106,1.298905372619629
1772548037464810000,1.81281005859375,-1.265092372894287,-0.4831128418445587,1.2979567050933838
1772548037474848000,1.822847900390625,-0.6444644927978516,-0.7385411262512207,1.3089568614959717
1772548037484885000,1.832885009765625,-0.38428646326065063,-1.1029232740402222,1.3315314054489136
1772548037494922000,1.842921875,-0.3739299476146698,-1.193773627281189,1.281192660331726
1772548037504959000,1.852958984375,-0.5484527349472046,-0.616843581199646,1.0381125211715698
1772548037514996000,1.862995849609375,-0.9020225405693054,0.13227809965610504,0.624824047088623
1772548037525034000,1.873033935546875,-1.3478459119796753,0.7802034616470337,0.18895696103572845
1772548037535071000,1.883071044921875,-1.7353839874267578,1.2728302478790283,-0.17228566110134125
1772548037545108000,1.89310791015625,-2.0615599155426025,1.4062873125076294,-0.4324858784675598
1772548037555145000,1.90314501953125,-2.2022640705108643,1.0925089120864868,-0.5821794867515564
1772548037565183000,1.913182861328125,-2.294304847717285,0.9980511665344238,-0.597531259059906
1772548037575220000,1.923219970703125,-2.5002806186676025,0.6354327201843262,-0.4542558491230011
1772548037585257000,1.933257080078125,-2.7342424392700195,0.34108996391296387,-0.276176780462265
1772548037595294000,1.9432939453125,-2.7357819080352783,0.37705036997795105,-0.15104469656944275
1772548037605332000,1.95333203125,-2.3609414100646973,0.5677818059921265,-0.15484511852264404
1772548037615369000,1.963368896484375,-1.7709025144577026,0.5885049104690552,-0.34481585025787354
1772548037625406000,1.973406005859375,-1.2009179592132568,0.6318570375442505,-0.5867879390716553
1772548037635443000,1.98344287109375,-0.5609994530677795,0.5542818307876587,-0.7837848663330078
1772548037645480000,1.99347998046875,-0.008618293330073357,0.57259202003479,-0.8959088921546936
1772548037655518000,2.00351806640625,0.2855086624622345,0.6682569980621338,-0.849919319152832
1772548037665555000,2.013554931640625,0.3207247257232666,0.6321446299552917,-0.6656167507171631
1772548037675592000,2.023592041015625,0.23342657089233398,0.43619483709335327,-0.4757402539253235
1772548037685629000,2.03362890625,0.09145025163888931,0.27739617228507996,-0.26349592208862305
1772548037695667000,2.0436669921875,-0.2062128633260727,0.0851670578122139,-0.06239262968301773
1772548037705704000,2.053703857421875,-0.630964457988739,-0.03258364647626877,0.07182084769010544
1772548037715741000,2.063740966796875,-0.8430388569831848,-0.015944480895996094,0.22263354063034058
1772548037725778000,2.07377783203125,-0.9490052461624146,-0.05648108199238777,0.3459513187408447
1772548037735816000,2.08381591796875,-1.0467898845672607,-0.19456999003887177,0.46099454164505005
1772548037745853000,2.09385302734375,-1.1393554210662842,-0.5608463287353516,0.6214457750320435
1772548037755890000,2.103889892578125,-1.2419755458831787,-1.101406455039978,0.7513896822929382
1772548037765927000,2.113927001953125,-1.2586981058120728,-1.6727474927902222,0.8142644762992859
1772548037775965000,2.12396484375,-1.1786450147628784,-2.0142648220062256,0.7616830468177795
1772548037786002000,2.134001953125,-1.1409573554992676,-1.9716752767562866,0.5138604044914246
1772548037796039000,2.144038818359375,-1.220265507698059,-1.759588360786438,0.18982213735580444
1772548037806076200,2.154076171875,-1.5057605504989624,-1.5867342948913574,-0.10721691697835922
1772548037816113000,2.16411279296875,-1.8911360502243042,-1.5141417980194092,-0.31249046325683594
1772548037826151000,2.17415087890625,-2.3507328033447266,-1.7598596811294556,-0.5683803558349609
1772548037836188000,2.18418798828125,-2.7148635387420654,-2.747786045074463,-1.0946934223175049
1772548037846225000,2.194224853515625,-2.5454213619232178,-3.9675800800323486,-1.3479011058807373
1772548037856262000,2.204261962890625,-2.5535025596618652,-3.156963348388672,-0.2339717149734497
1772548037866300000,2.2142998046875,-2.514460563659668,-3.0518977642059326,0.6519131660461426
1772548037876337200,2.224337158203125,-1.8527289628982544,-3.6701743602752686,0.6845493912696838
1772548037886374000,2.234373779296875,-1.3061209917068481,-3.118391752243042,0.27699363231658936
1772548037896411000,2.244410888671875,-1.0672423839569092,-1.7658789157867432,-0.2515794038772583
1772548037906449000,2.254448974609375,-0.7038425803184509,-0.6769096851348877,-0.6197671294212341
1772548037916486100,2.264486083984375,-0.3708318769931793,-0.06980857253074646,-0.744404137134552
1772548037926523000,2.27452294921875,-0.045688167214393616,0.6713594198226929,-0.7496870160102844
1772548037936559900,2.284559814453125,0.15710249543190002,1.5864180326461792,-0.9015734791755676
1772548037946598100,2.29459814453125,0.4690127372741699,2.1484286785125732,-0.8985059857368469
1772548037956635000,2.304634765625,1.2126981019973755,0.5250513553619385,-0.6039334535598755
1772548037966672000,2.314671875,1.174739956855774,-0.2849055826663971,0.13361331820487976
1772548037976708900,2.324708984375,0.46980661153793335,0.026927411556243896,0.7997213006019592
1772548037986747100,2.3347470703125,-0.050102345645427704,0.3602849245071411,0.7393090128898621
1772548037996783900,2.344783935546875,-0.10851985216140747,0.7203749418258667,0.31982842087745667
1772548038006820900,2.35482080078125,-0.07166435569524765,0.9805588722229004,-0.08343491703271866
1772548038016857900,2.36485791015625,-0.11938980221748352,1.0579156875610352,-0.2464776337146759
1772548038026896000,2.374895751953125,-0.05572374910116196,0.978306233882904,-0.18064574897289276
1772548038036932900,2.384932861328125,0.14414648711681366,0.8972837924957275,0.029202017933130264
1772548038046969900,2.394969970703125,0.20267318189144135,0.7409506440162659,0.14994975924491882
1772548038057006800,2.4050068359375,0.17647381126880646,0.7270923256874084,0.20888391137123108
1772548038067044000,2.415044189453125,0.16710586845874786,0.8272403478622437,0.18392819166183472
1772548038077081900,2.425081787109375,0.10891100764274597,0.7588501572608948,0.09863460808992386
1772548038087118800,2.435118896484375,0.11084099858999252,0.7567445635795593,0.07434247434139252
1772548038097156000,2.445156005859375,0.19780811667442322,0.7786046266555786,0.05979495495557785
1772548038107192600,2.455192626953125,0.2757793366909027,0.6419643759727478,0.01258944533765316
1772548038117230300,2.465230224609375,0.2343328446149826,0.30371949076652527,-0.0769878402352333
1772548038127267600,2.475267578125,0.18139904737472534,0.12985597550868988,0.009557194076478481
1772548038137304600,2.4853046875,-0.01975375972688198,-0.2134380042552948,0.09383638948202133
1772548038147341600,2.495341552734375,-0.07501594722270966,-0.39857831597328186,0.23656317591667175
1772548038157379600,2.505379638671875,-0.06660861521959305,-0.42948243021965027,0.2942477762699127
1772548038167416600,2.51541650390625,-0.14548878371715546,-0.549078643321991,0.16449134051799774
1772548038177453600,2.52545361328125,-0.3126133382320404,-0.7014852166175842,-0.06196044385433197
1772548038187490600,2.535490478515625,-0.4751124978065491,-0.6813938021659851,-0.25042521953582764
1772548038197528600,2.545528564453125,-0.5422853827476501,-0.5563022494316101,-0.32987239956855774
1772548038207565600,2.555565673828125,-0.4509110152721405,-0.4255424737930298,-0.2848668098449707
1772548038217602600,2.5656025390625,-0.35670992732048035,-0.37140119075775146,-0.2070380598306656
1772548038227639600,2.5756396484375,-0.24116523563861847,-0.21467003226280212,-0.10344255715608597
1772548038237677600,2.585677490234375,-0.08270476013422012,0.13134676218032837,0.02591490000486374
1772548038247714600,2.595714599609375,0.033221036195755005,0.2684799134731293,0.11500842124223709
1772548038257751600,2.60575146484375,0.043580204248428345,0.21931102871894836,0.12800250947475433
1772548038267788300,2.615788330078125,-0.027084913104772568,0.30997124314308167,0.09572740644216537
1772548038277826600,2.62582666015625,-0.0006730128079652786,0.690218448638916,0.09446320682764053
1772548038287863600,2.635863525390625,0.046551767736673355,0.9710403680801392,0.09465406835079193
1772548038297900500,2.645900634765625,0.041971396654844284,0.9224728345870972,0.0741967260837555
1772548038307937500,2.6559375,0.07089172303676605,0.6538403034210205,0.07337094098329544
1772548038317975600,2.6659755859375,0.15089522302150726,0.3037843108177185,0.062626414000988
1772548038328012500,2.676012451171875,0.29477009177207947,0.08496066182851791,0.09716089814901352
1772548038338049500,2.686049560546875,0.3084920346736908,0.12995636463165283,0.17179305851459503
1772548038348086500,2.69608642578125,0.13002562522888184,0.3713477551937103,0.39987653493881226
1772548038358124500,2.70612451171875,-0.22806833684444427,0.12520164251327515,0.671108067035675
1772548038368161500,2.71616162109375,-0.33835092186927795,-0.5914503335952759,0.6871933341026306
1772548038378198500,2.726198486328125,-0.14527039229869843,-0.9909268617630005,0.5075135827064514
1772548038388235500,2.736235595703125,-0.10486678034067154,-0.909765362739563,0.3337976038455963
1772548038398273500,2.7462734375,-0.24462175369262695,-0.6866880655288696,0.2194766253232956
1772548038408310500,2.756310546875,-0.15294350683689117,-0.4307430684566498,-0.014555877074599266
1772548038418347500,2.766347412109375,0.14566422998905182,-0.33787649869918823,-0.4154926538467407
1772548038428384500,2.776384521484375,0.5876277685165405,-0.4662851393222809,-0.7182883024215698
1772548038438422500,2.786422607421875,1.1418358087539673,-0.34710443019866943,-0.6272795796394348
1772548038448459500,2.79645947265625,1.6133192777633667,0.265339195728302,-0.35560864210128784
1772548038458496500,2.80649658203125,1.734724521636963,0.882289469242096,0.00896638073027134
1772548038468533500,2.816533447265625,1.324286699295044,1.4217174053192139,0.13409653306007385
1772548038478571500,2.826571533203125,0.5929093956947327,1.4382058382034302,-0.07277620583772659
1772548038488608500,2.8366083984375,-0.15689483284950256,0.9490070939064026,-0.35570228099823
1772548038498645500,2.8466455078125,-0.9932829737663269,0.3366672098636627,-0.6258312463760376
1772548038508682500,2.8566826171875,-1.8606473207473755,-0.08626136183738708,-0.8517323732376099
1772548038518720500,2.866720458984375,-2.592507839202881,-0.049914002418518066,-0.9277104735374451
1772548038528757500,2.876757568359375,-3.164281129837036,0.42585957050323486,-0.9600618481636047
1772548038538794500,2.88679443359375,-3.6001193523406982,1.0967167615890503,-1.079451322555542
1772548038548832500,2.89683251953125,-3.767127275466919,1.8975236415863037,-1.153877854347229
1772548038558869500,2.906869384765625,-3.964285373687744,2.530242919921875,-1.2071788311004639
1772548038568906500,2.916906494140625,-3.7750651836395264,2.926008462905884,-1.3017101287841797
1772548038578943500,2.926943603515625,-3.2482948303222656,3.1001110076904297,-1.325244426727295
1772548038588981500,2.9369814453125,-2.8298966884613037,2.8823277950286865,-1.3703444004058838
1772548038599018500,2.9470185546875,-3.1286725997924805,2.2846992015838623,-1.5157630443572998
1772548038609055500,2.957055419921875,-3.9187211990356445,1.755399227142334,-1.6144098043441772
1772548038619092500,2.967092529296875,-4.66158390045166,1.8957816362380981,-1.3742419481277466
1772548038629130500,2.977130615234375,-4.70686674118042,2.568810224533081,-0.7912260293960571
1772548038639167500,2.98716748046875,-4.377558708190918,2.716893196105957,-0.12203381210565567
1772548038649204500,2.99720458984375,-3.8362278938293457,2.421740770339966,0.48174378275871277
1772548038659241500,3.007241455078125,-3.0656588077545166,1.3406003713607788,0.8149049878120422
1772548038669279500,3.017279541015625,-2.3841395378112793,0.17671455442905426,0.9709831476211548
1772548038679316500,3.02731640625,-2.0011725425720215,-0.6710441708564758,1.0493347644805908
1772548038689353500,3.037353515625,-1.8752074241638184,-1.237887978553772,1.08578360080719
1772548038699390500,3.047390380859375,-2.007495164871216,-1.6967569589614868,1.1043522357940674
1772548038709428500,3.057428466796875,-2.481992244720459,-2.0742974281311035,1.1215929985046387
1772548038719465500,3.067465576171875,-3.738922119140625,-2.3050918579101562,1.01077401638031
1772548038729502500,3.07750244140625,-5.379420280456543,-2.203894853591919,0.7358295321464539
1772548038739539700,3.087539794921875,-7.338785648345947,-2.251298189163208,0.41262808442115784
1772548038749577500,3.097577392578125,-8.580364227294922,-2.548499822616577,0.10913994908332825
1772548038759614500,3.107614501953125,-8.919072151184082,-2.8410234451293945,0.042226701974868774
1772548038769651500,3.1176513671875,-8.322709083557129,-3.4356131553649902,0.13885433971881866
1772548038779688700,3.127688720703125,-7.077946186065674,-3.994112491607666,0.4329805076122284
1772548038789726500,3.1377265625,-5.612140655517578,-4.2796454429626465,0.7524728178977966
1772548038799763500,3.147763427734375,-4.094400882720947,-4.380978584289551,1.1641535758972168
1772548038809800700,3.15780078125,-2.6060967445373535,-4.183091640472412,1.621396780014038
1772548038819838500,3.16783837890625,-1.0939639806747437,-3.4528310298919678,2.002922773361206
1772548038829875500,3.17787548828125,0.29553577303886414,-2.4073736667633057,2.293219566345215
1772548038839912400,3.187912353515625,1.091257095336914,-1.288273811340332,2.364494800567627
1772548038849949700,3.19794970703125,1.3064464330673218,-0.1962745040655136,2.23026967048645
1772548038859987500,3.207987548828125,1.1550872325897217,0.8267556428909302,1.9173775911331177
1772548038870024400,3.2180244140625,0.7814918160438538,1.6298688650131226,1.511981725692749
1772548038880061700,3.228061767578125,0.33481472730636597,1.8319220542907715,0.865511417388916
1772548038890098700,3.2380986328125,0.007027259096503258,1.4404489994049072,0.09946811199188232
1772548038900136400,3.248136474609375,-0.1099049523472786,0.898588240146637,-0.5047786235809326
1772548038910173400,3.25817333984375,-0.10564441978931427,0.5589786171913147,-0.8167109489440918
1772548038920210700,3.268210693359375,-0.06265300512313843,0.4480028450489044,-0.875124454498291
1772548038930247400,3.278247314453125,-0.05312661454081535,0.47530597448349,-0.7701553702354431
1772548038940285400,3.288285400390625,-0.06462561339139938,0.4981828033924103,-0.5919334292411804
1772548038950322700,3.29832275390625,-0.1196875274181366,0.4712854027748108,-0.40062645077705383
1772548038960359700,3.308359619140625,-0.23169690370559692,0.4162927269935608,-0.21098782122135162
1772548038970396400,3.318396484375,-0.35600951313972473,0.3508184850215912,-0.05495215207338333
1772548038980434400,3.328434326171875,-0.45118558406829834,0.31885549426078796,0.03784170001745224
1772548038990471700,3.3384716796875,-0.448750376701355,0.28225570917129517,0.07171055674552917
1772548039000508700,3.3485087890625,-0.36296969652175903,0.1727185994386673,0.013132731430232525
1772548039010546400,3.35854638671875,-0.2513134777545929,-0.04049080237746239,-0.17834454774856567
1772548039020583700,3.368583740234375,-0.013110228814184666,-0.33445480465888977,-0.39292848110198975
1772548039030620700,3.37862060546875,0.2946595847606659,-0.57273268699646,-0.5176382064819336
1772548039040657400,3.388657470703125,0.5495371222496033,-0.7101216912269592,-0.5297207236289978
1772548039050695400,3.3986953125,0.6831676363945007,-0.6581495404243469,-0.4627593457698822
1772548039060732700,3.408732666015625,0.6693311929702759,-0.39215755462646484,-0.35898369550704956
1772548039070769700,3.418769775390625,0.4953782856464386,0.13476526737213135,-0.2668343186378479
1772548039080806400,3.428806396484375,0.2923261225223541,0.7217379808425903,-0.19223251938819885
1772548039090844700,3.4388447265625,0.06648127734661102,1.157821774482727,-0.15716518461704254
1772548039100881700,3.448881591796875,-0.10495519638061523,1.2832694053649902,-0.17687444388866425
1772548039110918700,3.458918701171875,-0.15453419089317322,1.0587327480316162,-0.24702045321464539
1772548039120955600,3.46895556640625,-0.083079993724823,0.6109282970428467,-0.33188554644584656
1772548039130994000,3.478993896484375,0.0316774882376194,0.15523117780685425,-0.3614014685153961
1772548039141031000,3.489031005859375,0.08742836117744446,-0.11860489100217819,-0.3240985572338104
1772548039151067600,3.499067626953125,0.08316411077976227,-0.11526243388652802,-0.2522027790546417
1772548039161106000,3.50910595703125,0.07285528630018234,0.08612793684005737,-0.16173948347568512
1772548039171143000,3.519142822265625,0.07845031470060349,0.33241620659828186,-0.09922054409980774
1772548039181179600,3.5291796875,0.08053556829690933,0.48926040530204773,-0.08801476657390594
1772548039191216600,3.539216552734375,0.0644543468952179,0.5062939524650574,-0.13913732767105103
1772548039201255000,3.5492548828125,0.04362868890166283,0.4117831885814667,-0.2265569269657135
1772548039211292000,3.5592919921875,0.02463475987315178,0.2639133036136627,-0.307541161775589
1772548039221328600,3.56932861328125,0.007827285677194595,0.11497442424297333,-0.35334542393684387
1772548039231367000,3.579366943359375,-0.010117897763848305,-0.0015369112370535731,-0.35186025500297546
1772548039241404000,3.58940380859375,-0.03239843621850014,-0.08800335973501205,-0.3346453309059143
1772548039251440600,3.599440673828125,-0.06255526840686798,-0.17042841017246246,-0.3045727014541626
1772548039261477600,3.6094775390625,-0.0956924557685852,-0.2468414157629013,-0.261732280254364
1772548039271516000,3.619515869140625,-0.1220439001917839,-0.32791128754615784,-0.1984027922153473
1772548039281553000,3.629552978515625,-0.10807881504297256,-0.4124898314476013,-0.11971943080425262
1772548039291589600,3.639589599609375,-0.09770447015762329,-0.48598626255989075,-0.012001321651041508
1772548039301626600,3.649626708984375,-0.10037481784820557,-0.5412665605545044,0.11530496180057526
1772548039311665000,3.659664794921875,-0.11767578125,-0.574097752571106,0.24659906327724457
1772548039321702000,3.669701904296875,-0.1292320340871811,-0.5855586528778076,0.3720637559890747
1772548039331738600,3.679738525390625,-0.12640561163425446,-0.5667594075202942,0.4755900204181671
1772548039341776000,3.68977587890625,-0.11304161697626114,-0.5075413584709167,0.5485667586326599
1772548039351814000,3.69981396484375,-0.11718229949474335,-0.3671598732471466,0.5845291018486023
1772548039361850600,3.7098505859375,-0.12660376727581024,-0.21948200464248657,0.5810707211494446
1772548039371887600,3.7198876953125,-0.09745066612958908,-0.24103832244873047,0.5532074570655823
1772548039381926000,3.72992578125,0.007178273051977158,-0.4564931094646454,0.5480294823646545
1772548039391963000,3.739962890625,0.0790676400065422,-0.689792811870575,0.5803842544555664
1772548039401999600,3.74999951171875,0.048982441425323486,-0.7687006592750549,0.61680668592453
1772548039412036900,3.760036865234375,-0.02663296088576317,-0.598120391368866,0.6216468811035156
1772548039422075000,3.770074951171875,-0.06621232628822327,-0.23120975494384766,0.6039478182792664
1772548039432111600,3.780111572265625,-0.0833849161863327,0.18670505285263062,0.5788389444351196
1772548039442148600,3.790148681640625,-0.08364351093769073,0.5358779430389404,0.558193027973175
1772548039452187000,3.800186767578125,-0.038225430995225906,0.6357489228248596,0.5394202470779419
1772548039462224000,3.810223876953125,0.006871473975479603,0.5569829940795898,0.4780319631099701
1772548039472260600,3.820260498046875,0.026934662833809853,0.3324640989303589,0.3638767600059509
1772548039482297900,3.8302978515625,0.03514998406171799,0.05831962451338768,0.21397460997104645
1772548039492335900,3.8403359375,0.02283659391105175,-0.09291383624076843,0.04500545933842659
1772548039502372900,3.850372802734375,0.0026594214141368866,-0.12394604831933975,-0.08510833233594894
1772548039512409600,3.86040966796875,-0.049113236367702484,-0.1262863725423813,-0.1465357095003128
1772548039522446800,3.87044677734375,-0.1662057787179947,-0.09391670674085617,-0.17965690791606903
1772548039532484900,3.88048486328125,-0.2679084241390228,-0.03450336307287216,-0.1996612399816513
1772548039542521600,3.890521484375,-0.19945028424263,-0.0014777685282751918,-0.20259365439414978
1772548039552558600,3.90055859375,-0.04630013555288315,-0.006677168421447277,-0.1792377233505249
1772548039562596900,3.910596923828125,0.07078387588262558,0.006962210405617952,-0.14484459161758423
1772548039572633900,3.9206337890625,0.1549331247806549,0.08205128461122513,-0.10685878992080688
1772548039582670600,3.930670654296875,0.1738349050283432,0.196365624666214,-0.08629146218299866
1772548039592707800,3.940707763671875,0.08532659709453583,0.2362060695886612,-0.11949849128723145
1772548039602745900,3.950745849609375,-0.003341750241816044,0.13604244589805603,-0.18211020529270172
1772548039612782600,3.960782470703125,-0.059588510543107986,-0.005106267984956503,-0.26890891790390015
1772548039622819600,3.970819580078125,-0.060842856764793396,-0.10209806263446808,-0.34213677048683167
1772548039632856800,3.98085693359375,-0.0012069568037986755,-0.12866541743278503,-0.3710682988166809
1772548039642894800,3.990894775390625,0.04950335621833801,-0.06371331214904785,-0.3415634036064148
1772548039652929800,4.0009296875,-0.017684204503893852,-0.014420824125409126,-0.23910318315029144
1772548039662966800,4.010966796875,-0.04647910222411156,0.036370184272527695,-0.11357109248638153
1772548039673004800,4.0210048828125,0.020712193101644516,0.12297598272562027,-0.022016063332557678
1772548039683041800,4.031041748046875,0.09975267946720123,0.19331753253936768,0.010758127085864544
1772548039693078800,4.041078857421875,0.12893559038639069,0.20345361530780792,0.018900394439697266
1772548039703115800,4.05111572265625,0.13390211760997772,0.15741848945617676,0.023450404405593872
1772548039713153800,4.06115380859375,0.13017742335796356,0.07617199420928955,0.04421277716755867
1772548039723190800,4.071190673828125,0.13199876248836517,-0.0027670254930853844,0.06238725408911705
1772548039733227800,4.081227783203125,0.14088253676891327,-0.08596020936965942,0.07615484297275543
1772548039743265800,4.091265869140625,0.13063575327396393,-0.12594516575336456,0.07258114218711853
1772548039753302800,4.101302734375,0.10259267687797546,-0.11530712246894836,0.0574483796954155
1772548039763339800,4.11133984375,0.061360012739896774,-0.07596344500780106,0.04043956845998764
1772548039773376800,4.121376708984375,0.01456534769386053,-0.052202433347702026,0.04413982853293419
1772548039783414800,4.131414794921875,-0.03608957305550575,-0.06825090944766998,0.06493565440177917
1772548039793451800,4.14145166015625,-0.0817132517695427,-0.11950363218784332,0.09205925464630127
1772548039803488800,4.15148876953125,-0.13044536113739014,-0.19146119058132172,0.11595819145441055
1772548039813525800,4.16152587890625,-0.17713698744773865,-0.2839043438434601,0.13978421688079834
1772548039823563800,4.171563720703125,-0.20537900924682617,-0.41643762588500977,0.16081812977790833
1772548039833600800,4.181600830078125,-0.21032048761844635,-0.5549876689910889,0.18947184085845947
1772548039843637800,4.1916376953125,-0.17990373075008392,-0.6701286435127258,0.22106865048408508
1772548039853675800,4.20167578125,-0.04478585720062256,-0.6925739645957947,0.26629406213760376
1772548039863712800,4.211712646484375,0.1537674367427826,-0.5987668037414551,0.30808332562446594
1772548039873749800,4.221749755859375,0.3342876732349396,-0.4116075932979584,0.3501589000225067
1772548039883786800,4.231786865234375,0.4384007751941681,-0.11227253079414368,0.39287787675857544
1772548039893824800,4.24182470703125,0.4719797670841217,0.27174311876296997,0.4084983170032501
1772548039903861800,4.25186181640625,0.46169570088386536,0.6959734559059143,0.40178659558296204
1772548039913898800,4.261898681640625,0.43852514028549194,1.1096714735031128,0.3649277091026306
1772548039923936800,4.271936767578125,0.41904252767562866,1.4579296112060547,0.3005058467388153
1772548039933973800,4.281973876953125,0.38965001702308655,1.6319406032562256,0.2142336517572403
1772548039944010800,4.2920107421875,0.35274738073349,1.5491200685501099,0.12148985266685486
1772548039954047700,4.3020478515625,0.3162735402584076,1.1974948644638062,0.03565392643213272
1772548039964085800,4.312085693359375,0.29266753792762756,0.6466782093048096,-0.045673687011003494
1772548039974122800,4.322122802734375,0.2504569888114929,0.02810848504304886,-0.11696703732013702
1772548039984159700,4.33215966796875,0.16593091189861298,-0.5184113383293152,-0.17367400228977203
1772548039994197800,4.34219775390625,0.06317096948623657,-0.8907583355903625,-0.2198285460472107
1772548040004234800,4.35223486328125,-0.05160648003220558,-1.0227773189544678,-0.2515087127685547
1772548040014271700,4.362271728515625,-0.1472904086112976,-0.9871317148208618,-0.2648751437664032
1772548040024308700,4.372308837890625,-0.25211453437805176,-0.8504647016525269,-0.23883312940597534
1772548040034346800,4.3823466796875,-0.3937326669692993,-0.6845654845237732,-0.1739492565393448
1772548040044383700,4.3923837890625,-0.4574599862098694,-0.483696848154068,-0.08312668651342392
1772548040054420700,4.402420654296875,-0.5456811785697937,-0.23617474734783173,-0.01479851920157671
1772548040064458000,4.4124580078125,-0.6676334738731384,0.017296401783823967,-0.004802343435585499
1772548040074495700,4.422495849609375,-0.8259397745132446,0.18791428208351135,-0.06114913523197174
1772548040084532700,4.43253271484375,-0.9194478988647461,0.21756698191165924,-0.21186888217926025
1772548040094569700,4.44256982421875,-0.8617453575134277,0.14029012620449066,-0.39542776346206665
1772548040104607700,4.452607666015625,-0.6260348558425903,-0.056470341980457306,-0.5145911574363708
1772548040114644700,4.462644775390625,-0.30903109908103943,-0.2820083796977997,-0.5106666684150696
1772548040124681700,4.472681640625,-0.03686854988336563,-0.45106399059295654,-0.41134539246559143
1772548040134719700,4.4827197265625,0.11229963600635529,-0.48818355798721313,-0.24960735440254211
1772548040144756700,4.4927568359375,0.1018184944987297,-0.3952118158340454,-0.08357711136341095
1772548040154793700,4.502793701171875,0.01826581358909607,-0.21288560330867767,0.07692378014326096
1772548040164830700,4.512830810546875,-0.09845414757728577,-0.020566752180457115,0.21681509912014008
1772548040174868700,4.52286865234375,-0.22700972855091095,0.11958737671375275,0.30979064106941223
1772548040184905700,4.53290576171875,-0.366263747215271,0.20250703394412994,0.35581380128860474
1772548040194942700,4.542942626953125,-0.38748544454574585,0.1814357340335846,0.3605559468269348
1772548040204980000,4.55297998046875,-0.1624925136566162,0.09052525460720062,0.3428507149219513
1772548040215017700,4.563017822265625,0.16099020838737488,-0.006840711925178766,0.2931610941886902
1772548040225054700,4.5730546875,0.33242613077163696,-0.08654725551605225,0.23358191549777985
1772548040235091700,4.583091796875,0.36542457342147827,-0.07723215222358704,0.1880132108926773
1772548040245129700,4.593129638671875,0.2683643400669098,0.04477844387292862,0.1361689269542694
1772548040255166700,4.603166748046875,0.05858154222369194,0.31114837527275085,0.06303413957357407
1772548040265203700,4.61320361328125,-0.06485464423894882,0.6109364032745361,-0.025860043242573738
1772548040275241000,4.623240966796875,-0.07414454221725464,0.8952257633209229,-0.10003693401813507
1772548040285278700,4.63327880859375,-0.06980279088020325,1.1090970039367676,-0.16236262023448944
1772548040295315700,4.643315673828125,-0.14625602960586548,1.2567707300186157,-0.26436054706573486
1772548040305352700,4.653352783203125,-0.1569424867630005,1.1411263942718506,-0.39938467741012573
1772548040315390700,4.663390625,0.06266523152589798,0.6195688247680664,-0.543286144733429
1772548040325427700,4.673427734375,0.3140498101711273,0.011600577272474766,-0.5992274284362793
1772548040335464700,4.683464599609375,0.3982134163379669,-0.35228294134140015,-0.5669821500778198
1772548040345503000,4.6935029296875,0.3534885346889496,-0.4354976713657379,-0.4985746145248413
1772548040355539700,4.703539794921875,0.30077046155929565,-0.3371977210044861,-0.4383757412433624
1772548040365576700,4.71357666015625,0.2170199155807495,-0.18343694508075714,-0.4270615577697754
1772548040375613700,4.72361376953125,0.09641893953084946,-0.05806654691696167,-0.45864924788475037
1772548040385651700,4.733651611328125,0.013081968761980534,0.0019022473134100437,-0.49193957448005676
1772548040395688700,4.743688720703125,0.01279115304350853,-0.05411158874630928,-0.46796923875808716
1772548040405725700,4.7537255859375,0.058090463280677795,-0.15772560238838196,-0.3787384331226349
1772548040415764000,4.763763916015625,0.1046648845076561,-0.20872023701667786,-0.2435968816280365
1772548040425800700,4.77380078125,0.12271792441606522,-0.17239072918891907,-0.08856015652418137
1772548040435837700,4.783837646484375,0.08808644115924835,-0.01686864160001278,0.07069699466228485
1772548040445874700,4.793874755859375,0.011813505552709103,0.18839316070079803,0.21215373277664185
1772548040455912700,4.80391259765625,-0.04063079133629799,0.3343013823032379,0.3236960172653198
1772548040465949700,4.81394970703125,-0.01632252335548401,0.36056146025657654,0.3675138056278229
1772548040475986700,4.823986572265625,0.036650944501161575,0.3842645287513733,0.3623737394809723
1772548040486023700,4.834023681640625,0.06690578907728195,0.439687579870224,0.3599774241447449
1772548040496061700,4.844061767578125,0.039661917835474014,0.4369816184043884,0.359330415725708
1772548040506098700,4.8540986328125,-0.0052853175438940525,0.3804253935813904,0.3249804377555847
1772548040516135700,4.8641357421875,-0.025576476007699966,0.2550175189971924,0.22432254254817963
1772548040526174000,4.874174072265625,-0.058360788971185684,0.13452120125293732,0.0816865786910057
1772548040536210700,4.884210693359375,-0.10183583199977875,0.10800634324550629,-0.01617024652659893
1772548040546247700,4.89424755859375,-0.1249302327632904,0.18970388174057007,-0.045088447630405426
1772548040556286000,4.904285888671875,-0.10934966802597046,0.2651039958000183,-0.03883498162031174
1772548040566322700,4.91432275390625,-0.08649921417236328,0.390241414308548,-0.002174174413084984
1772548040576359700,4.924359619140625,-0.003528962843120098,0.6871870160102844,0.12309524416923523
1772548040586396700,4.934396728515625,0.2217600792646408,0.82761549949646,0.2088642120361328
1772548040596435000,4.94443505859375,0.46286696195602417,0.5018332004547119,0.16057738661766052
1772548040606471700,4.9544716796875,0.573760986328125,-0.055996011942625046,0.027497902512550354
1772548040616508700,4.9645087890625,0.5277963876724243,-0.629214882850647,-0.10196926444768906
1772548040626547000,4.974546875,0.38207706809043884,-1.0769308805465698,-0.19415193796157837
1772548040636583700,4.984583740234375,0.23035837709903717,-1.1193166971206665,-0.19031475484371185
1772548040646620700,4.99462060546875,0.14793087542057037,-0.7430450320243835,-0.11441413313150406
1772548040656657700,5.00465771484375,0.16327279806137085,-0.23701845109462738,-0.041983865201473236
1772548040666696000,5.014696044921875,0.153772234916687,0.16518571972846985,-0.07986520230770111
1772548040676732700,5.024732666015625,-0.06061382591724396,0.20020157098770142,-0.3090262711048126
1772548040686769700,5.034769775390625,-0.2819318175315857,0.0022730370983481407,-0.5965614318847656
1772548040696808000,5.044807861328125,-0.29219886660575867,-0.10966925323009491,-0.7346402406692505
1772548040706845000,5.054844970703125,-0.12112642824649811,0.048246875405311584,-0.6457518935203552
1772548040716881700,5.064881591796875,0.037013404071331024,0.343519926071167,-0.42353007197380066
1772548040726918700,5.074918701171875,0.04210643097758293,0.6532762050628662,-0.19984479248523712
1772548040736957000,5.08495703125,-0.06724536418914795,0.9441080093383789,-0.010781414806842804
1772548040746993700,5.09499365234375,-0.2432755082845688,1.303733468055725,0.14599327743053436
1772548040757030700,5.10503076171875,-0.7762933969497681,1.7833595275878906,0.27129748463630676
1772548040767069000,5.11506884765625,-0.913032591342926,2.0026168823242188,0.2668880820274353
1772548040777106000,5.12510595703125,-0.7041712403297424,1.672186017036438,0.03281613811850548
1772548040787142700,5.135142578125,-0.4952518343925476,1.2965061664581299,-0.19211392104625702
1772548040797179600,5.1451796875,-0.23162712156772614,1.051802635192871,-0.3340490460395813
1772548040807218000,5.155218017578125,0.09311928600072861,0.7174084186553955,-0.4406127631664276
1772548040817254700,5.165254638671875,0.30615541338920593,0.425441175699234,-0.4401282072067261
1772548040827291600,5.175291748046875,0.31864774227142334,0.397610604763031,-0.25989827513694763
1772548040837330000,5.185329833984375,0.33018723130226135,0.04220361262559891,-0.1892361044883728
1772548040847367000,5.195366943359375,0.06278587877750397,-0.5943390130996704,-0.2440365105867386
1772548040857403600,5.205403564453125,0.13245311379432678,-0.7869420051574707,-0.177354097366333
1772548040867440600,5.215440673828125,0.5347499251365662,-0.5403409600257874,-0.07698595523834229
1772548040877479000,5.22547900390625,0.448835551738739,-0.4752790629863739,-0.032490551471710205
1772548040887516000,5.235515869140625,0.2846474349498749,-0.6020658016204834,-0.039542071521282196
1772548040897552600,5.245552734375,0.19777539372444153,-0.7441903948783875,-0.026443779468536377
1772548040907591000,5.2555908203125,0.19529971480369568,-0.9404869675636292,-0.030096305534243584
1772548040917628000,5.2656279296875,0.1520012468099594,-1.113385796546936,-0.026828976348042488
1772548040927664600,5.27566455078125,0.07026855647563934,-1.2298918962478638,-0.0255232285708189
1772548040937701600,5.28570166015625,0.09628365188837051,-1.2253587245941162,-0.007130390033125877
1772548040947740000,5.295739990234375,0.20751351118087769,-1.307344913482666,-0.021214516833424568
1772548040957777000,5.30577685546875,0.2564919888973236,-1.3463225364685059,-0.036233287304639816
1772548040967813600,5.315813720703125,0.19177713990211487,-1.0929285287857056,0.03518657013773918
1772548040977852000,5.325851806640625,0.058606840670108795,-0.7030129432678223,0.13466961681842804
1772548040987889000,5.335888916015625,-0.2049020230770111,-0.383433073759079,0.20632489025592804
1772548040997925600,5.345925537109375,-0.38788676261901855,0.06486611068248749,0.3388218879699707
1772548041007964000,5.3559638671875,-0.449573814868927,0.5604811906814575,0.5133039355278015
1772548041018001000,5.3660009765625,-0.38109782338142395,0.8394153118133545,0.6598211526870728
1772548041028038000,5.376037841796875,-0.3347015678882599,0.8158644437789917,0.7020629048347473
1772548041038074600,5.38607470703125,-0.4066047668457031,0.4943954348564148,0.628244936466217
1772548041048113000,5.39611279296875,-0.5077327489852905,0.07718036323785782,0.549199104309082
1772548041058150000,5.40614990234375,-0.4987182021141052,-0.15292692184448242,0.6051609516143799
1772548041068187000,5.416186767578125,-0.38083788752555847,-0.11954738944768906,0.8041659593582153
1772548041078225000,5.426224853515625,-0.2730483114719391,0.05683521553874016,1.0353113412857056
1772548041088262000,5.436261962890625,-0.24123527109622955,0.20039689540863037,1.164391279220581
1772548041098299000,5.446298828125,-0.2732222378253937,0.2439991533756256,1.1178216934204102
1772548041108335600,5.456335693359375,-0.3244316279888153,0.22838449478149414,0.9347008466720581
1772548041118373600,5.46637353515625,-0.3151494264602661,0.22227168083190918,0.6646193265914917
1772548041128410600,5.47641064453125,-0.06737558543682098,0.2740512788295746,0.40755048394203186
1772548041138447600,5.486447509765625,0.20641840994358063,0.32596060633659363,0.1423526555299759
1772548041148485400,5.4964853515625,0.30911946296691895,0.3045618236064911,-0.12141453474760056
1772548041158522600,5.506522705078125,0.30927687883377075,0.1519223004579544,-0.3712652027606964
1772548041168559600,5.5165595703125,0.30861374735832214,-0.07298538088798523,-0.5937530994415283
1772548041178596600,5.5265966796875,0.35463768243789673,-0.2871897220611572,-0.7873162031173706
1772548041188634600,5.536634521484375,0.4713160991668701,-0.41716957092285156,-0.8961180448532104
1772548041198671600,5.546671630859375,0.5982253551483154,-0.4354900121688843,-0.8993257284164429
1772548041208708600,5.55670849609375,0.5083484649658203,-0.36677804589271545,-0.8056815266609192
1772548041218746400,5.566746337890625,0.17338110506534576,-0.23018625378608704,-0.6497981548309326
1772548041228783600,5.57678369140625,-0.21425983309745789,-0.23017586767673492,-0.5047981142997742
1772548041238820600,5.586820556640625,-0.4439958333969116,-0.48686742782592773,-0.41717490553855896
1772548041248858400,5.5968583984375,-0.476949542760849,-1.0001349449157715,-0.42593324184417725
1772548041258895600,5.6068955078125,-0.4195168614387512,-1.429452657699585,-0.4195435047149658
1772548041268932600,5.6169326171875,-0.4088578224182129,-1.597217082977295,-0.3605521023273468
1772548041278969600,5.626969482421875,-0.5013531446456909,-1.4700360298156738,-0.26961979269981384
1772548041289007400,5.63700732421875,-0.43643006682395935,-1.1367299556732178,-0.22707390785217285
1772548041299044600,5.647044677734375,-0.23078075051307678,-0.6857454776763916,-0.33760255575180054
1772548041309081600,5.65708154296875,-0.1201716884970665,-0.032088588923215866,-0.4172704815864563
1772548041319119400,5.667119384765625,-0.14149056375026703,0.6165499091148376,-0.49888792634010315
1772548041329156600,5.677156494140625,-0.02577301859855652,1.0656806230545044,-0.6324571371078491
1772548041339193600,5.687193603515625,0.3175502419471741,1.3860821723937988,-0.7880759239196777
1772548041349230600,5.697230712890625,0.6833697557449341,1.5982009172439575,-0.9304130673408508
1772548041359268400,5.707268310546875,0.8687306046485901,1.8571852445602417,-0.7993279099464417
1772548041369305600,5.7173056640625,0.6184435486793518,1.8202629089355469,-0.7084728479385376
1772548041379342600,5.727342529296875,0.13157185912132263,1.4400383234024048,-0.6031216382980347
1772548041389380400,5.73738037109375,-0.27575597167015076,0.8374709486961365,-0.4609823524951935
1772548041399417600,5.74741748046875,-0.44406217336654663,0.12463964521884918,-0.2540973126888275
1772548041409454600,5.75745458984375,-0.382917582988739,-0.5775826573371887,-0.018477585166692734
1772548041419491600,5.76749169921875,-0.2047579437494278,-1.0845615863800049,0.20373064279556274
1772548041429529300,5.777529296875,0.016618115827441216,-1.3056741952896118,0.3795410692691803
1772548041439566600,5.787566650390625,0.1890234351158142,-1.1769943237304688,0.5176432728767395
1772548041449603600,5.797603515625,0.19095049798488617,-0.7183657288551331,0.588299572467804
1772548041459641300,5.807641357421875,0.15729746222496033,-0.13914361596107483,0.5848137140274048
1772548041469678600,5.8176787109375,0.13437962532043457,0.4241088330745697,0.4940664768218994
1772548041479715600,5.827715576171875,0.09272327274084091,0.848802387714386,0.3452741503715515
1772548041489753600,5.837753662109375,0.05168049782514572,1.0390892028808594,0.17148984968662262
1772548041499790300,5.847790283203125,0.05449438840150833,1.0095136165618896,0.023930739611387253
1772548041509827600,5.85782763671875,0.08735380321741104,0.843608021736145,-0.07873651385307312
1772548041519864600,5.867864501953125,0.12049924582242966,0.6069335341453552,-0.1203596293926239
1772548041529902300,5.87790234375,0.12518426775932312,0.381784588098526,-0.12617969512939453
1772548041539939600,5.887939697265625,0.12692171335220337,0.19341807067394257,-0.10604710876941681
1772548041549976600,5.8979765625,0.12611716985702515,0.05998172238469124,-0.07960884273052216
1772548041560014600,5.9080146484375,0.12884505093097687,-0.025137415155768394,-0.06813748180866241
1772548041570051300,5.91805126953125,0.12518826127052307,-0.06643638759851456,-0.07014923542737961
1772548041580088600,5.928088623046875,0.08666324615478516,-0.07887561619281769,-0.09243601560592651
1772548041590125600,5.93812548828125,0.04858110845088959,-0.08222560584545135,-0.12491939216852188
1772548041600163600,5.94816357421875,0.029475856572389603,-0.08865503966808319,-0.15650144219398499
1772548041610200600,5.95820068359375,0.02627446874976158,-0.08349543064832687,-0.18329203128814697
1772548041620237600,5.968237548828125,0.022752705961465836,-0.051833443343639374,-0.1989898830652237
1772548041630275600,5.978275634765625,0.0212717242538929,0.003679879941046238,-0.1980987787246704
1772548041640312300,5.988312255859375,0.021082106977701187,0.0773872658610344,-0.1879655420780182
1772548041650349600,5.998349609375,0.02368801087141037,0.15727545320987701,-0.1699761599302292
1772548041660387600,6.0083876953125,0.02947399392724037,0.2156403362751007,-0.14204776287078857
1772548041670424600,6.018424560546875,0.03079252317547798,0.24695910513401031,-0.11819063872098923
1772548041680461600,6.028461669921875,0.036358799785375595,0.24654555320739746,-0.0981595441699028
1772548041690498600,6.03849853515625,0.039595603942871094,0.23695151507854462,-0.09555124491453171
1772548041700536600,6.04853662109375,0.040257133543491364,0.22638599574565887,-0.1092250868678093
1772548041710573300,6.0585732421875,0.04263826459646225,0.22104182839393616,-0.13015088438987732
1772548041720610600,6.068610595703125,0.04367503523826599,0.2195168435573578,-0.16321399807929993
1772548041730648600,6.078648681640625,0.048818398267030716,0.2207602709531784,-0.19214950501918793
1772548041740685600,6.088685546875,0.056451015174388885,0.21559321880340576,-0.21316342055797577
1772548041750722600,6.09872265625,0.05672132223844528,0.19918282330036163,-0.21761702001094818
1772548041760759600,6.108759521484375,0.04656057059764862,0.161670982837677,-0.20430409908294678
1772548041770797600,6.118797607421875,0.03711806237697601,0.1056540459394455,-0.1550489366054535
1772548041780834600,6.12883447265625,0.026791922748088837,0.041143424808979034,-0.089906245470047
1772548041790871600,6.13887158203125,0.0278976671397686,-0.04904186353087425,-0.014357166364789009
1772548041800909600,6.14890966796875,0.03307405859231949,-0.1220051571726799,0.047233350574970245
1772548041810946600,6.158946533203125,0.039194267243146896,-0.17407633364200592,0.08151276409626007
1772548041820983300,6.1689833984375,0.04936567693948746,-0.1838262975215912,0.08726932853460312
1772548041831020500,6.1790205078125,0.06028410419821739,-0.16362328827381134,0.07919063419103622
1772548041841058600,6.18905859375,0.06334753334522247,-0.1372089982032776,0.07404087483882904
1772548041851095600,6.199095458984375,0.07871930301189423,-0.11211251467466354,0.08819174021482468
1772548041861132500,6.209132568359375,0.09358932822942734,-0.07400782406330109,0.13653141260147095
1772548041871170600,6.219170654296875,0.10157854855060577,-0.025073841214179993,0.20160441100597382
1772548041881207600,6.22920751953125,0.09579282999038696,0.01747807487845421,0.263686865568161
1772548041891244300,6.239244384765625,0.0841931700706482,0.017589394003152847,0.30706948041915894
1772548041901282600,6.249282470703125,0.08171642571687698,-0.024459272623062134,0.328340619802475
1772548041911319600,6.259319580078125,0.08634127676486969,-0.08501796424388885,0.3369213044643402
1772548041921356500,6.2693564453125,0.09237492829561234,-0.1332065612077713,0.3366319537162781
1772548041931393500,6.2793935546875,0.10291864722967148,-0.16436980664730072,0.3184095323085785
1772548041941431600,6.289431640625,0.1157633513212204,-0.19092601537704468,0.27529144287109375
1772548041951468500,6.299468505859375,0.13051699101924896,-0.22936609387397766,0.20724259316921234
1772548041961505500,6.309505615234375,0.13605396449565887,-0.27212032675743103,0.12372907251119614
1772548041971543600,6.31954345703125,0.13782496750354767,-0.3111065924167633,0.04515916854143143
1772548041981580500,6.32958056640625,0.13623479008674622,-0.345098078250885,-0.03082691878080368
1772548041991617500,6.339617431640625,0.12872815132141113,-0.3733062744140625,-0.10570888221263885
1772548042001654500,6.349654541015625,0.10304488241672516,-0.39479851722717285,-0.16968898475170135
1772548042011692500,6.359692626953125,0.05768938362598419,-0.3881310224533081,-0.2134188860654831
1772548042021729500,6.3697294921875,0.010421207174658775,-0.35285598039627075,-0.22673700749874115
1772548042031766500,6.3797666015625,-0.03852822631597519,-0.2916669249534607,-0.20738781988620758
1772548042041804500,6.389804443359375,-0.07543111592531204,-0.214914008975029,-0.1682228147983551
1772548042051841500,6.399841552734375,-0.09640669822692871,-0.16269847750663757,-0.11107324063777924
1772548042061878500,6.40987841796875,-0.10293038189411163,-0.11824934184551239,-0.03570143133401871
1772548042071915500,6.41991552734375,-0.10405317693948746,-0.08039224147796631,0.06079581379890442
1772548042081953500,6.42995361328125,-0.10167550295591354,-0.03673277422785759,0.16690774261951447
1772548042091990500,6.439990478515625,-0.09761418402194977,0.02006126567721367,0.2528069317340851
1772548042102027500,6.450027587890625,-0.10014738142490387,0.07852008938789368,0.3170234262943268
1772548042112065500,6.4600654296875,-0.11766351759433746,0.12451288104057312,0.353504478931427
1772548042122102500,6.4701025390625,-0.14342108368873596,0.15855495631694794,0.3830982744693756
1772548042132139500,6.480139404296875,-0.18510088324546814,0.18282540142536163,0.41937586665153503
1772548042142177500,6.490177490234375,-0.22028151154518127,0.2044205218553543,0.4698507487773895
1772548042152214500,6.500214599609375,-0.24977310001850128,0.21787402033805847,0.5201120376586914
1772548042162251500,6.51025146484375,-0.2729790508747101,0.20970450341701508,0.5575147271156311
1772548042172288500,6.52028857421875,-0.2855478525161743,0.1788560450077057,0.5734380483627319
1772548042182326500,6.530326416015625,-0.28598010540008545,0.10720546543598175,0.5679723024368286
1772548042192363500,6.540363525390625,-0.26835235953330994,0.023005640134215355,0.5453921556472778
1772548042202400500,6.550400390625,-0.2577367424964905,-0.06723762303590775,0.5011236071586609
1772548042212438500,6.5604384765625,-0.2470015436410904,-0.15044622123241425,0.4398493468761444
1772548042222475500,6.5704755859375,-0.21945805847644806,-0.2346528321504593,0.3690328598022461
1772548042232512500,6.580512451171875,-0.18890121579170227,-0.2903672158718109,0.288611501455307
1772548042242549500,6.590549560546875,-0.15274614095687866,-0.3127535283565521,0.2004261165857315
1772548042252587500,6.60058740234375,-0.11542274057865143,-0.2843024432659149,0.12258431315422058
1772548042262624500,6.61062451171875,-0.0857575312256813,-0.21304748952388763,0.056306011974811554
1772548042272661500,6.62066162109375,-0.056912295520305634,-0.1115480288863182,0.010194706730544567
1772548042282699500,6.630699462890625,-0.027064120396971703,-0.011411714367568493,-0.02151593752205372
1772548042292736500,6.640736572265625,0.003372347913682461,0.04020940139889717,-0.052119385451078415
1772548042302773500,6.6507734375,0.04247421771287918,0.040818654000759125,-0.08854416757822037
1772548042312811500,6.6608115234375,0.07428061217069626,-0.0015394570073112845,-0.14038445055484772
1772548042322848500,6.6708486328125,0.09123030304908752,-0.04467003047466278,-0.19330941140651703
1772548042332885500,6.680885498046875,0.09472543001174927,-0.04346654936671257,-0.22529344260692596
1772548042342922500,6.690922607421875,0.08851760625839233,0.009600333869457245,-0.23565763235092163
1772548042352960500,6.70096044921875,0.08421660214662552,0.10036592185497284,-0.2144564688205719
1772548042362997500,6.71099755859375,0.0757400244474411,0.18892213702201843,-0.19093458354473114
1772548042373034500,6.721034423828125,0.06145482510328293,0.24382320046424866,-0.17029428482055664
1772548042383072500,6.731072509765625,0.05799805000424385,0.2646700143814087,-0.16560658812522888
1772548042393109500,6.741109619140625,0.06623014807701111,0.26600295305252075,-0.17892825603485107
1772548042403146500,6.751146484375,0.06486793607473373,0.2712060511112213,-0.1887352168560028
1772548042413183500,6.76118359375,0.06307003647089005,0.2741882801055908,-0.18768273293972015
1772548042423221500,6.771221435546875,0.049949176609516144,0.27031514048576355,-0.1867830455303192
1772548042433258500,6.781258544921875,0.05172763764858246,0.26492756605148315,-0.17490427196025848
1772548042443295500,6.79129541015625,0.045738182961940765,0.2683131992816925,-0.16320550441741943
1772548042453333500,6.80133349609375,0.03431828320026398,0.2901955842971802,-0.1463969647884369
1772548042463370500,6.81137060546875,0.017769670113921165,0.3318944275379181,-0.12942790985107422
1772548042473407500,6.821407470703125,-0.00028043705970048904,0.3863195776939392,-0.11224491149187088
1772548042483445800,6.83144580078125,-0.014924629591405392,0.436119943857193,-0.09502217173576355
1772548042493482500,6.841482421875,-0.025164484977722168,0.467013418674469,-0.07691347599029541
1772548042503519500,6.85151953125,-0.03346289321780205,0.4845888316631317,-0.050142109394073486
1772548042513556500,6.861556396484375,-0.0343736931681633,0.5005493760108948,-0.01821932941675186
1772548042523594500,6.871594482421875,-0.029413823038339615,0.5254753828048706,0.026797205209732056
1772548042533631500,6.881631591796875,-0.013561091385781765,0.5650025010108948,0.07308826595544815
1772548042543668500,6.89166845703125,0.010764223523437977,0.6248558759689331,0.10829432308673859
1772548042553706800,6.901706787109375,0.04053596779704094,0.6833844184875488,0.13793663680553436
1772548042563743500,6.911743408203125,0.06798330694437027,0.7079786658287048,0.17076650261878967
1772548042573780500,6.921780517578125,0.08245785534381866,0.7121901512145996,0.18839742243289948
1772548042583817500,6.9318173828125,0.1009330004453659,0.7020877003669739,0.18990537524223328
1772548042593855700,6.941855712890625,0.12511023879051208,0.7020573019981384,0.18073157966136932
1772548042603892500,6.951892578125,0.15724128484725952,0.7162255048751831,0.1662113070487976
1772548042613929500,6.961929443359375,0.19484591484069824,0.7508463263511658,0.15118761360645294
1772548042623967700,6.9719677734375,0.22476013004779816,0.7759521007537842,0.12790554761886597
1772548042634004500,6.98200439453125,0.2511443495750427,0.7978643774986267,0.10628014802932739
1772548042644041500,6.99204150390625,0.2776811420917511,0.8226003050804138,0.09132075309753418
1772548042654079500,7.00207958984375,0.2933109700679779,0.863911509513855,0.07448877394199371
1772548042664116700,7.01211669921875,0.29551607370376587,0.920158863067627,0.05555273965001106
1772548042674153500,7.022153564453125,0.2824473977088928,0.9707069993019104,0.043177295476198196
1772548042684190500,7.0321904296875,0.2693800926208496,1.0025840997695923,0.03540157899260521
1772548042694228500,7.042228515625,0.2531731426715851,1.0270057916641235,0.02354225516319275
1772548042704265500,7.052265380859375,0.2247803658246994,1.0315099954605103,0.012034809216856956
1772548042714302500,7.062302490234375,0.1938120722770691,1.018831729888916,0.008150855079293251
1772548042724340500,7.072340576171875,0.1578194499015808,0.9775632619857788,0.026405908167362213
1772548042734377700,7.082377685546875,0.12281005829572678,0.9028344750404358,0.05871671065688133
1772548042744414500,7.09241455078125,0.0867503359913826,0.796359121799469,0.10424675047397614
1772548042754451500,7.102451416015625,0.05135985463857651,0.7095044255256653,0.15409977734088898
1772548042764489500,7.112489501953125,0.013920335099101067,0.6901066303253174,0.16689999401569366
1772548042774526700,7.122526611328125,-0.03004419431090355,0.6123484969139099,0.17250141501426697
1772548042784563500,7.1325634765625,-0.0628838986158371,0.5342804789543152,0.14113947749137878
1772548042794601500,7.1426015625,-0.07864181697368622,0.46512264013290405,0.07905161380767822
1772548042804638700,7.152638671875,-0.07517917454242706,0.30938827991485596,0.021093817427754402
1772548042814675500,7.162675537109375,-0.053955383598804474,0.17253856360912323,-0.03404267132282257
1772548042824713500,7.17271337890625,-0.039777517318725586,0.07530288398265839,-0.09130094200372696
1772548042834750500,7.18275048828125,-0.02908092923462391,0.016897371038794518,-0.1266794353723526
1772548042844787700,7.19278759765625,-0.029312890022993088,-0.01052564661949873,-0.13179120421409607
1772548042854824400,7.202824462890625,-0.02541801519691944,-0.014132100157439709,-0.12487496435642242
1772548042864862500,7.212862548828125,-0.022175084799528122,-0.011833091266453266,-0.1205449104309082
1772548042874899700,7.222899658203125,-0.018160371109843254,-0.03287738934159279,-0.13874228298664093
1772548042884936400,7.2329365234375,-0.014815437607467175,-0.08501318097114563,-0.17872999608516693
1772548042894974500,7.242974365234375,-0.01909780129790306,-0.15650999546051025,-0.2320012003183365
1772548042905011500,7.253011474609375,-0.028468932956457138,-0.2308029979467392,-0.28148353099823
1772548042915048700,7.263048583984375,-0.03920626640319824,-0.28593283891677856,-0.33224526047706604
1772548042925086500,7.27308642578125,-0.05256947875022888,-0.3134765326976776,-0.379722535610199
1772548042935123500,7.28312353515625,-0.0506216399371624,-0.3185509145259857,-0.4195386469364166
1772548042945160700,7.29316064453125,-0.04983148351311684,-0.35873302817344666,-0.47244006395339966
1772548042955197700,7.30319775390625,-0.05628805235028267,-0.42545825242996216,-0.5579065084457397
1772548042965235500,7.3132353515625,-0.06771726906299591,-0.46524062752723694,-0.6546886563301086
1772548042975272400,7.3232724609375,-0.06759529560804367,-0.40944233536720276,-0.7329914569854736
1772548042985309700,7.333309814453125,-0.06030755490064621,-0.21802881360054016,-0.7448961734771729
1772548042995347500,7.343347412109375,-0.052628062665462494,0.04461637884378433,-0.6572360396385193
1772548043005384400,7.353384521484375,-0.05503450334072113,0.19861198961734772,-0.49118515849113464
1772548043015421700,7.363421630859375,-0.058260656893253326,0.13743385672569275,-0.30887606739997864
1772548043025458700,7.373458740234375,-0.07468783110380173,-0.06408622860908508,-0.1652984917163849
1772548043035496400,7.383496337890625,-0.1042206883430481,-0.29630640149116516,-0.06206665560603142
1772548043045533400,7.393533447265625,-0.13690060377120972,-0.4571044445037842,0.010491990484297276
1772548043055570700,7.40357080078125,-0.15691505372524261,-0.4945532977581024,0.062038272619247437
1772548043065608400,7.4136083984375,-0.16740284860134125,-0.42465460300445557,0.06817847490310669
1772548043075645400,7.4236455078125,-0.11869895458221436,-0.33633673191070557,0.02414150908589363
1772548043085682700,7.4336826171875,-0.029183993116021156,-0.2884598970413208,-0.0765780583024025
1772548043095720400,7.443720458984375,0.06719581037759781,-0.27813720703125,-0.18544727563858032
1772548043105757400,7.45375732421875,0.15381644666194916,-0.23375795781612396,-0.253207802772522
1772548043115798800,7.463798828125,0.2262512445449829,-0.12243863195180893,-0.2613525390625
1772548043125835800,7.473835693359375,0.3033899664878845,0.00659451587125659,-0.21555279195308685
1772548043135873800,7.483873779296875,0.3949292004108429,0.1539677232503891,-0.16511385142803192
1772548043145910800,7.493910888671875,0.4911241829395294,0.2602948546409607,-0.13604868948459625
1772548043155948000,7.503947998046875,0.5660306811332703,0.31207895278930664,-0.130836620926857
1772548043165985800,7.51398583984375,0.5897817611694336,0.2945546507835388,-0.1136573851108551
1772548043176022800,7.524022705078125,0.5783019661903381,0.23103800415992737,-0.03893041983246803
1772548043186059800,7.534059814453125,0.5383582711219788,0.1252846121788025,0.10906733572483063
1772548043196097800,7.544097900390625,0.4608757197856903,-0.04108545556664467,0.31432488560676575
1772548043206134800,7.554134765625,0.3603733479976654,-0.24883054196834564,0.5403745174407959
1772548043216171800,7.564171875,0.2615154981613159,-0.4731837809085846,0.7216809391975403
1772548043226209000,7.574208984375,0.20132218301296234,-0.6478751301765442,0.8193764686584473
1772548043236246800,7.584246826171875,0.1678057760000229,-0.7267789840698242,0.8506739139556885
1772548043246283800,7.59428369140625,0.14268070459365845,-0.7174030542373657,0.8327919244766235
1772548043256320800,7.60432080078125,0.15048563480377197,-0.6464146375656128,0.785381019115448
1772548043266358800,7.61435888671875,0.19333723187446594,-0.5500239133834839,0.7073698043823242
1772548043276395800,7.624395751953125,0.25364959239959717,-0.46644195914268494,0.6105953454971313
1772548043286432800,7.634432861328125,0.3043859899044037,-0.40357112884521484,0.5169714093208313
1772548043296470800,7.644470703125,0.3296481966972351,-0.33983397483825684,0.456853985786438
1772548043306507800,7.6545078125,0.30904677510261536,-0.317939817905426,0.45999449491500854
1772548043316544800,7.664544677734375,0.2430475354194641,-0.4026504158973694,0.5412334203720093
1772548043326581800,7.674581787109375,0.181825190782547,-0.5829294919967651,0.6565837860107422
1772548043336619800,7.684619873046875,0.11972959339618683,-0.6856193542480469,0.7283602356910706
1772548043346656800,7.69465673828125,0.044476643204689026,-0.6116228103637695,0.6567476987838745
1772548043356693800,7.70469384765625,0.01707325130701065,-0.5620469450950623,0.4745747148990631
1772548043366731800,7.714731689453125,0.02002030611038208,-0.5746656060218811,0.22267986834049225
1772548043376768800,7.724768798828125,0.03351693972945213,-0.5568938255310059,-0.01041464600712061
1772548043386805800,7.7348056640625,0.059057191014289856,-0.4843246340751648,-0.15859511494636536
1772548043396842800,7.7448427734375,0.0935099720954895,-0.3879552185535431,-0.22375787794589996
1772548043406880800,7.754880859375,0.1151747778058052,-0.31788358092308044,-0.22594092786312103
1772548043416917800,7.764917724609375,0.10248614847660065,-0.28799304366111755,-0.1735597401857376
1772548043426954800,7.774954833984375,0.052418991923332214,-0.3057771325111389,-0.08907370269298553
1772548043436992800,7.78499267578125,-0.014962710440158844,-0.3680756688117981,0.010554357431828976
1772548043447029800,7.79502978515625,-0.07152266800403595,-0.41473615169525146,0.11467737704515457
1772548043457066800,7.805066650390625,-0.10672592371702194,-0.4368308186531067,0.2039523869752884
1772548043467105000,7.81510498046875,-0.12905731797218323,-0.463148832321167,0.2459089308977127
1772548043477141800,7.825141845703125,-0.1434599608182907,-0.48009613156318665,0.24866236746311188
1772548043487178800,7.8351787109375,-0.15253201127052307,-0.4822329878807068,0.23151090741157532
1772548043497215700,7.8452158203125,-0.15311844646930695,-0.4620579481124878,0.194997638463974
1772548043507253800,7.855253662109375,-0.14898470044136047,-0.4177417457103729,0.1563732922077179
1772548043517290800,7.865290771484375,-0.13624253869056702,-0.36135169863700867,0.11298266798257828
1772548043527327700,7.87532763671875,-0.11886674165725708,-0.30660954117774963,0.0660984218120575
1772548043537366000,7.885365966796875,-0.1009010598063469,-0.25820446014404297,0.015507417730987072
1772548043547402800,7.89540283203125,-0.08916983008384705,-0.2115887850522995,-0.028102992102503777
1772548043557439700,7.905439697265625,-0.08868273347616196,-0.15437370538711548,-0.0696331188082695
1772548043567477800,7.915477783203125,-0.08336734026670456,-0.11090051382780075,-0.0947549119591713
1772548043577515000,7.925514892578125,-0.0734340101480484,-0.0672406479716301,-0.11622212082147598
1772548043587551700,7.9355517578125,-0.05693306773900986,-0.022301429882645607,-0.11840872466564178
1772548043597588700,7.945588623046875,-0.040552761405706406,0.030778298154473305,-0.11724332720041275
1772548043607627000,7.955626953125,-0.01667938381433487,0.0679592713713646,-0.11381874233484268
1772548043617663700,7.965663818359375,0.00861718226224184,0.08163327723741531,-0.11922548711299896
1772548043627700700,7.97570068359375,0.027862250804901123,0.10137111693620682,-0.12367016822099686
1772548043637738800,7.98573876953125,0.04036339372396469,0.12031418085098267,-0.1263655424118042
1772548043647776000,7.99577587890625,0.04234478622674942,0.1496095359325409,-0.11888100206851959
1772548043657812700,8.005812744140625,0.02344672754406929,0.194728285074234,-0.09510456770658493
1772548043667850800,8.015850830078126,0.005981717258691788,0.21446163952350616,-0.04906076937913895
1772548043677888000,8.025887939453124,0.005923926830291748,0.20782797038555145,0.009243282489478588
1772548043687924700,8.0359248046875,0.02436339110136032,0.1776471585035324,0.05926143005490303
1772548043697961700,8.045961669921875,0.03929520025849342,0.1638093739748001,0.08343041688203812
1772548043707999700,8.055999755859375,0.07399645447731018,0.16074402630329132,0.07620203495025635
1772548043718037000,8.066037109375,0.1114111989736557,0.19451263546943665,0.047606345266103745
1772548043728073700,8.07607373046875,0.14048679172992706,0.27299585938453674,0.03149649500846863
1772548043738111700,8.08611181640625,0.15531447529792786,0.36739426851272583,0.053437743335962296
1772548043748149000,8.09614892578125,0.17418192327022552,0.4266277253627777,0.07880152761936188
1772548043758186000,8.10618603515625,0.18991588056087494,0.4488275647163391,0.10421953350305557
1772548043768223700,8.1162236328125,0.20628738403320312,0.473543256521225,0.13010762631893158
1772548043778260700,8.1262607421875,0.22365546226501465,0.5040910840034485,0.15106777846813202
1772548043788298000,8.136298095703125,0.2404794543981552,0.5338149070739746,0.1606263518333435
1772548043798334700,8.146334716796876,0.2532311677932739,0.5636612176895142,0.15087784826755524
1772548043808372700,8.156372802734374,0.261663019657135,0.5958852767944336,0.12038130313158035
1772548043818410000,8.166409912109375,0.265322744846344,0.6051011085510254,0.0757504552602768
1772548043828447000,8.176447021484375,0.2726791799068451,0.6007586717605591,0.03780755028128624
1772548043838484700,8.186484619140625,0.2766052186489105,0.5966230034828186,0.04340631514787674
1772548043848521700,8.196521728515625,0.27640148997306824,0.6094261407852173,0.08018358051776886
1772548043858559000,8.20655908203125,0.2723497748374939,0.6120416522026062,0.09426690638065338
1772548043868596700,8.2165966796875,0.2569577693939209,0.6144181489944458,0.08675947040319443
1772548043878633700,8.2266337890625,0.24689872562885284,0.6102771759033203,0.06891442835330963
1772548043888671000,8.2366708984375,0.24489203095436096,0.580381453037262,0.0566876158118248
1772548043898708000,8.2467080078125,0.2545502483844757,0.5469563603401184,0.043847985565662384
1772548043908745700,8.256745849609375,0.25884273648262024,0.5535075068473816,0.06037753447890282
1772548043918782700,8.26678271484375,0.2548469305038452,0.6010039448738098,0.10313724726438522
1772548043928820000,8.276820068359376,0.24642415344715118,0.6270076632499695,0.15338392555713654
1772548043938857700,8.286857666015624,0.24800874292850494,0.6066022515296936,0.2313074916601181
1772548043948894700,8.296894775390625,0.23640640079975128,0.5426248908042908,0.3408171236515045
1772548043958932000,8.306931884765625,0.22480568289756775,0.4807739853858948,0.46214115619659424
1772548043968970800,8.316970703125,0.20838035643100739,0.4474789798259735,0.6007405519485474
1772548043979007700,8.3270078125,0.1707027554512024,0.47374388575553894,0.7219260931015015
1772548043989045000,8.337044921875,0.1428641974925995,0.5112957954406738,0.803076982498169
1772548043999082800,8.347082763671875,0.11372602730989456,0.4676226079463959,0.8312345743179321
1772548044009119700,8.35711962890625,0.11309325695037842,0.39465004205703735,0.8033925890922546
1772548044019157000,8.367156982421875,0.14634175598621368,0.46203839778900146,0.7753375172615051
1772548044029194800,8.37719482421875,0.2432350069284439,0.5470381379127502,0.7783300280570984
1772548044039231700,8.387231689453126,0.2542772889137268,0.42198216915130615,0.8364796042442322
1772548044049268700,8.397268798828126,0.22373826801776886,0.4264334440231323,0.8441634774208069
1772548044059306800,8.407306640625,0.2393675595521927,0.6223808526992798,0.7790380120277405
1772548044069343700,8.41734375,0.2194916009902954,0.6295326948165894,0.7158645391464233
1772548044079380700,8.427380615234375,0.1897273063659668,0.5567610263824463,0.6459109783172607
1772548044089418000,8.43741796875,0.20314165949821472,0.6144114136695862,0.5422326326370239
1772548044099455700,8.447455810546876,0.33337873220443726,0.8683488965034485,0.39007022976875305
1772548044109488600,8.457488525390625,0.3689785599708557,0.8367365002632141,0.34587985277175903
1772548044119526000,8.46752587890625,0.37626099586486816,0.8184858560562134,0.35443633794784546
1772548044129564000,8.47756396484375,0.43477141857147217,1.096940279006958,0.3100283145904541
1772548044139600600,8.4876005859375,0.4992087185382843,1.2050241231918335,0.278425395488739
1772548044149638000,8.497637939453124,0.5114076137542725,1.0329887866973877,0.2688046991825104
1772548044159676000,8.507676025390625,0.4843408465385437,0.930240273475647,0.28413334488868713
1772548044169713000,8.517712890625,0.4222164750099182,0.8829414248466492,0.3508227467536926
1772548044179749600,8.52774951171875,0.4263891279697418,1.0297149419784546,0.37403059005737305
1772548044189788000,8.537787841796876,0.46341851353645325,1.0115419626235962,0.4144275486469269
1772548044199825000,8.547824951171876,0.42107853293418884,0.6780508160591125,0.5621554851531982
1772548044209861600,8.557861572265624,0.3803289532661438,0.5549769401550293,0.707669734954834
1772548044219899000,8.56789892578125,0.3457835018634796,0.6044824719429016,0.797097384929657
1772548044229937000,8.57793701171875,0.2996863126754761,0.5835695862770081,0.8072594404220581
1772548044239974000,8.587973876953125,0.28032591938972473,0.6334133148193359,0.7584468722343445
1772548044250010600,8.5980107421875,0.32296526432037354,0.6291958689689636,0.7155365943908691
1772548044260049000,8.608048828125,0.31190383434295654,0.41024351119995117,0.7747743725776672
1772548044270086000,8.6180859375,0.3131089210510254,0.4229430556297302,0.793994128704071
1772548044280123000,8.628122802734374,0.36254915595054626,0.7346237301826477,0.704778254032135
1772548044290161000,8.638160888671875,0.3504490852355957,0.6248328685760498,0.7544559240341187
1772548044300198000,8.648197998046875,0.31875935196876526,0.5042537450790405,0.8455134034156799
1772548044310235000,8.65823486328125,0.2878187298774719,0.4648769795894623,0.9200839400291443
1772548044320271600,8.668271728515625,0.2434033304452896,0.401727557182312,0.9832746386528015
1772548044330310000,8.678309814453126,0.2079068422317505,0.33236438035964966,1.0146939754486084
1772548044340347000,8.688346923828124,0.23095384240150452,0.3411935567855835,1.0193334817886353
1772548044350383900,8.6983837890625,0.28634175658226013,0.3435054421424866,1.0041632652282715
1772548044360422000,8.708421875,0.3557535707950592,0.43667078018188477,0.8848419785499573
1772548044370459000,8.718458984375,0.44738176465034485,0.7771244049072266,0.6217344403266907
1772548044380496000,8.728495849609375,0.5210386514663696,0.9391050338745117,0.42350146174430847
1772548044390534000,8.738533935546876,0.4804278612136841,0.790305495262146,0.4492596387863159
1772548044400571000,8.74857080078125,0.47088655829429626,0.8705302476882935,0.5507460832595825
1772548044410607900,8.75860791015625,0.5212498307228088,0.8741171956062317,0.6761162877082825
1772548044420645600,8.768645751953125,0.5949618816375732,0.9188383221626282,0.5944725871086121
1772548044430683000,8.778682861328125,0.5632013082504272,0.47644495964050293,0.6396372318267822
1772548044440720000,8.788719970703125,0.5460785031318665,0.46100395917892456,0.6143603324890137
1772548044450756900,8.7987568359375,0.5398046374320984,0.5249603986740112,0.5393509864807129
1772548044460795000,8.808794921875,0.47284770011901855,0.4802504777908325,0.46178504824638367
1772548044470831900,8.818831787109374,0.4115563929080963,0.4978240728378296,0.4414694309234619
1772548044480868900,8.828868896484375,0.4109582304954529,0.6623813509941101,0.5098778009414673
1772548044490906600,8.83890673828125,0.4791735112667084,0.8445643782615662,0.6924009919166565
1772548044500944000,8.84894384765625,0.5507044196128845,1.2770915031433105,0.6998503804206848
1772548044510980900,8.85898095703125,0.545661211013794,0.9315581917762756,0.9313840270042419
1772548044521018600,8.8690185546875,0.49563026428222656,0.8849512338638306,1.2369778156280518
1772548044531055900,8.879055908203124,0.43601512908935547,0.7362053394317627,1.3730318546295166
1772548044541092900,8.8890927734375,0.42093098163604736,0.6346230506896973,1.196682095527649
1772548044551131000,8.899130859375,0.44847285747528076,0.44731539487838745,1.2566465139389038
1772548044561167600,8.909167724609375,0.5354418754577637,0.4252862334251404,1.5073362588882446
1772548044571204900,8.919204833984375,0.6135443449020386,0.5374809503555298,1.6563228368759155
1772548044581241900,8.929241943359376,0.5599085688591003,0.001677471213042736,1.8564667701721191
1772548044591279900,8.93927978515625,0.5091196894645691,-0.041136469691991806,1.974104404449463
1772548044601316900,8.94931689453125,0.49499642848968506,0.025470519438385963,1.9470030069351196
1772548044611353900,8.959353759765625,0.4768536388874054,0.052212171256542206,1.7988749742507935
1772548044621392000,8.969391845703125,0.45148730278015137,0.11443772912025452,1.6148185729980469
1772548044631428600,8.9794287109375,0.42097678780555725,0.14019756019115448,1.4230328798294067
1772548044641465900,8.9894658203125,0.37034156918525696,0.11516305804252625,1.2464532852172852
1772548044651503900,8.99950390625,0.33176517486572266,0.09441684186458588,1.072553038597107
1772548044661540900,9.009540771484374,0.31437018513679504,0.15500561892986298,0.8500704765319824
1772548044671577900,9.019577880859375,0.22544962167739868,0.2175891101360321,0.6080997586250305
1772548044681614800,9.02961474609375,0.0843590795993805,0.13597306609153748,0.43335142731666565
1772548044691652900,9.03965283203125,-0.009967420250177383,0.048733312636613846,0.2668982148170471
1772548044701689600,9.049689697265626,-0.07134608924388885,0.0009380957344546914,0.05811197683215141
1772548044711726800,9.059726806640626,-0.1374444216489792,-0.07155048102140427,-0.15889136493206024
1772548044721764900,9.069764892578124,-0.18537652492523193,-0.17708995938301086,-0.32662948966026306
1772548044731801900,9.0798017578125,-0.21400178968906403,-0.3071085214614868,-0.4393928050994873
1772548044741838800,9.0898388671875,-0.24751366674900055,-0.4228806793689728,-0.5234983563423157
1772548044751876900,9.099876953125,-0.27978450059890747,-0.5172945857048035,-0.6037079691886902
1772548044761913900,9.109913818359376,-0.2845779359340668,-0.5366389751434326,-0.6743507385253906
1772548044771950800,9.119950927734376,-0.24872753024101257,-0.4823465645313263,-0.7224382162094116
1772548044781988900,9.12998876953125,-0.20048116147518158,-0.3950904905796051,-0.7122383117675781
1772548044792025900,9.14002587890625,-0.14836497604846954,-0.3293752074241638,-0.6574130058288574
1772548044802062800,9.150062744140625,-0.06701872497797012,-0.2711507976055145,-0.6217130422592163
1772548044812099800,9.160099853515625,0.06974764168262482,-0.14783523976802826,-0.6531054377555847
1772548044822137900,9.170137939453125,0.21467287838459015,0.082352414727211,-0.7641792297363281
1772548044832174800,9.1801748046875,0.32706838846206665,0.3737805187702179,-0.8922899961471558
1772548044842211800,9.1902119140625,0.4067922532558441,0.6211167573928833,-0.9209834337234497
1772548044852249900,9.200249755859375,0.5484697818756104,1.3028703927993774,-1.1214264631271362
1772548044862286800,9.210286865234375,0.6304943561553955,1.0373958349227905,-0.953249990940094
1772548044872323800,9.22032373046875,0.5459836721420288,0.6469610333442688,-0.7184577584266663
1772548044882361900,9.23036181640625,0.34877821803092957,0.18648582696914673,-0.44091832637786865
1772548044892398800,9.24039892578125,0.18809185922145844,0.12189994007349014,-0.2087303251028061
1772548044902435800,9.250435791015626,0.14310868084430695,-0.46355101466178894,0.17505861818790436
1772548044912473900,9.260473876953125,0.08870482444763184,-1.2329983711242676,0.5331000089645386
1772548044922510800,9.2705107421875,-0.055231571197509766,-1.4924511909484863,0.6026071906089783
1772548044932547800,9.2805478515625,-0.3265725374221802,-1.478034496307373,0.6476131081581116
1772548044942584800,9.290584716796875,-0.426258385181427,-1.4455199241638184,0.8779006600379944
1772548044952622800,9.300622802734376,-0.16130608320236206,-1.50728440284729,0.829362690448761
1772548044962659800,9.310659912109376,0.24496659636497498,-1.2368614673614502,0.3083895444869995
1772548044972696800,9.32069677734375,0.43085578083992004,-0.8085792660713196,-0.35242146253585815
1772548044982734800,9.33073486328125,0.3087061643600464,-0.6126741766929626,-0.6807972192764282
1772548044992771800,9.340771728515625,0.24134096503257751,-0.5053573846817017,-0.8401927351951599
1772548045002808800,9.350808837890625,0.20943205058574677,-0.1634988635778427,-1.0390491485595703
1772548045012846600,9.3608466796875,0.1888870894908905,0.30524569749832153,-1.1235371828079224
1772548045022883800,9.3708837890625,0.17692922055721283,0.2138262689113617,-1.1949583292007446
1772548045032920800,9.3809208984375,0.0755232498049736,-0.05000097677111626,-1.2072550058364868
1772548045042958800,9.390958740234375,-0.048677265644073486,-0.1299877017736435,-1.1093249320983887
1772548045052995800,9.400995849609375,-0.13474130630493164,-0.05253330618143082,-0.9847421050071716
1772548045063032800,9.41103271484375,-0.18614590167999268,0.01192344818264246,-0.8773218989372253
1772548045073070800,9.42107080078125,-0.22775113582611084,-0.02450612001121044,-0.7804818749427795
1772548045083107600,9.431107666015626,-0.2765261232852936,-0.13320089876651764,-0.7227381467819214
1772548045093144800,9.441144775390624,-0.3545208275318146,-0.2545745372772217,-0.6697870492935181
1772548045103181800,9.451181884765624,-0.43921732902526855,-0.3758311867713928,-0.6123917102813721
1772548045113220000,9.46122021484375,-0.4903974235057831,-0.43905109167099,-0.5521422028541565
1772548045123256800,9.4712568359375,-0.5374727845191956,-0.4235674738883972,-0.4634900689125061
1772548045133293800,9.4812939453125,-0.5898076295852661,-0.5026661157608032,-0.3711501955986023
1772548045143332000,9.49133203125,-0.6273376941680908,-0.5998488664627075,-0.31207993626594543
1772548045153368800,9.501368896484376,-0.668336033821106,-0.719241201877594,-0.23150977492332458
1772548045163405800,9.51140576171875,-0.7090951800346375,-0.799409031867981,-0.154148668050766
1772548045173443800,9.52144384765625,-0.7210045456886292,-0.7894012928009033,-0.1346871703863144
1772548045183481000,9.531481201171875,-0.710324227809906,-0.7188067436218262,-0.14418266713619232
1772548045193517800,9.541517822265625,-0.6668393015861511,-0.616008460521698,-0.20002643764019012
1772548045203555800,9.551555908203126,-0.6439081430435181,-0.5120477080345154,-0.3017618656158447
1772548045213593000,9.561593017578126,-0.6143393516540527,-0.3571922481060028,-0.4016634225845337
1772548045223629800,9.5716298828125,-0.6029439568519592,-0.1790400892496109,-0.48497533798217773
1772548045233666800,9.581666748046874,-0.5967715382575989,-0.046808380633592606,-0.5474786162376404
1772548045243704800,9.591704833984375,-0.5913456082344055,0.05954468995332718,-0.6013535857200623
1772548045253742000,9.6017421875,-0.6118207573890686,0.16313964128494263,-0.629772961139679
1772548045263778800,9.61177880859375,-0.6196709871292114,0.2590765357017517,-0.6393262147903442
1772548045273816800,9.62181689453125,-0.6373019218444824,0.3650608956813812,-0.6193860769271851
1772548045283854000,9.63185400390625,-0.6598432064056396,0.4348583519458771,-0.5614228844642639
1772548045293891000,9.64189111328125,-0.6899265050888062,0.4763745367527008,-0.4769017696380615
1772548045303928800,9.6519287109375,-0.7161402702331543,0.5601420998573303,-0.40269118547439575
1772548045313965800,9.6619658203125,-0.7333853244781494,0.6118718385696411,-0.38937005400657654
1772548045324003000,9.672003173828125,-0.7221717834472656,0.6506687998771667,-0.40207627415657043
1772548045334040800,9.682040771484376,-0.6827538013458252,0.6894738078117371,-0.4149356484413147
1772548045344077800,9.692077880859374,-0.6094143390655518,0.7227934002876282,-0.4077908992767334
1772548045354115000,9.702114990234374,-0.4941639304161072,0.7518431544303894,-0.39746716618537903
1772548045364152800,9.71215283203125,-0.35398632287979126,0.8086236119270325,-0.3595924973487854
1772548045374189800,9.72218994140625,-0.2484111487865448,0.8109506368637085,-0.2105167806148529
1772548045384226800,9.732226806640625,-0.23230594396591187,0.7165272235870361,0.02639295533299446
1772548045394264800,9.742264892578126,-0.25844353437423706,0.5705459117889404,0.2650200128555298
1772548045404301800,9.7523017578125,-0.22791679203510284,0.5733249187469482,0.4285452961921692
1772548045414338800,9.7623388671875,-0.18029387295246124,0.6379016041755676,0.4882674813270569
1772548045424376000,9.7723759765625,-0.14132437109947205,0.6205260753631592,0.5364707112312317
1772548045434413800,9.782413818359375,-0.1329663097858429,0.503659188747406,0.6615771651268005
1772548045444450800,9.792450927734375,-0.1706700176000595,0.29918140172958374,0.8185153603553772
1772548045454487800,9.80248779296875,-0.2186093032360077,-0.023877089843153954,0.9618901014328003
1772548045464525800,9.81252587890625,-0.251945436000824,-0.3356190025806427,1.0241292715072632
1772548045474562800,9.822562744140624,-0.28219255805015564,-0.5619960427284241,0.9710075259208679
1772548045484599800,9.832599853515624,-0.3185447156429291,-0.685136079788208,0.8516377210617065
1772548045494638000,9.84263818359375,-0.35631659626960754,-0.6812505125999451,0.7176021337509155
1772548045504674800,9.8526748046875,-0.40651077032089233,-0.5925976037979126,0.5529386401176453
1772548045514711800,9.8627119140625,-0.4956499934196472,-0.47817713022232056,0.3329162001609802
1772548045524750000,9.87275,-0.623965859413147,-0.38150250911712646,0.013709180057048798
1772548045534786800,9.882786865234374,-0.727512776851654,-0.42746907472610474,-0.3868578374385834
1772548045544823800,9.89282373046875,-0.7550919651985168,-0.5376778841018677,-0.7285283207893372
1772548045554862000,9.902862060546875,-0.7206964492797852,-0.49124059081077576,-0.9346351623535156
1772548045564899000,9.912899169921875,-0.6878026723861694,-0.20013576745986938,-1.0935320854187012
1772548045574935800,9.922935791015625,-0.6601819396018982,0.005841314792633057,-1.3210790157318115
1772548045584972800,9.932972900390626,-0.6385157704353333,-0.08879304677248001,-1.5011403560638428
1772548045595011000,9.943010986328124,-0.4733433425426483,0.03413362056016922,-1.4651901721954346
1772548045605048000,9.953048095703124,-0.222581148147583,0.1278129667043686,-1.5313348770141602
1772548045615084800,9.963084716796875,0.019929226487874985,0.27856579422950745,-1.7166829109191895
1772548045625122800,9.973122802734375,0.31289052963256836,0.6042256355285645,-1.5837997198104858
1772548045635160000,9.98316015625,0.49336761236190796,0.49493008852005005,-1.097000241279602
1772548045645196800,9.99319677734375,0.3075450360774994,-0.4641040563583374,-0.6747913956642151
1772548045655234800,10.00323486328125,-0.05006956309080124,-0.9906206727027893,-0.2723659873008728
1772548045665272000,10.01327197265625,-0.06638382375240326,-0.8789085149765015,0.14685390889644623
1772548045675309000,10.02330908203125,0.032986175268888474,-0.8472298383712769,0.37575820088386536
1772548045685346800,10.033346923828125,0.016570448875427246,-0.9283307790756226,0.359115868806839
1772548045695383800,10.0433837890625,-0.1193583607673645,-0.8874234557151794,0.1822245568037033
1772548045705421000,10.053421142578125,-0.2875412404537201,-0.6967427134513855,-0.01605391688644886
1772548045715458800,10.063458740234376,-0.36876872181892395,-0.5826514959335327,-0.17825806140899658
1772548045725495800,10.073495849609374,-0.4288208782672882,-0.447318971157074,-0.3790303170681
1772548045735533000,10.083532958984375,-0.4410165548324585,-0.30137744545936584,-0.5357504487037659
1772548045745570800,10.09357080078125,-0.39239203929901123,-0.18227368593215942,-0.6545668244361877
1772548045755607800,10.10360791015625,-0.31168732047080994,-0.07533068209886551,-0.7667220234870911
1772548045765644800,10.113644775390625,-0.18616987764835358,0.07674194127321243,-0.8977305889129639
1772548045775682800,10.123682861328126,-0.0030802180990576744,0.314641535282135,-1.0080236196517944
1772548045785719800,10.1337197265625,0.24727290868759155,0.5258044004440308,-1.088464379310608
1772548045795756800,10.1437568359375,0.5182108879089355,0.5535283088684082,-1.10776686668396
1772548045805794000,10.1537939453125,0.7089443802833557,0.4107173681259155,-0.9688925743103027
1772548045815831800,10.163831787109375,0.6560196280479431,0.1922895312309265,-0.627341628074646
1772548045825868800,10.173868896484375,0.3469882905483246,-0.0366152860224247,-0.15135270357131958
1772548045835905800,10.18390576171875,0.06023164466023445,-0.270278662443161,0.27934086322784424
1772548045845943800,10.19394384765625,-0.08759750425815582,-0.4714501202106476,0.5710100531578064
1772548045855980800,10.203980712890624,-0.16787822544574738,-0.6025287508964539,0.6873916983604431
1772548045866017800,10.214017822265625,-0.23324283957481384,-0.5912055373191833,0.6732127666473389
1772548045876056000,10.22405615234375,-0.3030179440975189,-0.4867546558380127,0.5921937823295593
1772548045886092800,10.2340927734375,-0.3474583625793457,-0.3571402132511139,0.47682565450668335
1772548045896129800,10.2441298828125,-0.3324141800403595,-0.20028457045555115,0.3389442265033722
1772548045906168000,10.25416796875,-0.2663795053958893,-0.08175019919872284,0.1888420730829239
1772548045916205000,10.264205078125,-0.181375652551651,-0.03130323067307472,0.06527277082204819
1772548045926241800,10.27424169921875,-0.09114828705787659,-0.02864699438214302,0.015841040760278702
1772548045936280000,10.284280029296875,-0.015092406421899796,-0.02215420827269554,0.023099485784769058
1772548045946317000,10.294317138671875,0.010588723234832287,-0.05927680805325508,0.059602633118629456
1772548045956353800,10.304353759765625,0.00774766318500042,-0.032811034470796585,0.06487838178873062
1772548045966391800,10.314391845703126,0.05114413797855377,0.046376194804906845,0.0002506519667804241
1772548045976429000,10.324428955078124,0.10328244417905807,0.15178526937961578,-0.09275559335947037
1772548045986466000,10.334466064453125,0.1400282084941864,0.21336686611175537,-0.1965475082397461
1772548045996503800,10.34450390625,0.16947664320468903,0.21357962489128113,-0.26412445306777954
1772548046006541000,10.354541015625,0.21173328161239624,0.16850163042545319,-0.2636552155017853
1772548046016578000,10.364578125,0.25674229860305786,0.12418946623802185,-0.2026570439338684
1772548046026614800,10.37461474609375,0.2797602713108063,0.11578240245580673,-0.15553240478038788
1772548046036652800,10.38465283203125,0.28450602293014526,0.15652666985988617,-0.17113593220710754
1772548046046690000,10.39468994140625,0.2902294099330902,0.2046838104724884,-0.17167015373706818
1772548046056727000,10.40472705078125,0.2926188111305237,0.19284197688102722,-0.14346250891685486
1772548046066764800,10.414764892578125,0.27618125081062317,0.13857607543468475,-0.08563144505023956
1772548046076802000,10.424802001953125,0.2335435152053833,0.06158721446990967,0.008036047220230103
1772548046086839000,10.434839111328126,0.1650288999080658,-0.037777189165353775,0.11561577022075653
1772548046096876800,10.444876708984374,0.08783477544784546,-0.15674611926078796,0.21135903894901276
1772548046106913800,10.454913818359374,0.023786816745996475,-0.24361123144626617,0.26824337244033813
1772548046116951000,10.464950927734375,-0.003795277327299118,-0.2974018454551697,0.2796440124511719
1772548046126989000,10.474989013671875,0.004008317366242409,-0.27761295437812805,0.27439650893211365
1772548046137026000,10.485026123046875,0.028182098641991615,-0.20841220021247864,0.2648877501487732
1772548046147063000,10.49506298828125,0.04282975196838379,-0.14145207405090332,0.2559637725353241
1772548046157101000,10.50510107421875,0.042748790234327316,-0.11705124378204346,0.23331741988658905
1772548046167138000,10.515137939453124,0.052064258605241776,-0.12473952025175095,0.18832597136497498
1772548046177175000,10.525175048828125,0.07960028201341629,-0.10353656113147736,0.13250496983528137
1772548046187213000,10.535213134765625,0.1194228008389473,-0.027673758566379547,0.08608527481555939
1772548046197250000,10.54525,0.14375528693199158,0.06836188584566116,0.0383792519569397
1772548046207287000,10.555287109375,0.14681953191757202,0.14799092710018158,-0.007093425840139389
1772548046217325000,10.565324951171876,0.15011972188949585,0.19345173239707947,-0.03104354254901409
1772548046227362000,10.575362060546874,0.1421946883201599,0.16920603811740875,-0.033831603825092316
1772548046237399000,10.58539892578125,0.11610822379589081,0.08675246685743332,-0.052786871790885925
1772548046247437000,10.59543701171875,0.1060422733426094,0.0577130950987339,-0.08650648593902588
1772548046257474300,10.605474365234375,0.1192648708820343,0.08211002498865128,-0.13109885156154633
1772548046267511000,10.615510986328125,0.14280295372009277,0.11517876386642456,-0.18503105640411377
1772548046277549000,10.625549072265626,0.15735499560832977,0.15818476676940918,-0.22208786010742188
1772548046287586000,10.6355859375,0.1508590131998062,0.13114729523658752,-0.23777121305465698
1772548046297623000,10.645623046875,0.11906299740076065,0.0428621880710125,-0.21765926480293274
1772548046307660000,10.655659912109375,0.07835525274276733,-0.0328136645257473,-0.17619676887989044
1772548046317698000,10.665697998046875,0.03218802064657211,-0.08007439225912094,-0.14922019839286804
1772548046327735300,10.6757353515625,-0.006149245426058769,-0.058441534638404846,-0.14041019976139069
1772548046337772000,10.68577197265625,-0.03270628675818443,-0.016169937327504158,-0.13437800109386444
1772548046347810000,10.69581005859375,-0.058526430279016495,-0.02537861466407776,-0.15079905092716217
1772548046357847000,10.705846923828124,-0.08253749459981918,-0.03819093480706215,-0.16937723755836487
1772548046367884000,10.715884033203125,-0.09366124868392944,-0.036899834871292114,-0.1784849762916565
1772548046377922000,10.725922119140625,-0.10177536308765411,-0.046931806951761246,-0.18721887469291687
1772548046387959000,10.735958984375,-0.10031169652938843,-0.026400167495012283,-0.19090469181537628
1772548046397996300,10.745996337890626,-0.0997239351272583,0.0001577506773173809,-0.17963489890098572
1772548046408034000,10.756033935546874,-0.11437025666236877,-0.004745661746710539,-0.15718258917331696
1772548046418071000,10.766071044921874,-0.14047428965568542,-0.017334697768092155,-0.12015844136476517
1772548046428108000,10.77610791015625,-0.15513260662555695,-0.015106430277228355,-0.10451610386371613
1772548046438146000,10.78614599609375,-0.16166692972183228,-0.009482969529926777,-0.08320114016532898
1772548046448183000,10.79618310546875,-0.16805718839168549,-0.0017123980214819312,-0.0766977071762085
1772548046458220000,10.806219970703125,-0.16600336134433746,0.016003869473934174,-0.08142944425344467
1772548046468258000,10.816258056640624,-0.17024365067481995,0.026908447965979576,-0.10563118755817413
1772548046478295000,10.826294921875,-0.1693112701177597,0.03923753648996353,-0.129624143242836
1772548046488332000,10.83633203125,-0.15824370086193085,0.06124403327703476,-0.15120534598827362
1772548046498370000,10.8463701171875,-0.1459691971540451,0.0796225294470787,-0.16420525312423706
1772548046508407000,10.856406982421875,-0.12782375514507294,0.08846555650234222,-0.16047176718711853
1772548046518444000,10.866444091796875,-0.11022664606571198,0.07243034988641739,-0.14536027610301971
1772548046528482000,10.87648193359375,-0.09868503361940384,0.05045980215072632,-0.14071784913539886
1772548046538519000,10.88651904296875,-0.0785701796412468,0.0450177937746048,-0.1359083354473114
1772548046548556000,10.89655615234375,-0.049942534416913986,0.07150904834270477,-0.11803160607814789
1772548046558594000,10.906593994140625,-0.013954703696072102,0.08747126907110214,-0.0981973186135292
1772548046568631300,10.91663134765625,0.011843603104352951,0.06930824369192123,-0.10323043167591095
1772548046578668000,10.92666796875,0.018681269139051437,0.0178047027438879,-0.09239471703767776
1772548046588706000,10.9367060546875,0.021314866840839386,-0.02239065244793892,-0.06011320650577545
1772548046598743000,10.946742919921874,0.03926217555999756,-0.0448136068880558,-0.04509221017360687
1772548046608780000,10.956780029296874,0.056096285581588745,-0.06259579956531525,-0.06425019353628159
1772548046618818000,10.966818115234375,0.06146655231714249,-0.07828681915998459,-0.07696251571178436
1772548046628855000,10.97685498046875,0.05924227833747864,-0.09666609019041061,-0.06554314494132996
1772548046638892300,10.986892333984375,0.06735213845968246,-0.10060876607894897,-0.031548354774713516
1772548046648929000,10.996928955078126,0.07619063556194305,-0.11412271112203598,-0.002404317958280444
1772548046658967000,11.006967041015624,0.0730355903506279,-0.15027618408203125,0.001281150383874774
1772548046669004000,11.017004150390624,0.055874183773994446,-0.18569649755954742,-0.00424144696444273
1772548046679041000,11.027041015625,0.04500795155763626,-0.21288566291332245,-0.014918184839189053
1772548046689079000,11.0370791015625,0.04282016307115555,-0.23514489829540253,-0.03721923008561134
1772548046699116000,11.047115966796875,0.04380153492093086,-0.24453787505626678,-0.061742063611745834
1772548046709153300,11.0571533203125,0.05877568945288658,-0.2377643883228302,-0.07682541012763977
1772548046719191000,11.06719091796875,0.09198904037475586,-0.22215154767036438,-0.09229538589715958
1772548046729228000,11.07722802734375,0.10952355712652206,-0.2101777195930481,-0.11789209395647049
1772548046739265000,11.08726513671875,0.11148018389940262,-0.22769857943058014,-0.13876114785671234
1772548046749303000,11.097302978515625,0.08819004148244858,-0.23915204405784607,-0.1518082469701767
1772548046759340000,11.107340087890625,0.05291140824556351,-0.210804283618927,-0.14484328031539917
1772548046769377000,11.117376953125,0.023473627865314484,-0.22021590173244476,-0.12904860079288483
1772548046779415000,11.1274150390625,0.008757531642913818,-0.27728694677352905,-0.14377406239509583
1772548046789452000,11.1374521484375,-0.012128042057156563,-0.3117290735244751,-0.16416694223880768
1772548046799489000,11.147489013671875,-0.040545832365751266,-0.3201419711112976,-0.1602019965648651
1772548046809527000,11.157527099609375,-0.06824909895658493,-0.35210227966308594,-0.15347698330879211
1772548046819564000,11.16756396484375,-0.09086067229509354,-0.3774482011795044,-0.16491122543811798
1772548046829601000,11.17760107421875,-0.11005540937185287,-0.37609851360321045,-0.18431448936462402
1772548046839639300,11.187639404296876,-0.12693610787391663,-0.3698047399520874,-0.21424318850040436
1772548046849676000,11.197676025390624,-0.13454049825668335,-0.37500351667404175,-0.2459835410118103
1772548046859713000,11.207713134765624,-0.1336912214756012,-0.3604561686515808,-0.2864934802055359
1772548046869751000,11.2177509765625,-0.12977291643619537,-0.32436153292655945,-0.33049798011779785
1772548046879788300,11.227788330078125,-0.12771615386009216,-0.29937395453453064,-0.38900551199913025
1772548046889825000,11.237824951171875,-0.14786164462566376,-0.3097666800022125,-0.43709447979927063
1772548046899863000,11.247863037109376,-0.18313626945018768,-0.31508490443229675,-0.4652116298675537
1772548046909900300,11.257900390625,-0.21410883963108063,-0.2906821072101593,-0.4940129220485687
1772548046919937000,11.26793701171875,-0.23170912265777588,-0.24107171595096588,-0.5506696105003357
1772548046929975000,11.27797509765625,-0.2246038168668747,-0.16295534372329712,-0.632990837097168
1772548046940012000,11.288011962890625,-0.18191494047641754,-0.009825906716287136,-0.727170467376709
1772548046950049300,11.29804931640625,-0.10649529099464417,0.1463186889886856,-0.8141996264457703
1772548046960087000,11.308087158203126,-0.026818836107850075,0.21330997347831726,-0.8615351319313049
1772548046970124000,11.3181240234375,0.018514025956392288,0.21569350361824036,-0.8361972570419312
1772548046980161000,11.3281611328125,0.012613258324563503,0.11122982949018478,-0.7161074280738831
1772548046990198000,11.338197998046875,-0.02902713045477867,-0.08186426013708115,-0.5482680797576904
1772548047000236000,11.348236083984375,-0.07657547295093536,-0.2723282277584076,-0.3951009511947632
1772548047010273000,11.35827294921875,-0.07534349709749222,-0.4839209020137787,-0.2693731188774109
1772548047020310300,11.368310302734375,-0.1122003123164177,-0.5666531324386597,-0.2017555832862854
1772548047030348000,11.37834814453125,-0.17376300692558289,-0.5313952565193176,-0.20407652854919434
1772548047040385000,11.388385009765624,-0.23048248887062073,-0.49255645275115967,-0.27166491746902466
1772548047050422000,11.398422119140625,-0.25475504994392395,-0.45570284128189087,-0.389612078666687
1772548047060460000,11.4084599609375,-0.24225205183029175,-0.40191537141799927,-0.5226952433586121
1772548047070497000,11.4184970703125,-0.19960445165634155,-0.3192814588546753,-0.6591455340385437
1772548047080534000,11.428533935546875,-0.12378506362438202,-0.2966991066932678,-0.8021427392959595
1772548047090572000,11.438572021484376,-0.041918959468603134,-0.31857216358184814,-0.9089440107345581
1772548047100609000,11.448609130859374,-0.009052889421582222,-0.32500338554382324,-0.9417173862457275
1772548047110646000,11.45864599609375,-0.03779558837413788,-0.4169599413871765,-0.917099118232727
1772548047120687900,11.46868798828125,-0.10326780378818512,-0.613738477230072,-0.8216867446899414
1772548047130725000,11.47872509765625,-0.18239004909992218,-0.7661232352256775,-0.6114592552185059
1772548047140762000,11.48876220703125,-0.26353177428245544,-1.031204342842102,-0.3489927649497986
1772548047150800000,11.4987998046875,-0.38116252422332764,-1.254098653793335,-0.2026856243610382
1772548047160836900,11.5088369140625,-0.4896165728569031,-1.3706436157226562,-0.07651875913143158
1772548047170874000,11.5188740234375,-0.5724946856498718,-1.4649711847305298,0.03656838461756706
1772548047180912000,11.528912109375,-0.6201428771018982,-1.7211799621582031,0.10688252747058868
1772548047190948900,11.538948974609376,-0.5959488749504089,-1.8425372838974,0.10408514738082886
1772548047200986000,11.548986083984374,-0.5372224450111389,-1.7890393733978271,0.09638017416000366
1772548047211024100,11.559024169921875,-0.4936605989933014,-1.6388261318206787,0.13225509226322174
1772548047221060900,11.569060791015625,-0.4799136221408844,-1.4632567167282104,0.21572722494602203
1772548047231097900,11.579097900390625,-0.5048514604568481,-1.3308954238891602,0.3291531205177307
1772548047241136000,11.58913623046875,-0.5646676421165466,-1.215820550918579,0.4472470283508301
1772548047251173000,11.599173095703126,-0.6132378578186035,-1.1449912786483765,0.5165188312530518
1772548047261209900,11.6092099609375,-0.611931324005127,-1.157688021659851,0.44852977991104126
1772548047271248100,11.619248046875,-0.5535457730293274,-1.174417495727539,0.2755630612373352
1772548047281285000,11.62928515625,-0.46900343894958496,-0.970380425453186,0.07563978433609009
1772548047291322000,11.639322021484375,-0.3420819938182831,-0.5107529163360596,-0.040569379925727844
1772548047301360000,11.649360107421876,-0.1722756326198578,-0.13087010383605957,-0.10878226906061172
1772548047311397000,11.659397216796876,-0.0008378364145755768,0.0777992233633995,-0.1666245311498642
1772548047321434000,11.66943408203125,0.16042962670326233,0.23103325068950653,-0.16281117498874664
1772548047331472000,11.679471923828125,0.31613481044769287,0.3885469436645508,-0.02751993201673031
1772548047341509000,11.689509033203125,0.4361269772052765,0.480523943901062,0.19620998203754425
1772548047351546000,11.699546142578125,0.4893307685852051,0.47706344723701477,0.3564462661743164
1772548047361583900,11.709583984375,0.47889360785484314,0.4966011941432953,0.3705136477947235
1772548047371621000,11.71962109375,0.43283531069755554,0.6139909029006958,0.2823116183280945
1772548047381658000,11.729658203125,0.3672501742839813,0.7263351678848267,0.11852740496397018
1772548047391696000,11.73969580078125,0.28468552231788635,0.7658511400222778,-0.0838981345295906
1772548047401732900,11.74973291015625,0.19585712254047394,0.7608580589294434,-0.2205863893032074
1772548047411770000,11.75977001953125,0.05449466034770012,0.868927538394928,-0.3211100399494171
1772548047421808000,11.76980810546875,-0.0804293304681778,1.0031776428222656,-0.3853875696659088
1772548047431844900,11.779844970703126,-0.191781684756279,0.9955386519432068,-0.46626803278923035
1772548047441882000,11.789882080078126,-0.26107582449913025,0.8498716950416565,-0.5769522190093994
1772548047451919000,11.799919189453124,-0.2726706862449646,0.6502936482429504,-0.7023942470550537
1772548047461956900,11.809956787109375,-0.25271669030189514,0.5072929263114929,-0.8295074701309204
1772548047471993900,11.819993896484375,-0.12839898467063904,0.7088031768798828,-0.8832200169563293
1772548047482031000,11.830031005859375,0.12888793647289276,1.2696672677993774,-0.7604790329933167
1772548047492069000,11.840069091796876,0.40233945846557617,1.7383594512939453,-0.414261132478714
1772548047502105900,11.85010595703125,0.4929361641407013,1.63808012008667,0.10163862258195877
1772548047512143000,11.86014306640625,0.3696858882904053,1.1161311864852905,0.6640023589134216
1772548047522181000,11.87018115234375,0.13845613598823547,0.5042794346809387,1.0708287954330444
1772548047532217900,11.8802177734375,-0.051374781876802444,0.058536265045404434,1.2839692831039429
1772548047542254800,11.8902548828125,-0.13523852825164795,-0.1904570609331131,1.4005151987075806
1772548047552293000,11.900293212890626,-0.13244086503982544,-0.3296588957309723,1.446798324584961
1772548047562330000,11.910330078125,-0.07677201181650162,-0.3969517946243286,1.3678449392318726
1772548047572366800,11.920366943359374,-0.0024541085585951805,-0.38446688652038574,1.160844326019287
1772548047582405000,11.930405029296875,0.07618024945259094,-0.372469961643219,0.9358685612678528
1772548047592442000,11.940442138671875,0.1571190506219864,-0.4046984612941742,0.7090895175933838
1772548047602479000,11.95047900390625,0.2367052137851715,-0.3652283251285553,0.43380624055862427
1772548047612517000,11.96051708984375,0.3142111897468567,-0.18864691257476807,0.16868217289447784
1772548047622554000,11.97055419921875,0.3496764898300171,0.17007091641426086,0.02806054800748825
1772548047632591000,11.980591064453124,0.3075711131095886,0.5653210282325745,0.15902122855186462
1772548047642629000,11.990629150390625,0.17492519319057465,0.5829413533210754,0.47968557476997375
1772548047652665000,12.0006650390625,-0.04213201254606247,0.05636434629559517,0.8128390312194824
1772548047662702000,12.0107021484375,-0.3022610545158386,-0.46754786372184753,1.0047526359558105
1772548047672739000,12.020739013671875,-0.518828809261322,-0.5202257037162781,0.9688783288002014
1772548047682776800,12.03077685546875,-0.6373157501220703,-0.26474979519844055,0.8086315393447876
1772548047692814000,12.04081396484375,-0.6710556149482727,0.07145431637763977,0.5771501064300537
1772548047702851000,12.05085107421875,-0.6832542419433594,0.3812938630580902,0.2895730137825012
1772548047712888800,12.060888916015625,-0.6830909848213196,0.5433448553085327,0.0353764146566391
1772548047722926000,12.070926025390625,-0.6367964744567871,0.6203994750976562,-0.1649947464466095
1772548047732963000,12.080963134765625,-0.6037524938583374,0.7439754605293274,-0.29897889494895935
1772548047743001000,12.0910009765625,-0.5946984887123108,0.9788106083869934,-0.34914636611938477
1772548047753037800,12.101037841796876,-0.6144689917564392,1.2146655321121216,-0.36698636412620544
1772548047763075000,12.111074951171876,-0.6556145548820496,1.2986797094345093,-0.352997750043869
1772548047773113000,12.121113037109374,-0.6633848547935486,1.234012484550476,-0.2873407006263733
1772548047783150000,12.131150146484375,-0.5928465127944946,1.1495307683944702,-0.19425293803215027
1772548047793187000,12.14118701171875,-0.47230949997901917,1.1499403715133667,-0.13191606104373932
1772548047803225000,12.15122509765625,-0.3848094642162323,1.1438376903533936,-0.11351526528596878
1772548047813262000,12.161261962890626,-0.3867277503013611,1.1536206007003784,-0.11964879184961319
1772548047823298800,12.171298828125,-0.5264012217521667,1.0136797428131104,-0.014532225206494331
1772548047833337000,12.181337158203124,-0.7282994389533997,0.6632707715034485,0.2782783508300781
1772548047843374000,12.1913740234375,-0.8036120533943176,0.4777384400367737,0.6431636214256287
1772548047853411000,12.2014111328125,-0.7408546805381775,0.18150091171264648,1.1367942094802856
1772548047863449000,12.211448974609375,-0.561059832572937,-0.1464964896440506,1.5740671157836914
1772548047873486000,12.221486083984376,-0.3408004939556122,-0.4204915463924408,1.7921091318130493
1772548047883523000,12.231523193359376,-0.1640070527791977,-0.2137547731399536,1.8200448751449585
1772548047893561000,12.24156103515625,0.011278746649622917,0.12955518066883087,1.7887753248214722
1772548047903598000,12.25159814453125,0.13245391845703125,0.3555268943309784,1.6437331438064575
1772548047913635000,12.261635009765625,0.19905424118041992,0.48820504546165466,1.3730512857437134
1772548047923672800,12.2716728515625,0.2435295432806015,0.21373453736305237,1.04659903049469
1772548047933710000,12.2817099609375,0.25030040740966797,-0.41054263710975647,0.6935933232307434
1772548047943747000,12.2917470703125,0.251766175031662,-1.1364959478378296,0.38121822476387024
1772548047953784800,12.301784912109374,0.2353518009185791,-1.5176500082015991,0.11241604387760162
1772548047963823000,12.311822998046875,0.19478891789913177,-1.3595168590545654,-0.12981697916984558
1772548047973860900,12.32186083984375,0.214291512966156,-0.8411669135093689,-0.2567831873893738
1772548047983897900,12.33189794921875,0.26512086391448975,-0.17167949676513672,-0.27387455105781555
1772548047993935000,12.34193505859375,0.2640726566314697,0.4726691246032715,-0.31107383966445923
1772548048003973000,12.35197314453125,0.1934826374053955,0.699063241481781,-0.47588101029396057
1772548048014009900,12.362009765625,0.14233769476413727,0.21791768074035645,-0.9311632513999939
1772548048024047000,12.372047119140625,0.19986197352409363,-0.775620698928833,-1.726000428199768
1772548048034085000,12.382085205078125,0.2726139426231384,-1.7245968580245972,-2.708777666091919
1772548048044121900,12.392121826171875,0.135074183344841,-2.3803508281707764,-3.640944242477417
1772548048054158800,12.402158935546876,-0.011615383438766003,-1.1036934852600098,-3.89151930809021
1772548048064197000,12.412197021484374,-0.06227962672710419,2.2923669815063477,-3.028006076812744
1772548048074234000,12.422234130859374,-0.3770311772823334,2.3068959712982178,-2.8025200366973877
1772548048084270800,12.432270751953125,-0.8562459945678711,1.2401132583618164,-2.5915181636810303
1772548048094308000,12.44230810546875,-1.0290074348449707,0.44915834069252014,-2.2099609375
1772548048104346000,12.45234619140625,-0.7959506511688232,-0.0637194812297821,-1.6973955631256104
1772548048114378800,12.462378662109375,-0.27244457602500916,-0.24129772186279297,-1.0682405233383179
1772548048124416500,12.47241650390625,0.25204208493232727,-0.1829902082681656,-0.459665447473526
1772548048134453500,12.48245361328125,0.46297428011894226,-0.0336473248898983,-0.0359828844666481
