time,seconds_elapsed,z,y,x
1772548035728373000,0.076373046875,-0.17721419036388397,-0.20439282059669495,0.05097530037164688
1772548035738410200,0.08641015625,-0.2603503465652466,-0.19505710899829865,-0.08893918991088867
1772548035748447200,0.096447265625,-0.29162946343421936,-0.21908335387706757,-0.30645206570625305
1772548035758484200,0.106484130859375,-0.29377809166908264,-0.20104601979255676,-0.5275455713272095
1772548035768522200,0.116522216796875,-0.2117237001657486,-0.020741231739521027,-0.706007182598114
1772548035778559200,0.126559326171875,-0.07186327129602432,0.21033939719200134,-0.8206714391708374
1772548035788596200,0.13659619140625,0.0698307454586029,0.41450077295303345,-0.8931347131729126
1772548035798633200,0.14663330078125,0.19920338690280914,0.4027423858642578,-0.9104154706001282
1772548035808670000,0.156669921875,0.24018676578998566,0.20519550144672394,-0.8506160378456116
1772548035818707200,0.166707275390625,0.16488109529018402,0.1315457820892334,-0.7904941439628601
1772548035828745200,0.1767451171875,0.17593161761760712,0.4587947428226471,-0.8812615871429443
1772548035838782000,0.186781982421875,0.2925562262535095,0.928364098072052,-1.2336188554763794
1772548035848819200,0.196819091796875,0.39566317200660706,1.6025846004486084,-1.5916099548339844
1772548035858856200,0.206856201171875,0.4037650525569916,2.3913791179656982,-1.7571901082992554
1772548035868893200,0.21689306640625,0.27815359830856323,2.942676067352295,-1.7378782033920288
1772548035878931000,0.226930908203125,0.20208439230918884,2.7598817348480225,-1.5132131576538086
1772548035888968200,0.23696826171875,-0.031679365783929825,2.335688829421997,-1.1541423797607422
1772548035899005200,0.247005126953125,-0.22719347476959229,2.049046277999878,-1.0012388229370117
1772548035909042200,0.257042236328125,-0.38400599360466003,2.0394785404205322,-1.0993361473083496
1772548035919079200,0.2670791015625,-0.59273761510849,2.2842068672180176,-1.2616770267486572
1772548035929117200,0.2771171875,-0.934187650680542,2.5125572681427,-1.1143587827682495
1772548035939154200,0.287154296875,-1.1717767715454102,2.585672616958618,-0.730741024017334
1772548035949191200,0.297191162109375,-1.2642422914505005,2.141801595687866,-0.30939939618110657
1772548035959228200,0.307228271484375,-1.2165669202804565,1.4971532821655273,0.03032967634499073
1772548035969265200,0.31726513671875,-1.1001824140548706,1.077860951423645,0.14489780366420746
1772548035979302100,0.32730224609375,-1.0075191259384155,1.3057401180267334,0.06373530626296997
1772548035989340200,0.337340087890625,-0.7226561903953552,1.6664834022521973,-0.26650863885879517
1772548035999377200,0.347377197265625,-0.4253603518009186,2.0560789108276367,-0.5400121212005615
1772548036009414100,0.3574140625,-0.2022029012441635,2.3169546127319336,-0.43822208046913147
1772548036019451100,0.367451171875,0.026326945051550865,2.2112066745758057,0.01979953795671463
1772548036029488000,0.377488037109375,-0.005147890187799931,1.6969976425170898,0.5744904279708862
1772548036039526100,0.387526123046875,0.004175836686044931,0.781239926815033,0.9545477628707886
1772548036049563100,0.397563232421875,0.0615677572786808,-1.0091623067855835,1.305835247039795
1772548036059600100,0.40760009765625,0.114765465259552,-2.1146628856658936,1.1119797229766846
1772548036069637000,0.41763720703125,0.3775302469730377,-2.289336919784546,0.4922861158847809
1772548036079674400,0.42767431640625,0.6600362658500671,-1.9396106004714966,-0.048169128596782684
1772548036089711000,0.437711181640625,0.741046667098999,-1.2134392261505127,-0.3724806308746338
1772548036099749600,0.44774951171875,0.8416731357574463,-0.35280999541282654,-0.5889828205108643
1772548036109786600,0.45778662109375,0.8674123287200928,0.4349847435951233,-0.7825051546096802
1772548036119823600,0.46782373046875,0.8082550168037415,0.9421419501304626,-1.2082463502883911
1772548036129860600,0.477860595703125,0.6753555536270142,1.232326865196228,-1.8081092834472656
1772548036139897600,0.487897705078125,0.27354925870895386,1.420972466468811,-2.4038426876068115
1772548036149935600,0.497935546875,-0.24093139171600342,1.7783398628234863,-2.7806484699249268
1772548036159972600,0.50797265625,-0.8238754868507385,1.7359799146652222,-2.9725289344787598
1772548036170009600,0.518009521484375,-1.3168561458587646,1.4812355041503906,-2.916959762573242
1772548036180046600,0.528046630859375,-1.6382032632827759,1.1195220947265625,-2.7412025928497314
1772548036190083800,0.538083740234375,-1.7548871040344238,0.5983691215515137,-2.623426914215088
1772548036200121600,0.54812158203125,-1.5990923643112183,0.2852801978588104,-2.6229262351989746
1772548036210158600,0.55815869140625,-1.3027877807617188,0.3594337999820709,-2.827665328979492
1772548036220195800,0.56819580078125,-1.076891303062439,0.7949303984642029,-3.1698384284973145
1772548036230232800,0.57823291015625,-1.235913634300232,1.3170926570892334,-3.6607701778411865
1772548036240269600,0.58826953125,-1.6526315212249756,1.8113585710525513,-4.207097053527832
1772548036250307600,0.5983076171875,-2.042332649230957,2.1117677688598633,-4.81083345413208
1772548036260344800,0.6083447265625,-2.426945924758911,1.8810452222824097,-5.328293323516846
1772548036270381600,0.618381591796875,-2.829568386077881,1.0297596454620361,-5.392021179199219
1772548036280418600,0.62841845703125,-3.164151668548584,-0.20684905350208282,-4.974661350250244
1772548036290455600,0.63845556640625,-3.3715381622314453,-1.5664294958114624,-4.300905704498291
1772548036300492800,0.648492919921875,-3.3176651000976562,-2.3619396686553955,-3.6822118759155273
1772548036310530600,0.658530517578125,-3.20487642288208,-2.3785183429718018,-3.5326404571533203
1772548036320567600,0.668567626953125,-3.120959997177124,-1.631241798400879,-3.8046491146087646
1772548036330604500,0.6786044921875,-3.1288862228393555,-0.3693934977054596,-4.3227009773254395
1772548036340641800,0.688641845703125,-3.1484012603759766,1.0117205381393433,-5.0392632484436035
1772548036350679600,0.698679443359375,-3.1276469230651855,2.0496089458465576,-5.764120578765869
1772548036360716500,0.708716552734375,-3.0581858158111572,2.4730007648468018,-6.170133113861084
1772548036370753800,0.71875390625,-2.9366636276245117,2.2718214988708496,-6.0655622482299805
1772548036380790800,0.728790771484375,-2.72892165184021,1.76003098487854,-5.491665363311768
1772548036390827800,0.738827880859375,-2.3706777095794678,1.370681881904602,-4.680487632751465
1772548036400865500,0.748865478515625,-1.956325888633728,1.1986794471740723,-4.022694110870361
1772548036410902800,0.75890283203125,-1.5697710514068604,1.2926949262619019,-3.7470390796661377
1772548036420939800,0.768939697265625,-1.1917285919189453,1.6801185607910156,-3.7374444007873535
1772548036430976500,0.7789765625,-0.880699098110199,2.099118232727051,-3.809068441390991
1772548036441013500,0.789013427734375,-0.5479943752288818,2.385193347930908,-3.8549230098724365
1772548036451050800,0.79905078125,-0.12574994564056396,2.5044524669647217,-3.8313674926757812
1772548036461088800,0.8090888671875,0.39824405312538147,2.643136978149414,-3.596472978591919
1772548036471125500,0.81912548828125,0.9883472919464111,2.5732383728027344,-3.2795677185058594
1772548036481162500,0.82916259765625,1.4420835971832275,2.452279567718506,-2.967682361602783
1772548036491199700,0.83919970703125,1.7981845140457153,2.252065420150757,-2.6916942596435547
1772548036501236700,0.84923681640625,2.057265281677246,2.102050304412842,-2.497559070587158
1772548036511274500,0.8592744140625,2.2876274585723877,2.135239362716675,-2.3132224082946777
1772548036521311700,0.869311767578125,2.3723597526550293,2.9376697540283203,-1.4787575006484985
1772548036531348700,0.8793486328125,2.408304214477539,3.3914873600006104,-0.5103687047958374
1772548036541385700,0.8893857421875,2.4145190715789795,3.4396145343780518,0.09867571294307709
1772548036551423500,0.899423583984375,2.5399229526519775,3.299288511276245,0.4898916780948639
1772548036561460700,0.909460693359375,2.65756893157959,2.896602153778076,0.817782998085022
1772548036571497700,0.919497802734375,2.869349241256714,2.4496142864227295,1.1416164636611938
1772548036581534700,0.92953466796875,3.10359263420105,1.9927771091461182,1.4262816905975342
1772548036591571500,0.939571533203125,3.3471992015838623,1.6616069078445435,1.5379947423934937
1772548036601609700,0.949609619140625,3.577077865600586,1.5424877405166626,1.445312738418579
1772548036611646700,0.959646728515625,3.7853031158447266,1.4459049701690674,1.1913864612579346
1772548036621683700,0.96968359375,3.6918370723724365,1.3366535902023315,0.8398134708404541
1772548036631720400,0.979720458984375,3.3000593185424805,1.1799707412719727,0.6366089582443237
1772548036641757700,0.9897578125,3.197244644165039,1.061432957649231,0.7628302574157715
1772548036651795700,0.999795654296875,3.088228940963745,0.7146981358528137,0.7962601184844971
1772548036661832400,1.00983251953125,2.4876773357391357,0.130513533949852,0.5707628130912781
1772548036671869700,1.01986962890625,1.706247329711914,-0.15659253299236298,0.3413032591342926
1772548036681906700,1.02990673828125,1.1827665567398071,-0.3336336314678192,0.18818482756614685
1772548036691943700,1.039943603515625,0.9808337092399597,-0.6672526001930237,0.2602137327194214
1772548036701981400,1.0499814453125,0.9357452988624573,-1.2096937894821167,0.5244099497795105
1772548036712018700,1.060018798828125,0.7756922841072083,-1.8166992664337158,0.6482989192008972
1772548036722055700,1.0700556640625,0.6543560028076172,-2.3834421634674072,0.49458974599838257
1772548036732092700,1.0800927734375,0.7492691874504089,-2.7425949573516846,0.3337111175060272
1772548036742130700,1.090130615234375,1.250474452972412,-2.727893352508545,0.10704576224088669
1772548036752167700,1.100167724609375,1.591326117515564,-2.4190328121185303,-0.08864331990480423
1772548036762204700,1.11020458984375,1.7307156324386597,-2.0530080795288086,-0.252175509929657
1772548036772241700,1.12024169921875,1.599621295928955,-1.4833767414093018,-0.4570373296737671
1772548036782278700,1.130278564453125,1.3828234672546387,-0.838931143283844,-0.68970787525177
1772548036792316700,1.140316650390625,1.0669283866882324,-0.658257007598877,-0.7652636170387268
1772548036802353700,1.150353759765625,0.832726001739502,-0.9654092192649841,-0.5737103819847107
1772548036812390700,1.160390625,0.8392089009284973,-1.238149881362915,-0.4313362240791321
1772548036822427600,1.170427734375,0.8171083927154541,-1.3851526975631714,-0.23930738866329193
1772548036832464600,1.180464599609375,0.6152037978172302,-1.2994316816329956,0.06054403632879257
1772548036842502700,1.190502685546875,0.5840243101119995,-0.7908483147621155,0.14551033079624176
1772548036852539600,1.20053955078125,0.7033126354217529,-0.33391380310058594,0.06661790609359741
1772548036862576600,1.21057666015625,0.7440240979194641,-0.1620485633611679,0.01727938838303089
1772548036872613600,1.220613525390625,0.49056360125541687,-0.1429062932729721,0.16675356030464172
1772548036882650600,1.230650634765625,0.14671993255615234,0.020487165078520775,0.36312413215637207
1772548036892688600,1.240688720703125,-0.22876127064228058,0.24222993850708008,0.45800989866256714
1772548036902725600,1.2507255859375,-0.6326757073402405,0.3383937478065491,0.5022149085998535
1772548036912762600,1.2607626953125,-1.056883692741394,0.0847761407494545,0.5854629278182983
1772548036922799600,1.270799560546875,-1.4206124544143677,-0.041602570563554764,0.6446197628974915
1772548036932837600,1.280837646484375,-1.8286105394363403,0.14693298935890198,0.5935115218162537
1772548036942874600,1.29087451171875,-2.2932043075561523,0.1362776756286621,0.27777621150016785
1772548036952911600,1.30091162109375,-2.243065357208252,0.057924285531044006,0.10689369589090347
1772548036962948600,1.310948486328125,-2.376922369003296,-0.06846161186695099,-0.014279603026807308
1772548036972985900,1.32098583984375,-2.156183958053589,-0.11351297795772552,-0.057139184325933456
1772548036983023600,1.331023681640625,-1.7250537872314453,0.22267408668994904,-0.11962999403476715
1772548036993060600,1.341060546875,-1.384278655052185,0.4332757890224457,-0.2347848117351532
1772548037003097900,1.351097900390625,-1.0907306671142578,0.5461309552192688,-0.29712995886802673
1772548037013134600,1.361134521484375,-0.7420828938484192,0.6054425239562988,-0.3617803156375885
1772548037023172600,1.371172607421875,-0.32820743322372437,0.5954122543334961,-0.39359498023986816
1772548037033209600,1.381209716796875,0.0710773691534996,0.4015232026576996,-0.35740819573402405
1772548037043246800,1.391246826171875,0.3204704225063324,0.3811531960964203,-0.3535420894622803
1772548037053283600,1.40128369140625,0.3532496690750122,0.3156066834926605,-0.4232836067676544
1772548037063320600,1.411320556640625,0.253440260887146,0.25210174918174744,-0.5120619535446167
1772548037073358600,1.421358642578125,0.2352050542831421,0.22486373782157898,-0.4722386598587036
1772548037083395800,1.431395751953125,0.25505438446998596,0.20789167284965515,-0.36099013686180115
1772548037093432600,1.4414326171875,0.41866517066955566,0.43749743700027466,-0.33863744139671326
1772548037103469800,1.4514697265625,0.7439404726028442,0.7247353196144104,-0.4334734082221985
1772548037113507000,1.461507080078125,1.1908268928527832,0.8524000644683838,-0.5348330736160278
1772548037123544800,1.471544921875,1.7096023559570312,0.7818055748939514,-0.6401370763778687
1772548037133581800,1.481581787109375,2.3024375438690186,0.6449601054191589,-0.736120343208313
1772548037143619000,1.491619140625,2.814697027206421,0.7600933313369751,-0.8244864344596863
1772548037153656000,1.501656005859375,3.0637505054473877,1.2108360528945923,-0.858950674533844
1772548037163693800,1.51169384765625,2.8193256855010986,1.7726809978485107,-0.7005269527435303
1772548037173730800,1.521730712890625,2.5572547912597656,1.9411383867263794,-0.6083626747131348
1772548037183768000,1.53176806640625,2.633429765701294,1.811675786972046,-0.705629825592041
1772548037193805000,1.54180517578125,2.592526912689209,0.997033953666687,-0.6521956324577332
1772548037203842000,1.551842041015625,2.543614387512207,0.21532882750034332,-0.6763622164726257
1772548037213880000,1.561880126953125,2.1855342388153076,-0.24335086345672607,-0.9705597758293152
1772548037223917000,1.5719169921875,1.472827672958374,-0.7061667442321777,-1.083766222000122
1772548037233954000,1.5819541015625,0.6641731858253479,-0.9914354681968689,-0.8879120349884033
1772548037243990800,1.59199072265625,0.01236292626708746,-0.8741152286529541,-0.7074088454246521
1772548037254029000,1.602029052734375,-0.32831424474716187,-0.580710768699646,-0.6695365309715271
1772548037264066000,1.612066162109375,-0.5492148995399475,-0.27745476365089417,-0.6213306784629822
1772548037274103000,1.62210302734375,-0.67978835105896,-0.030173348262906075,-0.48363083600997925
1772548037284139800,1.632139892578125,-0.3175542652606964,0.052987851202487946,-0.45460453629493713
1772548037294177000,1.642177001953125,0.21682977676391602,-0.19312551617622375,-0.4928741455078125
1772548037304215000,1.652215087890625,0.6220076084136963,-0.39376115798950195,-0.5111439824104309
1772548037314251800,1.662251708984375,0.8454404473304749,-0.4720732569694519,-0.5138329863548279
1772548037324288800,1.672288818359375,0.8092129230499268,-0.4332965612411499,-0.3597773611545563
1772548037334326000,1.682325927734375,0.49866917729377747,-0.32813048362731934,-0.09372169524431229
1772548037344364000,1.692364013671875,0.12690681219100952,-0.3239056468009949,0.19697724282741547
1772548037354400800,1.70240087890625,0.2170710563659668,-0.8442614674568176,0.4322962760925293
1772548037364438000,1.71243798828125,0.3874302804470062,-1.6564401388168335,0.6875160932540894
1772548037374475000,1.72247509765625,0.4298938512802124,-2.235783100128174,0.9045543670654297
1772548037384512000,1.732511962890625,0.3091384172439575,-2.4410955905914307,1.064503788948059
1772548037394549800,1.7425498046875,-0.03966778516769409,-2.3773276805877686,1.2139886617660522
1772548037404587000,1.7525869140625,-0.567254364490509,-2.1694090366363525,1.3264012336730957
1772548037414624000,1.7626240234375,-1.1666184663772583,-1.7894452810287476,1.308366060256958
1772548037424661000,1.772660888671875,-1.7979018688201904,-1.1580990552902222,1.1555572748184204
1772548037434699000,1.782698974609375,-2.21976637840271,-0.30722492933273315,1.0208392143249512
1772548037444736000,1.792736083984375,-2.4331350326538086,-0.07925860583782196,1.088020920753479
1772548037454773000,1.80277294921875,-2.0187454223632812,-0.20420479774475098,1.2972416877746582
1772548037464810000,1.81281005859375,-1.2527652978897095,-0.48473048210144043,1.2962918281555176
1772548037474848000,1.822847900390625,-0.6321374773979187,-0.7401587963104248,1.3072919845581055
1772548037484885000,1.832885009765625,-0.37196052074432373,-1.1045407056808472,1.3298659324645996
1772548037494922000,1.842921875,-0.3616040050983429,-1.195391058921814,1.279527187347412
1772548037504959000,1.852958984375,-0.5361302495002747,-0.6184600591659546,1.0364450216293335
1772548037514996000,1.862995849609375,-0.8897000551223755,0.13066160678863525,0.6231565475463867
1772548037525034000,1.873033935546875,-1.3355188369750977,0.7785857915878296,0.18729212880134583
1772548037535071000,1.883071044921875,-1.7230569124221802,1.2712125778198242,-0.17395049333572388
1772548037545108000,1.89310791015625,-2.0492336750030518,1.4046698808670044,-0.43415117263793945
1772548037555145000,1.90314501953125,-2.1899378299713135,1.0908914804458618,-0.583844780921936
1772548037565183000,1.913182861328125,-2.281981945037842,0.9964345097541809,-0.5991984605789185
1772548037575220000,1.923219970703125,-2.487957715988159,0.6338160634040833,-0.45592305064201355
1772548037585257000,1.933257080078125,-2.7219197750091553,0.3394733965396881,-0.2778441309928894
1772548037595294000,1.9432939453125,-2.723459243774414,0.3754338026046753,-0.15271204710006714
1772548037605332000,1.95333203125,-2.348616361618042,0.5661646127700806,-0.15651105344295502
1772548037615369000,1.963368896484375,-1.7585773468017578,0.5868877172470093,-0.3464817702770233
1772548037625406000,1.973406005859375,-1.188596487045288,0.630240797996521,-0.5884560942649841
1772548037635443000,1.98344287109375,-0.5486780405044556,0.5526655912399292,-0.7854530215263367
1772548037645480000,1.99347998046875,0.003704723436385393,0.5709753632545471,-0.897576093673706
1772548037655518000,2.00351806640625,0.2978316843509674,0.6666403412818909,-0.8515865206718445
1772548037665555000,2.013554931640625,0.3330421447753906,0.6305294632911682,-0.6672872304916382
1772548037675592000,2.023592041015625,0.245743989944458,0.43457967042922974,-0.47741076350212097
1772548037685629000,2.03362890625,0.10377486795186996,0.275779128074646,-0.2651621699333191
1772548037695667000,2.0436669921875,-0.19388824701309204,0.08355002105236053,-0.06405887752771378
1772548037705704000,2.053703857421875,-0.6186443567276001,-0.03419951722025871,0.0701519250869751
1772548037715741000,2.063740966796875,-0.8307187557220459,-0.017560351639986038,0.22096461057662964
1772548037725778000,2.07377783203125,-0.9366803765296936,-0.058098189532756805,0.3442852199077606
1772548037735816000,2.08381591796875,-1.034464955329895,-0.1961870938539505,0.45932844281196594
1772548037745853000,2.09385302734375,-1.127032995223999,-0.5624628067016602,0.6197782754898071
1772548037755890000,2.103889892578125,-1.2296531200408936,-1.1030229330062866,0.7497221827507019
1772548037765927000,2.113927001953125,-1.2463791370391846,-1.674363136291504,0.8125948905944824
1772548037775965000,2.12396484375,-1.1663260459899902,-2.0158803462982178,0.7600134611129761
1772548037786002000,2.134001953125,-1.1286324262619019,-1.973292350769043,0.5121943354606628
1772548037796039000,2.144038818359375,-1.2079405784606934,-1.7612054347991943,0.18815605342388153
1772548037806076200,2.154076171875,-1.4934407472610474,-1.5883500576019287,-0.1088860034942627
1772548037816113000,2.16411279296875,-1.8788162469863892,-1.5157575607299805,-0.3141595423221588
1772548037826151000,2.17415087890625,-2.3384079933166504,-1.761476755142212,-0.5700464248657227
1772548037836188000,2.18418798828125,-2.7025387287139893,-2.749403238296509,-1.0963594913482666
1772548037846225000,2.194224853515625,-2.53309965133667,-3.969196319580078,-1.3495690822601318
1772548037856262000,2.204261962890625,-2.5411808490753174,-3.1585795879364014,-0.23563969135284424
1772548037866300000,2.2142998046875,-2.5021393299102783,-3.053514003753662,0.6502448916435242
1772548037876337200,2.224337158203125,-1.8404078483581543,-3.671790599822998,0.6828811168670654
1772548037886374000,2.234373779296875,-1.293799877166748,-3.1200079917907715,0.27532532811164856
1772548037896411000,2.244410888671875,-1.054921269416809,-1.767495036125183,-0.2532477080821991
1772548037906449000,2.254448974609375,-0.6915217041969299,-0.6785257458686829,-0.6214355826377869
1772548037916486100,2.264486083984375,-0.3585110008716583,-0.07142464816570282,-0.7460725903511047
1772548037926523000,2.27452294921875,-0.033364616334438324,0.6697426438331604,-0.751353919506073
1772548037936559900,2.284559814453125,0.16942603886127472,1.5848013162612915,-0.9032403826713562
1772548037946598100,2.29459814453125,0.48133254051208496,2.146812915802002,-0.9001750946044922
1772548037956635000,2.304634765625,1.2250179052352905,0.5234355330467224,-0.6056025624275208
1772548037966672000,2.314671875,1.1870592832565308,-0.2865212559700012,0.13194391131401062
1772548037976708900,2.324708984375,0.4821259081363678,0.025311747565865517,0.7980518937110901
1772548037986747100,2.3347470703125,-0.03778386488556862,0.3586694598197937,0.7376391291618347
1772548037996783900,2.344783935546875,-0.09620136767625809,0.7187594771385193,0.3181585371494293
1772548038006820900,2.35482080078125,-0.05934987589716911,0.9789444804191589,-0.08510717004537582
1772548038016857900,2.36485791015625,-0.10707531869411469,1.056301236152649,-0.24814988672733307
1772548038026896000,2.374895751953125,-0.04340366646647453,0.9766903519630432,-0.1823146790266037
1772548038036932900,2.384932861328125,0.15646657347679138,0.8956679105758667,0.027533091604709625
1772548038046969900,2.394969970703125,0.21498607099056244,0.7393366694450378,0.14827655255794525
1772548038057006800,2.4050068359375,0.18878670036792755,0.7254783511161804,0.2072107046842575
1772548038067044000,2.415044189453125,0.1794232875108719,0.8256251811981201,0.18225768208503723
1772548038077081900,2.425081787109375,0.12122842669487,0.7572349905967712,0.09696409851312637
1772548038087118800,2.435118896484375,0.12315814942121506,0.7551294565200806,0.0726718083024025
1772548038097156000,2.445156005859375,0.21012526750564575,0.7769895195960999,0.05812428891658783
1772548038107192600,2.455192626953125,0.28810128569602966,0.6403480172157288,0.010921623557806015
1772548038117230300,2.465230224609375,0.24665479362010956,0.3021031320095062,-0.0786556601524353
1772548038127267600,2.475267578125,0.19371646642684937,0.12824079394340515,0.00788668543100357
1772548038137304600,2.4853046875,-0.007436344865709543,-0.21505318582057953,0.09216587990522385
1772548038147341600,2.495341552734375,-0.06269853562116623,-0.4001934826374054,0.23489266633987427
1772548038157379600,2.505379638671875,-0.05429119989275932,-0.4310975968837738,0.29257726669311523
1772548038167416600,2.51541650390625,-0.1331695020198822,-0.5506942868232727,0.1628219336271286
1772548038177453600,2.52545361328125,-0.30029404163360596,-0.703100860118866,-0.06362984329462051
1772548038187490600,2.535490478515625,-0.46279534697532654,-0.6830089092254639,-0.25209587812423706
1772548038197528600,2.545528564453125,-0.52996826171875,-0.5579173564910889,-0.33154305815696716
1772548038207565600,2.555565673828125,-0.43859121203422546,-0.42715826630592346,-0.2865358889102936
1772548038217602600,2.5656025390625,-0.3443901240825653,-0.37301698327064514,-0.20870713889598846
1772548038227639600,2.5756396484375,-0.22885102033615112,-0.2162843644618988,-0.10511496663093567
1772548038237677600,2.585677490234375,-0.07039054483175278,0.1297324299812317,0.02424248866736889
1772548038247714600,2.595714599609375,0.04553952068090439,0.26686444878578186,0.11333854496479034
1772548038257751600,2.60575146484375,0.05589868500828743,0.21769557893276215,0.12633264064788818
1772548038267788300,2.615788330078125,-0.014765097759664059,0.308355450630188,0.0940583199262619
1772548038277826600,2.62582666015625,0.01164680253714323,0.6886026263237,0.09279412031173706
1772548038287863600,2.635863525390625,0.05886278301477432,0.9694268703460693,0.09297974407672882
1772548038297900500,2.645900634765625,0.05428241193294525,0.9208593368530273,0.07252240180969238
1772548038307937500,2.6559375,0.08320487290620804,0.6522262692451477,0.0716978907585144
1772548038317975600,2.6659755859375,0.16320836544036865,0.3021702468395233,0.06095336377620697
1772548038328012500,2.676012451171875,0.3070824444293976,0.08334682136774063,0.09548737108707428
1772548038338049500,2.686049560546875,0.3208043873310089,0.12834252417087555,0.1701195389032364
1772548038348086500,2.69608642578125,0.1423393040895462,0.3697335720062256,0.3982038199901581
1772548038358124500,2.70612451171875,-0.2157546579837799,0.12358745187520981,0.6694353222846985
1772548038368161500,2.71616162109375,-0.3260417580604553,-0.5930633544921875,0.6855179071426392
1772548038378198500,2.726198486328125,-0.132961243391037,-0.9925398826599121,0.50583815574646
1772548038388235500,2.736235595703125,-0.09255523234605789,-0.9113789796829224,0.33212360739707947
1772548038398273500,2.7462734375,-0.2323102056980133,-0.688301682472229,0.21780262887477875
1772548038408310500,2.756310546875,-0.14062875509262085,-0.4323575496673584,-0.016227971762418747
1772548038418347500,2.766347412109375,0.15797898173332214,-0.33949097990989685,-0.41716474294662476
1772548038428384500,2.776384521484375,0.5999382734298706,-0.46789848804473877,-0.7199629545211792
1772548038438422500,2.786422607421875,1.1541463136672974,-0.3487177789211273,-0.6289542317390442
1772548038448459500,2.79645947265625,1.625632405281067,0.2637251317501068,-0.3572816848754883
1772548038458496500,2.80649658203125,1.747037649154663,0.8806754350662231,0.00729333283379674
1772548038468533500,2.816533447265625,1.3365963697433472,1.4201042652130127,0.13242141902446747
1772548038478571500,2.826571533203125,0.6052190661430359,1.436592698097229,-0.07445132732391357
1772548038488608500,2.8366083984375,-0.14458142220973969,0.9473929405212402,-0.3573751747608185
1772548038498645500,2.8466455078125,-0.9809695482254028,0.33505308628082275,-0.6275041103363037
1772548038508682500,2.8566826171875,-1.8483307361602783,-0.0878763273358345,-0.8534033298492432
1772548038518720500,2.866720458984375,-2.580191135406494,-0.05152897164225578,-0.9293814301490784
1772548038528757500,2.876757568359375,-3.151966094970703,0.42424502968788147,-0.9617337584495544
1772548038538794500,2.88679443359375,-3.5878043174743652,1.0951021909713745,-1.0811232328414917
1772548038548832500,2.89683251953125,-3.754812717437744,1.8959091901779175,-1.1555501222610474
1772548038558869500,2.906869384765625,-3.9519708156585693,2.5286285877227783,-1.2088510990142822
1772548038568906500,2.916906494140625,-3.7627549171447754,2.9243950843811035,-1.3033849000930786
1772548038578943500,2.926943603515625,-3.2359845638275146,3.0984976291656494,-1.3269191980361938
1772548038588981500,2.9369814453125,-2.817579984664917,2.8807127475738525,-1.372015357017517
1772548038599018500,2.9470185546875,-3.1163558959960938,2.2830841541290283,-1.517434000968933
1772548038609055500,2.957055419921875,-3.9064056873321533,1.7537845373153687,-1.6160814762115479
1772548038619092500,2.967092529296875,-4.64926815032959,1.8941669464111328,-1.3759136199951172
1772548038629130500,2.977130615234375,-4.69455099105835,2.5671956539154053,-0.792897641658783
1772548038639167500,2.98716748046875,-4.365242958068848,2.7152786254882812,-0.1237054318189621
1772548038649204500,2.99720458984375,-3.823910713195801,2.420125722885132,0.48007312417030334
1772548038659241500,3.007241455078125,-3.0533416271209717,1.3389852046966553,0.8132343292236328
1772548038669279500,3.017279541015625,-2.371831178665161,0.17510177195072174,0.9693072438240051
1772548038679316500,3.02731640625,-1.9888641834259033,-0.6726569533348083,1.0476588010787964
1772548038689353500,3.037353515625,-1.8628982305526733,-1.2395009994506836,1.0841081142425537
1772548038699390500,3.047390380859375,-1.9951859712600708,-1.6983699798583984,1.1026767492294312
1772548038709428500,3.057428466796875,-2.4696807861328125,-2.075911045074463,1.119918942451477
1772548038719465500,3.067465576171875,-3.7266106605529785,-2.3067054748535156,1.0090999603271484
1772548038729502500,3.07750244140625,-5.367108345031738,-2.2055084705352783,0.7341557145118713
1772548038739539700,3.087539794921875,-7.326473712921143,-2.2529118061065674,0.41095423698425293
1772548038749577500,3.097577392578125,-8.568056106567383,-2.55011248588562,0.10746387392282486
1772548038759614500,3.107614501953125,-8.906764030456543,-2.8426361083984375,0.04055062308907509
1772548038769651500,3.1176513671875,-8.310397148132324,-3.4372267723083496,0.13718049228191376
1772548038779688700,3.127688720703125,-7.065634250640869,-3.9957261085510254,0.4313066601753235
1772548038789726500,3.1377265625,-5.5998334884643555,-4.2812581062316895,0.7507962584495544
1772548038799763500,3.147763427734375,-4.082093715667725,-4.382591247558594,1.1624770164489746
1772548038809800700,3.15780078125,-2.593782424926758,-4.184706211090088,1.6197243928909302
1772548038819838500,3.16783837890625,-1.0816497802734375,-3.4544453620910645,2.0012502670288086
1772548038829875500,3.17787548828125,0.30784091353416443,-2.4089856147766113,2.291541814804077
1772548038839912400,3.187912353515625,1.1035622358322144,-1.2898857593536377,2.3628170490264893
1772548038849949700,3.19794970703125,1.318753719329834,-0.19788698852062225,2.228593111038208
1772548038859987500,3.207987548828125,1.1673945188522339,0.8251431584358215,1.9157010316848755
1772548038870024400,3.2180244140625,0.793799638748169,1.6282562017440796,1.5103055238723755
1772548038880061700,3.228061767578125,0.34712255001068115,1.8303093910217285,0.8638351559638977
1772548038890098700,3.2380986328125,0.019341208040714264,1.4388347864151,0.09779553860425949
1772548038900136400,3.248136474609375,-0.09759100526571274,0.8969739675521851,-0.5064511895179749
1772548038910173400,3.25817333984375,-0.09333980083465576,0.5573668479919434,-0.8183891177177429
1772548038920210700,3.268210693359375,-0.05034838989377022,0.4463910758495331,-0.8768026232719421
1772548038930247400,3.278247314453125,-0.040824394673109055,0.4736948609352112,-0.7718349695205688
1772548038940285400,3.288285400390625,-0.052323393523693085,0.49657168984413147,-0.5936130285263062
1772548038950322700,3.29832275390625,-0.1073823794722557,0.4696734845638275,-0.4023042917251587
1772548038960359700,3.308359619140625,-0.21939174830913544,0.4146808087825775,-0.21266566216945648
1772548038970396400,3.318396484375,-0.34369903802871704,0.3492051362991333,-0.05662679299712181
1772548038980434400,3.328434326171875,-0.43887510895729065,0.3172421455383301,0.03616705909371376
1772548038990471700,3.3384716796875,-0.4364396333694458,0.2806423008441925,0.07003607600927353
1772548039000508700,3.3485087890625,-0.35065895318984985,0.17110517621040344,0.011458250693976879
1772548039010546400,3.35854638671875,-0.23900538682937622,-0.04210351034998894,-0.18002063035964966
1772548039020583700,3.368583740234375,-0.0008021441171877086,-0.3360674977302551,-0.39460456371307373
1772548039030620700,3.37862060546875,0.3069703280925751,-0.574346125125885,-0.5193126797676086
1772548039040657400,3.388657470703125,0.5618478655815125,-0.7117351293563843,-0.5313951969146729
1772548039050695400,3.3986953125,0.6954754590988159,-0.6597622036933899,-0.4644355773925781
1772548039060732700,3.408732666015625,0.6816390156745911,-0.3937701880931854,-0.3606599271297455
1772548039070769700,3.418769775390625,0.5076847672462463,0.13315299153327942,-0.2685113549232483
1772548039080806400,3.428806396484375,0.30463260412216187,0.720125675201416,-0.19390955567359924
1772548039090844700,3.4388447265625,0.07878882437944412,1.1562092304229736,-0.1588415801525116
1772548039100881700,3.448881591796875,-0.09264764189720154,1.2816568613052368,-0.1785508394241333
1772548039110918700,3.458918701171875,-0.14222584664821625,1.0571199655532837,-0.24869637191295624
1772548039120955600,3.46895556640625,-0.07077164202928543,0.6093155145645142,-0.3335614502429962
1772548039130994000,3.478993896484375,0.04398024082183838,0.1536199152469635,-0.3630807399749756
1772548039141031000,3.489031005859375,0.09973111748695374,-0.12021615356206894,-0.3257778286933899
1772548039151067600,3.499067626953125,0.09546952694654465,-0.11687441915273666,-0.25388047099113464
1772548039161106000,3.50910595703125,0.08516070246696472,0.08451595157384872,-0.16341716051101685
1772548039171143000,3.519142822265625,0.09075946360826492,0.3308032155036926,-0.10089598596096039
1772548039181179600,3.5291796875,0.09284471720457077,0.4876474142074585,-0.0896902084350586
1772548039191216600,3.539216552734375,0.07675949484109879,0.5046820640563965,-0.14081516861915588
1772548039201255000,3.5492548828125,0.055933840572834015,0.4101712703704834,-0.22823476791381836
1772548039211292000,3.5592919921875,0.03693404793739319,0.2623029947280884,-0.309222549200058
1772548039221328600,3.56932861328125,0.020126573741436005,0.11336410790681839,-0.35502681136131287
1772548039231367000,3.579366943359375,0.0021885856986045837,-0.0031491878908127546,-0.35353729128837585
1772548039241404000,3.58940380859375,-0.02009195275604725,-0.08961563557386398,-0.3363223671913147
1772548039251440600,3.599440673828125,-0.05024958774447441,-0.17204047739505768,-0.3062502145767212
1772548039261477600,3.6094775390625,-0.08338677138090134,-0.24845348298549652,-0.2634097933769226
1772548039271516000,3.619515869140625,-0.10973741859197617,-0.32952356338500977,-0.20007982850074768
1772548039281553000,3.629552978515625,-0.09577233344316483,-0.41410210728645325,-0.12139646708965302
1772548039291589600,3.639589599609375,-0.08540225028991699,-0.48759737610816956,-0.013680924661457539
1772548039301626600,3.649626708984375,-0.08807259798049927,-0.5428776741027832,0.11362536251544952
1772548039311665000,3.659664794921875,-0.10536956787109375,-0.5757099390029907,0.24492186307907104
1772548039321702000,3.669701904296875,-0.11692582070827484,-0.5871708393096924,0.3703865706920624
1772548039331738600,3.679738525390625,-0.11410446465015411,-0.5683702230453491,0.47390976548194885
1772548039341776000,3.68977587890625,-0.1007404625415802,-0.5091521739959717,0.5468865036964417
1772548039351814000,3.69981396484375,-0.10487768054008484,-0.36877164244651794,0.5828509330749512
1772548039361850600,3.7098505859375,-0.11429914832115173,-0.2210937738418579,0.5793925523757935
1772548039371887600,3.7198876953125,-0.0851505771279335,-0.24264885485172272,0.5515265464782715
1772548039381926000,3.72992578125,0.019478360190987587,-0.45810365676879883,0.5463485717773438
1772548039391963000,3.739962890625,0.09137119352817535,-0.6914042830467224,0.5787054300308228
1772548039401999600,3.74999951171875,0.061285994946956635,-0.7703121304512024,0.6151278614997864
1772548039412036900,3.760036865234375,-0.01432434469461441,-0.5997332334518433,0.6199710965156555
1772548039422075000,3.770074951171875,-0.05390371009707451,-0.23282259702682495,0.6022720336914062
1772548039432111600,3.780111572265625,-0.07108376175165176,0.1850942224264145,0.5771586894989014
1772548039442148600,3.790148681640625,-0.0713423565030098,0.5342671275138855,0.5565127730369568
1772548039452187000,3.800186767578125,-0.025921344757080078,0.6341372728347778,0.5377417802810669
1772548039462224000,3.810223876953125,0.019175559282302856,0.5553713440895081,0.4763534963130951
1772548039472260600,3.820260498046875,0.03923768177628517,0.330852746963501,0.3621976375579834
1772548039482297900,3.8302978515625,0.04745300114154816,0.056708287447690964,0.21229548752307892
1772548039492335900,3.8403359375,0.03513668105006218,-0.09452437609434128,0.04332457110285759
1772548039502372900,3.850372802734375,0.014959508553147316,-0.1255565881729126,-0.08678922057151794
1772548039512409600,3.86040966796875,-0.036803022027015686,-0.1278996467590332,-0.14821051061153412
1772548039522446800,3.87044677734375,-0.1538955569267273,-0.09552998095750809,-0.18133170902729034
1772548039532484900,3.88048486328125,-0.25560086965560913,-0.03611592575907707,-0.20133763551712036
1772548039542521600,3.890521484375,-0.1871427297592163,-0.003090332029387355,-0.20427004992961884
1772548039552558600,3.90055859375,-0.03399791568517685,-0.008288289420306683,-0.18091732263565063
1772548039562596900,3.910596923828125,0.08308609575033188,0.005351089406758547,-0.14652419090270996
1772548039572633900,3.9206337890625,0.16723214089870453,0.08044104278087616,-0.10854032635688782
1772548039582670600,3.930670654296875,0.18613392114639282,0.19475537538528442,-0.08797299861907959
1772548039592707800,3.940707763671875,0.09763281792402267,0.23459386825561523,-0.12117569148540497
1772548039602745900,3.950745849609375,0.008964466862380505,0.13443024456501007,-0.18378740549087524
1772548039612782600,3.960782470703125,-0.04728469252586365,-0.006717823911458254,-0.2705875635147095
1772548039622819600,3.970819580078125,-0.04853903874754906,-0.1037096157670021,-0.343815416097641
1772548039632856800,3.98085693359375,0.011094196699559689,-0.13027624785900116,-0.37274855375289917
1772548039642894800,3.990894775390625,0.06180451065301895,-0.06532414257526398,-0.34324365854263306
1772548039652929800,4.0009296875,-0.005377987399697304,-0.016033029183745384,-0.24078038334846497
1772548039662966800,4.010966796875,-0.03417288511991501,0.03475797921419144,-0.11524829268455505
1772548039673004800,4.0210048828125,0.033009883016347885,0.12136610597372055,-0.02369840443134308
1772548039683041800,4.031041748046875,0.1120503693819046,0.19170765578746796,0.009075786918401718
1772548039693078800,4.041078857421875,0.14124047756195068,0.20184177160263062,0.017222397029399872
1772548039703115800,4.05111572265625,0.14620700478553772,0.15580664575099945,0.02177240699529648
1772548039713153800,4.06115380859375,0.1424839049577713,0.07455971837043762,0.04253574088215828
1772548039723190800,4.071190673828125,0.1443052440881729,-0.004379302263259888,0.06071021780371666
1772548039733227800,4.081227783203125,0.15318796038627625,-0.08757219463586807,0.0744771659374237
1772548039743265800,4.091265869140625,0.1429411768913269,-0.1275571584701538,0.0709034651517868
1772548039753302800,4.101302734375,0.11489436030387878,-0.11691809445619583,0.0557684563100338
1772548039763339800,4.11133984375,0.0736616998910904,-0.07757441699504852,0.03875964507460594
1772548039773376800,4.121376708984375,0.026865169405937195,-0.0538128986954689,0.042458776384592056
1772548039783414800,4.131414794921875,-0.023789752274751663,-0.06986137479543686,0.06325460225343704
1772548039793451800,4.14145166015625,-0.06941316276788712,-0.12111417204141617,0.09037836641073227
1772548039803488800,4.15148876953125,-0.11814527958631516,-0.19307172298431396,0.11427730321884155
1772548039813525800,4.16152587890625,-0.1648360937833786,-0.28551509976387024,0.13810381293296814
1772548039823563800,4.171563720703125,-0.19307811558246613,-0.4180483818054199,0.15913772583007812
1772548039833600800,4.181600830078125,-0.19802306592464447,-0.5565974712371826,0.18778933584690094
1772548039843637800,4.1916376953125,-0.16760630905628204,-0.6717384457588196,0.21938614547252655
1772548039853675800,4.20167578125,-0.03248337283730507,-0.6941851377487183,0.26461461186408997
1772548039863712800,4.211712646484375,0.16606992483139038,-0.6003779768943787,0.30640387535095215
1772548039873749800,4.221749755859375,0.3465949594974518,-0.413220077753067,0.3484823405742645
1772548039883786800,4.231786865234375,0.4507080614566803,-0.11388502269983292,0.39120131731033325
1772548039893824800,4.24182470703125,0.4842774569988251,0.27013322710990906,0.4068159759044647
1772548039903861800,4.25186181640625,0.4739933907985687,0.6943635940551758,0.40010425448417664
1772548039913898800,4.261898681640625,0.4508262872695923,1.108060598373413,0.36324745416641235
1772548039923936800,4.271936767578125,0.431343674659729,1.456318736076355,0.29882559180259705
1772548039933973800,4.281973876953125,0.4019487798213959,1.6303304433822632,0.21255195140838623
1772548039944010800,4.2920107421875,0.3650461435317993,1.5475099086761475,0.11980815976858139
1772548039954047700,4.3020478515625,0.32857468724250793,1.1958839893341064,0.033973678946495056
1772548039964085800,4.312085693359375,0.3049686849117279,0.6450673937797546,-0.04735393449664116
1772548039974122800,4.322122802734375,0.26275813579559326,0.026497654616832733,-0.11864728480577469
1772548039984159700,4.33215966796875,0.17823205888271332,-0.5200221538543701,-0.1753542423248291
1772548039994197800,4.34219775390625,0.07547185570001602,-0.8923690915107727,-0.2215089499950409
1772548040004234800,4.35223486328125,-0.03930559381842613,-1.024388074874878,-0.2531891167163849
1772548040014271700,4.362271728515625,-0.1349855214357376,-0.9887435436248779,-0.26655313372612
1772548040024308700,4.372308837890625,-0.23980966210365295,-0.852076530456543,-0.24051113426685333
1772548040034346800,4.3823466796875,-0.38142991065979004,-0.6861767768859863,-0.17562854290008545
1772548040044383700,4.3923837890625,-0.4451572299003601,-0.48530811071395874,-0.08480596542358398
1772548040054420700,4.402420654296875,-0.5333845615386963,-0.23778432607650757,-0.01648150570690632
1772548040064458000,4.4124580078125,-0.655336856842041,0.015686817467212677,-0.006485329940915108
1772548040074495700,4.422495849609375,-0.8136428594589233,0.18630462884902954,-0.06283196061849594
1772548040084532700,4.43253271484375,-0.9071509838104248,0.21595732867717743,-0.21355170011520386
1772548040094569700,4.44256982421875,-0.8494423627853394,0.13867878913879395,-0.3971068859100342
1772548040104607700,4.452607666015625,-0.613731861114502,-0.05808167904615402,-0.5162702798843384
1772548040114644700,4.462644775390625,-0.2967299520969391,-0.2836191952228546,-0.5123469233512878
1772548040124681700,4.472681640625,-0.024567395448684692,-0.4526748061180115,-0.4130256474018097
1772548040134719700,4.4827197265625,0.12459812313318253,-0.48979365825653076,-0.2512892186641693
1772548040144756700,4.4927568359375,0.11411698162555695,-0.39682191610336304,-0.08525896817445755
1772548040154793700,4.502793701171875,0.03056270256638527,-0.21449525654315948,0.07524095475673676
1772548040164830700,4.512830810546875,-0.08615725487470627,-0.022176409140229225,0.21513228118419647
1772548040174868700,4.52286865234375,-0.21471203863620758,0.11797749996185303,0.30810829997062683
1772548040184905700,4.53290576171875,-0.3539660573005676,0.20089715719223022,0.35413146018981934
1772548040194942700,4.542942626953125,-0.3751813471317291,0.179824098944664,0.3588774800300598
1772548040204980000,4.55297998046875,-0.15018843114376068,0.08891362696886063,0.3411722481250763
1772548040215017700,4.563017822265625,0.17329135537147522,-0.008451541885733604,0.2914808392524719
1772548040225054700,4.5730546875,0.3447272777557373,-0.08815808594226837,0.23190167546272278
1772548040235091700,4.583091796875,0.37772732973098755,-0.07884341478347778,0.18633392453193665
1772548040245129700,4.593129638671875,0.28066709637641907,0.043167177587747574,0.13448964059352875
1772548040255166700,4.603166748046875,0.07088536024093628,0.30953681468963623,0.06135550141334534
1772548040265203700,4.61320361328125,-0.05255082622170448,0.6093248724937439,-0.027538683265447617
1772548040275241000,4.623240966796875,-0.06184712052345276,0.8936159610748291,-0.1017194390296936
1772548040285278700,4.63327880859375,-0.05750536918640137,1.1074872016906738,-0.16404512524604797
1772548040295315700,4.643315673828125,-0.1339556723833084,1.2551600933074951,-0.26604127883911133
1772548040305352700,4.653352783203125,-0.14464212954044342,1.13951575756073,-0.4010654091835022
1772548040315390700,4.663390625,0.07495759427547455,0.6179604530334473,-0.5449717044830322
1772548040325427700,4.673427734375,0.3263421654701233,0.00999218039214611,-0.6009129881858826
1772548040335464700,4.683464599609375,0.4105111062526703,-0.35389283299446106,-0.5686644911766052
1772548040345503000,4.6935029296875,0.36578622460365295,-0.43710756301879883,-0.5002569556236267
1772548040355539700,4.703539794921875,0.313068151473999,-0.338807612657547,-0.4400580823421478
1772548040365576700,4.71357666015625,0.22931760549545288,-0.18504682183265686,-0.4287438988685608
1772548040375613700,4.72361376953125,0.1087174266576767,-0.0596766471862793,-0.46033111214637756
1772548040385651700,4.733651611328125,0.025380456820130348,0.0002921487612184137,-0.49362143874168396
1772548040395688700,4.743688720703125,0.02508830837905407,-0.05572132021188736,-0.4696519076824188
1772548040405725700,4.7537255859375,0.07038761675357819,-0.15933533012866974,-0.38042110204696655
1772548040415764000,4.763763916015625,0.11696337163448334,-0.21033033728599548,-0.2452787309885025
1772548040425800700,4.77380078125,0.13501641154289246,-0.1740008294582367,-0.09024201333522797
1772548040435837700,4.783837646484375,0.10038252919912338,-0.01847807690501213,0.06901368498802185
1772548040445874700,4.793874755859375,0.024109596386551857,0.18678373098373413,0.21047042310237885
1772548040455912700,4.80391259765625,-0.02833656594157219,0.3326924741268158,0.3220115900039673
1772548040465949700,4.81394970703125,-0.004028297495096922,0.3589525520801544,0.36582937836647034
1772548040475986700,4.823986572265625,0.048949431627988815,0.38265442848205566,0.3606918752193451
1772548040486023700,4.834023681640625,0.07920427620410919,0.43807747960090637,0.3582955598831177
1772548040496061700,4.844061767578125,0.051954012364149094,0.43537330627441406,0.3576446771621704
1772548040506098700,4.8540986328125,0.007006776984781027,0.378817081451416,0.3232946991920471
1772548040516135700,4.8641357421875,-0.013278255239129066,0.2534075081348419,0.2226405292749405
1772548040526174000,4.874174072265625,-0.046062566339969635,0.13291117548942566,0.08000455796718597
1772548040536210700,4.884210693359375,-0.08954107016324997,0.10639727860689163,-0.017854364588856697
1772548040546247700,4.89424755859375,-0.11263547092676163,0.18809480965137482,-0.04677256569266319
1772548040556286000,4.904285888671875,-0.09705331176519394,0.26349449157714844,-0.040518131107091904
1772548040566322700,4.91432275390625,-0.07420285791158676,0.3886319100856781,-0.0038573225028812885
1772548040576359700,4.924359619140625,0.008764463476836681,0.6855783462524414,0.1214103177189827
1772548040586396700,4.934396728515625,0.23405350744724274,0.8260068297386169,0.20717927813529968
1772548040596435000,4.94443505859375,0.4751651883125305,0.5002231597900391,0.1588953733444214
1772548040606471700,4.9544716796875,0.5860592126846313,-0.057606037706136703,0.02581588365137577
1772548040616508700,4.9645087890625,0.5400933027267456,-0.6308245658874512,-0.10365208983421326
1772548040626547000,4.974546875,0.39437395334243774,-1.078540563583374,-0.19583475589752197
1772548040636583700,4.984583740234375,0.24265073239803314,-1.1209250688552856,-0.19200032949447632
1772548040646620700,4.99462060546875,0.16022323071956635,-0.7446534037590027,-0.11609970778226852
1772548040656657700,5.00465771484375,0.1755712926387787,-0.238628551363945,-0.043665722012519836
1772548040666696000,5.014696044921875,0.16607072949409485,0.16357561945915222,-0.08154705911874771
1772548040676732700,5.024732666015625,-0.04831213876605034,0.19859059154987335,-0.3107061982154846
1772548040686769700,5.034769775390625,-0.2696301341056824,0.0006620618514716625,-0.5982413291931152
1772548040696808000,5.044807861328125,-0.2799040973186493,-0.11127831786870956,-0.7363243699073792
1772548040706845000,5.054844970703125,-0.10883167386054993,0.04663781076669693,-0.6474360227584839
1772548040716881700,5.064881591796875,0.049308694899082184,0.341910719871521,-0.42521387338638306
1772548040726918700,5.074918701171875,0.05440172180533409,0.6516669988632202,-0.20152859389781952
1772548040736957000,5.08495703125,-0.05494740605354309,0.9424980282783508,-0.012463593855500221
1772548040746993700,5.09499365234375,-0.23097755014896393,1.3021235466003418,0.1443111002445221
1772548040757030700,5.10503076171875,-0.7639884948730469,1.7817476987838745,0.26961949467658997
1772548040767069000,5.11506884765625,-0.9007276892662048,2.001004934310913,0.2652100920677185
1772548040777106000,5.12510595703125,-0.691874623298645,1.6705764532089233,0.031133152544498444
1772548040787142700,5.135142578125,-0.4829552173614502,1.2948966026306152,-0.19379690289497375
1772548040797179600,5.1451796875,-0.21933342516422272,1.0501939058303833,-0.3357338011264801
1772548040807218000,5.155218017578125,0.10541297495365143,0.7157996296882629,-0.4422975182533264
1772548040817254700,5.165254638671875,0.3184554874897003,0.42383062839508057,-0.4418090879917145
1772548040827291600,5.175291748046875,0.3309478163719177,0.39600005745887756,-0.26157915592193604
1772548040837330000,5.185329833984375,0.34248384833335876,0.04059403017163277,-0.19091908633708954
1772548040847367000,5.195366943359375,0.07508250325918198,-0.5959485769271851,-0.24571949243545532
1772548040857403600,5.205403564453125,0.14475186169147491,-0.7885521650314331,-0.17903579771518707
1772548040867440600,5.215440673828125,0.5470486879348755,-0.5419511198997498,-0.07866764813661575
1772548040877479000,5.22547900390625,0.46113458275794983,-0.47688931226730347,-0.03417208418250084
1772548040887516000,5.235515869140625,0.2969464659690857,-0.6036760210990906,-0.04122360423207283
1772548040897552600,5.245552734375,0.21007254719734192,-0.7458001375198364,-0.028126442804932594
1772548040907591000,5.2555908203125,0.20759686827659607,-0.9420967102050781,-0.0317789688706398
1772548040917628000,5.2656279296875,0.1642981320619583,-1.1149954795837402,-0.02851180173456669
1772548040927664600,5.27566455078125,0.08256544917821884,-1.231501579284668,-0.0272060539573431
1772548040937701600,5.28570166015625,0.1085757464170456,-1.2269670963287354,-0.008816128596663475
1772548040947740000,5.295739990234375,0.21980559825897217,-1.3089532852172852,-0.022900255396962166
1772548040957777000,5.30577685546875,0.26878780126571655,-1.3479318618774414,-0.03791675716638565
1772548040967813600,5.315813720703125,0.204072967171669,-1.0945378541946411,0.03350310027599335
1772548040977852000,5.325851806640625,0.07090772688388824,-0.7046236991882324,0.13298921287059784
1772548040987889000,5.335888916015625,-0.19260114431381226,-0.38504382967948914,0.20464448630809784
1772548040997925600,5.345925537109375,-0.37559279799461365,0.06325726956129074,0.33713728189468384
1772548041007964000,5.3559638671875,-0.4372798502445221,0.5588723421096802,0.5116193294525146
1772548041018001000,5.3660009765625,-0.3687972128391266,0.8378046154975891,0.6581405997276306
1772548041028038000,5.376037841796875,-0.3224009573459625,0.8142537474632263,0.7003823518753052
1772548041038074600,5.38607470703125,-0.3943086862564087,0.4927859902381897,0.6265616416931152
1772548041048113000,5.39611279296875,-0.4954366385936737,0.07557092607021332,0.5475158095359802
1772548041058150000,5.40614990234375,-0.4864213168621063,-0.15453657507896423,0.6034781336784363
1772548041068187000,5.416186767578125,-0.36854100227355957,-0.12115705013275146,0.8024831414222717
1772548041078225000,5.426224853515625,-0.26075196266174316,0.05522570386528969,1.033628225326538
1772548041088262000,5.436261962890625,-0.22893890738487244,0.1987873911857605,1.1627081632614136
1772548041098299000,5.446298828125,-0.2609272003173828,0.2423900067806244,1.1161377429962158
1772548041108335600,5.456335693359375,-0.31213659048080444,0.22677534818649292,0.9330168962478638
1772548041118373600,5.46637353515625,-0.30285173654556274,0.22066180408000946,0.6629369854927063
1772548041128410600,5.47641064453125,-0.05507789924740791,0.27244138717651367,0.40586814284324646
1772548041138447600,5.486447509765625,0.2187134325504303,0.3243514597415924,0.14066870510578156
1772548041148485400,5.4964853515625,0.3214145004749298,0.30295267701148987,-0.12309849262237549
1772548041158522600,5.506522705078125,0.3215751051902771,0.15031227469444275,-0.37294721603393555
1772548041168559600,5.5165595703125,0.3209119737148285,-0.07459540665149689,-0.5954351425170898
1772548041178596600,5.5265966796875,0.3669324517250061,-0.2887987792491913,-0.7890003323554993
1772548041188634600,5.536634521484375,0.4836108684539795,-0.4187786281108856,-0.8978021740913391
1772548041198671600,5.546671630859375,0.6105238199234009,-0.4371001124382019,-0.9010075926780701
1772548041208708600,5.55670849609375,0.5206469297409058,-0.3683881461620331,-0.8073633909225464
1772548041218746400,5.566746337890625,0.1856742650270462,-0.23179487884044647,-0.6514832377433777
1772548041228783600,5.57678369140625,-0.20196667313575745,-0.23178449273109436,-0.5064831972122192
1772548041238820600,5.586820556640625,-0.43170106410980225,-0.4884764850139618,-0.4188590347766876
1772548041248858400,5.5968583984375,-0.4646547734737396,-1.001744031906128,-0.4276173710823059
1772548041258895600,5.6068955078125,-0.4072186350822449,-1.4310626983642578,-0.42122551798820496
1772548041268932600,5.6169326171875,-0.39655959606170654,-1.5988271236419678,-0.36223411560058594
1772548041278969600,5.626969482421875,-0.4890589118003845,-1.4716449975967407,-0.2713042199611664
1772548041289007400,5.63700732421875,-0.42413583397865295,-1.1383389234542847,-0.22875835001468658
1772548041299044600,5.647044677734375,-0.21848653256893158,-0.6873543858528137,-0.3392869830131531
1772548041309081600,5.65708154296875,-0.1078774631023407,-0.03369750827550888,-0.41895490884780884
1772548041319119400,5.667119384765625,-0.12919314205646515,0.6149401068687439,-0.5005704164505005
1772548041329156600,5.677156494140625,-0.01347559504210949,1.0640708208084106,-0.6341396570205688
1772548041339193600,5.687193603515625,0.32985007762908936,1.3844716548919678,-0.7897569537162781
1772548041349230600,5.697230712890625,0.6956695914268494,1.5965903997421265,-0.9320940971374512
1772548041359268400,5.707268310546875,0.8810245394706726,1.8555763959884644,-0.8010125160217285
1772548041369305600,5.7173056640625,0.6307374835014343,1.8186540603637695,-0.7101574540138245
1772548041379342600,5.727342529296875,0.14387062191963196,1.4384281635284424,-0.6048033237457275
1772548041389380400,5.73738037109375,-0.26345720887184143,0.8358607888221741,-0.46266403794288635
1772548041399417600,5.74741748046875,-0.43176260590553284,0.12302925437688828,-0.2557785212993622
1772548041409454600,5.75745458984375,-0.3706180155277252,-0.5791930556297302,-0.0201587975025177
1772548041419491600,5.76749169921875,-0.19246265292167664,-1.0861707925796509,0.20204684138298035
1772548041429529300,5.777529296875,0.028913406655192375,-1.3072834014892578,0.3778572678565979
1772548041439566600,5.787566650390625,0.20131872594356537,-1.1786035299301147,0.5159595012664795
1772548041449603600,5.797603515625,0.20324578881263733,-0.719974935054779,0.586615800857544
1772548041459641300,5.807641357421875,0.16959382593631744,-0.1407531201839447,0.5831305384635925
1772548041469678600,5.8176787109375,0.1466759890317917,0.42249932885169983,0.49238333106040955
1772548041479715600,5.827715576171875,0.1050150990486145,0.8471941351890564,0.343588262796402
1772548041489753600,5.837753662109375,0.06397232413291931,1.0374809503555298,0.1698039472103119
1772548041499790300,5.847790283203125,0.06679634004831314,1.0079026222229004,0.022250976413488388
1772548041509827600,5.85782763671875,0.09965575486421585,0.841996967792511,-0.08041627705097198
1772548041519864600,5.867864501953125,0.1327977329492569,0.6053234338760376,-0.1220414862036705
1772548041529902300,5.87790234375,0.13748276233673096,0.3801744878292084,-0.12786155939102173
1772548041539939600,5.887939697265625,0.13921993970870972,0.1918080449104309,-0.10772912949323654
1772548041549976600,5.8979765625,0.1384153962135315,0.05837169662117958,-0.08129086345434189
1772548041560014600,5.9080146484375,0.14114141464233398,-0.026746924966573715,-0.06982062757015228
1772548041570051300,5.91805126953125,0.1374846249818802,-0.06804589927196503,-0.07183238118886948
1772548041580088600,5.928088623046875,0.09896200150251389,-0.08048579096794128,-0.09411770850419998
1772548041590125600,5.93812548828125,0.06087986379861832,-0.08383578062057495,-0.12660108506679535
1772548041600163600,5.94816357421875,0.04177354648709297,-0.09026491641998291,-0.15818378329277039
1772548041610200600,5.95820068359375,0.03857215866446495,-0.08510530740022659,-0.18497437238693237
1772548041620237600,5.968237548828125,0.035050127655267715,-0.05344324931502342,-0.20067238807678223
1772548041630275600,5.978275634765625,0.03356914594769478,0.0020700751338154078,-0.19978128373622894
1772548041640312300,5.988312255859375,0.03337526693940163,0.07577864825725555,-0.18965062499046326
1772548041650349600,5.998349609375,0.03598117083311081,0.15566682815551758,-0.17166124284267426
1772548041660387600,6.0083876953125,0.04177141562104225,0.21403053402900696,-0.1437302678823471
1772548041670424600,6.018424560546875,0.04308994486927986,0.24534930288791656,-0.11987314373254776
1772548041680461600,6.028461669921875,0.048652492463588715,0.2449367791414261,-0.0998443067073822
1772548041690498600,6.03849853515625,0.05188929662108421,0.23534274101257324,-0.09723600745201111
1772548041700536600,6.04853662109375,0.05255189165472984,0.22477692365646362,-0.11090920865535736
1772548041710573300,6.0585732421875,0.05493302270770073,0.2194327563047409,-0.1318349987268448
1772548041720610600,6.068610595703125,0.05596579611301422,0.21790888905525208,-0.164900541305542
1772548041730648600,6.078648681640625,0.061109159141778946,0.2191523164510727,-0.19383604824543
1772548041740685600,6.088685546875,0.06874657422304153,0.2139839231967926,-0.21484705805778503
1772548041750722600,6.09872265625,0.06901688128709793,0.19757352769374847,-0.21930065751075745
1772548041760759600,6.108759521484375,0.05885559320449829,0.16006183624267578,-0.2059880495071411
1772548041770797600,6.118797607421875,0.04941308870911598,0.10404490679502487,-0.15673288702964783
1772548041780834600,6.12883447265625,0.039086680859327316,0.03953436017036438,-0.09159036725759506
1772548041790871600,6.13887158203125,0.04019242525100708,-0.05065092816948891,-0.016041284427046776
1772548041800909600,6.14890966796875,0.04536641761660576,-0.12361355125904083,0.04554777592420578
1772548041810946600,6.158946533203125,0.051486626267433167,-0.17568473517894745,0.0798271894454956
1772548041820983300,6.1689833984375,0.06166043505072594,-0.18543536961078644,0.08558520674705505
1772548041831020500,6.1790205078125,0.07257886230945587,-0.1652323603630066,0.07750651240348816
1772548041841058600,6.18905859375,0.07564229518175125,-0.13881807029247284,0.07235675305128098
1772548041851095600,6.199095458984375,0.09101379662752151,-0.11372150480747223,0.08650746196508408
1772548041861132500,6.209132568359375,0.10588541626930237,-0.07561726123094559,0.13484810292720795
1772548041871170600,6.219170654296875,0.1138746365904808,-0.026683276519179344,0.19992110133171082
1772548041881207600,6.22920751953125,0.1080886498093605,0.015868712216615677,0.2620033919811249
1772548041891244300,6.239244384765625,0.09648898988962173,0.015980031341314316,0.3053860068321228
1772548041901282600,6.249282470703125,0.09400931745767593,-0.026067819446325302,0.3266553580760956
1772548041911319600,6.259319580078125,0.09863416850566864,-0.08662650734186172,0.3352360427379608
1772548041921356500,6.2693564453125,0.10467155277729034,-0.13481613993644714,0.33494895696640015
1772548041931393500,6.2793935546875,0.11521527171134949,-0.16597938537597656,0.31672653555870056
1772548041941431600,6.289431640625,0.12805810570716858,-0.19253508746623993,0.2736073136329651
1772548041951468500,6.299468505859375,0.14281174540519714,-0.2309751659631729,0.20555847883224487
1772548041961505500,6.309505615234375,0.1483473926782608,-0.27372902631759644,0.1220441460609436
1772548041971543600,6.31954345703125,0.1501183956861496,-0.3127152919769287,0.043474242091178894
1772548041981580500,6.32958056640625,0.14852555096149445,-0.3467060327529907,-0.03251346945762634
1772548041991617500,6.339617431640625,0.14101891219615936,-0.3749142289161682,-0.10739543288946152
1772548042001654500,6.349654541015625,0.11534230411052704,-0.3964083194732666,-0.1713714897632599
1772548042011692500,6.359692626953125,0.06998680531978607,-0.38974082469940186,-0.21510139107704163
1772548042021729500,6.3697294921875,0.022715432569384575,-0.35446488857269287,-0.22842144966125488
1772548042031766500,6.3797666015625,-0.02623400092124939,-0.2932758331298828,-0.2090722620487213
1772548042041804500,6.389804443359375,-0.06313955783843994,-0.2165221869945526,-0.16990888118743896
1772548042051841500,6.399841552734375,-0.08411514014005661,-0.1643066555261612,-0.1127593070268631
1772548042061878500,6.40987841796875,-0.0906372219324112,-0.11985795944929123,-0.03738652169704437
1772548042071915500,6.41991552734375,-0.09176001697778702,-0.08200085908174515,0.059110723435878754
1772548042081953500,6.42995361328125,-0.0893799439072609,-0.03834206238389015,0.1652241051197052
1772548042091990500,6.439990478515625,-0.08531862497329712,0.018451977521181107,0.251123309135437
1772548042102027500,6.450027587890625,-0.08785262703895569,0.07691102474927902,0.3153392970561981
1772548042112065500,6.4600654296875,-0.10536876320838928,0.12290381640195847,0.35182034969329834
1772548042122102500,6.4701025390625,-0.1311284601688385,0.15694648027420044,0.3814128637313843
1772548042132139500,6.480139404296875,-0.17280825972557068,0.18121692538261414,0.4176904559135437
1772548042142177500,6.490177490234375,-0.2079923450946808,0.2028130292892456,0.46816322207450867
1772548042152214500,6.500214599609375,-0.2374839335680008,0.21626652777194977,0.5184245109558105
1772548042162251500,6.51025146484375,-0.26068803668022156,0.2080964744091034,0.555828332901001
1772548042172288500,6.52028857421875,-0.2732568383216858,0.177248015999794,0.5717516541481018
1772548042182326500,6.530326416015625,-0.273687481880188,0.10559699684381485,0.5662868618965149
1772548042192363500,6.540363525390625,-0.2560597360134125,0.021397167816758156,0.5437067151069641
1772548042202400500,6.550400390625,-0.24544571340084076,-0.06884564459323883,0.49943724274635315
1772548042212438500,6.5604384765625,-0.23471051454544067,-0.15205425024032593,0.4381629526615143
1772548042222475500,6.5704755859375,-0.20716463029384613,-0.2362615317106247,0.36734792590141296
1772548042232512500,6.580512451171875,-0.17660778760910034,-0.2919759154319763,0.2869265675544739
1772548042242549500,6.590549560546875,-0.14044898748397827,-0.3143632709980011,0.19874344766139984
1772548042252587500,6.60058740234375,-0.10312558710575104,-0.2859121859073639,0.12090165168046951
1772548042262624500,6.61062451171875,-0.07345957309007645,-0.21465744078159332,0.05462383106350899
1772548042272661500,6.62066162109375,-0.044614341109991074,-0.1131579801440239,0.00851252768188715
1772548042282699500,6.630699462890625,-0.014763765968382359,-0.013022325001657009,-0.023196665570139885
1772548042292736500,6.640736572265625,0.015672702342271805,0.038598790764808655,-0.05380011349916458
1772548042302773500,6.6507734375,0.05477137118577957,0.039208922535181046,-0.09022682905197144
1772548042312811500,6.6608115234375,0.08657776564359665,-0.0031491878908127546,-0.14206711947917938
1772548042322848500,6.6708486328125,0.10352692753076553,-0.04627961292862892,-0.19499239325523376
1772548042332885500,6.680885498046875,0.10702205449342728,-0.04507613182067871,-0.2269764244556427
1772548042342922500,6.690922607421875,0.10080543905496597,0.007993211969733238,-0.23734597861766815
1772548042352960500,6.70096044921875,0.09650443494319916,0.09875880181789398,-0.21614481508731842
1772548042362997500,6.71099755859375,0.08803345263004303,0.18731343746185303,-0.19261951744556427
1772548042373034500,6.721034423828125,0.07374825328588486,0.24221450090408325,-0.17197921872138977
1772548042383072500,6.731072509765625,0.07028535008430481,0.2630630433559418,-0.16729524731636047
1772548042393109500,6.741109619140625,0.07851744443178177,0.26439598202705383,-0.18061691522598267
1772548042403146500,6.751146484375,0.07716508954763412,0.26959630846977234,-0.19041788578033447
1772548042413183500,6.76118359375,0.07536718994379044,0.27257853746414185,-0.18936540186405182
1772548042423221500,6.771221435546875,0.062243133783340454,0.2687062919139862,-0.18846765160560608
1772548042433258500,6.781258544921875,0.06402159482240677,0.2633187174797058,-0.17658887803554535
1772548042443295500,6.79129541015625,0.058032941073179245,0.26670414209365845,-0.1648896187543869
1772548042453333500,6.80133349609375,0.04661304131150246,0.2885865271091461,-0.14808107912540436
1772548042463370500,6.81137060546875,0.030060164630413055,0.33028656244277954,-0.13111461699008942
1772548042473407500,6.821407470703125,0.012010057456791401,0.38471171259880066,-0.11393162608146667
1772548042483445800,6.83144580078125,-0.0026312030386179686,0.4345112442970276,-0.09670709818601608
1772548042493482500,6.841482421875,-0.012871057726442814,0.4654047191143036,-0.07859840244054794
1772548042503519500,6.85151953125,-0.021168934181332588,0.48297998309135437,-0.05182671174407005
1772548042513556500,6.861556396484375,-0.02207973599433899,0.4989405572414398,-0.019903933629393578
1772548042523594500,6.871594482421875,-0.017120396718382835,0.5238667130470276,0.025112276896834373
1772548042533631500,6.881631591796875,-0.00126766471657902,0.5633938312530518,0.07140333950519562
1772548042543668500,6.89166845703125,0.02305525168776512,0.6232478618621826,0.10660793632268906
1772548042553706800,6.901706787109375,0.05282699689269066,0.6817764043807983,0.13625024259090424
1772548042563743500,6.911743408203125,0.08027300238609314,0.706371009349823,0.16907930374145508
1772548042573780500,6.921780517578125,0.09474755078554153,0.7105824947357178,0.18671022355556488
1772548042583817500,6.9318173828125,0.11322829127311707,0.7004784941673279,0.18822157382965088
1772548042593855700,6.941855712890625,0.13740552961826324,0.7004480957984924,0.17904777824878693
1772548042603892500,6.951892578125,0.169533371925354,0.7146171927452087,0.16452556848526
1772548042613929500,6.961929443359375,0.20713800191879272,0.7492380142211914,0.14950187504291534
1772548042623967700,6.9719677734375,0.23704902827739716,0.7743446826934814,0.12621785700321198
1772548042634004500,6.98200439453125,0.2634332478046417,0.796256959438324,0.1045924574136734
1772548042644041500,6.99204150390625,0.28996896743774414,0.820993185043335,0.08963241428136826
1772548042654079500,7.00207958984375,0.30559879541397095,0.8623043894767761,0.07280043512582779
1772548042664116700,7.01211669921875,0.3078041672706604,0.9185516834259033,0.05386456474661827
1772548042674153500,7.022153564453125,0.29473549127578735,0.9690998196601868,0.041489120572805405
1772548042684190500,7.0321904296875,0.2816713750362396,1.0009759664535522,0.03371535241603851
1772548042694228500,7.042228515625,0.2654644250869751,1.0253976583480835,0.021856030449271202
1772548042704265500,7.052265380859375,0.23706980049610138,1.029902458190918,0.01034744642674923
1772548042714302500,7.062302490234375,0.20610150694847107,1.0172241926193237,0.006463491823524237
1772548042724340500,7.072340576171875,0.17011606693267822,0.9759536981582642,0.02472292259335518
1772548042734377700,7.082377685546875,0.13510668277740479,0.9012249112129211,0.0570337250828743
1772548042744414500,7.09241455078125,0.09904109686613083,0.7947511672973633,0.10256019979715347
1772548042754451500,7.102451416015625,0.06365061551332474,0.7078964710235596,0.1524132341146469
1772548042764489500,7.112489501953125,0.026213761419057846,0.6884979605674744,0.16521506011486053
1772548042774526700,7.122526611328125,-0.01775076799094677,0.6107398271560669,0.17081648111343384
1772548042784563500,7.1325634765625,-0.05058914050459862,0.5326713919639587,0.13945536315441132
1772548042794601500,7.1426015625,-0.06634706258773804,0.46351358294487,0.07736749202013016
1772548042804638700,7.152638671875,-0.06288974732160568,0.3077807128429413,0.019406454637646675
1772548042814675500,7.162675537109375,-0.041665952652692795,0.17093099653720856,-0.0357300341129303
1772548042824713500,7.17271337890625,-0.027484089136123657,0.07369419187307358,-0.09298586845397949
1772548042834750500,7.18275048828125,-0.01678750291466713,0.01528867520391941,-0.12836436927318573
1772548042844787700,7.19278759765625,-0.01702106185257435,-0.012133894488215446,-0.1334771066904068
1772548042854824400,7.202824462890625,-0.013126187957823277,-0.015740348026156425,-0.12656086683273315
1772548042864862500,7.212862548828125,-0.009879794903099537,-0.013442305848002434,-0.12222870439291
1772548042874899700,7.222899658203125,-0.005865079816430807,-0.03448660299181938,-0.14042608439922333
1772548042884936400,7.2329365234375,-0.002529204124584794,-0.08661984652280807,-0.18041931092739105
1772548042894974500,7.242974365234375,-0.0068115671165287495,-0.1581166684627533,-0.2336905151605606
1772548042905011500,7.253011474609375,-0.01617657206952572,-0.23241139948368073,-0.28316912055015564
1772548042915048700,7.263048583984375,-0.026913905516266823,-0.2875412404537201,-0.3339308500289917
1772548042925086500,7.27308642578125,-0.04027312248945236,-0.3150860369205475,-0.38140568137168884
1772548042935123500,7.28312353515625,-0.03832528367638588,-0.3201604187488556,-0.4212217926979065
1772548042945160700,7.29316064453125,-0.03753539174795151,-0.36034247279167175,-0.47412335872650146
1772548042955197700,7.30319775390625,-0.04399196058511734,-0.42706769704818726,-0.5595898032188416
1772548042965235500,7.3132353515625,-0.05542517453432083,-0.4668489396572113,-0.6563743948936462
1772548042975272400,7.3232724609375,-0.05530320107936859,-0.4110506474971771,-0.7346771955490112
1772548042985309700,7.333309814453125,-0.04801306501030922,-0.21963781118392944,-0.7465804815292358
1772548042995347500,7.343347412109375,-0.040333572775125504,0.04300738871097565,-0.6589203476905823
1772548043005384400,7.353384521484375,-0.04273547977209091,0.19700174033641815,-0.4928666949272156
1772548043015421700,7.363421630859375,-0.04596163332462311,0.13582360744476318,-0.31055760383605957
1772548043025458700,7.373458740234375,-0.06239653378725052,-0.06569432467222214,-0.16698472201824188
1772548043035496400,7.383496337890625,-0.09192939102649689,-0.2979145050048828,-0.06375288218259811
1772548043045533400,7.393533447265625,-0.12460584193468094,-0.45871350169181824,0.008807872422039509
1772548043055570700,7.40357080078125,-0.14462029933929443,-0.4961623549461365,0.06035415455698967
1772548043065608400,7.4136083984375,-0.15511554479599,-0.4262615740299225,0.0664898082613945
1772548043075645400,7.4236455078125,-0.1064116582274437,-0.3379437029361725,0.02245284430682659
1772548043085682700,7.4336826171875,-0.016886837780475616,-0.2900696396827698,-0.07826071977615356
1772548043095720400,7.443720458984375,0.0794929638504982,-0.279746949672699,-0.187129944562912
1772548043105757400,7.45375732421875,0.1661072075366974,-0.23536591231822968,-0.25489434599876404
1772548043115798800,7.463798828125,0.23854200541973114,-0.12404657900333405,-0.26303908228874207
1772548043125835800,7.473835693359375,0.31568285822868347,0.004985969979315996,-0.21723803877830505
1772548043135873800,7.483873779296875,0.40722209215164185,0.15235917270183563,-0.16679909825325012
1772548043145910800,7.493910888671875,0.5034176111221313,0.2586861550807953,-0.13773362338542938
1772548043155948000,7.503947998046875,0.5783240795135498,0.31047025322914124,-0.13252155482769012
1772548043165985800,7.51398583984375,0.602076530456543,0.29294559359550476,-0.11534150689840317
1772548043176022800,7.524022705078125,0.5905967354774475,0.22942893207073212,-0.0406145378947258
1772548043186059800,7.534059814453125,0.5506490468978882,0.12367666512727737,0.10738078504800797
1772548043196097800,7.544097900390625,0.47316649556159973,-0.042693402618169785,0.3126383423805237
1772548043206134800,7.554134765625,0.3726654350757599,-0.2504388689994812,0.5386887788772583
1772548043216171800,7.564171875,0.2738075852394104,-0.47479209303855896,0.7199952006340027
1772548043226209000,7.574208984375,0.21361534297466278,-0.6494837403297424,0.8176913857460022
1772548043236246800,7.584246826171875,0.18009893596172333,-0.7283875942230225,0.8489888310432434
1772548043246283800,7.59428369140625,0.15497680008411407,-0.7190124988555908,0.8311086297035217
1772548043256320800,7.60432080078125,0.1627817302942276,-0.6480240821838379,0.7836977243423462
1772548043266358800,7.61435888671875,0.20562373101711273,-0.5516306757926941,0.7056806683540344
1772548043276395800,7.624395751953125,0.26593607664108276,-0.46804869174957275,0.6089062094688416
1772548043286432800,7.634432861328125,0.3166799545288086,-0.4051799774169922,0.5152868032455444
1772548043296470800,7.644470703125,0.34194216132164,-0.3414428234100342,0.4551693797111511
1772548043306507800,7.6545078125,0.32133620977401733,-0.3195473849773407,0.4583071172237396
1772548043316544800,7.664544677734375,0.2553369700908661,-0.40425798296928406,0.5395460724830627
1772548043326581800,7.674581787109375,0.19411621987819672,-0.5845375061035156,0.6548973917961121
1772548043336619800,7.684619873046875,0.13202062249183655,-0.6872273683547974,0.7266738414764404
1772548043346656800,7.69465673828125,0.056770071387290955,-0.6132314801216125,0.6550627946853638
1772548043356693800,7.70469384765625,0.02936667762696743,-0.5636556148529053,0.47288978099823
1772548043366731800,7.714731689453125,0.03231159970164299,-0.5762736797332764,0.22099363803863525
1772548043376768800,7.724768798828125,0.04580823332071304,-0.5585018992424011,-0.01210087165236473
1772548043386805800,7.7348056640625,0.07134901732206345,-0.4859328866004944,-0.1602810174226761
1772548043396842800,7.7448427734375,0.10580179840326309,-0.3895634710788727,-0.2254437804222107
1772548043406880800,7.754880859375,0.12746714055538177,-0.319491982460022,-0.2276265025138855
1772548043416917800,7.764917724609375,0.11477851122617722,-0.2896014451980591,-0.17524531483650208
1772548043426954800,7.774954833984375,0.0647084191441536,-0.3073846995830536,-0.09076106548309326
1772548043436992800,7.78499267578125,-0.0026732811238616705,-0.36968323588371277,0.008866994641721249
1772548043447029800,7.79502978515625,-0.05922284349799156,-0.41634660959243774,0.11299632489681244
1772548043457066800,7.805066650390625,-0.09442610293626785,-0.43844127655029297,0.20227134227752686
1772548043467105000,7.81510498046875,-0.11676283180713654,-0.4647578299045563,0.2442246526479721
1772548043477141800,7.825141845703125,-0.13116547465324402,-0.4817051291465759,0.24697808921337128
1772548043487178800,7.8351787109375,-0.1402420550584793,-0.4838407039642334,0.22982387244701385
1772548043497215700,7.8452158203125,-0.14082849025726318,-0.4636656641960144,0.19331060349941254
1772548043507253800,7.855253662109375,-0.13668860495090485,-0.419351190328598,0.1546899825334549
1772548043517290800,7.865290771484375,-0.12394644320011139,-0.36296114325523376,0.11129935830831528
1772548043527327700,7.87532763671875,-0.10657224804162979,-0.3082185387611389,0.0644141435623169
1772548043537366000,7.885365966796875,-0.0886065661907196,-0.25981345772743225,0.013823137618601322
1772548043547402800,7.89540283203125,-0.07687827199697495,-0.21319696307182312,-0.02978905476629734
1772548043557439700,7.905439697265625,-0.07639117538928986,-0.1559818834066391,-0.07131918519735336
1772548043567477800,7.915477783203125,-0.07107284665107727,-0.11250950396060944,-0.0964391902089119
1772548043577515000,7.925514892578125,-0.06113952025771141,-0.06884963810443878,-0.11790639907121658
1772548043587551700,7.9355517578125,-0.04463963955640793,-0.023910125717520714,-0.12009365111589432
1772548043597588700,7.945588623046875,-0.028259335085749626,0.029169602319598198,-0.11892825365066528
1772548043607627000,7.955626953125,-0.004388622939586639,0.06635132431983948,-0.11550529301166534
1772548043617663700,7.965663818359375,0.020907944068312645,0.0800253301858902,-0.12091203778982162
1772548043627700700,7.97570068359375,0.04014582186937332,0.09976521134376526,-0.1253611147403717
1772548043637738800,7.98573876953125,0.05264696478843689,0.11870827525854111,-0.12805649638175964
1772548043647776000,7.99577587890625,0.05463794618844986,0.14800091087818146,-0.12056609243154526
1772548043657812700,8.005812744140625,0.03573988750576973,0.19311966001987457,-0.0967896580696106
1772548043667850800,8.015850830078126,0.018277274444699287,0.212852343916893,-0.05074440315365791
1772548043677888000,8.025887939453124,0.018219484016299248,0.2062186747789383,0.007559649180620909
1772548043687924700,8.0359248046875,0.03665415197610855,0.1760392040014267,0.05757487937808037
1772548043697961700,8.045961669921875,0.05158596113324165,0.1622014194726944,0.08174386620521545
1772548043707999700,8.055999755859375,0.08628988265991211,0.15913532674312592,0.07451710850000381
1772548043718037000,8.066037109375,0.12370462715625763,0.19290393590927124,0.04592141881585121
1772548043728073700,8.07607373046875,0.1527826189994812,0.2713865041732788,0.029813023284077644
1772548043738111700,8.08611181640625,0.167610302567482,0.3657849133014679,0.05175427347421646
1772548043748149000,8.09614892578125,0.1864718794822693,0.4250200092792511,0.07711449265480042
1772548043758186000,8.10618603515625,0.2022058367729187,0.4472198486328125,0.10253249853849411
1772548043768223700,8.1162236328125,0.21857814490795135,0.47193530201911926,0.12842108309268951
1772548043778260700,8.1262607421875,0.23594622313976288,0.5024831295013428,0.14938123524188995
1772548043788298000,8.136298095703125,0.252769410610199,0.532207190990448,0.15893931686878204
1772548043798334700,8.146334716796876,0.2655211389064789,0.5620535016059875,0.14919081330299377
1772548043808372700,8.156372802734374,0.27394846081733704,0.5942788124084473,0.11869149655103683
1772548043818410000,8.166409912109375,0.277608186006546,0.6034946441650391,0.07406064867973328
1772548043828447000,8.176447021484375,0.28496861457824707,0.599151074886322,0.03612018749117851
1772548043838484700,8.186484619140625,0.2888946533203125,0.5950154066085815,0.04171895235776901
1772548043848521700,8.196521728515625,0.2886938452720642,0.6078177690505981,0.0784980058670044
1772548043858559000,8.20655908203125,0.28464213013648987,0.6104332804679871,0.09258133172988892
1772548043868596700,8.2165966796875,0.2692487835884094,0.6128101348876953,0.0850730836391449
1772548043878633700,8.2266337890625,0.25918975472450256,0.6086691617965698,0.0672280415892601
1772548043888671000,8.2366708984375,0.257180392742157,0.5787741541862488,0.05499960109591484
1772548043898708000,8.2467080078125,0.26683861017227173,0.5453490614891052,0.042159970849752426
1772548043908745700,8.256745849609375,0.27113616466522217,0.5518988370895386,0.058692608028650284
1772548043918782700,8.26678271484375,0.26714035868644714,0.5993952751159668,0.10145232081413269
1772548043928820000,8.276820068359376,0.2587149143218994,0.6253997087478638,0.15169738233089447
1772548043938857700,8.286857666015624,0.2602995038032532,0.6049942970275879,0.22962094843387604
1772548043948894700,8.296894775390625,0.24869902431964874,0.5410163998603821,0.3391317129135132
1772548043958932000,8.306931884765625,0.2370983064174652,0.47916552424430847,0.4604557454586029
1772548043968970800,8.316970703125,0.22066952288150787,0.4458714723587036,0.5990530252456665
1772548043979007700,8.3270078125,0.18299192190170288,0.47213637828826904,0.7202385663986206
1772548043989045000,8.337044921875,0.15515629947185516,0.5096874833106995,0.8013912439346313
1772548043999082800,8.347082763671875,0.12601812183856964,0.4660142958164215,0.8295488357543945
1772548044009119700,8.35711962890625,0.12538401782512665,0.39304208755493164,0.8017060160636902
1772548044019157000,8.367156982421875,0.15863251686096191,0.46043044328689575,0.7736509442329407
1772548044029194800,8.37719482421875,0.2555215060710907,0.54543137550354,0.7766408920288086
1772548044039231700,8.387231689453126,0.2665637731552124,0.42037543654441833,0.8347904682159424
1772548044049268700,8.397268798828126,0.2360258400440216,0.42482638359069824,0.8424749970436096
1772548044059306800,8.407306640625,0.25165513157844543,0.6207737922668457,0.7773495316505432
1772548044069343700,8.41734375,0.23178556561470032,0.627923846244812,0.7141799330711365
1772548044079380700,8.427380615234375,0.2020212709903717,0.555152177810669,0.6442263722419739
1772548044089418000,8.43741796875,0.21543242037296295,0.6128034591674805,0.5405460596084595
1772548044099455700,8.447455810546876,0.3456695079803467,0.8667409420013428,0.388383686542511
1772548044109488600,8.457488525390625,0.3812706470489502,0.8351281881332397,0.34419411420822144
1772548044119526000,8.46752587890625,0.38855308294296265,0.816877543926239,0.35275059938430786
1772548044129564000,8.47756396484375,0.4470592439174652,1.0953330993652344,0.3083399832248688
1772548044139600600,8.4876005859375,0.5114965438842773,1.2034169435501099,0.2767370641231537
1772548044149638000,8.497637939453124,0.523696780204773,1.0313812494277954,0.2671171724796295
1772548044159676000,8.507676025390625,0.4966300129890442,0.9286327958106995,0.2824458181858063
1772548044169713000,8.517712890625,0.43450456857681274,0.8813342452049255,0.34913456439971924
1772548044179749600,8.52774951171875,0.43867722153663635,1.028107762336731,0.37234240770339966
1772548044189788000,8.537787841796876,0.47571006417274475,1.0099338293075562,0.412741482257843
1772548044199825000,8.547824951171876,0.43337008357048035,0.6764426231384277,0.5604694485664368
1772548044209861600,8.557861572265624,0.3926210403442383,0.5533686280250549,0.7059839963912964
1772548044219899000,8.56789892578125,0.3580755889415741,0.6028741598129272,0.7954116463661194
1772548044229937000,8.57793701171875,0.3119749426841736,0.5819622278213501,0.8055716156959534
1772548044239974000,8.587973876953125,0.29261454939842224,0.631805956363678,0.7567590475082397
1772548044250010600,8.5980107421875,0.33525362610816956,0.6275885701179504,0.7138485908508301
1772548044260049000,8.608048828125,0.32419219613075256,0.4086362421512604,0.7730863690376282
1772548044270086000,8.6180859375,0.3253972828388214,0.42133578658103943,0.792306125164032
1772548044280123000,8.628122802734374,0.3748375177383423,0.7330164313316345,0.703090250492096
1772548044290161000,8.638160888671875,0.3627406358718872,0.623224675655365,0.7527698874473572
1772548044300198000,8.648197998046875,0.33105090260505676,0.5026455521583557,0.8438273668289185
1772548044310235000,8.65823486328125,0.30010443925857544,0.4632704555988312,0.9183942675590515
1772548044320271600,8.668271728515625,0.25568902492523193,0.4001210331916809,0.9815849661827087
1772548044330310000,8.678309814453126,0.22019228339195251,0.3307579457759857,1.013004183769226
1772548044340347000,8.688346923828124,0.24323928356170654,0.33958712220191956,1.017643690109253
1772548044350383900,8.6983837890625,0.29863277077674866,0.3418974280357361,1.0024769306182861
1772548044360422000,8.708421875,0.36804458498954773,0.4350627660751343,0.8831555843353271
1772548044370459000,8.718458984375,0.45966851711273193,0.7755175828933716,0.6200454235076904
1772548044380496000,8.728495849609375,0.5333254337310791,0.9374982118606567,0.4218124747276306
1772548044390534000,8.738533935546876,0.49271756410598755,0.7886978387832642,0.4475724399089813
1772548044400571000,8.74857080078125,0.48317626118659973,0.8689225912094116,0.5490588545799255
1772548044410607900,8.75860791015625,0.5335355401039124,0.8725106716156006,0.6744266152381897
1772548044420645600,8.768645751953125,0.6072475910186768,0.9172317981719971,0.5927829146385193
1772548044430683000,8.778682861328125,0.5754824876785278,0.4748397469520569,0.6379448175430298
1772548044440720000,8.788719970703125,0.558359682559967,0.4593987464904785,0.6126679182052612
1772548044450756900,8.7987568359375,0.5520964860916138,0.5233521461486816,0.537665069103241
1772548044460795000,8.808794921875,0.48513951897621155,0.47864222526550293,0.46009916067123413
1772548044470831900,8.818831787109374,0.4238490164279938,0.4962156116962433,0.4397840201854706
1772548044480868900,8.828868896484375,0.42325085401535034,0.6607728600502014,0.5081923604011536
1772548044490906600,8.83890673828125,0.4914592206478119,0.8429578542709351,0.6907113194465637
1772548044500944000,8.84894384765625,0.562990128993988,1.2754850387573242,0.698160707950592
1772548044510980900,8.85898095703125,0.5579498410224915,0.9299508333206177,0.9296962022781372
1772548044521018600,8.8690185546875,0.5079188942909241,0.8833438754081726,1.2352899312973022
1772548044531055900,8.879055908203124,0.4483005702495575,0.7345988750457764,1.3713420629501343
1772548044541092900,8.8890927734375,0.4332164227962494,0.6330165863037109,1.1949923038482666
1772548044551131000,8.899130859375,0.46075987815856934,0.4457085132598877,1.254957675933838
1772548044561167600,8.909167724609375,0.5477288961410522,0.4236793518066406,1.5056474208831787
1772548044571204900,8.919204833984375,0.6258295178413391,0.535874605178833,1.6546329259872437
1772548044581241900,8.929241943359376,0.5721937417984009,0.00007110639853635803,1.8547768592834473
1772548044591279900,8.93927978515625,0.5214099287986755,-0.042744267731904984,1.9724174737930298
1772548044601316900,8.94931689453125,0.5072866678237915,0.023862721398472786,1.9453160762786865
1772548044611353900,8.959353759765625,0.4891374707221985,0.05060618743300438,1.7971842288970947
1772548044621392000,8.969391845703125,0.46377113461494446,0.11283174157142639,1.6131278276443481
1772548044631428600,8.9794287109375,0.4332592785358429,0.1385919600725174,1.4213413000106812
1772548044641465900,8.9894658203125,0.3826240599155426,0.11355745792388916,1.2447617053985596
1772548044651503900,8.99950390625,0.3440479338169098,0.09281115978956223,1.070861577987671
1772548044661540900,9.009540771484374,0.3266529440879822,0.15339994430541992,0.8483790159225464
1772548044671577900,9.019577880859375,0.23773425817489624,0.21598289906978607,0.60640949010849
1772548044681614800,9.02961474609375,0.09664371609687805,0.13436685502529144,0.43166112899780273
1772548044691652900,9.03965283203125,0.0023212111555039883,0.04712596535682678,0.26521036028862
1772548044701689600,9.049689697265626,-0.059057459235191345,-0.000669252360239625,0.05642412602901459
1772548044711726800,9.059726806640626,-0.1251576542854309,-0.07315730303525925,-0.1605803519487381
1772548044721764900,9.069764892578124,-0.17308975756168365,-0.17869678139686584,-0.3283184766769409
1772548044731801900,9.0798017578125,-0.201716348528862,-0.30871495604515076,-0.44108259677886963
1772548044741838800,9.0898388671875,-0.23522822558879852,-0.4244871139526367,-0.525188148021698
1772548044751876900,9.099876953125,-0.26749640703201294,-0.5189017653465271,-0.6053961515426636
1772548044761913900,9.109913818359376,-0.27228984236717224,-0.5382461547851562,-0.676038920879364
1772548044771950800,9.119950927734376,-0.23644183576107025,-0.4839530885219574,-0.7241278886795044
1772548044781988900,9.12998876953125,-0.18819546699523926,-0.3966970145702362,-0.7139279842376709
1772548044792025900,9.14002587890625,-0.13607953488826752,-0.33098164200782776,-0.6591027975082397
1772548044802062800,9.150062744140625,-0.054733287543058395,-0.27275723218917847,-0.6234028339385986
1772548044812099800,9.160099853515625,0.08203494548797607,-0.14944221079349518,-0.6547940969467163
1772548044822137900,9.170137939453125,0.2269601821899414,0.08074544370174408,-0.7658678889274597
1772548044832174800,9.1801748046875,0.3393564820289612,0.3721733093261719,-0.8939781785011292
1772548044842211800,9.1902119140625,0.41908034682273865,0.6195095777511597,-0.9226716160774231
1772548044852249900,9.200249755859375,0.5607573390007019,1.3012633323669434,-1.1231149435043335
1772548044862286800,9.210286865234375,0.6427819132804871,1.0357887744903564,-0.9549384713172913
1772548044872323800,9.22032373046875,0.5582675337791443,0.6453550457954407,-0.7201485633850098
1772548044882361900,9.23036181640625,0.36106204986572266,0.1848798394203186,-0.44260910153388977
1772548044892398800,9.24039892578125,0.20037303864955902,0.1202947199344635,-0.21042275428771973
1772548044902435800,9.250435791015626,0.15538986027240753,-0.465156227350235,0.17336618900299072
1772548044912473900,9.260473876953125,0.1009918600320816,-1.234605312347412,0.5314111709594727
1772548044922510800,9.2705107421875,-0.042944539338350296,-1.4940581321716309,0.6009183526039124
1772548044932547800,9.2805478515625,-0.31428444385528564,-1.4796416759490967,0.6459249258041382
1772548044942584800,9.290584716796875,-0.41397029161453247,-1.447127103805542,0.876212477684021
1772548044952622800,9.300622802734376,-0.14902064204216003,-1.5088908672332764,0.8276728987693787
1772548044962659800,9.310659912109376,0.257252037525177,-1.2384679317474365,0.3066997528076172
1772548044972696800,9.32069677734375,0.443145215511322,-0.8101868629455566,-0.3541088104248047
1772548044982734800,9.33073486328125,0.32099559903144836,-0.6142817735671997,-0.6824845671653748
1772548044992771800,9.340771728515625,0.2536256015300751,-0.5069636106491089,-0.8418830037117004
1772548045002808800,9.350808837890625,0.22171668708324432,-0.16510507464408875,-1.0407394170761108
1772548045012846600,9.3608466796875,0.201176255941391,0.30363819003105164,-1.1252247095108032
1772548045022883800,9.3708837890625,0.18921838700771332,0.212218776345253,-1.1966458559036255
1772548045032920800,9.3809208984375,0.08780628442764282,-0.05160673335194588,-1.2089462280273438
1772548045042958800,9.390958740234375,-0.03639422729611397,-0.13159345090389252,-1.1110161542892456
1772548045052995800,9.400995849609375,-0.12245986610651016,-0.05413860082626343,-0.9864343404769897
1772548045063032800,9.41103271484375,-0.1738644689321518,0.0103181516751647,-0.8790141344070435
1772548045073070800,9.42107080078125,-0.21546757221221924,-0.02611202746629715,-0.7821727991104126
1772548045083107600,9.431107666015626,-0.264242559671402,-0.1348068118095398,-0.7244290709495544
1772548045093144800,9.441144775390624,-0.3422393798828125,-0.2561798393726349,-0.6714792847633362
1772548045103181800,9.451181884765624,-0.4269358813762665,-0.37743648886680603,-0.6140839457511902
1772548045113220000,9.46122021484375,-0.47810906171798706,-0.4406583607196808,-0.5538302063941956
1772548045123256800,9.4712568359375,-0.5251843929290771,-0.425174742937088,-0.46517807245254517
1772548045133293800,9.4812939453125,-0.5775224566459656,-0.5042724609375,-0.37284016609191895
1772548045143332000,9.49133203125,-0.6150525212287903,-0.6014552116394043,-0.3137699067592621
1772548045153368800,9.501368896484376,-0.6560516357421875,-0.7208473682403564,-0.23320023715496063
1772548045163405800,9.51140576171875,-0.696810781955719,-0.8010151982307434,-0.15583913028240204
1772548045173443800,9.52144384765625,-0.7087252140045166,-0.7910059690475464,-0.13638074696063995
1772548045183481000,9.531481201171875,-0.6980448961257935,-0.7204114198684692,-0.14587624371051788
1772548045193517800,9.541517822265625,-0.6545570492744446,-0.6176139712333679,-0.20171821117401123
1772548045203555800,9.551555908203126,-0.6316258907318115,-0.5136532187461853,-0.30345362424850464
1772548045213593000,9.561593017578126,-0.6020605564117432,-0.35879677534103394,-0.4033573269844055
1772548045223629800,9.5716298828125,-0.5906651616096497,-0.18064461648464203,-0.48666924238204956
1772548045233666800,9.581666748046874,-0.5844885110855103,-0.048414137214422226,-0.5491698980331421
1772548045243704800,9.591704833984375,-0.5790625810623169,0.05793893337249756,-0.603044867515564
1772548045253742000,9.6017421875,-0.599538266658783,0.16153404116630554,-0.6314645409584045
1772548045263778800,9.61177880859375,-0.6073884963989258,0.2574709355831146,-0.6410177946090698
1772548045273816800,9.62181689453125,-0.6250180602073669,0.3634549081325531,-0.6210768818855286
1772548045283854000,9.63185400390625,-0.6475593447685242,0.43325236439704895,-0.5631136894226074
1772548045293891000,9.64189111328125,-0.6776402592658997,0.47476786375045776,-0.47859108448028564
1772548045303928800,9.6519287109375,-0.7038540244102478,0.5585354566574097,-0.4043805003166199
1772548045313965800,9.6619658203125,-0.7210990786552429,0.6102651953697205,-0.39105936884880066
1772548045324003000,9.672003173828125,-0.7098855376243591,0.6490621566772461,-0.40376558899879456
1772548045334040800,9.682040771484376,-0.6704683899879456,0.6878673434257507,-0.416625440120697
1772548045344077800,9.692077880859374,-0.5971289277076721,0.7211869359016418,-0.4094807207584381
1772548045354115000,9.702114990234374,-0.48188328742980957,0.7502380609512329,-0.39915990829467773
1772548045364152800,9.71215283203125,-0.34170567989349365,0.807018518447876,-0.3612852394580841
1772548045374189800,9.72218994140625,-0.23612864315509796,0.809345006942749,-0.21220839023590088
1772548045384226800,9.732226806640625,-0.22002343833446503,0.7149215936660767,0.024701351299881935
1772548045394264800,9.742264892578126,-0.2461586445569992,0.5689396262168884,0.2633298933506012
1772548045404301800,9.7523017578125,-0.2156318873167038,0.5717186331748962,0.4268551766872406
1772548045414338800,9.7623388671875,-0.16800764203071594,0.636294960975647,0.48657816648483276
1772548045424376000,9.7723759765625,-0.12903814017772675,0.6189194321632385,0.5347813963890076
1772548045434413800,9.782413818359375,-0.12068087607622147,0.5020527243614197,0.6598873734474182
1772548045444450800,9.792450927734375,-0.15838457643985748,0.2975749671459198,0.8168255686759949
1772548045454487800,9.80248779296875,-0.20632946491241455,-0.025481924414634705,0.960196852684021
1772548045464525800,9.81252587890625,-0.23966558277606964,-0.3372238278388977,1.0224360227584839
1772548045474562800,9.822562744140624,-0.26991111040115356,-0.5636013150215149,0.9693152904510498
1772548045484599800,9.832599853515624,-0.306263267993927,-0.6867413520812988,0.8499454855918884
1772548045494638000,9.84263818359375,-0.34403514862060547,-0.6828557848930359,0.7159098982810974
1772548045504674800,9.8526748046875,-0.39422932267189026,-0.5942028760910034,0.5512464046478271
1772548045514711800,9.8627119140625,-0.48336800932884216,-0.4797825813293457,0.331224262714386
1772548045524750000,9.87275,-0.6116839051246643,-0.3831079602241516,0.012017248198390007
1772548045534786800,9.882786865234374,-0.7152339816093445,-0.42907360196113586,-0.3885517418384552
1772548045544823800,9.89282373046875,-0.7428131699562073,-0.5392823815345764,-0.730222225189209
1772548045554862000,9.902862060546875,-0.7084120512008667,-0.4928467273712158,-0.9363256096839905
1772548045564899000,9.912899169921875,-0.675518274307251,-0.20174190402030945,-1.0952225923538208
1772548045574935800,9.922935791015625,-0.6479023694992065,0.004236556589603424,-1.3227723836898804
1772548045584972800,9.932972900390626,-0.6262362003326416,-0.09039780497550964,-1.5028337240219116
1772548045595011000,9.943010986328124,-0.46106669306755066,0.03252971172332764,-1.4668853282928467
1772548045605048000,9.953048095703124,-0.21030449867248535,0.1262090653181076,-1.5330300331115723
1772548045615084800,9.963084716796875,0.032212529331445694,0.27695995569229126,-1.7183740139007568
1772548045625122800,9.973122802734375,0.32517382502555847,0.6026198267936707,-1.5854908227920532
1772548045635160000,9.98316015625,0.5056482553482056,0.49332502484321594,-1.0986930131912231
1772548045645196800,9.99319677734375,0.319825679063797,-0.4657091200351715,-0.6764841675758362
1772548045655234800,10.00323486328125,-0.03778279945254326,-0.9922274947166443,-0.27405497431755066
1772548045665272000,10.01327197265625,-0.05409705638885498,-0.8805153369903564,0.14516492187976837
1772548045675309000,10.02330908203125,0.04526681452989578,-0.8488349318504333,0.37406545877456665
1772548045685346800,10.033346923828125,0.028851089999079704,-0.929935872554779,0.3574231266975403
1772548045695383800,10.0433837890625,-0.10708091408014297,-0.8890275955200195,0.18052983283996582
1772548045705421000,10.053421142578125,-0.27526378631591797,-0.6983468532562256,-0.01774863712489605
1772548045715458800,10.063458740234376,-0.3564872741699219,-0.5842567682266235,-0.17995032668113708
1772548045725495800,10.073495849609374,-0.41653943061828613,-0.4489242732524872,-0.3807225823402405
1772548045735533000,10.083532958984375,-0.4287359118461609,-0.30298250913619995,-0.537443220615387
1772548045745570800,10.09357080078125,-0.3801113963127136,-0.18387874960899353,-0.6562595963478088
1772548045755607800,10.10360791015625,-0.29940560460090637,-0.07693605870008469,-0.7684141397476196
1772548045765644800,10.113644775390625,-0.1738881766796112,0.07513656467199326,-0.8994227051734924
1772548045775682800,10.123682861328126,0.00920415110886097,0.31303539872169495,-1.009714126586914
1772548045785719800,10.1337197265625,0.2595572769641876,0.5241982340812683,-1.0901548862457275
1772548045795756800,10.1437568359375,0.530497670173645,0.5519214868545532,-1.1094558238983154
1772548045805794000,10.1537939453125,0.7212311625480652,0.40911054611206055,-0.970581591129303
1772548045815831800,10.163831787109375,0.6683058738708496,0.19068285822868347,-0.6290309429168701
1772548045825868800,10.173868896484375,0.3592745363712311,-0.03822195529937744,-0.1530420184135437
1772548045835905800,10.18390576171875,0.07251228392124176,-0.2718837261199951,0.27764812111854553
1772548045845943800,10.19394384765625,-0.07531686127185822,-0.4730551838874817,0.5693172812461853
1772548045855980800,10.203980712890624,-0.15559013187885284,-0.6041359305381775,0.6857035160064697
1772548045866017800,10.214017822265625,-0.2209547460079193,-0.592812716960907,0.6715245842933655
1772548045876056000,10.22405615234375,-0.29072850942611694,-0.48836222290992737,0.5905064344406128
1772548045886092800,10.2340927734375,-0.3351689279079437,-0.35874778032302856,0.4751383066177368
1772548045896129800,10.2441298828125,-0.32012954354286194,-0.20189078152179718,0.3372539281845093
1772548045906168000,10.25416796875,-0.2540948688983917,-0.08335641026496887,0.18715177476406097
1772548045916205000,10.264205078125,-0.16909368336200714,-0.03290868178009987,0.06358084082603455
1772548045926241800,10.27424169921875,-0.07886631786823273,-0.030252443626523018,0.014149108901619911
1772548045936280000,10.284280029296875,-0.0028104339726269245,-0.02375965751707554,0.021407553926110268
1772548045946317000,10.294317138671875,0.02287069521844387,-0.06088225916028023,0.057910703122615814
1772548045956353800,10.304353759765625,0.02003176510334015,-0.03441709652543068,0.06318775564432144
1772548045966391800,10.314391845703126,0.06342823803424835,0.04477013275027275,-0.001439971150830388
1772548045976429000,10.324428955078124,0.11555855721235275,0.15018151700496674,-0.09445113688707352
1772548045986466000,10.334466064453125,0.15230432152748108,0.21176311373710632,-0.19824305176734924
1772548045996503800,10.34450390625,0.1817554235458374,0.21197509765625,-0.26581835746765137
1772548046006541000,10.354541015625,0.22401206195354462,0.16689710319042206,-0.2653491199016571
1772548046016578000,10.364578125,0.2690170705318451,0.12258610129356384,-0.20435340702533722
1772548046026614800,10.37461474609375,0.2920350432395935,0.11417903751134872,-0.1572287678718567
1772548046036652800,10.38465283203125,0.2967882752418518,0.15492114424705505,-0.17282770574092865
1772548046046690000,10.39468994140625,0.30251166224479675,0.2030782848596573,-0.17336192727088928
1772548046056727000,10.40472705078125,0.3048989176750183,0.19123706221580505,-0.14515559375286102
1772548046066764800,10.414764892578125,0.2884613573551178,0.13697116076946259,-0.08732452243566513
1772548046076802000,10.424802001953125,0.24581696093082428,0.059984240680933,0.006338856182992458
1772548046086839000,10.434839111328126,0.17730234563350677,-0.039380162954330444,0.11391858011484146
1772548046096876800,10.444876708984374,0.10011301934719086,-0.15835049748420715,0.20966480672359467
1772548046106913800,10.454913818359374,0.03606506064534187,-0.24521560966968536,0.26654914021492004
1772548046116951000,10.464950927734375,0.00848829373717308,-0.29900774359703064,0.27795305848121643
1772548046126989000,10.474989013671875,0.016291888430714607,-0.279218852519989,0.2727055549621582
1772548046137026000,10.485026123046875,0.040465135127305984,-0.21001794934272766,0.2631964683532715
1772548046147063000,10.49506298828125,0.05511278659105301,-0.14305782318115234,0.2542724907398224
1772548046157101000,10.50510107421875,0.055028632283210754,-0.11865607649087906,0.23162417113780975
1772548046167138000,10.515137939453124,0.06434410065412521,-0.12634435296058655,0.18663272261619568
1772548046177175000,10.525175048828125,0.09188544750213623,-0.10514292865991592,0.13081499934196472
1772548046187213000,10.535213134765625,0.13170796632766724,-0.029280124232172966,0.08439530432224274
1772548046197250000,10.54525,0.1560383290052414,0.06675612926483154,0.03668797388672829
1772548046207287000,10.555287109375,0.15910257399082184,0.14638517796993256,-0.008784702979028225
1772548046217325000,10.565324951171876,0.16239850223064423,0.19184720516204834,-0.03273744136095047
1772548046227362000,10.575362060546874,0.1544734686613083,0.16760151088237762,-0.03552550449967384
1772548046237399000,10.58539892578125,0.12838433682918549,0.08514871448278427,-0.054482415318489075
1772548046247437000,10.59543701171875,0.11831838637590408,0.056109342724084854,-0.08820202946662903
1772548046257474300,10.605474365234375,0.1315455138683319,0.08050496131181717,-0.13279160857200623
1772548046267511000,10.615510986328125,0.15508359670639038,0.11357370018959045,-0.18672381341457367
1772548046277549000,10.625549072265626,0.16963084042072296,0.1565810889005661,-0.22378356754779816
1772548046287586000,10.6355859375,0.1631348580121994,0.12954361736774445,-0.23946692049503326
1772548046297623000,10.645623046875,0.13134443759918213,0.041256893426179886,-0.21935153007507324
1772548046307660000,10.655659912109375,0.09063669294118881,-0.03441895917057991,-0.17788903415203094
1772548046317698000,10.665697998046875,0.04446759819984436,-0.08167915046215057,-0.15091361105442047
1772548046327735300,10.6757353515625,0.006130330264568329,-0.06004629284143448,-0.14210361242294312
1772548046337772000,10.68577197265625,-0.020425645634531975,-0.017775002866983414,-0.13607075810432434
1772548046347810000,10.69581005859375,-0.046245791018009186,-0.026983680203557014,-0.15249180793762207
1772548046357847000,10.705846923828124,-0.07025818526744843,-0.039795614778995514,-0.17107081413269043
1772548046367884000,10.715884033203125,-0.08138193935155869,-0.03850451484322548,-0.18017855286598206
1772548046377922000,10.725922119140625,-0.08949552476406097,-0.048536643385887146,-0.18891212344169617
1772548046387959000,10.735958984375,-0.08803185075521469,-0.028005002066493034,-0.19259794056415558
1772548046397996300,10.745996337890626,-0.08744382858276367,-0.0014471617760136724,-0.18132798373699188
1772548046408034000,10.756033935546874,-0.10209015011787415,-0.00635057408362627,-0.15887567400932312
1772548046418071000,10.766071044921874,-0.12819604575634003,-0.018939070403575897,-0.12185266613960266
1772548046428108000,10.77610791015625,-0.14285436272621155,-0.016710802912712097,-0.10621032863855362
1772548046438146000,10.78614599609375,-0.14938709139823914,-0.011087805032730103,-0.08489438146352768
1772548046448183000,10.79618310546875,-0.15577735006809235,-0.003317233407869935,-0.0783909484744072
1772548046458220000,10.806219970703125,-0.15372031927108765,0.014398113824427128,-0.08312071859836578
1772548046468258000,10.816258056640624,-0.15796060860157013,0.025302693247795105,-0.10732246190309525
1772548046478295000,10.826294921875,-0.15703383088111877,0.037633396685123444,-0.1313188672065735
1772548046488332000,10.83633203125,-0.14596626162528992,0.05963989347219467,-0.1529000699520111
1772548046498370000,10.8463701171875,-0.13369441032409668,0.0780191645026207,-0.16590161621570587
1772548046508407000,10.856406982421875,-0.11554896831512451,0.08686219155788422,-0.16216813027858734
1772548046518444000,10.866444091796875,-0.09794653952121735,0.07082543522119522,-0.14705336093902588
1772548046528482000,10.87648193359375,-0.08640492707490921,0.04885489121079445,-0.14241093397140503
1772548046538519000,10.88651904296875,-0.06628767400979996,0.043412189930677414,-0.13759994506835938
1772548046548556000,10.89655615234375,-0.03766002878546715,0.06990344822406769,-0.11972320824861526
1772548046558594000,10.906593994140625,-0.0016767261549830437,0.08586697280406952,-0.09989170730113983
1772548046568631300,10.91663134765625,0.02412158064544201,0.06770394742488861,-0.10492482036352158
1772548046578668000,10.92666796875,0.030956052243709564,0.016201339662075043,-0.09409108012914658
1772548046588706000,10.9367060546875,0.03358964994549751,-0.023994015529751778,-0.06180957332253456
1772548046598743000,10.946742919921874,0.051541753113269806,-0.046418365091085434,-0.046785615384578705
1772548046608780000,10.956780029296874,0.06837586313486099,-0.06420055776834488,-0.06594359874725342
1772548046618818000,10.966818115234375,0.07374266535043716,-0.07989057153463364,-0.07865805923938751
1772548046628855000,10.97685498046875,0.07151839137077332,-0.09826984256505966,-0.0672386884689331
1772548046638892300,10.986892333984375,0.07963331043720245,-0.10221398621797562,-0.033240776509046555
1772548046648929000,10.996928955078126,0.08847180753946304,-0.11572793126106262,-0.004096740856766701
1772548046658967000,11.006967041015624,0.08531862497329712,-0.15188193321228027,-0.00041012681322172284
1772548046669004000,11.017004150390624,0.06815721839666367,-0.18730224668979645,-0.005932724103331566
1772548046679041000,11.027041015625,0.05728859081864357,-0.21449072659015656,-0.01661093533039093
1772548046689079000,11.0370791015625,0.05510080233216286,-0.23674996197223663,-0.038911979645490646
1772548046699116000,11.047115966796875,0.05608031153678894,-0.2461424022912979,-0.06343596428632736
1772548046709153300,11.0571533203125,0.07105446606874466,-0.23936891555786133,-0.078519307076931
1772548046719191000,11.06719091796875,0.10427074879407883,-0.22375692427158356,-0.09398747980594635
1772548046729228000,11.07722802734375,0.12180526554584503,-0.21178309619426727,-0.11958418786525726
1772548046739265000,11.08726513671875,0.12375842779874802,-0.22930295765399933,-0.14045538008213043
1772548046749303000,11.097302978515625,0.10046828538179398,-0.24075642228126526,-0.1535024791955948
1772548046759340000,11.107340087890625,0.0651896521449089,-0.2124086618423462,-0.14653751254081726
1772548046769377000,11.117376953125,0.03575187176465988,-0.22182027995586395,-0.13074283301830292
1772548046779415000,11.1274150390625,0.021038439124822617,-0.2788920998573303,-0.1454666554927826
1772548046789452000,11.1374521484375,0.00015286543930415064,-0.31333422660827637,-0.16585953533649445
1772548046799489000,11.147489013671875,-0.028267590329051018,-0.3217463493347168,-0.1618962287902832
1772548046809527000,11.157527099609375,-0.05597085878252983,-0.3537066578865051,-0.1551712155342102
1772548046819564000,11.16756396484375,-0.07858721911907196,-0.37905117869377136,-0.16660842299461365
1772548046829601000,11.17760107421875,-0.0977819561958313,-0.3777014911174774,-0.1860116869211197
1772548046839639300,11.187639404296876,-0.11466293036937714,-0.3714076280593872,-0.21594054996967316
1772548046849676000,11.197676025390624,-0.12226732075214386,-0.37660640478134155,-0.2476809024810791
1772548046859713000,11.207713134765624,-0.12141404300928116,-0.36206021904945374,-0.2881883680820465
1772548046869751000,11.2177509765625,-0.11749573796987534,-0.3259655833244324,-0.33219286799430847
1772548046879788300,11.227788330078125,-0.11543551832437515,-0.30097901821136475,-0.39069825410842896
1772548046889825000,11.237824951171875,-0.13558100163936615,-0.31137174367904663,-0.43878722190856934
1772548046899863000,11.247863037109376,-0.17085163295269012,-0.316691130399704,-0.4669019281864166
1772548046909900300,11.257900390625,-0.20182420313358307,-0.29228833317756653,-0.49570322036743164
1772548046919937000,11.26793701171875,-0.2194274216890335,-0.24267709255218506,-0.5523617267608643
1772548046929975000,11.27797509765625,-0.21232211589813232,-0.1645607203245163,-0.6346829533576965
1772548046940012000,11.288011962890625,-0.1696348339319229,-0.011430819518864155,-0.728863537311554
1772548046950049300,11.29804931640625,-0.09421518445014954,0.14471377432346344,-0.8158926963806152
1772548046960087000,11.308087158203126,-0.014540593139827251,0.21170559525489807,-0.8632293343544006
1772548046970124000,11.3181240234375,0.030792267993092537,0.21408912539482117,-0.8378914594650269
1772548046980161000,11.3281611328125,0.024893898516893387,0.10962476581335068,-0.7178001999855042
1772548046990198000,11.338197998046875,-0.016746489331126213,-0.08346932381391525,-0.5499608516693115
1772548047000236000,11.348236083984375,-0.06430042535066605,-0.27393168210983276,-0.39679715037345886
1772548047010273000,11.35827294921875,-0.0630684494972229,-0.48552435636520386,-0.27106931805610657
1772548047020310300,11.368310302734375,-0.09992073476314545,-0.5682578682899475,-0.20344899594783783
1772548047030348000,11.37834814453125,-0.16148343682289124,-0.5329999923706055,-0.20576994121074677
1772548047040385000,11.388385009765624,-0.21820370852947235,-0.4941609799861908,-0.2733588218688965
1772548047050422000,11.398422119140625,-0.24247628450393677,-0.457307368516922,-0.39130598306655884
1772548047060460000,11.4084599609375,-0.22997461259365082,-0.40351951122283936,-0.5243899822235107
1772548047070497000,11.4184970703125,-0.18732701241970062,-0.3208855986595154,-0.6608402729034424
1772548047080534000,11.428533935546875,-0.11150362342596054,-0.29830440878868103,-0.8038349747657776
1772548047090572000,11.438572021484376,-0.029637521132826805,-0.32017746567726135,-0.9106362462043762
1772548047100609000,11.448609130859374,0.003225088119506836,-0.32660767436027527,-0.9434117674827576
1772548047110646000,11.45864599609375,-0.02551761083304882,-0.41856423020362854,-0.9187934994697571
1772548047120687900,11.46868798828125,-0.09099248796701431,-0.6153420209884644,-0.8233827948570251
1772548047130725000,11.47872509765625,-0.17011474072933197,-0.7677267789840698,-0.6131553053855896
1772548047140762000,11.48876220703125,-0.2512516677379608,-1.0328092575073242,-0.35068583488464355
1772548047150800000,11.4987998046875,-0.368882417678833,-1.2557035684585571,-0.20437870919704437
1772548047160836900,11.5088369140625,-0.47733885049819946,-1.3722478151321411,-0.07821331173181534
1772548047170874000,11.5188740234375,-0.5602169632911682,-1.4665753841400146,0.034873828291893005
1772548047180912000,11.528912109375,-0.6078609228134155,-1.7227853536605835,0.10519059747457504
1772548047190948900,11.538948974609376,-0.5836669206619263,-1.8441426753997803,0.10239321738481522
1772548047200986000,11.548986083984374,-0.5249423384666443,-1.7906442880630493,0.0946870967745781
1772548047211024100,11.559024169921875,-0.48138049244880676,-1.6404310464859009,0.13056200742721558
1772548047221060900,11.569060791015625,-0.4676415026187897,-1.4648592472076416,0.2140292078256607
1772548047231097900,11.579097900390625,-0.4925793409347534,-1.3324979543685913,0.3274551033973694
1772548047241136000,11.58913623046875,-0.5523891448974609,-1.217424988746643,0.4455529749393463
1772548047251173000,11.599173095703126,-0.6009593605995178,-1.1465957164764404,0.5148247480392456
1772548047261209900,11.6092099609375,-0.5996496081352234,-1.1592934131622314,0.4468376934528351
1772548047271248100,11.619248046875,-0.5412640571594238,-1.1760228872299194,0.27387097477912903
1772548047281285000,11.62928515625,-0.45672598481178284,-0.9719845652580261,0.0739450603723526
1772548047291322000,11.639322021484375,-0.32980453968048096,-0.5123570561408997,-0.042264100164175034
1772548047301360000,11.649360107421876,-0.16000032424926758,-0.13247361779212952,-0.11047830432653427
1772548047311397000,11.659397216796876,0.011437477543950081,0.07619570195674896,-0.16832056641578674
1772548047321434000,11.66943408203125,0.17271319031715393,0.22942733764648438,-0.1645021289587021
1772548047331472000,11.679471923828125,0.3284183740615845,0.3869410455226898,-0.029210882261395454
1772548047341509000,11.689509033203125,0.4484046995639801,0.47891971468925476,0.1945154219865799
1772548047351546000,11.699546142578125,0.5016084909439087,0.4754592180252075,0.35475170612335205
1772548047361583900,11.709583984375,0.49116864800453186,0.4949977397918701,0.36881744861602783
1772548047371621000,11.71962109375,0.44511035084724426,0.612387478351593,0.2806154191493988
1772548047381658000,11.729658203125,0.37952920794487,0.7247305512428284,0.11683367192745209
1772548047391696000,11.73969580078125,0.296964555978775,0.7642465233802795,-0.0855918675661087
1772548047401732900,11.74973291015625,0.2081308364868164,0.7592549920082092,-0.22228340804576874
1772548047411770000,11.75977001953125,0.06676837801933289,0.8673244714736938,-0.32280707359313965
1772548047421808000,11.76980810546875,-0.06815135478973389,1.0015733242034912,-0.38708195090293884
1772548047431844900,11.779844970703126,-0.17950370907783508,0.9939343333244324,-0.4679624140262604
1772548047441882000,11.789882080078126,-0.24879783391952515,0.8482673764228821,-0.5786466002464294
1772548047451919000,11.799919189453124,-0.2603926956653595,0.648689329624176,-0.7040886282920837
1772548047461956900,11.809956787109375,-0.24043524265289307,0.5056876540184021,-0.8311997056007385
1772548047471993900,11.819993896484375,-0.11611755192279816,0.707197904586792,-0.8849122524261475
1772548047482031000,11.830031005859375,0.14116831123828888,1.2680622339248657,-0.7621719241142273
1772548047492069000,11.840069091796876,0.4146198332309723,1.7367544174194336,-0.415954053401947
1772548047502105900,11.85010595703125,0.5052170753479004,1.6364749670028687,0.0999460369348526
1772548047512143000,11.86014306640625,0.38196679949760437,1.1145260334014893,0.6623097658157349
1772548047522181000,11.87018115234375,0.1507386416196823,0.5026738047599792,1.0691372156143188
1772548047532217900,11.8802177734375,-0.039092276245355606,0.05693066120147705,1.2822777032852173
1772548047542254800,11.8902548828125,-0.12295974791049957,-0.19206158816814423,1.3988213539123535
1772548047552293000,11.900293212890626,-0.12016209214925766,-0.3312634229660034,1.4451044797897339
1772548047562330000,11.910330078125,-0.06449190527200699,-0.3985567092895508,1.3661518096923828
1772548047572366800,11.920366943359374,0.009825998917222023,-0.3860718011856079,1.1591511964797974
1772548047582405000,11.930405029296875,0.08845370262861252,-0.37407293915748596,0.9341713786125183
1772548047592442000,11.940442138671875,0.16939249634742737,-0.40630143880844116,0.7073923349380493
1772548047602479000,11.95047900390625,0.24898213148117065,-0.36683231592178345,0.4321112036705017
1772548047612517000,11.96051708984375,0.32648810744285583,-0.19025090336799622,0.1669871211051941
1772548047622554000,11.97055419921875,0.3619539439678192,0.16846677660942078,0.02636582776904106
1772548047632591000,11.980591064453124,0.31984856724739075,0.5637168884277344,0.15732650458812714
1772548047642629000,11.990629150390625,0.18719998002052307,0.5813379883766174,0.47798919677734375
1772548047652665000,12.0006650390625,-0.029857231304049492,0.05476098135113716,0.8111426830291748
1772548047662702000,12.0107021484375,-0.28998440504074097,-0.4691517651081085,1.0030574798583984
1772548047672739000,12.020739013671875,-0.5065521597862244,-0.5218296051025391,0.9671831130981445
1772548047682776800,12.03077685546875,-0.6250401735305786,-0.26635339856147766,0.8069356679916382
1772548047692814000,12.04081396484375,-0.658780038356781,0.06985072046518326,0.5754542350769043
1772548047702851000,12.05085107421875,-0.6709770560264587,0.3796898126602173,0.2878781259059906
1772548047712888800,12.060888916015625,-0.670813798904419,0.5417407751083374,0.03368153050541878
1772548047722926000,12.070926025390625,-0.6245171427726746,0.6187947988510132,-0.16668832302093506
1772548047732963000,12.080963134765625,-0.5914731621742249,0.7423707842826843,-0.3006724715232849
1772548047743001000,12.0910009765625,-0.5824154615402222,0.9772048592567444,-0.3508376479148865
1772548047753037800,12.101037841796876,-0.6021859645843506,1.2130597829818726,-0.36867764592170715
1772548047763075000,12.111074951171876,-0.6433382034301758,1.297075867652893,-0.35469311475753784
1772548047773113000,12.121113037109374,-0.6511085033416748,1.2324086427688599,-0.2890360653400421
1772548047783150000,12.131150146484375,-0.5805690884590149,1.1479265689849854,-0.19594766199588776
1772548047793187000,12.14118701171875,-0.46003204584121704,1.1483361721038818,-0.1336107850074768
1772548047803225000,12.15122509765625,-0.37253281474113464,1.1422337293624878,-0.11521048098802567
1772548047813262000,12.161261962890626,-0.3744511008262634,1.1520166397094727,-0.12134400755167007
1772548047823298800,12.171298828125,-0.5141245722770691,1.0120757818222046,-0.016227439045906067
1772548047833337000,12.181337158203124,-0.716022789478302,0.6616668701171875,0.27658313512802124
1772548047843374000,12.1913740234375,-0.791331946849823,0.4761335253715515,0.6414705514907837
1772548047853411000,12.2014111328125,-0.7285745739936829,0.17989599704742432,1.135101079940796
1772548047863449000,12.211448974609375,-0.5487818717956543,-0.14810077846050262,1.5723726749420166
1772548047873486000,12.221486083984376,-0.3285225033760071,-0.4220958352088928,1.7904146909713745
1772548047883523000,12.231523193359376,-0.15172961354255676,-0.2153589129447937,1.8183501958847046
1772548047893561000,12.24156103515625,0.023556191474199295,0.12795104086399078,1.7870806455612183
1772548047903598000,12.25159814453125,0.14473162591457367,0.35392266511917114,1.6420385837554932
1772548047913635000,12.261635009765625,0.21133194863796234,0.4866008162498474,1.371356725692749
1772548047923672800,12.2716728515625,0.2558043301105499,0.21213117241859436,1.0449026823043823
1772548047933710000,12.2817099609375,0.2625751793384552,-0.4121460020542145,0.6918969750404358
1772548047943747000,12.2917470703125,0.26404815912246704,-1.13810133934021,0.379526287317276
1772548047953784800,12.301784912109374,0.24763377010822296,-1.5192553997039795,0.11072411388158798
1772548047963823000,12.311822998046875,0.20706769824028015,-1.361121416091919,-0.1315108835697174
1772548047973860900,12.32186083984375,0.22657029330730438,-0.8427714109420776,-0.2584770917892456
1772548047983897900,12.33189794921875,0.27739831805229187,-0.1732836365699768,-0.27556926012039185
1772548047993935000,12.34193505859375,0.27635011076927185,0.4710649847984314,-0.3127685487270355
1772548048003973000,12.35197314453125,0.20575422048568726,0.6974608302116394,-0.47757935523986816
1772548048014009900,12.362009765625,0.15460927784442902,0.21631525456905365,-0.9328616261482239
1772548048024047000,12.372047119140625,0.21213702857494354,-0.7772241234779358,-1.7276966571807861
1772548048034085000,12.382085205078125,0.28488898277282715,-1.7262003421783447,-2.7104737758636475
1772548048044121900,12.392121826171875,0.14735136926174164,-2.3819549083709717,-3.64263916015625
1772548048054158800,12.402158935546876,0.0006617955514229834,-1.105297565460205,-3.893214225769043
1772548048064197000,12.412197021484374,-0.05000031739473343,2.290762186050415,-3.0296995639801025
1772548048074234000,12.422234130859374,-0.3647518754005432,2.305291175842285,-2.804213523864746
1772548048084270800,12.432270751953125,-0.8439671993255615,1.238508701324463,-2.593212127685547
1772548048094308000,12.44230810546875,-1.0167286396026611,0.447553813457489,-2.2116549015045166
1772548048104346000,12.45234619140625,-0.7836750745773315,-0.06532307714223862,-1.6990914344787598
1772548048114378800,12.462378662109375,-0.26016899943351746,-0.24290132522583008,-1.0699363946914673
1772548048124416500,12.47241650390625,0.2643195390701294,-0.18459434807300568,-0.4613601565361023
