time,seconds_elapsed,z,y,x
1772548035738410200,0.08641015625,-21.751113891601562,-8.590106964111328,-6.6881256103515625
1772548035748447200,0.096447265625,-21.71080780029297,-8.546390533447266,-6.77728271484375
1772548035758484200,0.106484130859375,-21.904586791992188,-8.551593780517578,-6.787567138671875
1772548035768522200,0.116522216796875,-22.560340881347656,-8.417797088623047,-6.8693695068359375
1772548035778559200,0.126559326171875,-22.823638916015625,-8.279802322387695,-6.9233551025390625
1772548035788596200,0.13659619140625,-22.914260864257812,-8.146137237548828,-6.943084716796875
1772548035798633200,0.14663330078125,-23.138412475585938,-8.108291625976562,-6.7384185791015625
1772548035808670000,0.156669921875,-23.23619842529297,-7.897091865539551,-6.7700347900390625
1772548035818707200,0.166707275390625,-23.337249755859375,-7.561124324798584,-6.811737060546875
1772548035828745200,0.1767451171875,-23.30774688720703,-7.3669114112854,-6.7592315673828125
1772548035838782000,0.186781982421875,-23.557022094726562,-7.200948238372803,-6.73260498046875
1772548035848819200,0.196819091796875,-23.85424041748047,-6.950643539428711,-6.4285430908203125
1772548035858856200,0.206856201171875,-24.037864685058594,-6.41988468170166,-6.41693115234375
1772548035868893200,0.21689306640625,-24.582969665527344,-6.046194076538086,-5.9588470458984375
1772548035878931000,0.226930908203125,-24.886512756347656,-5.572995185852051,-5.372222900390625
1772548035888968200,0.23696826171875,-25.145164489746094,-5.519238471984863,-4.879364013671875
1772548035899005200,0.247005126953125,-25.03229522705078,-5.358144760131836,-4.324462890625
1772548035909042200,0.257042236328125,-25.448562622070312,-5.1913580894470215,-4.048736572265625
1772548035919079200,0.2670791015625,-25.796348571777344,-4.928069114685059,-3.7111053466796875
1772548035929117200,0.2771171875,-26.02147674560547,-4.789177417755127,-3.161590576171875
1772548035939154200,0.287154296875,-26.143455505371094,-4.650060653686523,-2.7066192626953125
1772548035949191200,0.297191162109375,-26.295631408691406,-4.553169250488281,-2.1171875
1772548035959228200,0.307228271484375,-26.58434295654297,-4.701972961425781,-1.6471710205078125
1772548035969265200,0.31726513671875,-26.8182373046875,-4.644083023071289,-1.4917755126953125
1772548035979302100,0.32730224609375,-26.855209350585938,-4.690373420715332,-1.1211700439453125
1772548035989340200,0.337340087890625,-26.868209838867188,-4.665036678314209,-0.73577880859375
1772548035999377200,0.347377197265625,-26.971649169921875,-4.608932971954346,-0.3823699951171875
1772548036009414100,0.3574140625,-27.36651611328125,-4.584101676940918,0.00982666015625
1772548036019451100,0.367451171875,-27.6195068359375,-4.4501142501831055,0.4889984130859375
1772548036029488000,0.377488037109375,-27.75568389892578,-4.543790340423584,1.02520751953125
1772548036039526100,0.387526123046875,-27.507102966308594,-4.768718719482422,1.4170684814453125
1772548036049563100,0.397563232421875,-27.702056884765625,-4.822113990783691,1.3396759033203125
1772548036059600100,0.40760009765625,-27.527923583984375,-5.119708061218262,1.0894622802734375
1772548036069637000,0.41763720703125,-27.71282958984375,-5.414287567138672,0.46630859375
1772548036079674400,0.42767431640625,-27.709426879882812,-5.5795392990112305,-0.07080078125
1772548036089711000,0.437711181640625,-27.345870971679688,-5.507969379425049,-0.370635986328125
1772548036099749600,0.44774951171875,-27.52788543701172,-5.4233808517456055,-0.67730712890625
1772548036109786600,0.45778662109375,-27.550926208496094,-5.233503341674805,-0.760009765625
1772548036119823600,0.46782373046875,-27.72010040283203,-4.925414562225342,-0.809783935546875
1772548036129860600,0.477860595703125,-27.660568237304688,-4.547472953796387,-0.66046142578125
1772548036139897600,0.487897705078125,-27.71245574951172,-4.073206901550293,-0.5584869384765625
1772548036149935600,0.497935546875,-27.941970825195312,-3.3970983028411865,-0.1711273193359375
1772548036159972600,0.50797265625,-28.154212951660156,-2.7701058387756348,0.0595855712890625
1772548036170009600,0.518009521484375,-28.30773162841797,-2.190898895263672,0.320556640625
1772548036180046600,0.528046630859375,-28.081031799316406,-1.5962884426116943,0.67596435546875
1772548036190083800,0.538083740234375,-28.135421752929688,-0.9770557880401611,0.53472900390625
1772548036200121600,0.54812158203125,-28.4261474609375,-0.5281020402908325,0.5175323486328125
1772548036210158600,0.55815869140625,-28.346527099609375,0.2189168930053711,0.447357177734375
1772548036220195800,0.56819580078125,-28.292633056640625,0.896503210067749,0.351715087890625
1772548036230232800,0.57823291015625,-28.177230834960938,1.5957436561584473,0.5884552001953125
1772548036240269600,0.58826953125,-28.690689086914062,2.4871554374694824,0.4551849365234375
1772548036250307600,0.5983076171875,-28.52600860595703,3.4343748092651367,0.6708526611328125
1772548036260344800,0.6083447265625,-28.356552124023438,4.65388298034668,0.8162078857421875
1772548036270381600,0.618381591796875,-28.22022247314453,5.900913238525391,0.7807159423828125
1772548036280418600,0.62841845703125,-27.70331573486328,6.780245780944824,0.5352783203125
1772548036290455600,0.63845556640625,-27.485107421875,7.825403213500977,-0.273101806640625
1772548036300492800,0.648492919921875,-27.16790008544922,8.540314674377441,-1.0913543701171875
1772548036310530600,0.658530517578125,-26.661170959472656,9.099384307861328,-1.942901611328125
1772548036320567600,0.668567626953125,-26.661170959472656,9.099384307861328,-1.942901611328125
1772548036330604500,0.6786044921875,-26.033035278320312,9.961371421813965,-2.9326171875
1772548036340641800,0.688641845703125,-25.288467407226562,10.70592212677002,-3.539642333984375
1772548036350679600,0.698679443359375,-24.83056640625,11.4632568359375,-3.85791015625
1772548036360716500,0.708716552734375,-24.139968872070312,12.473420143127441,-4.07861328125
1772548036370753800,0.71875390625,-23.481719970703125,13.436370849609375,-4.0455474853515625
1772548036380790800,0.728790771484375,-22.447586059570312,14.510360717773438,-4.1174163818359375
1772548036390827800,0.738827880859375,-21.528709411621094,15.356664657592773,-4.4796142578125
1772548036400865500,0.748865478515625,-21.030410766601562,16.080944061279297,-4.7926483154296875
1772548036410902800,0.75890283203125,-20.437095642089844,16.81681251525879,-5.022674560546875
1772548036420939800,0.768939697265625,-19.79486083984375,17.511823654174805,-5.310333251953125
1772548036430976500,0.7789765625,-19.09479522705078,18.119874954223633,-5.273040771484375
1772548036441013500,0.789013427734375,-18.516693115234375,18.73358917236328,-5.3594512939453125
1772548036451050800,0.79905078125,-17.861427307128906,19.345979690551758,-5.3201904296875
1772548036461088800,0.8090888671875,-17.107810974121094,20.079627990722656,-5.252593994140625
1772548036471125500,0.81912548828125,-16.438873291015625,20.558765411376953,-4.9259490966796875
1772548036481162500,0.82916259765625,-15.972724914550781,21.219079971313477,-4.6738433837890625
1772548036491199700,0.83919970703125,-15.682243347167969,21.794036865234375,-4.202545166015625
1772548036501236700,0.84923681640625,-15.311843872070312,22.33165740966797,-3.7576141357421875
1772548036511274500,0.8592744140625,-14.82025146484375,22.4659481048584,-3.1873779296875
1772548036521311700,0.869311767578125,-14.273384094238281,22.985761642456055,-2.248138427734375
1772548036531348700,0.8793486328125,-14.076057434082031,23.385482788085938,-1.6420135498046875
1772548036541385700,0.8893857421875,-14.319175720214844,23.78731918334961,-0.814117431640625
1772548036551423500,0.899423583984375,-14.387420654296875,23.789688110351562,0.13671875
1772548036561460700,0.909460693359375,-14.700439453125,23.869722366333008,1.084991455078125
1772548036571497700,0.919497802734375,-14.605499267578125,23.868288040161133,2.1178741455078125
1772548036581534700,0.92953466796875,-15.399078369140625,23.64985466003418,3.0789794921875
1772548036591571500,0.939571533203125,-15.930084228515625,23.743762969970703,3.987152099609375
1772548036601609700,0.949609619140625,-16.349288940429688,23.58164405822754,4.935028076171875
1772548036611646700,0.959646728515625,-17.007904052734375,23.241775512695312,6.106689453125
1772548036621683700,0.96968359375,-16.903602600097656,23.162010192871094,7.1935577392578125
1772548036631720400,0.979720458984375,-17.47564697265625,22.950319290161133,8.267593383789062
1772548036641757700,0.9897578125,-17.60211944580078,22.717378616333008,9.172286987304688
1772548036651795700,0.999795654296875,-17.889862060546875,22.445817947387695,10.169509887695312
1772548036661832400,1.00983251953125,-18.053085327148438,21.984853744506836,11.093063354492188
1772548036671869700,1.01986962890625,-17.902847290039062,21.611705780029297,11.71429443359375
1772548036681906700,1.02990673828125,-18.092308044433594,21.416790008544922,12.157501220703125
1772548036691943700,1.039943603515625,-18.198463439941406,21.297597885131836,12.466903686523438
1772548036701981400,1.0499814453125,-18.345008850097656,20.994813919067383,12.745132446289062
1772548036712018700,1.060018798828125,-18.200286865234375,20.848447799682617,12.99798583984375
1772548036722055700,1.0700556640625,-18.637451171875,20.728981018066406,12.89422607421875
1772548036732092700,1.0800927734375,-18.842575073242188,20.507017135620117,12.624847412109375
1772548036742130700,1.090130615234375,-18.905776977539062,20.48745346069336,12.401611328125
1772548036752167700,1.100167724609375,-19.30951690673828,20.125425338745117,12.523117065429688
1772548036762204700,1.11020458984375,-19.40142059326172,19.994945526123047,12.530960083007812
1772548036772241700,1.12024169921875,-19.706459045410156,19.85198974609375,12.588088989257812
1772548036782278700,1.130278564453125,-19.60932159423828,19.842456817626953,12.712173461914062
1772548036792316700,1.140316650390625,-19.74207305908203,19.789508819580078,12.9813232421875
1772548036802353700,1.150353759765625,-19.692115783691406,19.592687606811523,13.22119140625
1772548036812390700,1.160390625,-19.660728454589844,19.605670928955078,13.279922485351562
1772548036822427600,1.170427734375,-19.847267150878906,19.732694625854492,13.2462158203125
1772548036832464600,1.180464599609375,-19.774154663085938,19.64429473876953,13.265762329101562
1772548036842502700,1.190502685546875,-19.958633422851562,19.72294807434082,13.180496215820312
1772548036852539600,1.20053955078125,-19.713394165039062,19.619001388549805,13.378997802734375
1772548036862576600,1.21057666015625,-19.84154510498047,19.55707359313965,13.424468994140625
1772548036872613600,1.220613525390625,-19.968307495117188,19.46744728088379,13.554656982421875
1772548036882650600,1.230650634765625,-19.981918334960938,19.32185173034668,13.747207641601562
1772548036892688600,1.240688720703125,-20.046157836914062,19.192562103271484,13.897750854492188
1772548036902725600,1.2507255859375,-20.087936401367188,19.164813995361328,14.043319702148438
1772548036912762600,1.2607626953125,-20.293487548828125,19.164655685424805,13.833389282226562
1772548036922799600,1.270799560546875,-20.414276123046875,19.34477996826172,13.448104858398438
1772548036932837600,1.280837646484375,-20.401268005371094,19.137237548828125,13.228469848632812
1772548036942874600,1.29087451171875,-20.617507934570312,19.1583251953125,12.857666015625
1772548036952911600,1.30091162109375,-20.463111877441406,19.218698501586914,12.519363403320312
1772548036962948600,1.310948486328125,-20.68939208984375,19.508649826049805,12.123992919921875
1772548036972985900,1.32098583984375,-20.655792236328125,19.55011749267578,11.629974365234375
1772548036983023600,1.331023681640625,-20.72124481201172,19.787729263305664,11.18853759765625
1772548036993060600,1.341060546875,-20.53582763671875,19.771968841552734,10.979202270507812
1772548037003097900,1.351097900390625,-20.607009887695312,20.08748435974121,10.648483276367188
1772548037013134600,1.361134521484375,-20.52569580078125,19.984725952148438,10.536041259765625
1772548037023172600,1.371172607421875,-20.14287567138672,20.224088668823242,10.363296508789062
1772548037033209600,1.381209716796875,-20.087318420410156,20.30140495300293,10.424606323242188
1772548037043246800,1.391246826171875,-19.9609375,20.445024490356445,10.582321166992188
1772548037053283600,1.40128369140625,-20.00463104248047,20.32939910888672,10.633316040039062
1772548037063320600,1.411320556640625,-19.91529083251953,20.44073486328125,10.693862915039062
1772548037073358600,1.421358642578125,-19.920860290527344,20.569650650024414,10.711227416992188
1772548037083395800,1.431395751953125,-19.55957794189453,20.563627243041992,10.80859375
1772548037093432600,1.4414326171875,-19.541854858398438,20.45781707763672,11.003524780273438
1772548037103469800,1.4514697265625,-19.363357543945312,20.61618995666504,11.206085205078125
1772548037113507000,1.461507080078125,-19.41907501220703,20.696849822998047,11.440643310546875
1772548037123544800,1.471544921875,-19.01654052734375,20.666481018066406,11.810714721679688
1772548037133581800,1.481581787109375,-18.62126922607422,20.53159523010254,12.420150756835938
1772548037143619000,1.491619140625,-18.390640258789062,20.48786735534668,12.94268798828125
1772548037153656000,1.501656005859375,-18.249046325683594,20.495473861694336,13.584320068359375
1772548037163693800,1.51169384765625,-17.964111328125,20.367324829101562,14.428314208984375
1772548037173730800,1.521730712890625,-17.702171325683594,20.066913604736328,15.189376831054688
1772548037183768000,1.53176806640625,-17.149513244628906,19.999719619750977,16.118988037109375
1772548037193805000,1.54180517578125,-16.947891235351562,19.591527938842773,16.77154541015625
1772548037203842000,1.551842041015625,-16.869186401367188,19.378812789916992,17.446990966796875
1772548037213880000,1.561880126953125,-16.76103973388672,19.33513641357422,17.7652587890625
1772548037223917000,1.5719169921875,-16.325942993164062,19.057283401489258,18.111160278320312
1772548037233954000,1.5819541015625,-16.073196411132812,19.077877044677734,18.457122802734375
1772548037243990800,1.59199072265625,-16.51081085205078,18.92520523071289,18.406509399414062
1772548037254029000,1.602029052734375,-16.317420959472656,18.940088272094727,18.220703125
1772548037264066000,1.612066162109375,-16.333213806152344,19.1407470703125,17.937179565429688
1772548037274103000,1.62210302734375,-16.429718017578125,19.176898956298828,17.870452880859375
1772548037284139800,1.632139892578125,-16.114288330078125,19.415037155151367,17.67706298828125
1772548037294177000,1.642177001953125,-15.942657470703125,19.714275360107422,17.648178100585938
1772548037304215000,1.652215087890625,-15.829429626464844,19.719886779785156,17.689529418945312
1772548037314251800,1.662251708984375,-15.779624938964844,19.71602439880371,17.808868408203125
1772548037324288800,1.672288818359375,-15.642463684082031,19.600330352783203,18.022979736328125
1772548037334326000,1.682325927734375,-15.825126647949219,19.49812889099121,18.13787841796875
1772548037344364000,1.692364013671875,-15.903800964355469,19.361202239990234,18.201034545898438
1772548037354400800,1.70240087890625,-16.020584106445312,19.466869354248047,18.09649658203125
1772548037364438000,1.71243798828125,-16.128150939941406,19.360864639282227,18.130615234375
1772548037374475000,1.72247509765625,-16.31616973876953,19.22043228149414,17.9505615234375
1772548037384512000,1.732511962890625,-17.077621459960938,18.854228973388672,17.905197143554688
1772548037394549800,1.7425498046875,-17.750732421875,18.646160125732422,17.693466186523438
1772548037404587000,1.7525869140625,-18.49182891845703,18.49225616455078,17.397125244140625
1772548037414624000,1.7626240234375,-18.92127227783203,18.503055572509766,16.812774658203125
1772548037424661000,1.772660888671875,-19.369522094726562,18.379676818847656,16.407745361328125
1772548037434699000,1.782698974609375,-19.638076782226562,18.491044998168945,15.831146240234375
1772548037444736000,1.792736083984375,-19.836227416992188,18.472013473510742,15.376968383789062
1772548037454773000,1.80277294921875,-20.09882354736328,18.635719299316406,14.825027465820312
1772548037464810000,1.81281005859375,-20.363075256347656,18.532926559448242,14.65533447265625
1772548037474848000,1.822847900390625,-20.711151123046875,18.297107696533203,14.376693725585938
1772548037484885000,1.832885009765625,-21.365325927734375,18.29462432861328,13.950592041015625
1772548037494922000,1.842921875,-21.60993194580078,18.138124465942383,13.667526245117188
1772548037504959000,1.852958984375,-21.965904235839844,17.875154495239258,13.469268798828125
1772548037514996000,1.862995849609375,-21.974449157714844,17.753568649291992,13.369384765625
1772548037525034000,1.873033935546875,-22.318527221679688,17.79059410095215,13.100616455078125
1772548037535071000,1.883071044921875,-22.136871337890625,17.98531723022461,13.096725463867188
1772548037545108000,1.89310791015625,-21.9403076171875,18.257888793945312,12.798477172851562
1772548037555145000,1.90314501953125,-21.886993408203125,18.38441276550293,12.68792724609375
1772548037565183000,1.913182861328125,-21.34967803955078,18.943180084228516,12.389816284179688
1772548037575220000,1.923219970703125,-21.23229217529297,19.010089874267578,12.022293090820312
1772548037585257000,1.933257080078125,-21.118179321289062,19.462060928344727,11.3697509765625
1772548037595294000,1.9432939453125,-21.055946350097656,19.567337036132812,10.920013427734375
1772548037605332000,1.95333203125,-21.13745880126953,19.75271987915039,10.385711669921875
1772548037615369000,1.963368896484375,-20.818435668945312,19.68955421447754,10.125167846679688
1772548037625406000,1.973406005859375,-20.81230926513672,20.04043960571289,9.856369018554688
1772548037635443000,1.98344287109375,-20.44493865966797,20.34705352783203,9.810287475585938
1772548037645480000,1.99347998046875,-20.10706329345703,20.645051956176758,9.857406616210938
1772548037655518000,2.00351806640625,-19.880172729492188,20.71487808227539,9.966812133789062
1772548037665555000,2.013554931640625,-19.92613983154297,20.886777877807617,10.155227661132812
1772548037675592000,2.023592041015625,-19.76319122314453,20.792003631591797,10.295700073242188
1772548037685629000,2.03362890625,-19.55567169189453,20.89145851135254,10.275970458984375
1772548037695667000,2.0436669921875,-19.356353759765625,20.816247940063477,10.270050048828125
1772548037705704000,2.053703857421875,-19.216506958007812,20.967174530029297,10.221542358398438
1772548037715741000,2.063740966796875,-19.477584838867188,21.12921142578125,10.029632568359375
1772548037725778000,2.07377783203125,-19.287742614746094,21.025964736938477,9.795486450195312
1772548037735816000,2.08381591796875,-19.55915069580078,20.9049072265625,9.752090454101562
1772548037745853000,2.09385302734375,-19.734878540039062,20.936330795288086,9.266921997070312
1772548037755890000,2.103889892578125,-19.911422729492188,20.812788009643555,8.881820678710938
1772548037765927000,2.113927001953125,-19.911422729492188,20.812788009643555,8.881820678710938
1772548037775965000,2.12396484375,-20.408538818359375,20.646242141723633,8.413375854492188
1772548037786002000,2.134001953125,-20.46631622314453,20.43896484375,7.8433685302734375
1772548037796039000,2.144038818359375,-20.600608825683594,20.289817810058594,7.3483428955078125
1772548037806076200,2.154076171875,-20.500991821289062,20.244998931884766,6.8133544921875
1772548037816113000,2.16411279296875,-20.519515991210938,20.204669952392578,6.2479095458984375
1772548037826151000,2.17415087890625,-20.524513244628906,20.16389274597168,5.71075439453125
1772548037836188000,2.18418798828125,-20.388290405273438,20.271915435791016,4.893341064453125
1772548037846225000,2.194224853515625,-20.1927490234375,20.5417423248291,3.915557861328125
1772548037856262000,2.204261962890625,-19.736244201660156,20.607534408569336,3.0547637939453125
1772548037866300000,2.2142998046875,-19.513015747070312,20.310569763183594,1.9761810302734375
1772548037876337200,2.224337158203125,-19.592819213867188,20.354257583618164,0.8420257568359375
1772548037886374000,2.234373779296875,-19.235321044921875,20.055421829223633,-0.0750885009765625
1772548037896411000,2.244410888671875,-19.12640380859375,19.85292625427246,-0.8437652587890625
1772548037906449000,2.254448974609375,-18.548141479492188,19.88343048095703,-1.24090576171875
1772548037916486100,2.264486083984375,-18.672821044921875,19.811813354492188,-1.5273895263671875
1772548037926523000,2.27452294921875,-18.625213623046875,19.82611083984375,-1.7724761962890625
1772548037936559900,2.284559814453125,-18.398361206054688,19.8826961517334,-1.758453369140625
1772548037946598100,2.29459814453125,-18.204437255859375,20.159475326538086,-1.5515594482421875
1772548037956635000,2.304634765625,-18.200233459472656,20.216012954711914,-1.12030029296875
1772548037966672000,2.314671875,-18.28087615966797,20.098329544067383,-0.677825927734375
1772548037976708900,2.324708984375,-18.25397491455078,20.36835479736328,-0.4517822265625
1772548037986747100,2.3347470703125,-18.330795288085938,20.462770462036133,-0.3513946533203125
1772548037996783900,2.344783935546875,-18.66101837158203,20.281517028808594,-0.224273681640625
1772548038006820900,2.35482080078125,-18.862686157226562,20.40802574157715,-0.1804046630859375
1772548038016857900,2.36485791015625,-18.84319305419922,20.307079315185547,-0.10430908203125
1772548038026896000,2.374895751953125,-18.96544647216797,20.267847061157227,-0.082183837890625
1772548038036932900,2.384932861328125,-18.98638153076172,20.283185958862305,0.0144805908203125
1772548038046969900,2.394969970703125,-18.852577209472656,20.268667221069336,0.3907318115234375
1772548038057006800,2.4050068359375,-18.944198608398438,20.299957275390625,0.533966064453125
1772548038067044000,2.415044189453125,-18.98737335205078,20.337373733520508,0.506988525390625
1772548038077081900,2.425081787109375,-18.945449829101562,20.222904205322266,0.71142578125
1772548038087118800,2.435118896484375,-19.086219787597656,20.389291763305664,0.800140380859375
1772548038097156000,2.445156005859375,-19.08385467529297,20.32994270324707,1.016448974609375
1772548038107192600,2.455192626953125,-19.178817749023438,20.38739013671875,1.0004425048828125
1772548038117230300,2.465230224609375,-19.17729949951172,20.39212417602539,1.2625732421875
1772548038127267600,2.475267578125,-19.48741912841797,20.40923500061035,1.4113311767578125
1772548038137304600,2.4853046875,-19.281463623046875,20.56801986694336,1.446746826171875
1772548038147341600,2.495341552734375,-19.394119262695312,20.496597290039062,1.440093994140625
1772548038157379600,2.505379638671875,-19.291793823242188,20.488157272338867,1.324737548828125
1772548038167416600,2.51541650390625,-19.493980407714844,20.437265396118164,1.2374114990234375
1772548038177453600,2.52545361328125,-19.378982543945312,20.278963088989258,1.173492431640625
1772548038187490600,2.535490478515625,-19.255897521972656,20.128929138183594,1.243682861328125
1772548038197528600,2.545528564453125,-19.605125427246094,20.174375534057617,0.8515472412109375
1772548038207565600,2.555565673828125,-19.403579711914062,20.080583572387695,0.6346282958984375
1772548038217602600,2.5656025390625,-19.105484008789062,20.3923397064209,0.477142333984375
1772548038227639600,2.5756396484375,-19.020774841308594,20.26878547668457,0.324127197265625
1772548038237677600,2.585677490234375,-18.945449829101562,20.323328018188477,0.2588043212890625
1772548038247714600,2.595714599609375,-19.203384399414062,20.268531799316406,0.2169647216796875
1772548038257751600,2.60575146484375,-19.315811157226562,20.285409927368164,0.2623138427734375
1772548038267788300,2.615788330078125,-19.28221893310547,20.15593719482422,0.2953338623046875
1772548038277826600,2.62582666015625,-19.428573608398438,20.081645965576172,0.40692138671875
1772548038287863600,2.635863525390625,-19.51776885986328,20.104995727539062,0.45135498046875
1772548038297900500,2.645900634765625,-19.43304443359375,20.024858474731445,0.7119903564453125
1772548038307937500,2.6559375,-19.612319946289062,20.037843704223633,0.675872802734375
1772548038317975600,2.6659755859375,-19.656394958496094,20.040939331054688,0.858367919921875
1772548038328012500,2.676012451171875,-19.599929809570312,20.04060935974121,1.045806884765625
1772548038338049500,2.686049560546875,-19.660011291503906,19.87464714050293,1.16497802734375
1772548038348086500,2.69608642578125,-19.7630615234375,19.860750198364258,1.1544189453125
1772548038358124500,2.70612451171875,-19.902610778808594,19.911123275756836,1.196197509765625
1772548038368161500,2.71616162109375,-20.295394897460938,19.843000411987305,1.1587677001953125
1772548038378198500,2.726198486328125,-20.002548217773438,19.629154205322266,1.1043853759765625
1772548038388235500,2.736235595703125,-20.09062957763672,19.41645050048828,0.9000244140625
1772548038398273500,2.7462734375,-20.070571899414062,19.4906063079834,0.7587738037109375
1772548038408310500,2.756310546875,-20.20893096923828,19.32219886779785,0.6934051513671875
1772548038418347500,2.766347412109375,-20.36280059814453,19.572744369506836,0.4743499755859375
1772548038428384500,2.776384521484375,-20.07697296142578,19.505746841430664,0.562042236328125
1772548038438422500,2.786422607421875,-19.88141632080078,19.72456932067871,0.6414642333984375
1772548038448459500,2.79645947265625,-19.444053649902344,19.766599655151367,0.976593017578125
1772548038458496500,2.80649658203125,-19.396072387695312,19.876501083374023,1.47003173828125
1772548038468533500,2.816533447265625,-19.47521209716797,19.99420166015625,2.02227783203125
1772548038478571500,2.826571533203125,-19.597671508789062,19.859222412109375,2.4323577880859375
1772548038488608500,2.8366083984375,-19.514129638671875,19.921070098876953,2.763031005859375
1772548038498645500,2.8466455078125,-19.523727416992188,19.783227920532227,2.9745635986328125
1772548038508682500,2.8566826171875,-19.061355590820312,19.807659149169922,2.6988525390625
1772548038518720500,2.866720458984375,-18.92168426513672,19.900728225708008,2.5583038330078125
1772548038528757500,2.876757568359375,-19.067359924316406,19.817533493041992,1.8904266357421875
1772548038538794500,2.88679443359375,-18.764389038085938,19.732452392578125,1.2574920654296875
1772548038548832500,2.89683251953125,-18.591041564941406,19.628780364990234,0.6500244140625
1772548038558869500,2.906869384765625,-18.242088317871094,19.4989013671875,0.2566070556640625
1772548038568906500,2.916906494140625,-18.025840759277344,19.615154266357422,-0.1618499755859375
1772548038578943500,2.926943603515625,-17.746864318847656,19.458236694335938,-0.5595855712890625
1772548038588981500,2.9369814453125,-17.70178985595703,19.236202239990234,-0.7738494873046875
1772548038599018500,2.9470185546875,-17.766143798828125,19.319807052612305,-1.033905029296875
1772548038609055500,2.957055419921875,-17.412261962890625,19.290027618408203,-1.3660888671875
1772548038619092500,2.967092529296875,-17.030181884765625,19.04306983947754,-1.8811187744140625
1772548038629130500,2.977130615234375,-16.803955078125,18.64127540588379,-2.500579833984375
1772548038639167500,2.98716748046875,-16.72710418701172,18.10914421081543,-2.82745361328125
1772548038649204500,2.99720458984375,-16.69964599609375,17.744176864624023,-3.1673126220703125
1772548038659241500,3.007241455078125,-16.738548278808594,17.40369987487793,-3.457489013671875
1772548038669279500,3.017279541015625,-16.817237854003906,16.97015953063965,-3.6388702392578125
1772548038679316500,3.02731640625,-17.09015655517578,16.49396514892578,-4.012237548828125
1772548038689353500,3.037353515625,-17.164955139160156,16.010761260986328,-4.3661956787109375
1772548038699390500,3.047390380859375,-17.11138153076172,15.657798767089844,-4.614105224609375
1772548038709428500,3.057428466796875,-17.045204162597656,15.28708267211914,-4.9337310791015625
1772548038719465500,3.067465576171875,-16.631179809570312,14.802690505981445,-5.52362060546875
1772548038729502500,3.07750244140625,-16.548667907714844,14.157703399658203,-6.434906005859375
1772548038739539700,3.087539794921875,-15.979423522949219,13.197931289672852,-7.4279327392578125
1772548038749577500,3.097577392578125,-15.567909240722656,11.89030647277832,-8.572860717773438
1772548038759614500,3.107614501953125,-15.027603149414062,10.488197326660156,-9.954376220703125
1772548038769651500,3.1176513671875,-14.469917297363281,9.032923698425293,-11.1131591796875
1772548038779688700,3.127688720703125,-13.794319152832031,7.588553428649902,-12.064407348632812
1772548038789726500,3.1377265625,-13.109260559082031,6.171278953552246,-12.900863647460938
1772548038799763500,3.147763427734375,-12.070869445800781,5.154790878295898,-13.398284912109375
1772548038809800700,3.15780078125,-11.199821472167969,4.33277702331543,-14.076828002929688
1772548038819838500,3.16783837890625,-10.615333557128906,3.887272357940674,-14.291900634765625
1772548038829875500,3.17787548828125,-10.083160400390625,3.461477279663086,-14.408798217773438
1772548038839912400,3.187912353515625,-9.993324279785156,3.335488796234131,-14.493209838867188
1772548038849949700,3.19794970703125,-9.70751953125,3.6144704818725586,-14.407501220703125
1772548038859987500,3.207987548828125,-9.987785339355469,3.707308769226074,-14.431594848632812
1772548038870024400,3.2180244140625,-10.428001403808594,3.651031970977783,-14.388198852539062
1772548038880061700,3.228061767578125,-10.909194946289062,3.594724178314209,-14.160308837890625
1772548038890098700,3.2380986328125,-11.219963073730469,3.8236098289489746,-14.136703491210938
1772548038900136400,3.248136474609375,-11.446891784667969,3.766373634338379,-13.947158813476562
1772548038910173400,3.25817333984375,-11.397499084472656,3.7189621925354004,-13.623321533203125
1772548038920210700,3.268210693359375,-11.407386779785156,3.7270493507385254,-13.69830322265625
1772548038930247400,3.278247314453125,-11.868133544921875,3.898592472076416,-13.732757568359375
1772548038940285400,3.288285400390625,-11.895835876464844,3.9001708030700684,-13.810134887695312
1772548038950322700,3.29832275390625,-11.907257080078125,3.812713623046875,-13.905349731445312
1772548038960359700,3.308359619140625,-11.913482666015625,3.7681188583374023,-13.814346313476562
1772548038970396400,3.318396484375,-12.275718688964844,3.876791000366211,-13.935714721679688
1772548038980434400,3.328434326171875,-11.792503356933594,3.893136501312256,-14.02935791015625
1772548038990471700,3.3384716796875,-11.802505493164062,3.7895455360412598,-13.877777099609375
1772548039000508700,3.3485087890625,-11.86322021484375,3.7505874633789062,-14.004379272460938
1772548039010546400,3.35854638671875,-11.929840087890625,3.7177438735961914,-14.129150390625
1772548039020583700,3.368583740234375,-11.928268432617188,3.6573638916015625,-14.192520141601562
1772548039030620700,3.37862060546875,-11.661735534667969,3.768191337585449,-14.1224365234375
1772548039040657400,3.388657470703125,-11.654457092285156,3.8950414657592773,-14.058074951171875
1772548039050695400,3.3986953125,-11.597152709960938,4.06252908706665,-14.189773559570312
1772548039060732700,3.408732666015625,-11.243209838867188,4.37921142578125,-14.1993408203125
1772548039070769700,3.418769775390625,-11.086280822753906,4.6092305183410645,-14.143722534179688
1772548039080806400,3.428806396484375,-11.235847473144531,4.78049373626709,-14.1561279296875
1772548039090844700,3.4388447265625,-11.539939880371094,4.7919697761535645,-14.093505859375
1772548039100881700,3.448881591796875,-11.879379272460938,4.749345302581787,-14.020660400390625
1772548039110918700,3.458918701171875,-11.916419982910156,4.816213130950928,-14.003875732421875
1772548039120955600,3.46895556640625,-11.980575561523438,4.794658660888672,-14.083831787109375
1772548039130994000,3.478993896484375,-11.8367919921875,5.029396057128906,-13.96173095703125
1772548039141031000,3.489031005859375,-12.026939392089844,4.809332370758057,-13.987060546875
1772548039151067600,3.499067626953125,-12.26055908203125,4.790003776550293,-14.080947875976562
1772548039161106000,3.50910595703125,-12.416519165039062,4.845807075500488,-14.062026977539062
1772548039171143000,3.519142822265625,-12.311439514160156,4.841614723205566,-14.055633544921875
1772548039181179600,3.5291796875,-12.039329528808594,5.028143882751465,-13.936309814453125
1772548039191216600,3.539216552734375,-12.410514831542969,4.95458459854126,-13.986175537109375
1772548039201255000,3.5492548828125,-12.410514831542969,4.95458459854126,-13.986175537109375
1772548039211292000,3.5592919921875,-12.449897766113281,5.01523494720459,-14.021331787109375
1772548039221328600,3.56932861328125,-12.333572387695312,4.955877304077148,-14.060165405273438
1772548039231367000,3.579366943359375,-12.357879638671875,5.125308513641357,-14.109909057617188
1772548039241404000,3.58940380859375,-12.221580505371094,5.130150318145752,-14.072921752929688
1772548039251440600,3.599440673828125,-12.241889953613281,5.073269367218018,-13.997344970703125
1772548039261477600,3.6094775390625,-12.107353210449219,5.141472339630127,-13.914291381835938
1772548039271516000,3.619515869140625,-11.969825744628906,5.300924777984619,-14.001495361328125
1772548039281553000,3.629552978515625,-12.01068115234375,5.234439373016357,-13.914337158203125
1772548039291589600,3.639589599609375,-12.007850646972656,5.235569477081299,-14.08404541015625
1772548039301626600,3.649626708984375,-11.897476196289062,5.162688732147217,-14.047317504882812
1772548039311665000,3.659664794921875,-11.970954895019531,5.147655010223389,-14.137298583984375
1772548039321702000,3.669701904296875,-11.781936645507812,5.236664295196533,-14.1917724609375
1772548039331738600,3.679738525390625,-11.4078369140625,5.199656009674072,-13.9322509765625
1772548039341776000,3.68977587890625,-11.731681823730469,5.109501838684082,-14.193832397460938
1772548039351814000,3.69981396484375,-11.621185302734375,4.92949104309082,-14.151947021484375
1772548039361850600,3.7098505859375,-11.592948913574219,4.757265567779541,-14.07568359375
1772548039371887600,3.7198876953125,-11.636123657226562,4.58901309967041,-14.07403564453125
1772548039381926000,3.72992578125,-11.23876953125,4.703261852264404,-14.065261840820312
1772548039391963000,3.739962890625,-11.408477783203125,4.70108699798584,-14.148391723632812
1772548039401999600,3.74999951171875,-11.287811279296875,4.572314262390137,-14.181060791015625
1772548039412036900,3.760036865234375,-11.131027221679688,4.485592842102051,-14.208663940429688
1772548039422075000,3.770074951171875,-11.152214050292969,4.445181369781494,-14.221939086914062
1772548039432111600,3.780111572265625,-11.197097778320312,4.3906378746032715,-14.309371948242188
1772548039442148600,3.790148681640625,-11.354484558105469,4.3636088371276855,-14.21875
1772548039452187000,3.800186767578125,-11.472740173339844,4.334051609039307,-14.241424560546875
1772548039462224000,3.810223876953125,-11.542694091796875,4.389312267303467,-14.23919677734375
1772548039472260600,3.820260498046875,-11.71038818359375,4.481342792510986,-14.163482666015625
1772548039482297900,3.8302978515625,-12.012474060058594,4.2616963386535645,-14.046356201171875
1772548039492335900,3.8403359375,-12.046875,3.973712921142578,-14.03399658203125
1772548039502372900,3.850372802734375,-11.985404968261719,4.081448078155518,-14.104019165039062
1772548039512409600,3.86040966796875,-11.902259826660156,4.104294776916504,-14.103836059570312
1772548039522446800,3.87044677734375,-11.885414123535156,4.006593227386475,-13.933868408203125
1772548039532484900,3.88048486328125,-11.917121887207031,3.930177688598633,-13.911727905273438
1772548039542521600,3.890521484375,-12.057212829589844,3.841590404510498,-14.0401611328125
1772548039552558600,3.90055859375,-11.949478149414062,3.9010419845581055,-14.126251220703125
1772548039562596900,3.910596923828125,-11.784767150878906,4.004056930541992,-14.065353393554688
1772548039572633900,3.9206337890625,-11.848228454589844,4.032666206359863,-14.109390258789062
1772548039582670600,3.930670654296875,-11.75115966796875,4.075226783752441,-14.165023803710938
1772548039592707800,3.940707763671875,-11.923149108886719,4.003232479095459,-14.086334228515625
1772548039602745900,3.950745849609375,-11.708969116210938,4.0461530685424805,-14.004196166992188
1772548039612782600,3.960782470703125,-11.797584533691406,4.012718200683594,-13.97412109375
1772548039622819600,3.970819580078125,-11.883781433105469,3.9760212898254395,-13.999282836914062
1772548039632856800,3.98085693359375,-11.842193603515625,4.236337184906006,-14.03515625
1772548039642894800,3.990894775390625,-11.73150634765625,4.231350421905518,-14.15380859375
1772548039652929800,4.0009296875,-11.811225891113281,4.44302225112915,-14.279129028320312
1772548039662966800,4.010966796875,-11.632949829101562,4.344536304473877,-14.016372680664062
1772548039673004800,4.0210048828125,-11.981063842773438,4.267100811004639,-14.029312133789062
1772548039683041800,4.031041748046875,-11.856315612792969,4.1154561042785645,-13.92864990234375
1772548039693078800,4.041078857421875,-11.822830200195312,4.0823283195495605,-13.980453491210938
1772548039703115800,4.05111572265625,-11.632247924804688,4.350908279418945,-13.96148681640625
1772548039713153800,4.06115380859375,-11.591598510742188,4.413638591766357,-13.979385375976562
1772548039723190800,4.071190673828125,-11.791122436523438,4.125615119934082,-13.982986450195312
1772548039733227800,4.081227783203125,-11.628776550292969,4.127715587615967,-13.965011596679688
1772548039743265800,4.091265869140625,-11.735191345214844,4.287578105926514,-14.02978515625
1772548039753302800,4.101302734375,-11.64678955078125,4.423035144805908,-13.97509765625
1772548039763339800,4.11133984375,-11.694679260253906,4.495208740234375,-14.048294067382812
1772548039773376800,4.121376708984375,-11.741470336914062,4.71637487411499,-14.05572509765625
1772548039783414800,4.131414794921875,-11.625801086425781,4.543928623199463,-13.989044189453125
1772548039793451800,4.14145166015625,-11.541488647460938,4.572603225708008,-14.199203491210938
1772548039803488800,4.15148876953125,-11.801277160644531,4.455077648162842,-13.948333740234375
1772548039813525800,4.16152587890625,-11.693389892578125,4.51270055770874,-14.145843505859375
1772548039823563800,4.171563720703125,-11.660186767578125,4.5065813064575195,-14.2314453125
1772548039833600800,4.181600830078125,-11.557716369628906,4.516519546508789,-14.308120727539062
1772548039843637800,4.1916376953125,-11.394760131835938,4.419739723205566,-14.349838256835938
1772548039853675800,4.20167578125,-11.113731384277344,4.355790615081787,-14.22796630859375
1772548039863712800,4.211712646484375,-11.183502197265625,4.157978057861328,-14.338058471679688
1772548039873749800,4.221749755859375,-11.361953735351562,4.289848804473877,-14.499496459960938
1772548039883786800,4.231786865234375,-11.002372741699219,4.144002437591553,-14.3011474609375
1772548039893824800,4.24182470703125,-10.900688171386719,4.1272292137146,-14.192459106445312
1772548039903861800,4.25186181640625,-11.060005187988281,4.345032215118408,-14.185684204101562
1772548039913898800,4.261898681640625,-11.077774047851562,4.318874359130859,-13.93365478515625
1772548039923936800,4.271936767578125,-11.593032836914062,4.5314741134643555,-13.98834228515625
1772548039933973800,4.281973876953125,-11.955085754394531,4.656670093536377,-13.73065185546875
1772548039944010800,4.2920107421875,-12.204902648925781,4.6226911544799805,-13.385665893554688
1772548039954047700,4.3020478515625,-12.470634460449219,4.579235076904297,-13.426193237304688
1772548039964085800,4.312085693359375,-12.898139953613281,4.62738561630249,-13.29559326171875
1772548039974122800,4.322122802734375,-13.011322021484375,4.742379188537598,-13.299285888671875
1772548039984159700,4.33215966796875,-12.821685791015625,4.737578392028809,-13.1356201171875
1772548039994197800,4.34219775390625,-12.721717834472656,4.631942272186279,-13.078338623046875
1772548040004234800,4.35223486328125,-12.696769714355469,4.6792168617248535,-13.178176879882812
1772548040014271700,4.362271728515625,-12.388069152832031,4.815564155578613,-13.386001586914062
1772548040024308700,4.372308837890625,-12.2603759765625,4.589231491088867,-13.4163818359375
1772548040034346800,4.3823466796875,-12.192741394042969,4.668032646179199,-13.451812744140625
1772548040044383700,4.3923837890625,-11.969131469726562,4.555931568145752,-13.493179321289062
1772548040054420700,4.402420654296875,-11.999801635742188,4.453007221221924,-13.529098510742188
1772548040064458000,4.4124580078125,-11.653480529785156,4.292067050933838,-13.773757934570312
1772548040074495700,4.422495849609375,-11.689773559570312,4.114735126495361,-13.793716430664062
1772548040084532700,4.43253271484375,-12.091835021972656,4.049178600311279,-13.840194702148438
1772548040094569700,4.44256982421875,-11.857154846191406,3.7584943771362305,-13.889572143554688
1772548040104607700,4.452607666015625,-11.857154846191406,3.7584943771362305,-13.889572143554688
1772548040114644700,4.462644775390625,-11.8419189453125,3.8459320068359375,-14.176666259765625
1772548040124681700,4.472681640625,-11.868507385253906,3.595712661743164,-14.07574462890625
1772548040134719700,4.4827197265625,-11.685516357421875,3.6467790603637695,-14.2294921875
1772548040144756700,4.4927568359375,-11.288772583007812,3.6295909881591797,-14.031097412109375
1772548040154793700,4.502793701171875,-11.508857727050781,3.671299457550049,-14.192047119140625
1772548040164830700,4.512830810546875,-11.274711608886719,3.776305675506592,-14.251296997070312
1772548040174868700,4.52286865234375,-11.357566833496094,3.9382200241088867,-14.201583862304688
1772548040184905700,4.53290576171875,-11.364227294921875,3.810760021209717,-14.337432861328125
1772548040194942700,4.542942626953125,-11.165306091308594,3.9230613708496094,-14.226043701171875
1772548040204980000,4.55297998046875,-11.396697998046875,3.6850929260253906,-14.256088256835938
1772548040215017700,4.563017822265625,-11.761489868164062,3.632079601287842,-14.35015869140625
1772548040225054700,4.5730546875,-11.681373596191406,3.5168914794921875,-14.30682373046875
1772548040235091700,4.583091796875,-11.482460021972656,3.7008233070373535,-14.381515502929688
1772548040245129700,4.593129638671875,-11.345405578613281,3.8213534355163574,-14.374481201171875
1772548040255166700,4.603166748046875,-11.43524169921875,4.036928176879883,-14.356201171875
1772548040265203700,4.61320361328125,-11.645004272460938,3.9032468795776367,-14.25030517578125
1772548040275241000,4.623240966796875,-11.731330871582031,3.7703070640563965,-14.113250732421875
1772548040285278700,4.63327880859375,-11.936225891113281,3.878297805786133,-14.146347045898438
1772548040295315700,4.643315673828125,-12.073684692382812,3.7989344596862793,-14.1771240234375
1772548040305352700,4.653352783203125,-12.275650024414062,3.892798900604248,-13.978591918945312
1772548040315390700,4.663390625,-12.758659362792969,3.694065570831299,-13.91510009765625
1772548040325427700,4.673427734375,-12.767189025878906,3.5799221992492676,-13.874542236328125
1772548040335464700,4.683464599609375,-12.598152160644531,3.6165122985839844,-13.633468627929688
1772548040345503000,4.6935029296875,-12.806556701660156,3.9671883583068848,-13.96221923828125
1772548040355539700,4.703539794921875,-12.793846130371094,4.049255847930908,-13.935791015625
1772548040365576700,4.71357666015625,-12.661491394042969,4.057024955749512,-13.95220947265625
1772548040375613700,4.72361376953125,-12.524795532226562,4.1727294921875,-13.932937622070312
1772548040385651700,4.733651611328125,-12.380134582519531,4.397181510925293,-13.891403198242188
1772548040395688700,4.743688720703125,-12.182807922363281,4.304898262023926,-13.730560302734375
1772548040405725700,4.7537255859375,-12.376197814941406,4.457241058349609,-13.771759033203125
1772548040415764000,4.763763916015625,-12.242424011230469,4.405608177185059,-13.773651123046875
1772548040425800700,4.77380078125,-11.999153137207031,4.691430568695068,-13.797805786132812
1772548040435837700,4.783837646484375,-12.011505126953125,4.683387279510498,-13.9517822265625
1772548040445874700,4.793874755859375,-12.015235900878906,4.734957695007324,-13.890625
1772548040455912700,4.80391259765625,-11.989410400390625,4.638444423675537,-13.983352661132812
1772548040465949700,4.81394970703125,-12.072113037109375,4.587703227996826,-13.9351806640625
1772548040475986700,4.823986572265625,-12.1993408203125,4.744708061218262,-13.750564575195312
1772548040486023700,4.834023681640625,-12.3160400390625,4.644537925720215,-13.758087158203125
1772548040496061700,4.844061767578125,-12.542030334472656,4.480594158172607,-13.757614135742188
1772548040506098700,4.8540986328125,-12.614814758300781,4.442841529846191,-13.692977905273438
1772548040516135700,4.8641357421875,-13.00830078125,4.280462741851807,-13.642501831054688
1772548040526174000,4.874174072265625,-12.683753967285156,4.344095706939697,-13.51605224609375
1772548040536210700,4.884210693359375,-12.640380859375,4.454621315002441,-13.726882934570312
1772548040546247700,4.89424755859375,-12.738800048828125,4.287668704986572,-13.76898193359375
1772548040556286000,4.904285888671875,-12.630653381347656,4.197809219360352,-13.573638916015625
1772548040566322700,4.91432275390625,-12.772514343261719,4.1710991859436035,-13.6446533203125
1772548040576359700,4.924359619140625,-12.848747253417969,4.099081993103027,-13.554855346679688
1772548040586396700,4.934396728515625,-12.905715942382812,4.094238758087158,-13.45660400390625
1772548040596435000,4.94443505859375,-13.259620666503906,4.065297603607178,-13.398651123046875
1772548040606471700,4.9544716796875,-13.555511474609375,4.131016254425049,-13.323745727539062
1772548040616508700,4.9645087890625,-13.393630981445312,4.221864223480225,-13.199661254882812
1772548040626547000,4.974546875,-13.336158752441406,4.294801235198975,-13.303070068359375
1772548040636583700,4.984583740234375,-13.270645141601562,4.271579265594482,-13.28369140625
1772548040646620700,4.99462060546875,-13.056526184082031,4.535271644592285,-13.413101196289062
1772548040656657700,5.00465771484375,-12.934326171875,4.671341419219971,-13.324813842773438
1772548040666696000,5.014696044921875,-12.515357971191406,4.626746654510498,-13.254638671875
1772548040676732700,5.024732666015625,-12.979621887207031,4.611194610595703,-13.401473999023438
1772548040686769700,5.034769775390625,-12.802680969238281,4.5503435134887695,-13.420394897460938
1772548040696808000,5.044807861328125,-12.830307006835938,4.4654765129089355,-13.413589477539062
1772548040706845000,5.054844970703125,-12.668815612792969,4.6636810302734375,-13.430068969726562
1772548040716881700,5.064881591796875,-12.4342041015625,4.653919219970703,-13.425064086914062
1772548040726918700,5.074918701171875,-12.630767822265625,4.779491424560547,-13.472335815429688
1772548040736957000,5.08495703125,-12.767433166503906,4.673660755157471,-13.282150268554688
1772548040746993700,5.09499365234375,-13.042884826660156,4.722244739532471,-13.351608276367188
1772548040757030700,5.10503076171875,-13.026710510253906,4.613332748413086,-13.2109375
1772548040767069000,5.11506884765625,-13.581825256347656,4.546792984008789,-13.207046508789062
1772548040777106000,5.12510595703125,-13.906700134277344,4.502377033233643,-12.954696655273438
1772548040787142700,5.135142578125,-14.293975830078125,4.3285393714904785,-12.98907470703125
1772548040797179600,5.1451796875,-14.598464965820312,4.249710559844971,-12.903305053710938
1772548040807218000,5.155218017578125,-14.662010192871094,4.207691669464111,-12.631088256835938
1772548040817254700,5.165254638671875,-14.599403381347656,4.068288803100586,-12.624969482421875
1772548040827291600,5.175291748046875,-14.797683715820312,4.305333614349365,-12.639602661132812
1772548040837330000,5.185329833984375,-14.923194885253906,4.3612060546875,-12.597579956054688
1772548040847367000,5.195366943359375,-14.666793823242188,4.42892599105835,-12.451156616210938
1772548040857403600,5.205403564453125,-14.619796752929688,4.470675945281982,-12.415435791015625
1772548040867440600,5.215440673828125,-14.59906005859375,4.493343353271484,-12.54193115234375
1772548040877479000,5.22547900390625,-14.540901184082031,4.519999980926514,-12.459991455078125
1772548040887516000,5.235515869140625,-14.360443115234375,4.6409711837768555,-12.46759033203125
1772548040897552600,5.245552734375,-14.412483215332031,4.586610317230225,-12.604446411132812
1772548040907591000,5.2555908203125,-14.15484619140625,4.46810245513916,-12.570770263671875
1772548040917628000,5.2656279296875,-13.996498107910156,4.575496196746826,-12.577072143554688
1772548040927664600,5.27566455078125,-13.841636657714844,4.540248870849609,-12.758224487304688
1772548040937701600,5.28570166015625,-13.438926696777344,4.4964213371276855,-12.813552856445312
1772548040947740000,5.295739990234375,-13.250946044921875,4.502253532409668,-12.773483276367188
1772548040957777000,5.30577685546875,-12.928627014160156,4.715858459472656,-13.021621704101562
1772548040967813600,5.315813720703125,-12.420364379882812,4.766751766204834,-13.114456176757812
1772548040977852000,5.325851806640625,-12.348373413085938,4.730171203613281,-13.2318115234375
1772548040987889000,5.335888916015625,-12.147964477539062,4.799272060394287,-13.349227905273438
1772548040997925600,5.345925537109375,-11.889732360839844,4.795032978057861,-13.223983764648438
1772548041007964000,5.3559638671875,-12.118392944335938,4.826738357543945,-13.4146728515625
1772548041018001000,5.3660009765625,-12.392326354980469,4.708295822143555,-13.392929077148438
1772548041028038000,5.376037841796875,-12.506172180175781,4.693841457366943,-13.535629272460938
1772548041038074600,5.38607470703125,-12.75836181640625,4.402145862579346,-13.423233032226562
1772548041048113000,5.39611279296875,-12.64935302734375,4.417348861694336,-13.433303833007812
1772548041058150000,5.40614990234375,-12.922142028808594,4.381275653839111,-13.526641845703125
1772548041068187000,5.416186767578125,-13.048324584960938,4.304344654083252,-13.577529907226562
1772548041078225000,5.426224853515625,-13.079574584960938,4.392482757568359,-13.697921752929688
1772548041088262000,5.436261962890625,-13.074485778808594,4.20068883895874,-13.606613159179688
1772548041098299000,5.446298828125,-13.315940856933594,4.0930070877075195,-13.65679931640625
1772548041108335600,5.456335693359375,-13.204483032226562,3.798727512359619,-13.672409057617188
1772548041118373600,5.46637353515625,-13.530181884765625,3.6517581939697266,-13.785079956054688
1772548041128410600,5.47641064453125,-13.58868408203125,3.5355043411254883,-13.790771484375
1772548041138447600,5.486447509765625,-13.346534729003906,3.5884571075439453,-13.550765991210938
1772548041148485400,5.4964853515625,-13.526924133300781,3.5987796783447266,-13.702865600585938
1772548041158522600,5.506522705078125,-14.027763366699219,3.641833782196045,-13.700424194335938
1772548041168559600,5.5165595703125,-14.026237487792969,3.790832042694092,-13.684188842773438
1772548041178596600,5.5265966796875,-13.787399291992188,3.7842254638671875,-13.66473388671875
1772548041188634600,5.536634521484375,-13.475051879882812,4.001582145690918,-13.550827026367188
1772548041198671600,5.546671630859375,-13.311058044433594,4.184272766113281,-13.640213012695312
1772548041208708600,5.55670849609375,-13.22967529296875,4.358658313751221,-13.658767700195312
1772548041218746400,5.566746337890625,-13.080604553222656,4.5652947425842285,-13.623275756835938
1772548041228783600,5.57678369140625,-13.044525146484375,4.669013977050781,-13.654571533203125
1772548041238820600,5.586820556640625,-12.997367858886719,4.721522808074951,-13.680099487304688
1772548041248858400,5.5968583984375,-12.7896728515625,4.716862201690674,-13.892608642578125
1772548041258895600,5.6068955078125,-12.595619201660156,4.539504051208496,-13.9547119140625
1772548041268932600,5.6169326171875,-12.394081115722656,4.540768146514893,-14.140975952148438
1772548041278969600,5.626969482421875,-11.8720703125,4.520867824554443,-14.14483642578125
1772548041289007400,5.63700732421875,-11.524909973144531,4.533095359802246,-14.312347412109375
1772548041299044600,5.647044677734375,-11.440177917480469,4.5435943603515625,-14.342193603515625
1772548041309081600,5.65708154296875,-10.993644714355469,4.663143634796143,-14.5548095703125
1772548041319119400,5.667119384765625,-11.188285827636719,4.6215643882751465,-14.578811645507812
1772548041329156600,5.677156494140625,-11.036125183105469,4.495821952819824,-14.344940185546875
1772548041339193600,5.687193603515625,-11.287544250488281,4.525639533996582,-14.261993408203125
1772548041349230600,5.697230712890625,-11.565872192382812,4.739553928375244,-14.399566650390625
1772548041359268400,5.707268310546875,-11.623390197753906,4.9097161293029785,-14.282073974609375
1772548041369305600,5.7173056640625,-12.001754760742188,5.263586521148682,-14.067962646484375
1772548041379342600,5.727342529296875,-12.2322998046875,5.4877610206604,-14.034149169921875
1772548041389380400,5.73738037109375,-12.530128479003906,5.5480265617370605,-14.023895263671875
1772548041399417600,5.74741748046875,-12.854209899902344,5.646742820739746,-14.036788940429688
1772548041409454600,5.75745458984375,-12.79510498046875,5.5907745361328125,-14.060516357421875
1772548041419491600,5.76749169921875,-12.522590637207031,5.378892421722412,-14.037994384765625
1772548041429529300,5.777529296875,-12.334587097167969,5.334853649139404,-14.228469848632812
1772548041439566600,5.787566650390625,-12.205551147460938,5.28545618057251,-14.321151733398438
1772548041449603600,5.797603515625,-11.930030822753906,5.263276100158691,-14.345413208007812
1772548041459641300,5.807641357421875,-12.060691833496094,5.291326999664307,-14.380661010742188
1772548041469678600,5.8176787109375,-11.932868957519531,5.325366973876953,-14.144317626953125
1772548041479715600,5.827715576171875,-12.185768127441406,5.212468147277832,-14.142990112304688
1772548041489753600,5.837753662109375,-12.249275207519531,5.102025032043457,-14.168121337890625
1772548041499790300,5.847790283203125,-12.502311706542969,5.233578205108643,-14.119659423828125
1772548041509827600,5.85782763671875,-12.553504943847656,5.273650646209717,-14.015670776367188
1772548041519864600,5.867864501953125,-13.122833251953125,5.41326379776001,-13.91632080078125
1772548041529902300,5.87790234375,-13.075798034667969,5.31348180770874,-13.955490112304688
1772548041539939600,5.887939697265625,-13.023536682128906,5.320952892303467,-13.970550537109375
1772548041549976600,5.8979765625,-13.075630187988281,5.330742359161377,-13.876876831054688
1772548041560014600,5.9080146484375,-13.075630187988281,5.330742359161377,-13.876876831054688
1772548041570051300,5.91805126953125,-12.892402648925781,5.369616508483887,-13.82720947265625
1772548041580088600,5.928088623046875,-12.963897705078125,5.340476989746094,-13.971115112304688
1772548041590125600,5.93812548828125,-12.936233520507812,5.2507500648498535,-13.740814208984375
1772548041600163600,5.94816357421875,-13.352020263671875,5.21891450881958,-13.886734008789062
1772548041610200600,5.95820068359375,-12.933563232421875,5.502511501312256,-13.901473999023438
1772548041620237600,5.968237548828125,-12.846855163574219,5.457921504974365,-13.671630859375
1772548041630275600,5.978275634765625,-12.917861938476562,5.525877952575684,-13.647216796875
1772548041640312300,5.988312255859375,-12.963973999023438,5.490137100219727,-13.725006103515625
1772548041650349600,5.998349609375,-13.173957824707031,5.531488418579102,-13.925201416015625
1772548041660387600,6.0083876953125,-12.957771301269531,5.523913860321045,-13.965621948242188
1772548041670424600,6.018424560546875,-12.745620727539062,5.621901512145996,-13.778472900390625
1772548041680461600,6.028461669921875,-12.871330261230469,5.763796806335449,-13.873153686523438
1772548041690498600,6.03849853515625,-12.823509216308594,5.819692611694336,-13.78033447265625
1772548041700536600,6.04853662109375,-13.014305114746094,5.693486213684082,-13.82281494140625
1772548041710573300,6.0585732421875,-13.0589599609375,5.839372634887695,-13.886322021484375
1772548041720610600,6.068610595703125,-12.965660095214844,5.725754737854004,-13.763839721679688
1772548041730648600,6.078648681640625,-13.238449096679688,5.697795867919922,-13.878036499023438
1772548041740685600,6.088685546875,-13.335906982421875,5.7443084716796875,-13.87054443359375
1772548041750722600,6.09872265625,-13.404167175292969,5.770503997802734,-13.95440673828125
1772548041760759600,6.108759521484375,-13.342605590820312,5.905917167663574,-13.811752319335938
1772548041770797600,6.118797607421875,-13.348533630371094,6.035703659057617,-14.00067138671875
1772548041780834600,6.12883447265625,-13.23748779296875,6.019775390625,-14.001495361328125
1772548041790871600,6.13887158203125,-13.287559509277344,6.145503044128418,-13.970718383789062
1772548041800909600,6.14890966796875,-13.452888488769531,6.093642234802246,-13.947021484375
1772548041810946600,6.158946533203125,-13.117179870605469,6.188052177429199,-13.929931640625
1772548041820983300,6.1689833984375,-13.143135070800781,6.093613624572754,-14.007308959960938
1772548041831020500,6.1790205078125,-13.080734252929688,6.223936080932617,-14.007293701171875
1772548041841058600,6.18905859375,-13.011070251464844,6.351738929748535,-14.08111572265625
1772548041851095600,6.199095458984375,-13.080520629882812,6.342823028564453,-14.162109375
1772548041861132500,6.209132568359375,-12.810676574707031,6.345885276794434,-14.06280517578125
1772548041871170600,6.219170654296875,-13.003707885742188,6.339443206787109,-14.20257568359375
1772548041881207600,6.22920751953125,-12.995574951171875,6.308856964111328,-14.124160766601562
1772548041891244300,6.239244384765625,-13.222465515136719,6.386736869812012,-14.190155029296875
1772548041901282600,6.249282470703125,-13.079177856445312,6.330951690673828,-14.130844116210938
1772548041911319600,6.259319580078125,-13.004318237304688,6.383419036865234,-14.104949951171875
1772548041921356500,6.2693564453125,-13.069236755371094,6.419638633728027,-14.069122314453125
1772548041931393500,6.2793935546875,-13.172073364257812,6.255738258361816,-14.092208862304688
1772548041941431600,6.289431640625,-13.444831848144531,6.38875675201416,-14.119461059570312
1772548041951468500,6.299468505859375,-13.367683410644531,6.419803619384766,-13.919937133789062
1772548041961505500,6.309505615234375,-13.571784973144531,6.185879707336426,-13.96136474609375
1772548041971543600,6.31954345703125,-13.344268798828125,6.296971321105957,-13.93438720703125
1772548041981580500,6.32958056640625,-13.437248229980469,6.2127485275268555,-13.843460083007812
1772548041991617500,6.339617431640625,-13.401382446289062,6.1869001388549805,-13.816299438476562
1772548042001654500,6.349654541015625,-13.045730590820312,6.282426834106445,-13.73907470703125
1772548042011692500,6.359692626953125,-12.953720092773438,6.229982376098633,-13.689193725585938
1772548042021729500,6.3697294921875,-12.833427429199219,6.394438743591309,-13.800384521484375
1772548042031766500,6.3797666015625,-12.881149291992188,6.588522911071777,-14.00311279296875
1772548042041804500,6.389804443359375,-12.675582885742188,6.528804779052734,-14.03497314453125
1772548042051841500,6.399841552734375,-12.401382446289062,6.382650375366211,-13.964111328125
1772548042061878500,6.40987841796875,-12.424285888671875,6.286725044250488,-14.082534790039062
1772548042071915500,6.41991552734375,-12.532203674316406,6.203512191772461,-13.983016967773438
1772548042081953500,6.42995361328125,-12.477401733398438,6.419958114624023,-13.97686767578125
1772548042091990500,6.439990478515625,-12.322479248046875,6.367009162902832,-13.847396850585938
1772548042102027500,6.450027587890625,-12.392219543457031,6.333949089050293,-13.935211181640625
1772548042112065500,6.4600654296875,-12.524559020996094,6.149415016174316,-13.879730224609375
1772548042122102500,6.4701025390625,-12.565925598144531,6.0646162033081055,-13.852981567382812
1772548042132139500,6.480139404296875,-12.679252624511719,6.054508209228516,-13.898727416992188
1772548042142177500,6.490177490234375,-12.36102294921875,5.881014823913574,-13.777877807617188
1772548042152214500,6.500214599609375,-12.576087951660156,5.829901695251465,-13.913619995117188
1772548042162251500,6.51025146484375,-12.791770935058594,5.522434234619141,-13.901290893554688
1772548042172288500,6.52028857421875,-12.957511901855469,5.609014511108398,-13.904586791992188
1772548042182326500,6.530326416015625,-13.184867858886719,5.525969505310059,-13.981201171875
1772548042192363500,6.540363525390625,-13.377243041992188,5.264682292938232,-13.824020385742188
1772548042202400500,6.550400390625,-13.304740905761719,5.055788993835449,-13.970550537109375
1772548042212438500,6.5604384765625,-13.410797119140625,4.73317289352417,-13.904098510742188
1772548042222475500,6.5704755859375,-13.510360717773438,4.874770164489746,-14.041534423828125
1772548042232512500,6.580512451171875,-13.26983642578125,4.857728481292725,-13.984100341796875
1772548042242549500,6.590549560546875,-13.4412841796875,4.6846842765808105,-14.038848876953125
1772548042252587500,6.60058740234375,-13.434906005859375,4.59417200088501,-14.090896606445312
1772548042262624500,6.61062451171875,-13.483634948730469,4.5657477378845215,-14.100326538085938
1772548042272661500,6.62066162109375,-13.339469909667969,4.536917686462402,-14.0435791015625
1772548042282699500,6.630699462890625,-13.18524169921875,4.389042377471924,-14.086624145507812
1772548042292736500,6.640736572265625,-13.327522277832031,4.272759437561035,-14.054534912109375
1772548042302773500,6.6507734375,-13.693817138671875,4.3566508293151855,-14.155258178710938
1772548042312811500,6.6608115234375,-13.539871215820312,4.308197975158691,-14.040542602539062
1772548042322848500,6.6708486328125,-13.653495788574219,4.377565860748291,-14.021377563476562
1772548042332885500,6.680885498046875,-13.411857604980469,4.317032337188721,-13.96240234375
1772548042342922500,6.690922607421875,-13.715461730957031,4.312171459197998,-14.063186645507812
1772548042352960500,6.70096044921875,-13.770339965820312,4.366634368896484,-13.957565307617188
1772548042362997500,6.71099755859375,-13.981758117675781,4.14517068862915,-13.9178466796875
1772548042373034500,6.721034423828125,-13.9141845703125,4.17130184173584,-13.898574829101562
1772548042383072500,6.731072509765625,-14.004905700683594,4.137083530426025,-13.8072509765625
1772548042393109500,6.741109619140625,-14.101463317871094,4.154558181762695,-13.768798828125
1772548042403146500,6.751146484375,-14.261528015136719,4.1704912185668945,-13.763153076171875
1772548042413183500,6.76118359375,-14.281158447265625,4.180025577545166,-13.73455810546875
1772548042423221500,6.771221435546875,-14.342475891113281,4.159749984741211,-13.565582275390625
1772548042433258500,6.781258544921875,-14.532417297363281,4.083145618438721,-13.479705810546875
1772548042443295500,6.79129541015625,-14.728492736816406,3.8582077026367188,-13.322097778320312
1772548042453333500,6.80133349609375,-14.618812561035156,4.024723052978516,-13.267425537109375
1772548042463370500,6.81137060546875,-14.664352416992188,4.089820384979248,-13.350997924804688
1772548042473407500,6.821407470703125,-14.666374206542969,3.9845170974731445,-13.202545166015625
1772548042483445800,6.83144580078125,-14.879440307617188,3.931830406188965,-13.259979248046875
1772548042493482500,6.841482421875,-15.021781921386719,3.926288604736328,-13.224075317382812
1772548042503519500,6.85151953125,-15.058074951171875,3.7795395851135254,-13.25244140625
1772548042513556500,6.861556396484375,-15.558464050292969,3.6970458030700684,-13.137222290039062
1772548042523594500,6.871594482421875,-15.378791809082031,3.8094496726989746,-13.041427612304688
1772548042533631500,6.881631591796875,-15.549293518066406,3.786839008331299,-13.068862915039062
1772548042543668500,6.89166845703125,-15.679039001464844,3.6227550506591797,-12.901168823242188
1772548042553706800,6.901706787109375,-15.527519226074219,3.6456117630004883,-12.7899169921875
1772548042563743500,6.911743408203125,-15.672813415527344,3.578739643096924,-12.620361328125
1772548042573780500,6.921780517578125,-16.036048889160156,3.5395889282226562,-12.644378662109375
1772548042583817500,6.9318173828125,-16.50872039794922,3.5045623779296875,-12.544097900390625
1772548042593855700,6.941855712890625,-16.350669860839844,3.372661590576172,-12.483779907226562
1772548042603892500,6.951892578125,-16.666587829589844,3.237008571624756,-12.397018432617188
1772548042613929500,6.961929443359375,-16.581886291503906,3.348233222961426,-12.178329467773438
1772548042623967700,6.9719677734375,-16.876571655273438,3.584771156311035,-12.220687866210938
1772548042634004500,6.98200439453125,-17.045379638671875,3.5448098182678223,-12.3033447265625
1772548042644041500,6.99204150390625,-17.567108154296875,3.4106531143188477,-12.1546630859375
1772548042654079500,7.00207958984375,-17.82288360595703,3.540708065032959,-12.033279418945312
1772548042664116700,7.01211669921875,-17.891220092773438,3.524038314819336,-11.786514282226562
1772548042674153500,7.022153564453125,-18.10131072998047,3.724907398223877,-11.82952880859375
1772548042684190500,7.0321904296875,-18.199417114257812,3.737070083618164,-11.687088012695312
1772548042694228500,7.042228515625,-18.279090881347656,3.6433029174804688,-11.52508544921875
1772548042704265500,7.052265380859375,-18.54833984375,3.713637351989746,-11.428070068359375
1772548042714302500,7.062302490234375,-18.675682067871094,3.5579185485839844,-11.172454833984375
1772548042724340500,7.072340576171875,-18.980934143066406,3.891216278076172,-11.2864990234375
1772548042734377700,7.082377685546875,-18.960403442382812,3.9027328491210938,-11.051834106445312
1772548042744414500,7.09241455078125,-19.07134246826172,3.8345870971679688,-11.004058837890625
1772548042754451500,7.102451416015625,-19.063140869140625,3.933772563934326,-10.862396240234375
1772548042764489500,7.112489501953125,-19.54515838623047,4.01104736328125,-10.892745971679688
1772548042774526700,7.122526611328125,-19.848281860351562,3.8920493125915527,-10.805694580078125
1772548042784563500,7.1325634765625,-19.831809997558594,3.8546228408813477,-10.8048095703125
1772548042794601500,7.1426015625,-19.935211181640625,4.041572093963623,-10.828720092773438
1772548042804638700,7.152638671875,-19.829566955566406,3.8714823722839355,-10.627838134765625
1772548042814675500,7.162675537109375,-19.96575927734375,4.1060919761657715,-10.761398315429688
1772548042824713500,7.17271337890625,-20.021148681640625,3.913172721862793,-10.767745971679688
1772548042834750500,7.18275048828125,-20.389801025390625,3.9610400199890137,-10.773574829101562
1772548042844787700,7.19278759765625,-20.143898010253906,4.082109451293945,-10.902191162109375
1772548042854824400,7.202824462890625,-20.140113830566406,4.210925102233887,-10.89910888671875
1772548042864862500,7.212862548828125,-20.278404235839844,3.9620466232299805,-10.922027587890625
1772548042874899700,7.222899658203125,-20.29369354248047,4.002490997314453,-10.996170043945312
1772548042884936400,7.2329365234375,-20.329788208007812,3.9544334411621094,-10.903594970703125
1772548042894974500,7.242974365234375,-19.970184326171875,4.176748752593994,-10.90234375
1772548042905011500,7.253011474609375,-19.970558166503906,4.130392074584961,-11.089035034179688
1772548042915048700,7.263048583984375,-19.912841796875,4.16987943649292,-11.096939086914062
1772548042925086500,7.27308642578125,-19.745925903320312,4.150520324707031,-11.16204833984375
1772548042935123500,7.28312353515625,-19.677711486816406,4.29056453704834,-11.209152221679688
1772548042945160700,7.29316064453125,-19.607337951660156,4.378812789916992,-11.175888061523438
1772548042955197700,7.30319775390625,-19.798927307128906,4.397881507873535,-11.313308715820312
1772548042965235500,7.3132353515625,-19.497718811035156,4.462866306304932,-11.463241577148438
1772548042975272400,7.3232724609375,-19.258094787597656,4.490738391876221,-11.452835083007812
1772548042985309700,7.333309814453125,-19.157997131347656,4.625744342803955,-11.589279174804688
1772548042995347500,7.343347412109375,-19.157997131347656,4.625744342803955,-11.589279174804688
1772548043005384400,7.353384521484375,-19.00843048095703,4.801589488983154,-11.675399780273438
1772548043015421700,7.363421630859375,-18.821006774902344,5.062381267547607,-11.649871826171875
1772548043025458700,7.373458740234375,-19.052696228027344,5.146843910217285,-11.67352294921875
1772548043035496400,7.383496337890625,-18.74053955078125,5.169278144836426,-11.676773071289062
1772548043045533400,7.393533447265625,-18.81603240966797,5.293588638305664,-11.791671752929688
1772548043055570700,7.40357080078125,-18.549591064453125,5.249259948730469,-11.924484252929688
1772548043065608400,7.4136083984375,-18.53002166748047,5.222332954406738,-11.994293212890625
1772548043075645400,7.4236455078125,-18.356002807617188,5.271345138549805,-12.127532958984375
1772548043085682700,7.4336826171875,-18.43634796142578,5.234524250030518,-12.188201904296875
1772548043095720400,7.443720458984375,-18.345863342285156,5.335103988647461,-12.252838134765625
1772548043105757400,7.45375732421875,-18.21674346923828,5.368860244750977,-12.456314086914062
1772548043115798800,7.463798828125,-18.189041137695312,5.435667514801025,-12.566070556640625
1772548043125835800,7.473835693359375,-18.199005126953125,5.5057244300842285,-12.651519775390625
1772548043135873800,7.483873779296875,-18.246719360351562,5.525630950927734,-12.817733764648438
1772548043145910800,7.493910888671875,-18.180328369140625,5.743568420410156,-12.64495849609375
1772548043155948000,7.503947998046875,-18.34447479248047,5.829392433166504,-12.5960693359375
1772548043165985800,7.51398583984375,-18.3404541015625,5.872889518737793,-12.602462768554688
1772548043176022800,7.524022705078125,-18.260604858398438,6.134481430053711,-12.612152099609375
1772548043186059800,7.534059814453125,-18.285255432128906,6.220765113830566,-12.484207153320312
1772548043196097800,7.544097900390625,-18.10333251953125,6.212945938110352,-12.383438110351562
1772548043206134800,7.554134765625,-18.067855834960938,6.305591583251953,-12.4361572265625
1772548043216171800,7.564171875,-18.355209350585938,6.346324920654297,-12.447296142578125
1772548043226209000,7.574208984375,-18.245635986328125,6.360515594482422,-12.472930908203125
1772548043236246800,7.584246826171875,-18.202682495117188,6.369455337524414,-12.580612182617188
1772548043246283800,7.59428369140625,-18.506301879882812,6.361520767211914,-12.707962036132812
1772548043256320800,7.60432080078125,-18.22869873046875,6.342211723327637,-12.746490478515625
1772548043266358800,7.61435888671875,-18.23577117919922,6.212940216064453,-12.82403564453125
1772548043276395800,7.624395751953125,-18.20691680908203,6.183657646179199,-12.958221435546875
1772548043286432800,7.634432861328125,-18.10698699951172,6.3291521072387695,-13.010589599609375
1772548043296470800,7.644470703125,-18.057708740234375,6.381433486938477,-13.067642211914062
1772548043306507800,7.6545078125,-17.97205352783203,6.298276901245117,-13.168792724609375
1772548043316544800,7.664544677734375,-17.900657653808594,6.223359107971191,-13.216827392578125
1772548043326581800,7.674581787109375,-17.947418212890625,6.168099403381348,-13.272064208984375
1772548043336619800,7.684619873046875,-17.728248596191406,6.106720924377441,-13.21319580078125
1772548043346656800,7.69465673828125,-17.969322204589844,6.149923324584961,-13.433929443359375
1772548043356693800,7.70469384765625,-17.78387451171875,6.058571815490723,-13.5750732421875
1772548043366731800,7.714731689453125,-17.762619018554688,6.141840934753418,-13.6514892578125
1772548043376768800,7.724768798828125,-17.400161743164062,5.849544525146484,-13.552658081054688
1772548043386805800,7.7348056640625,-17.328292846679688,5.945713996887207,-13.851730346679688
1772548043396842800,7.7448427734375,-17.386695861816406,5.949779510498047,-14.078094482421875
1772548043406880800,7.754880859375,-17.06218719482422,5.946951866149902,-13.939407348632812
1772548043416917800,7.764917724609375,-17.098670959472656,6.0604047775268555,-14.130752563476562
1772548043426954800,7.774954833984375,-16.869483947753906,6.302358627319336,-14.090744018554688
1772548043436992800,7.78499267578125,-16.858192443847656,6.311269760131836,-14.23150634765625
1772548043447029800,7.79502978515625,-16.746299743652344,6.265317916870117,-14.37548828125
1772548043457066800,7.805066650390625,-16.720230102539062,6.365612983703613,-14.514373779296875
1772548043467105000,7.81510498046875,-16.614463806152344,6.288315773010254,-14.589828491210938
1772548043477141800,7.825141845703125,-16.4434814453125,6.188703536987305,-14.586776733398438
1772548043487178800,7.8351787109375,-16.272315979003906,6.188047409057617,-14.62152099609375
1772548043497215700,7.8452158203125,-16.36603546142578,6.0857086181640625,-14.700759887695312
1772548043507253800,7.855253662109375,-16.267242431640625,6.14785099029541,-14.9139404296875
1772548043517290800,7.865290771484375,-16.2735595703125,6.103610992431641,-14.96868896484375
1772548043527327700,7.87532763671875,-16.115493774414062,6.092144012451172,-15.108016967773438
1772548043537366000,7.885365966796875,-16.059059143066406,5.914573669433594,-15.07830810546875
1772548043547402800,7.89540283203125,-15.734466552734375,5.845816612243652,-15.104461669921875
1772548043557439700,7.905439697265625,-15.841789245605469,5.994190216064453,-15.207901000976562
1772548043567477800,7.915477783203125,-15.7850341796875,6.003081321716309,-15.369003295898438
1772548043577515000,7.925514892578125,-15.775360107421875,5.932561874389648,-15.391403198242188
1772548043587551700,7.9355517578125,-15.705810546875,5.953001022338867,-15.209640502929688
1772548043597588700,7.945588623046875,-15.797264099121094,5.956514358520508,-15.347625732421875
1772548043607627000,7.955626953125,-15.541389465332031,6.098767280578613,-15.4454345703125
1772548043617663700,7.965663818359375,-15.5447998046875,6.136448860168457,-15.335235595703125
1772548043627700700,7.97570068359375,-15.592155456542969,6.041888236999512,-15.463287353515625
1772548043637738800,7.98573876953125,-15.605110168457031,6.08843994140625,-15.494155883789062
1772548043647776000,7.99577587890625,-15.630233764648438,6.080413818359375,-15.504592895507812
1772548043657812700,8.005812744140625,-15.622940063476562,6.070673942565918,-15.467681884765625
1772548043667850800,8.015850830078126,-15.795852661132812,6.14710807800293,-15.35064697265625
1772548043677888000,8.025887939453124,-15.732460021972656,6.174450874328613,-15.379837036132812
1772548043687924700,8.0359248046875,-15.811653137207031,6.404340744018555,-15.407424926757812
1772548043697961700,8.045961669921875,-15.976127624511719,6.287243843078613,-15.354034423828125
1772548043707999700,8.055999755859375,-15.972381591796875,6.262300491333008,-15.314971923828125
1772548043718037000,8.066037109375,-16.10736846923828,6.281049728393555,-15.365936279296875
1772548043728073700,8.07607373046875,-16.121414184570312,6.230791091918945,-15.408294677734375
1772548043738111700,8.08611181640625,-16.379737854003906,6.174973487854004,-15.346542358398438
1772548043748149000,8.09614892578125,-16.10693359375,6.218470573425293,-15.259002685546875
1772548043758186000,8.10618603515625,-16.031265258789062,6.083200454711914,-15.016189575195312
1772548043768223700,8.1162236328125,-16.30054473876953,6.166644096374512,-15.257614135742188
1772548043778260700,8.1262607421875,-16.49256134033203,6.091144561767578,-15.262802124023438
1772548043788298000,8.136298095703125,-16.660240173339844,6.231103897094727,-15.158172607421875
1772548043798334700,8.146334716796876,-16.903244018554688,6.1263227462768555,-15.001449584960938
1772548043808372700,8.156372802734374,-16.888214111328125,6.291776657104492,-14.886672973632812
1772548043818410000,8.166409912109375,-16.9515380859375,6.163970947265625,-14.937286376953125
1772548043828447000,8.176447021484375,-17.315643310546875,6.245281219482422,-14.835113525390625
1772548043838484700,8.186484619140625,-17.471153259277344,6.377211570739746,-14.744216918945312
1772548043848521700,8.196521728515625,-17.308860778808594,6.637981414794922,-14.800506591796875
1772548043858559000,8.20655908203125,-17.471755981445312,6.423002243041992,-14.615829467773438
1772548043868596700,8.2165966796875,-17.708389282226562,6.45893669128418,-14.606582641601562
1772548043878633700,8.2266337890625,-17.90764617919922,6.380144119262695,-14.471328735351562
1772548043888671000,8.2366708984375,-18.014801025390625,6.465863227844238,-14.452285766601562
1772548043898708000,8.2467080078125,-18.016372680664062,6.470807075500488,-14.244338989257812
1772548043908745700,8.256745849609375,-18.523597717285156,6.639076232910156,-14.188079833984375
1772548043918782700,8.26678271484375,-18.82105255126953,6.6434783935546875,-14.170730590820312
1772548043928820000,8.276820068359376,-18.701950073242188,6.620453834533691,-14.010848999023438
1772548043938857700,8.286857666015624,-18.821990966796875,6.658307075500488,-13.863632202148438
1772548043948894700,8.296894775390625,-18.765708923339844,6.7225141525268555,-13.725311279296875
1772548043958932000,8.306931884765625,-18.946311950683594,6.776974678039551,-13.760665893554688
1772548043968970800,8.316970703125,-19.16449737548828,6.805693626403809,-13.77508544921875
1772548043979007700,8.3270078125,-19.351776123046875,6.688213348388672,-13.75201416015625
1772548043989045000,8.337044921875,-19.691452026367188,6.447057723999023,-13.68829345703125
1772548043999082800,8.347082763671875,-19.769203186035156,6.4912824630737305,-13.657730102539062
1772548044009119700,8.35711962890625,-19.86931610107422,6.333732604980469,-13.6568603515625
1772548044019157000,8.367156982421875,-19.89966583251953,6.27515983581543,-13.60345458984375
1772548044029194800,8.37719482421875,-20.06694793701172,6.181281089782715,-13.596755981445312
1772548044039231700,8.387231689453126,-20.516769409179688,6.193204879760742,-13.467498779296875
1772548044049268700,8.397268798828126,-20.834274291992188,6.033262252807617,-13.423187255859375
1772548044059306800,8.407306640625,-20.973167419433594,5.914931297302246,-13.259353637695312
1772548044069343700,8.41734375,-21.12055206298828,5.853767395019531,-13.144851684570312
1772548044079380700,8.427380615234375,-21.679092407226562,5.676505088806152,-13.173751831054688
1772548044089418000,8.43741796875,-21.455947875976562,5.417449951171875,-12.90570068359375
1772548044099455700,8.447455810546876,-21.78912353515625,5.595978736877441,-12.933883666992188
1772548044109488600,8.457488525390625,-21.982818603515625,5.786568641662598,-12.99603271484375
1772548044119526000,8.46752587890625,-22.410781860351562,5.860810279846191,-12.883895874023438
1772548044129564000,8.47756396484375,-22.30701446533203,5.834455490112305,-12.634918212890625
1772548044139600600,8.4876005859375,-22.53399658203125,5.740718841552734,-12.41693115234375
1772548044149638000,8.497637939453124,-22.958297729492188,5.736865043640137,-12.273849487304688
1772548044159676000,8.507676025390625,-23.45703125,5.747056007385254,-11.95452880859375
1772548044169713000,8.517712890625,-23.49663543701172,5.745546340942383,-11.751174926757812
1772548044179749600,8.52774951171875,-23.585662841796875,5.721264839172363,-11.619644165039062
1772548044189788000,8.537787841796876,-23.8892822265625,5.662492752075195,-11.275665283203125
1772548044199825000,8.547824951171876,-23.999488830566406,5.7445878982543945,-10.974014282226562
1772548044209861600,8.557861572265624,-24.33061981201172,5.5347981452941895,-10.950424194335938
1772548044219899000,8.56789892578125,-24.308326721191406,5.531121730804443,-10.868865966796875
1772548044229937000,8.57793701171875,-24.316726684570312,5.393800258636475,-10.670318603515625
1772548044239974000,8.587973876953125,-24.631446838378906,5.297037124633789,-10.48516845703125
1772548044250010600,8.5980107421875,-24.93138885498047,5.272313594818115,-10.372711181640625
1772548044260049000,8.608048828125,-25.151588439941406,4.957839012145996,-10.153549194335938
1772548044270086000,8.6180859375,-25.384925842285156,4.904261112213135,-9.929824829101562
1772548044280123000,8.628122802734374,-25.223236083984375,4.799021244049072,-9.712646484375
1772548044290161000,8.638160888671875,-25.409591674804688,4.465407848358154,-9.39544677734375
1772548044300198000,8.648197998046875,-25.687644958496094,4.553300857543945,-9.339385986328125
1772548044310235000,8.65823486328125,-25.91381072998047,4.448404788970947,-9.202102661132812
1772548044320271600,8.668271728515625,-26.13719940185547,4.343776226043701,-9.031036376953125
1772548044330310000,8.678309814453126,-26.32482147216797,4.205241680145264,-9.008590698242188
1772548044340347000,8.688346923828124,-26.125534057617188,4.051610469818115,-8.628021240234375
1772548044350383900,8.6983837890625,-26.36750030517578,3.616394519805908,-8.487197875976562
1772548044360422000,8.708421875,-26.391326904296875,3.593052864074707,-8.468841552734375
1772548044370459000,8.718458984375,-26.52869415283203,3.4700450897216797,-8.206954956054688
1772548044380496000,8.728495849609375,-26.80144500732422,3.443004608154297,-8.000579833984375
1772548044390534000,8.738533935546876,-27.225570678710938,3.3116087913513184,-7.60198974609375
1772548044400571000,8.74857080078125,-27.112075805664062,3.237349033355713,-7.2132110595703125
1772548044410607900,8.75860791015625,-27.16509246826172,3.217109203338623,-6.9497222900390625
1772548044420645600,8.768645751953125,-27.18799591064453,3.2717576026916504,-6.496429443359375
1772548044430683000,8.778682861328125,-27.458541870117188,3.380795955657959,-6.34149169921875
1772548044440720000,8.788719970703125,-27.701698303222656,3.225045680999756,-6.2104949951171875
1772548044450756900,8.7987568359375,-27.622413635253906,3.1670398712158203,-5.8641815185546875
1772548044460795000,8.808794921875,-27.604660034179688,3.0036234855651855,-5.6179962158203125
1772548044470831900,8.818831787109374,-27.77800750732422,2.869283676147461,-5.2660369873046875
1772548044480868900,8.828868896484375,-27.893234252929688,3.011599540710449,-5.20623779296875
1772548044490906600,8.83890673828125,-28.066452026367188,2.771705150604248,-4.8022613525390625
1772548044500944000,8.84894384765625,-28.036834716796875,2.721221923828125,-4.30914306640625
1772548044510980900,8.85898095703125,-28.29932403564453,2.5966129302978516,-3.9599609375
1772548044521018600,8.8690185546875,-28.059799194335938,2.256308078765869,-3.5643463134765625
1772548044531055900,8.879055908203124,-28.267105102539062,1.962507724761963,-3.19854736328125
1772548044541092900,8.8890927734375,-28.218955993652344,1.5918097496032715,-2.8870849609375
1772548044551131000,8.899130859375,-28.357528686523438,1.3928537368774414,-2.6166534423828125
1772548044561167600,8.909167724609375,-28.462608337402344,1.0511033535003662,-2.2500457763671875
1772548044571204900,8.919204833984375,-28.463905334472656,0.5450668334960938,-2.1448516845703125
1772548044581241900,8.929241943359376,-28.62883758544922,0.10119247436523438,-1.978271484375
1772548044591279900,8.93927978515625,-28.89111328125,-0.3877239227294922,-2.05169677734375
1772548044601316900,8.94931689453125,-28.71607208251953,-1.093959927558899,-1.7770538330078125
1772548044611353900,8.959353759765625,-28.544654846191406,-1.8230444192886353,-1.5774993896484375
1772548044621392000,8.969391845703125,-28.688674926757812,-2.164466142654419,-1.616668701171875
1772548044631428600,8.9794287109375,-28.602294921875,-2.456892490386963,-1.7862548828125
1772548044641465900,8.9894658203125,-28.696754455566406,-2.880676746368408,-1.774932861328125
1772548044651503900,8.99950390625,-28.910079956054688,-3.2592129707336426,-1.6203155517578125
1772548044661540900,9.009540771484374,-28.886253356933594,-3.7430148124694824,-1.6091156005859375
1772548044671577900,9.019577880859375,-29.03931427001953,-3.7879343032836914,-1.469146728515625
1772548044681614800,9.02961474609375,-29.07685089111328,-3.8540327548980713,-1.5527191162109375
1772548044691652900,9.03965283203125,-28.960830688476562,-3.9380569458007812,-1.582427978515625
1772548044701689600,9.049689697265626,-28.868927001953125,-3.7799577713012695,-1.375640869140625
1772548044711726800,9.059726806640626,-28.98780059814453,-3.8641958236694336,-1.380126953125
1772548044721764900,9.069764892578124,-28.898666381835938,-3.9870150089263916,-1.3118896484375
1772548044731801900,9.0798017578125,-28.708786010742188,-3.8040218353271484,-1.344879150390625
1772548044741838800,9.0898388671875,-28.64232635498047,-3.6507599353790283,-1.3641204833984375
1772548044751876900,9.099876953125,-28.541175842285156,-3.47760009765625,-1.2504119873046875
1772548044761913900,9.109913818359376,-28.51184844970703,-3.3952744007110596,-1.43914794921875
1772548044771950800,9.119950927734376,-28.410911560058594,-3.3041319847106934,-1.5544281005859375
1772548044781988900,9.12998876953125,-28.392959594726562,-2.952622413635254,-1.636260986328125
1772548044792025900,9.14002587890625,-28.0458984375,-2.7073311805725098,-1.62188720703125
1772548044802062800,9.150062744140625,-28.0458984375,-2.7073311805725098,-1.62188720703125
1772548044812099800,9.160099853515625,-27.964889526367188,-2.4635071754455566,-1.5056610107421875
1772548044822137900,9.170137939453125,-27.86396026611328,-2.025250196456909,-1.624847412109375
1772548044832174800,9.1801748046875,-27.76026153564453,-1.977257490158081,-1.4705352783203125
1772548044842211800,9.1902119140625,-27.77519989013672,-1.6273530721664429,-1.4803314208984375
1772548044852249900,9.200249755859375,-27.763206481933594,-1.3242055177688599,-1.1628570556640625
1772548044862286800,9.210286865234375,-27.76720428466797,-0.8596658706665039,-0.823455810546875
1772548044872323800,9.22032373046875,-27.43511962890625,-0.6154226064682007,-0.5916900634765625
1772548044882361900,9.23036181640625,-27.403465270996094,-0.4232456684112549,-0.1668243408203125
1772548044892398800,9.24039892578125,-27.177947998046875,-0.05256509780883789,-0.0027313232421875
1772548044902435800,9.250435791015626,-27.156150817871094,0.2192065715789795,0.1316986083984375
1772548044912473900,9.260473876953125,-27.15229034423828,0.17038846015930176,0.1114654541015625
1772548044922510800,9.2705107421875,-27.183853149414062,0.06832575798034668,-0.0262908935546875
1772548044932547800,9.2805478515625,-27.027183532714844,-0.14577007293701172,-0.3415069580078125
1772548044942584800,9.290584716796875,-26.76262664794922,-0.2648642063140869,-0.66229248046875
1772548044952622800,9.300622802734376,-26.214378356933594,-0.40166473388671875,-0.8007965087890625
1772548044962659800,9.310659912109376,-26.55944061279297,-0.7205727100372314,-1.1436309814453125
1772548044972696800,9.32069677734375,-26.057701110839844,-0.6174361705780029,-1.4251251220703125
1772548044982734800,9.33073486328125,-25.784393310546875,-0.3122246265411377,-1.709381103515625
1772548044992771800,9.340771728515625,-25.717071533203125,-0.20851492881774902,-1.798919677734375
1772548045002808800,9.350808837890625,-25.359886169433594,-0.11483407020568848,-1.7386474609375
1772548045012846600,9.3608466796875,-25.362457275390625,0.26604151725769043,-1.851318359375
1772548045022883800,9.3708837890625,-25.403350830078125,0.6417422294616699,-1.839019775390625
1772548045032920800,9.3809208984375,-25.41051483154297,1.0852866172790527,-1.71502685546875
1772548045042958800,9.390958740234375,-25.04895782470703,1.5215487480163574,-1.6630401611328125
1772548045052995800,9.400995849609375,-25.00725555419922,1.9878530502319336,-1.8704071044921875
1772548045063032800,9.41103271484375,-25.00585174560547,2.267387866973877,-1.87005615234375
1772548045073070800,9.42107080078125,-25.13562774658203,2.5066471099853516,-1.964080810546875
1772548045083107600,9.431107666015626,-24.768814086914062,2.6516237258911133,-1.8762664794921875
1772548045093144800,9.441144775390624,-24.339935302734375,2.858765125274658,-1.7334747314453125
1772548045103181800,9.451181884765624,-24.36566162109375,3.0410046577453613,-1.9145965576171875
1772548045113220000,9.46122021484375,-24.4708251953125,3.29062557220459,-1.995574951171875
1772548045123256800,9.4712568359375,-24.335044860839844,3.3836770057678223,-2.327850341796875
1772548045133293800,9.4812939453125,-24.202064514160156,3.624713897705078,-2.4180908203125
1772548045143332000,9.49133203125,-24.252105712890625,3.545851230621338,-2.4393157958984375
1772548045153368800,9.501368896484376,-24.23077392578125,3.8049840927124023,-2.7168731689453125
1772548045163405800,9.51140576171875,-23.909332275390625,3.9625706672668457,-3.049530029296875
1772548045173443800,9.52144384765625,-23.91571807861328,4.073866844177246,-3.2767791748046875
1772548045183481000,9.531481201171875,-23.59398651123047,4.058713436126709,-3.37591552734375
1772548045193517800,9.541517822265625,-23.195098876953125,3.8906936645507812,-3.4742279052734375
1772548045203555800,9.551555908203126,-23.01941680908203,3.848036766052246,-3.557342529296875
1772548045213593000,9.561593017578126,-22.8763427734375,3.8422493934631348,-3.676025390625
1772548045223629800,9.5716298828125,-22.7779541015625,3.9045372009277344,-3.99114990234375
1772548045233666800,9.581666748046874,-22.630882263183594,3.95497989654541,-3.901153564453125
1772548045243704800,9.591704833984375,-22.873809814453125,4.088266372680664,-4.0897216796875
1772548045253742000,9.6017421875,-22.499000549316406,4.006026744842529,-4.0522308349609375
1772548045263778800,9.61177880859375,-22.200759887695312,4.220632553100586,-4.07440185546875
1772548045273816800,9.62181689453125,-22.30689239501953,4.154769420623779,-4.1114959716796875
1772548045283854000,9.63185400390625,-22.06665802001953,4.2076005935668945,-4.0076904296875
1772548045293891000,9.64189111328125,-21.940628051757812,4.085979461669922,-4.0069732666015625
1772548045303928800,9.6519287109375,-21.84540557861328,4.150504112243652,-4.082489013671875
1772548045313965800,9.6619658203125,-21.656173706054688,4.0453972816467285,-3.977294921875
1772548045324003000,9.672003173828125,-21.735671997070312,4.019652843475342,-3.8000030517578125
1772548045334040800,9.682040771484376,-21.368896484375,4.126922130584717,-3.6446075439453125
1772548045344077800,9.692077880859374,-21.42736053466797,4.140619277954102,-3.51055908203125
1772548045354115000,9.702114990234374,-21.417137145996094,3.9954051971435547,-3.473968505859375
1772548045364152800,9.71215283203125,-21.495498657226562,4.028119087219238,-3.358978271484375
1772548045374189800,9.72218994140625,-21.49535369873047,3.740962505340576,-3.1593017578125
1772548045384226800,9.732226806640625,-21.06011962890625,3.633669376373291,-3.0652618408203125
1772548045394264800,9.742264892578126,-20.999778747558594,3.6768593788146973,-2.9810333251953125
1772548045404301800,9.7523017578125,-21.049461364746094,3.534581184387207,-2.94140625
1772548045414338800,9.7623388671875,-20.989341735839844,3.2552456855773926,-2.9051513671875
1772548045424376000,9.7723759765625,-21.122283935546875,3.107595443725586,-2.601104736328125
1772548045434413800,9.782413818359375,-21.5465087890625,2.9968676567077637,-2.778717041015625
1772548045444450800,9.792450927734375,-21.680206298828125,2.6513657569885254,-2.7603607177734375
1772548045454487800,9.80248779296875,-21.591209411621094,2.3747854232788086,-2.7332611083984375
1772548045464525800,9.81252587890625,-21.681251525878906,2.0653257369995117,-2.8555145263671875
1772548045474562800,9.822562744140624,-21.47040557861328,1.8522624969482422,-2.8668670654296875
1772548045484599800,9.832599853515624,-21.570892333984375,1.6734681129455566,-3.0510101318359375
1772548045494638000,9.84263818359375,-21.58928680419922,1.396151065826416,-3.1206512451171875
1772548045504674800,9.8526748046875,-21.396240234375,1.2663664817810059,-3.268157958984375
1772548045514711800,9.8627119140625,-21.416656494140625,0.9177114963531494,-3.3802490234375
1772548045524750000,9.87275,-21.206710815429688,0.6730470657348633,-3.4185943603515625
1772548045534786800,9.882786865234374,-21.299362182617188,0.8209362030029297,-3.5086822509765625
1772548045544823800,9.89282373046875,-21.136062622070312,0.7687017917633057,-3.5214385986328125
1772548045554862000,9.902862060546875,-20.922653198242188,1.0856051445007324,-3.787841796875
1772548045564899000,9.912899169921875,-20.728515625,1.0959811210632324,-3.7310028076171875
1772548045574935800,9.922935791015625,-20.485580444335938,1.355503797531128,-3.805419921875
1772548045584972800,9.932972900390626,-20.374420166015625,1.3866629600524902,-3.647369384765625
1772548045595011000,9.943010986328124,-20.41594696044922,1.6653637886047363,-3.599273681640625
1772548045605048000,9.953048095703124,-20.102325439453125,1.8289341926574707,-3.5041351318359375
1772548045615084800,9.963084716796875,-19.715866088867188,2.368246555328369,-3.61480712890625
1772548045625122800,9.973122802734375,-19.571334838867188,2.720432758331299,-3.4901885986328125
1772548045635160000,9.98316015625,-19.177703857421875,2.9999747276306152,-3.2342376708984375
1772548045645196800,9.99319677734375,-19.32079315185547,3.444161891937256,-3.231201171875
1772548045655234800,10.00323486328125,-19.034332275390625,3.4502220153808594,-3.36846923828125
1772548045665272000,10.01327197265625,-18.840118408203125,3.2654905319213867,-3.429443359375
1772548045675309000,10.02330908203125,-18.621658325195312,3.2199769020080566,-3.6416473388671875
1772548045685346800,10.033346923828125,-18.67852783203125,3.2148609161376953,-3.7422332763671875
1772548045695383800,10.0433837890625,-18.873565673828125,3.019362449645996,-3.8830108642578125
1772548045705421000,10.053421142578125,-18.527328491210938,3.059662342071533,-3.8720245361328125
1772548045715458800,10.063458740234376,-18.175735473632812,3.028690814971924,-4.1467742919921875
1772548045725495800,10.073495849609374,-18.47357940673828,3.076977252960205,-4.24774169921875
1772548045735533000,10.083532958984375,-18.37682342529297,3.0342297554016113,-4.3169403076171875
1772548045745570800,10.09357080078125,-18.179847717285156,2.9677891731262207,-4.2158050537109375
1772548045755607800,10.10360791015625,-17.746543884277344,3.1679201126098633,-4.181243896484375
1772548045765644800,10.113644775390625,-17.8995361328125,3.3674635887145996,-4.313446044921875
1772548045775682800,10.123682861328126,-17.82115936279297,3.4118223190307617,-4.182403564453125
1772548045785719800,10.1337197265625,-18.08690643310547,3.6611061096191406,-4.2687530517578125
1772548045795756800,10.1437568359375,-17.882858276367188,3.9048876762390137,-4.163726806640625
1772548045805794000,10.1537939453125,-17.57958984375,3.982304096221924,-3.85296630859375
1772548045815831800,10.163831787109375,-17.60370635986328,4.302496910095215,-3.93292236328125
1772548045825868800,10.173868896484375,-17.79620361328125,4.612514495849609,-4.0428619384765625
1772548045835905800,10.18390576171875,-17.895431518554688,4.587090969085693,-4.0663909912109375
1772548045845943800,10.19394384765625,-17.81145477294922,4.492014408111572,-4.2382659912109375
1772548045855980800,10.203980712890624,-18.051063537597656,4.286565780639648,-4.1668701171875
1772548045866017800,10.214017822265625,-17.686805725097656,4.325692653656006,-4.2298736572265625
1772548045876056000,10.22405615234375,-17.506011962890625,4.155633926391602,-4.3303680419921875
1772548045886092800,10.2340927734375,-17.632583618164062,4.079387187957764,-4.5005645751953125
1772548045896129800,10.2441298828125,-17.589553833007812,3.9297618865966797,-4.4187774658203125
1772548045906168000,10.25416796875,-17.61852264404297,3.812424659729004,-4.43878173828125
1772548045916205000,10.264205078125,-17.878822326660156,3.8056859970092773,-4.3199310302734375
1772548045926241800,10.27424169921875,-17.724456787109375,3.9078192710876465,-4.450164794921875
1772548045936280000,10.284280029296875,-17.76634979248047,3.9345078468322754,-4.4804840087890625
1772548045946317000,10.294317138671875,-17.62334442138672,3.9714784622192383,-4.3758392333984375
1772548045956353800,10.304353759765625,-17.56836700439453,3.8991594314575195,-4.5009307861328125
1772548045966391800,10.314391845703126,-17.55603790283203,3.9892210960388184,-4.5050506591796875
1772548045976429000,10.324428955078124,-17.80060577392578,4.06205415725708,-4.63470458984375
1772548045986466000,10.334466064453125,-18.12994384765625,4.057043552398682,-4.4267578125
1772548045996503800,10.34450390625,-17.79991912841797,4.140958309173584,-4.493011474609375
1772548046006541000,10.354541015625,-17.746566772460938,4.059633255004883,-4.376922607421875
1772548046016578000,10.364578125,-17.7264404296875,4.136565208435059,-4.277069091796875
1772548046026614800,10.37461474609375,-18.036041259765625,4.072966575622559,-4.2862091064453125
1772548046036652800,10.38465283203125,-17.794876098632812,4.258743762969971,-4.22271728515625
1772548046046690000,10.39468994140625,-17.53509521484375,4.279098987579346,-4.26519775390625
1772548046056727000,10.40472705078125,-17.647735595703125,4.215073585510254,-4.16888427734375
1772548046066764800,10.414764892578125,-17.622833251953125,4.358942985534668,-4.1888427734375
1772548046076802000,10.424802001953125,-17.62078857421875,4.399267196655273,-4.1222381591796875
1772548046086839000,10.434839111328126,-17.559104919433594,4.319933891296387,-3.8846893310546875
1772548046096876800,10.444876708984374,-17.565658569335938,4.354521751403809,-4.018157958984375
1772548046106913800,10.454913818359374,-17.812538146972656,4.377956390380859,-3.954925537109375
1772548046116951000,10.464950927734375,-17.91779327392578,4.316477298736572,-4.0247802734375
1772548046126989000,10.474989013671875,-17.602340698242188,4.165695667266846,-4.0499267578125
1772548046137026000,10.485026123046875,-17.579185485839844,4.0999345779418945,-3.9139404296875
1772548046147063000,10.49506298828125,-17.567848205566406,3.8377699851989746,-3.9696807861328125
1772548046157101000,10.50510107421875,-17.553131103515625,3.7868542671203613,-3.912628173828125
1772548046167138000,10.515137939453124,-17.435325622558594,3.8769164085388184,-3.8587646484375
1772548046177175000,10.525175048828125,-17.541305541992188,3.8095884323120117,-3.7733306884765625
1772548046187213000,10.535213134765625,-17.362030029296875,3.9151086807250977,-3.7442169189453125
1772548046197250000,10.54525,-17.2303466796875,3.707444667816162,-3.738555908203125
1772548046207287000,10.555287109375,-17.073768615722656,3.717276096343994,-3.74627685546875
1772548046217325000,10.565324951171876,-17.223312377929688,3.776127815246582,-3.6832733154296875
1772548046227362000,10.575362060546874,-17.328369140625,3.9969520568847656,-3.6435394287109375
1772548046237399000,10.58539892578125,-17.342361450195312,3.7790088653564453,-3.615020751953125
1772548046247437000,10.59543701171875,-17.126815795898438,3.682987689971924,-3.495849609375
1772548046257474300,10.605474365234375,-17.304420471191406,3.708317756652832,-3.3861846923828125
1772548046267511000,10.615510986328125,-17.14276885986328,3.837491512298584,-3.42169189453125
1772548046277549000,10.625549072265626,-17.14276885986328,3.837491512298584,-3.42169189453125
1772548046287586000,10.6355859375,-17.30567169189453,3.7474989891052246,-3.1690826416015625
1772548046297623000,10.645623046875,-17.023880004882812,3.749427318572998,-3.2082977294921875
1772548046307660000,10.655659912109375,-17.054237365722656,3.9073739051818848,-3.241912841796875
1772548046317698000,10.665697998046875,-17.24139404296875,4.132735729217529,-3.362060546875
1772548046327735300,10.6757353515625,-17.263954162597656,4.003488063812256,-3.284637451171875
1772548046337772000,10.68577197265625,-17.061599731445312,4.0711469650268555,-3.3211212158203125
1772548046347810000,10.69581005859375,-17.143394470214844,4.055483341217041,-3.189178466796875
1772548046357847000,10.705846923828124,-17.31536102294922,4.1066203117370605,-3.3840484619140625
1772548046367884000,10.715884033203125,-17.057228088378906,3.9616479873657227,-3.3498687744140625
1772548046377922000,10.725922119140625,-17.108245849609375,3.8849544525146484,-3.2996826171875
1772548046387959000,10.735958984375,-16.986328125,3.8321142196655273,-3.4431915283203125
1772548046397996300,10.745996337890626,-16.89495086669922,3.8504672050476074,-3.4640045166015625
1772548046408034000,10.756033935546874,-17.047882080078125,3.898012161254883,-3.5040283203125
1772548046418071000,10.766071044921874,-17.20794677734375,4.064924716949463,-3.5918731689453125
1772548046428108000,10.77610791015625,-16.92102813720703,4.072171211242676,-3.3335113525390625
1772548046438146000,10.78614599609375,-17.00463104248047,4.172685146331787,-3.5182037353515625
1772548046448183000,10.79618310546875,-16.71857452392578,4.101770877838135,-3.5490570068359375
1772548046458220000,10.806219970703125,-17.131332397460938,3.909694194793701,-3.5080413818359375
1772548046468258000,10.816258056640624,-17.215316772460938,4.065891265869141,-3.6246185302734375
1772548046478295000,10.826294921875,-17.125289916992188,4.120782375335693,-3.5665435791015625
1772548046488332000,10.83633203125,-17.07544708251953,4.199357509613037,-3.82464599609375
1772548046498370000,10.8463701171875,-17.296554565429688,4.194812774658203,-3.8210601806640625
1772548046508407000,10.856406982421875,-17.270355224609375,4.188181400299072,-3.94781494140625
1772548046518444000,10.866444091796875,-17.3883056640625,4.084316730499268,-3.8977508544921875
1772548046528482000,10.87648193359375,-17.142684936523438,4.175170421600342,-3.9367523193359375
1772548046538519000,10.88651904296875,-17.38965606689453,3.970449447631836,-3.9687042236328125
1772548046548556000,10.89655615234375,-17.45782470703125,4.079919338226318,-3.900054931640625
1772548046558594000,10.906593994140625,-17.564056396484375,4.147207260131836,-3.887725830078125
1772548046568631300,10.91663134765625,-17.414047241210938,4.310219764709473,-3.9198455810546875
1772548046578668000,10.92666796875,-17.380401611328125,4.209412574768066,-3.884918212890625
1772548046588706000,10.9367060546875,-17.592742919921875,4.079825401306152,-3.9034576416015625
1772548046598743000,10.946742919921874,-17.481063842773438,4.292974472045898,-3.935455322265625
1772548046608780000,10.956780029296874,-17.40137481689453,4.275425434112549,-4.0767974853515625
1772548046618818000,10.966818115234375,-17.29607391357422,4.55088472366333,-4.05035400390625
1772548046628855000,10.97685498046875,-17.061813354492188,4.278442859649658,-4.019287109375
1772548046638892300,10.986892333984375,-17.17493438720703,4.245713710784912,-4.0745391845703125
1772548046648929000,10.996928955078126,-17.20849609375,4.150151252746582,-4.0842437744140625
1772548046658967000,11.006967041015624,-17.328880310058594,4.416386127471924,-4.1254730224609375
1772548046669004000,11.017004150390624,-17.266075134277344,4.30908727645874,-4.091583251953125
1772548046679041000,11.027041015625,-17.32384490966797,4.324090480804443,-4.145355224609375
1772548046689079000,11.0370791015625,-17.002593994140625,4.2306623458862305,-4.117523193359375
1772548046699116000,11.047115966796875,-16.91240692138672,4.285745143890381,-4.2758636474609375
1772548046709153300,11.0571533203125,-17.09748077392578,4.253304481506348,-4.1148529052734375
1772548046719191000,11.06719091796875,-17.202835083007812,4.2535576820373535,-4.115570068359375
1772548046729228000,11.07722802734375,-17.230056762695312,4.348849773406982,-4.1827392578125
1772548046739265000,11.08726513671875,-17.363670349121094,4.341836452484131,-4.354339599609375
1772548046749303000,11.097302978515625,-17.16327667236328,4.369804859161377,-4.3757476806640625
1772548046759340000,11.107340087890625,-16.88897705078125,4.290295124053955,-4.318389892578125
1772548046769377000,11.117376953125,-16.93395233154297,4.30689811706543,-4.526123046875
1772548046779415000,11.1274150390625,-16.813125610351562,4.216326713562012,-4.5650482177734375
1772548046789452000,11.1374521484375,-16.758468627929688,4.3562541007995605,-4.5803985595703125
1772548046799489000,11.147489013671875,-16.915069580078125,4.211696624755859,-4.615081787109375
1772548046809527000,11.157527099609375,-16.917762756347656,4.408544540405273,-4.6260528564453125
1772548046819564000,11.16756396484375,-17.099281311035156,4.41352653503418,-4.7091217041015625
1772548046829601000,11.17760107421875,-17.06134033203125,4.318228721618652,-4.772735595703125
1772548046839639300,11.187639404296876,-17.009994506835938,4.1136555671691895,-4.8109588623046875
1772548046849676000,11.197676025390624,-16.98980712890625,4.156121253967285,-4.9726409912109375
1772548046859713000,11.207713134765624,-17.05260467529297,4.1397929191589355,-5.039154052734375
1772548046869751000,11.2177509765625,-16.995162963867188,4.13349723815918,-5.0522613525390625
1772548046879788300,11.227788330078125,-16.994102478027344,4.499650955200195,-5.217315673828125
1772548046889825000,11.237824951171875,-16.98241424560547,4.615629196166992,-5.3505096435546875
1772548046899863000,11.247863037109376,-16.91808319091797,4.625397682189941,-5.307586669921875
1772548046909900300,11.257900390625,-17.0955810546875,4.45490837097168,-5.43597412109375
1772548046919937000,11.26793701171875,-17.20960235595703,4.490263938903809,-5.5289459228515625
1772548046929975000,11.27797509765625,-17.121963500976562,4.531524181365967,-5.7054595947265625
1772548046940012000,11.288011962890625,-17.187881469726562,4.812182903289795,-5.8216400146484375
1772548046950049300,11.29804931640625,-16.874168395996094,4.8007707595825195,-5.781005859375
1772548046960087000,11.308087158203126,-17.11988067626953,4.983094215393066,-5.982421875
1772548046970124000,11.3181240234375,-17.340225219726562,5.225567817687988,-6.08477783203125
1772548046980161000,11.3281611328125,-17.175308227539062,5.38234281539917,-6.1648712158203125
1772548046990198000,11.338197998046875,-17.44055938720703,5.595221519470215,-6.1841278076171875
1772548047000236000,11.348236083984375,-17.24664306640625,5.622406005859375,-6.196807861328125
1772548047010273000,11.35827294921875,-17.366722106933594,5.597307205200195,-6.34228515625
1772548047020310300,11.368310302734375,-17.20366668701172,5.547689914703369,-6.3502349853515625
1772548047030348000,11.37834814453125,-17.034255981445312,5.755927085876465,-6.40142822265625
1772548047040385000,11.388385009765624,-17.17864990234375,5.808370590209961,-6.5469970703125
1772548047050422000,11.398422119140625,-17.13892364501953,5.961810111999512,-6.8609161376953125
1772548047060460000,11.4084599609375,-17.14745330810547,5.98854923248291,-6.9730072021484375
1772548047070497000,11.4184970703125,-17.293960571289062,6.01241397857666,-7.01873779296875
1772548047080534000,11.428533935546875,-17.127349853515625,6.121085166931152,-7.2357330322265625
1772548047090572000,11.438572021484376,-17.149124145507812,6.276860237121582,-7.2139434814453125
1772548047100609000,11.448609130859374,-17.01624298095703,6.329054832458496,-7.390655517578125
1772548047110646000,11.45864599609375,-16.99951171875,6.468318939208984,-7.4943084716796875
1772548047120687900,11.46868798828125,-16.95366668701172,6.67862606048584,-7.794677734375
1772548047130725000,11.47872509765625,-17.01390838623047,6.810211181640625,-7.826873779296875
1772548047140762000,11.48876220703125,-16.76068115234375,6.992582321166992,-8.007568359375
1772548047150800000,11.4987998046875,-16.780067443847656,6.995397567749023,-8.369796752929688
1772548047160836900,11.5088369140625,-16.453567504882812,7.072992324829102,-8.58514404296875
1772548047170874000,11.5188740234375,-16.39240264892578,7.117465019226074,-8.751083374023438
1772548047180912000,11.528912109375,-16.2567138671875,7.127383232116699,-9.092803955078125
1772548047190948900,11.538948974609376,-16.10541534423828,6.944666862487793,-9.222320556640625
1772548047200986000,11.548986083984374,-16.016159057617188,6.834536552429199,-9.559280395507812
1772548047211024100,11.559024169921875,-15.811187744140625,6.851320266723633,-9.922531127929688
1772548047221060900,11.569060791015625,-15.494308471679688,6.759697914123535,-10.208633422851562
1772548047231097900,11.579097900390625,-15.129386901855469,6.640202522277832,-10.351455688476562
1772548047241136000,11.58913623046875,-15.156105041503906,6.477144241333008,-10.669464111328125
1772548047251173000,11.599173095703126,-14.930923461914062,6.482117652893066,-10.929473876953125
1772548047261209900,11.6092099609375,-14.865653991699219,6.327347755432129,-11.113388061523438
1772548047271248100,11.619248046875,-14.780326843261719,6.16954231262207,-11.304962158203125
1772548047281285000,11.62928515625,-14.341888427734375,6.129269599914551,-11.334762573242188
1772548047291322000,11.639322021484375,-14.297409057617188,6.012882232666016,-11.524368286132812
1772548047301360000,11.649360107421876,-14.253868103027344,5.929009437561035,-11.552169799804688
1772548047311397000,11.659397216796876,-14.425537109375,5.850765228271484,-11.642410278320312
1772548047321434000,11.66943408203125,-14.403923034667969,5.829052925109863,-11.572433471679688
1772548047331472000,11.679471923828125,-14.515357971191406,5.953243255615234,-11.558670043945312
1772548047341509000,11.689509033203125,-14.698783874511719,6.0164031982421875,-11.591934204101562
1772548047351546000,11.699546142578125,-14.799339294433594,6.12977409362793,-11.493728637695312
1772548047361583900,11.709583984375,-14.883094787597656,6.229774475097656,-11.348495483398438
1772548047371621000,11.71962109375,-14.929473876953125,6.215749740600586,-11.264801025390625
1772548047381658000,11.729658203125,-15.091278076171875,6.400539398193359,-11.2060546875
1772548047391696000,11.73969580078125,-15.190589904785156,6.3661651611328125,-11.102020263671875
1772548047401732900,11.74973291015625,-15.666976928710938,6.378748893737793,-10.880996704101562
1772548047411770000,11.75977001953125,-15.671607971191406,6.469286918640137,-10.826858520507812
1772548047421808000,11.76980810546875,-15.694686889648438,6.372718811035156,-10.5771484375
1772548047431844900,11.779844970703126,-16.033363342285156,6.291190147399902,-10.606658935546875
1772548047441882000,11.789882080078126,-16.153640747070312,6.493860244750977,-10.644378662109375
1772548047451919000,11.799919189453124,-16.29210662841797,6.599189758300781,-10.661544799804688
1772548047461956900,11.809956787109375,-16.34893035888672,6.579030990600586,-10.53594970703125
1772548047471993900,11.819993896484375,-16.82959747314453,6.765774726867676,-10.569793701171875
1772548047482031000,11.830031005859375,-16.896636962890625,6.854412078857422,-10.469696044921875
1772548047492069000,11.840069091796876,-16.793502807617188,6.800640106201172,-10.369796752929688
1772548047502105900,11.85010595703125,-16.914459228515625,6.939229965209961,-9.99627685546875
1772548047512143000,11.86014306640625,-17.139785766601562,6.840629577636719,-9.6771240234375
1772548047522181000,11.87018115234375,-17.755958557128906,6.764809608459473,-9.511978149414062
1772548047532217900,11.8802177734375,-18.13226318359375,6.649112701416016,-9.494064331054688
1772548047542254800,11.8902548828125,-18.32707977294922,6.2292022705078125,-9.296401977539062
1772548047552293000,11.900293212890626,-18.563819885253906,5.896381378173828,-9.214569091796875
1772548047562330000,11.910330078125,-18.411643981933594,5.742995262145996,-9.074722290039062
1772548047572366800,11.920366943359374,-18.50562286376953,5.432138442993164,-9.118255615234375
1772548047582405000,11.930405029296875,-18.38831329345703,5.219681739807129,-9.000167846679688
1772548047592442000,11.940442138671875,-18.470191955566406,4.975050926208496,-8.997589111328125
1772548047602479000,11.95047900390625,-18.390464782714844,4.5972137451171875,-8.818511962890625
1772548047612517000,11.96051708984375,-18.333969116210938,4.489775657653809,-8.485595703125
1772548047622554000,11.97055419921875,-18.925003051757812,4.290785789489746,-8.38262939453125
1772548047632591000,11.980591064453124,-18.818580627441406,4.316862106323242,-8.369842529296875
1772548047642629000,11.990629150390625,-18.834854125976562,4.163130760192871,-8.16595458984375
1772548047652665000,12.0006650390625,-18.834854125976562,4.163130760192871,-8.16595458984375
1772548047662702000,12.0107021484375,-19.15978240966797,4.024550437927246,-8.049179077148438
1772548047672739000,12.020739013671875,-19.37285614013672,3.7042951583862305,-7.9906463623046875
1772548047682776800,12.03077685546875,-19.454360961914062,3.3397345542907715,-8.095733642578125
1772548047692814000,12.04081396484375,-19.444320678710938,3.0596184730529785,-8.109375
1772548047702851000,12.05085107421875,-19.526748657226562,2.991978645324707,-8.1351318359375
1772548047712888800,12.060888916015625,-19.327377319335938,2.5631484985351562,-8.052810668945312
1772548047722926000,12.070926025390625,-19.516204833984375,2.3888773918151855,-8.1619873046875
1772548047732963000,12.080963134765625,-19.642379760742188,2.282012939453125,-8.134765625
1772548047743001000,12.0910009765625,-20.02521514892578,2.391355514526367,-8.236541748046875
1772548047753037800,12.101037841796876,-19.98792266845703,2.306122303009033,-8.157424926757812
1772548047763075000,12.111074951171876,-20.034088134765625,2.2817330360412598,-7.916778564453125
1772548047773113000,12.121113037109374,-20.445884704589844,2.281996250152588,-7.8573150634765625
1772548047783150000,12.131150146484375,-20.613670349121094,2.306304454803467,-7.8262786865234375
1772548047793187000,12.14118701171875,-20.917129516601562,2.0004138946533203,-7.7099761962890625
1772548047803225000,12.15122509765625,-21.206253051757812,2.1401782035827637,-7.62799072265625
1772548047813262000,12.161261962890626,-21.56200408935547,2.083808422088623,-7.5228424072265625
1772548047823298800,12.171298828125,-22.028305053710938,2.1309685707092285,-7.4644927978515625
1772548047833337000,12.181337158203124,-22.1448974609375,2.0802483558654785,-7.5067138671875
1772548047843374000,12.1913740234375,-22.37908935546875,1.886059284210205,-7.371368408203125
1772548047853411000,12.2014111328125,-22.58795928955078,1.7449369430541992,-7.2893218994140625
1772548047863449000,12.211448974609375,-22.65460968017578,1.3226470947265625,-7.2672119140625
1772548047873486000,12.221486083984376,-22.69678497314453,0.9232172966003418,-7.2713775634765625
1772548047883523000,12.231523193359376,-22.539634704589844,0.5677247047424316,-7.3538360595703125
1772548047893561000,12.24156103515625,-22.571807861328125,0.326495885848999,-7.30731201171875
1772548047903598000,12.25159814453125,-22.69660186767578,0.015581369400024414,-7.1654052734375
1772548047913635000,12.261635009765625,-22.978416442871094,-0.32441234588623047,-7.221466064453125
1772548047923672800,12.2716728515625,-22.90699005126953,-0.6797339916229248,-7.08905029296875
1772548047933710000,12.2817099609375,-22.935287475585938,-0.7935899496078491,-6.91827392578125
1772548047943747000,12.2917470703125,-23.023773193359375,-0.9978340864181519,-6.9970703125
1772548047953784800,12.301784912109374,-22.653648376464844,-1.014406681060791,-6.992218017578125
1772548047963823000,12.311822998046875,-22.792404174804688,-1.0677977800369263,-7.286834716796875
1772548047973860900,12.32186083984375,-22.470993041992188,-0.9818458557128906,-7.4717254638671875
1772548047983897900,12.33189794921875,-22.288040161132812,-0.7628601789474487,-7.6400299072265625
1772548047993935000,12.34193505859375,-22.080047607421875,-0.6627326011657715,-7.6136016845703125
1772548048003973000,12.35197314453125,-22.23809051513672,-0.479184627532959,-7.5991668701171875
1772548048014009900,12.362009765625,-22.310874938964844,-0.3402066230773926,-7.4565887451171875
1772548048024047000,12.372047119140625,-22.258514404296875,-0.14007806777954102,-7.3213653564453125
1772548048034085000,12.382085205078125,-21.86376953125,0.20308685302734375,-7.257904052734375
1772548048044121900,12.392121826171875,-21.592727661132812,0.8846404552459717,-7.437408447265625
1772548048054158800,12.402158935546876,-21.127281188964844,1.4924969673156738,-7.7605438232421875
1772548048064197000,12.412197021484374,-20.899024963378906,2.33489990234375,-7.951171875
1772548048074234000,12.422234130859374,-20.849807739257812,3.0305514335632324,-7.8505096435546875
1772548048084270800,12.432270751953125,-20.617393493652344,3.387477397918701,-7.516357421875
1772548048094308000,12.44230810546875,-20.544960021972656,3.8491148948669434,-7.3150177001953125
1772548048104346000,12.45234619140625,-20.748451232910156,4.237823963165283,-7.3920745849609375
1772548048114378800,12.462378662109375,-20.468276977539062,4.434800148010254,-7.46881103515625
1772548048124416500,12.47241650390625,-20.641265869140625,4.773629188537598,-7.7186279296875
1772548048134453500,12.48245361328125,-20.18482208251953,4.8858256340026855,-7.8237152099609375
1772548048144490800,12.49249072265625,-20.34777069091797,4.728616714477539,-7.803985595703125
1772548048154527700,12.50252783203125,-20.46019744873047,4.891571998596191,-7.8889923095703125
1772548048164565500,12.5125654296875,-20.29150390625,4.894625186920166,-7.9444732666015625
1772548048174602800,12.522602783203125,-20.20550537109375,4.855236053466797,-8.048492431640625
1772548048184640800,12.532640869140625,-19.93780517578125,5.0496063232421875,-8.243316650390625
1772548048194677500,12.542677490234375,-20.000877380371094,5.011921405792236,-8.392532348632812
1772548048204714500,12.552714599609375,-20.005027770996094,5.013716697692871,-8.6180419921875
1772548048214751700,12.562751708984376,-20.056472778320312,4.972103118896484,-8.754058837890625
1772548048224789500,12.57278955078125,-19.91265106201172,4.940141201019287,-8.843276977539062
1772548048234826500,12.582826416015624,-19.838668823242188,5.04661226272583,-8.728561401367188
1772548048244863700,12.59286376953125,-19.827316284179688,4.9306511878967285,-9.031112670898438
1772548048254901800,12.60290185546875,-19.708999633789062,4.898891925811768,-9.075897216796875
1772548048264938500,12.6129384765625,-19.524810791015625,5.013258457183838,-9.288848876953125
1772548048274975500,12.6229755859375,-19.49103546142578,5.0934672355651855,-9.313690185546875
1772548048285013800,12.633013671875,-19.06487274169922,5.287862300872803,-9.407989501953125
1772548048295050500,12.643050537109374,-18.824081420898438,5.355556964874268,-9.5789794921875
1772548048305087500,12.65308740234375,-18.83667755126953,5.420605182647705,-9.794418334960938
1772548048315125800,12.663125732421875,-18.514495849609375,5.5101704597473145,-10.059844970703125
1772548048325162800,12.673162841796875,-18.037925720214844,5.650737762451172,-10.224639892578125
1772548048335199500,12.683199462890625,-17.919212341308594,5.523806571960449,-10.242538452148438
1772548048345237800,12.69323779296875,-18.166465759277344,5.769182205200195,-10.205810546875
1772548048355274800,12.703274658203124,-18.38574981689453,6.101362228393555,-10.171112060546875
1772548048365311700,12.713311767578125,-18.274444580078125,6.321569442749023,-10.063003540039062
1772548048375349800,12.723349853515625,-18.238914489746094,6.450458526611328,-9.993362426757812
1772548048385386800,12.73338671875,-18.36687469482422,6.393548011779785,-10.096328735351562
1772548048395423700,12.743423828125,-18.348548889160156,6.456437110900879,-10.037796020507812
1772548048405461500,12.75346142578125,-18.341461181640625,6.404539108276367,-10.246383666992188
1772548048415498800,12.763498779296874,-18.215057373046875,6.397802352905273,-10.314117431640625
1772548048425535700,12.77353564453125,-17.962547302246094,6.380821228027344,-10.467453002929688
1772548048435573500,12.783573486328125,-18.060630798339844,6.161849021911621,-10.6927490234375
1772548048445610800,12.79361083984375,-17.867294311523438,6.308917999267578,-10.987075805664062
1772548048455647700,12.803647705078125,-17.655624389648438,6.327732086181641,-11.267745971679688
1772548048465685500,12.813685546875,-17.458030700683594,6.327944755554199,-11.201507568359375
1772548048475722500,12.823722412109374,-17.5240478515625,6.437962532043457,-11.079360961914062
1772548048485759700,12.833759765625,-17.546226501464844,6.680258750915527,-11.220474243164062
1772548048495797800,12.8437978515625,-17.305137634277344,6.81610107421875,-11.330963134765625
