time,seconds_elapsed,z,y,x
1772548035727499300,0.075499267578125,114.12258911132812,-6.1829071044921875,171.52915954589844
1772548035737607200,0.085607177734375,115.06112670898438,-6.170562744140625,171.46473693847656
1772548035747714000,0.095714111328125,115.14173889160156,-6.0831298828125,171.2864227294922
1772548035757821200,0.1058212890625,114.52008056640625,-6.1424560546875,171.34471130371094
1772548035767927300,0.11592724609375,113.99101257324219,-5.9450225830078125,171.25094604492188
1772548035778035200,0.12603515625,113.88385009765625,-5.80535888671875,171.20802307128906
1772548035788142000,0.13614208984375,113.86192321777344,-5.6734161376953125,171.20191955566406
1772548035798249200,0.146249267578125,113.58465576171875,-5.6736907958984375,171.49586486816406
1772548035808355000,0.15635498046875,113.53713989257812,-5.393524169921875,171.3702392578125
1772548035818463000,0.166462890625,113.43478393554688,-5.0079193115234375,171.3245391845703
1772548035828569000,0.176569091796875,113.5162353515625,-4.8701019287109375,171.41452026367188
1772548035838676200,0.18667626953125,113.15605163574219,-4.7153778076171875,171.43084716796875
1772548035848783400,0.196783447265625,112.83975219726562,-4.4315185546875,171.8452911376953
1772548035858889200,0.20688916015625,112.70132446289062,-3.7891845703125,171.7405548095703
1772548035868995000,0.2169951171875,112.01240539550781,-3.4779815673828125,172.37625122070312
1772548035879101000,0.227100830078125,111.80496215820312,-2.9651947021484375,173.01402282714844
1772548035889208000,0.2372080078125,111.56417846679688,-3.07830810546875,173.46957397460938
1772548035899314200,0.247314208984375,111.82484436035156,-2.87451171875,174.04916381835938
1772548035909420300,0.257420166015625,111.19807434082031,-2.7054595947265625,174.2138214111328
1772548035919527200,0.267527099609375,110.87753295898438,-2.403778076171875,174.57608032226562
1772548035929633000,0.277633056640625,110.70120239257812,-2.3143768310546875,175.20989990234375
1772548035939738000,0.287738037109375,110.62025451660156,-2.1751708984375,175.6272430419922
1772548035949844200,0.29784423828125,110.45606994628906,-2.0950775146484375,176.27017211914062
1772548035959950300,0.307950439453125,110.113037109375,-2.3416290283203125,176.69268798828125
1772548035970057200,0.31805712890625,109.90095520019531,-2.201507568359375,176.722900390625
1772548035980163000,0.3281630859375,109.94232177734375,-2.28924560546875,177.17913818359375
1772548035990269200,0.338269287109375,109.93885803222656,-2.23541259765625,177.57040405273438
1772548036000377000,0.348377197265625,109.7994384765625,-2.1670684814453125,177.9110870361328
1772548036010484200,0.358484130859375,109.28863525390625,-2.1546783447265625,178.31871032714844
1772548036020591400,0.36859130859375,109.09208679199219,-1.977264404296875,178.83250427246094
1772548036030697200,0.378697265625,109.00238037109375,-2.1615142822265625,179.3914031982422
1772548036040804000,0.38880419921875,109.40403747558594,-2.43865966796875,179.725830078125
1772548036050912300,0.398912353515625,109.03262329101562,-2.4238128662109375,179.4617462158203
1772548036061020200,0.409020263671875,109.35359191894531,-2.8185577392578125,179.1427764892578
1772548036071128000,0.419128173828125,109.02584838867188,-3.1119384765625,178.3712615966797
1772548036081237000,0.429237060546875,109.10417175292969,-3.225738525390625,177.86837768554688
1772548036091344100,0.43934423828125,109.61100769042969,-3.0599517822265625,177.66294860839844
1772548036101452000,0.4494521484375,109.21194458007812,-2.970184326171875,177.35354614257812
1772548036111560700,0.459560791015625,109.25215148925781,-2.7384185791015625,177.35995483398438
1772548036121668600,0.469668701171875,109.02484130859375,-2.38330078125,177.32327270507812
1772548036131775700,0.479775634765625,109.17535400390625,-1.977569580078125,177.5518035888672
1772548036141882600,0.489882568359375,109.07914733886719,-1.4649810791015625,177.63494873046875
1772548036151990500,0.499990478515625,108.77896118164062,-0.7085723876953125,178.13583374023438
1772548036162098700,0.5100986328125,108.57359313964844,-0.1011199951171875,178.3042449951172
1772548036172207600,0.52020751953125,108.44343566894531,0.459075927734375,178.57723999023438
1772548036182314800,0.530314697265625,108.82139587402344,1.059814453125,178.97021484375
1772548036192423700,0.540423583984375,108.65518188476562,1.6888427734375,178.6313934326172
1772548036202531600,0.550531494140625,108.27043151855469,2.0700531005859375,178.66354370117188
1772548036212639500,0.560639404296875,108.49739074707031,2.9356536865234375,178.5723114013672
1772548036222747600,0.57074755859375,108.54104614257812,3.5856170654296875,178.46652221679688
1772548036232855600,0.58085546875,108.68092346191406,4.2934722900390625,178.8354949951172
1772548036242963500,0.59096337890625,107.91728210449219,5.2613372802734375,178.55502319335938
1772548036253070600,0.601070556640625,108.35174560546875,6.2307586669921875,178.90951538085938
1772548036263177700,0.611177734375,108.52310180664062,7.55859375,179.0269012451172
1772548036273284600,0.62128466796875,108.64625549316406,8.816574096679688,178.91944885253906
1772548036283392800,0.631392822265625,109.3145751953125,9.54962158203125,178.5904998779297
1772548036293499600,0.641499755859375,109.4139404296875,10.660751342773438,177.55816650390625
1772548036303606800,0.651606689453125,109.77053833007812,11.244277954101562,176.73597717285156
1772548036313713700,0.661713623046875,110.3526611328125,11.741348266601562,175.87118530273438
1772548036323821600,0.671821533203125,111.02909851074219,12.723846435546875,174.8264923095703
1772548036333928700,0.6819287109375,111.81999206542969,13.421676635742188,174.37171936035156
1772548036344038000,0.692037841796875,112.16384887695312,14.184097290039062,174.1683349609375
1772548036354145800,0.702145751953125,112.947021484375,15.294845581054688,173.9864501953125
1772548036364252700,0.712252685546875,113.59239196777344,16.239013671875,174.12046813964844
1772548036374359600,0.722359619140625,114.77607727050781,17.357177734375,174.00685119628906
1772548036384466700,0.732466796875,115.64909362792969,18.112899780273438,173.52914428710938
1772548036394573600,0.742573486328125,115.98007202148438,18.78863525390625,173.23568725585938
1772548036404681700,0.752681640625,116.61119079589844,19.52911376953125,173.03866577148438
1772548036414787800,0.762787841796875,117.27288818359375,20.207870483398438,172.72808837890625
1772548036424894500,0.77289453125,117.99595642089844,20.781326293945312,172.8946533203125
1772548036435002600,0.783002685546875,118.52554321289062,21.397293090820312,172.759033203125
1772548036445109500,0.793109619140625,119.21150207519531,22.0091552734375,172.84828186035156
1772548036455216600,0.803216552734375,120.00424194335938,22.791046142578125,172.9271697998047
1772548036465324500,0.813324462890625,120.63949584960938,23.168930053710938,173.3568572998047
1772548036475431700,0.823431640625,121.02496337890625,23.901321411132812,173.57931518554688
1772548036485539600,0.83353955078125,121.24555969238281,24.44232177734375,174.1378173828125
1772548036495646700,0.843646728515625,121.64775085449219,24.965087890625,174.57225036621094
1772548036505755600,0.853755615234375,122.18756103515625,24.938919067382812,175.1923370361328
1772548036515862800,0.86386279296875,122.75642395019531,25.612106323242188,176.2783966064453
1772548036525970700,0.873970703125,122.81468200683594,25.96405029296875,176.7519989013672
1772548036536078600,0.88407861328125,122.39634704589844,26.366729736328125,177.66812133789062
1772548036546185700,0.894185791015625,122.39767456054688,26.210174560546875,178.66786193847656
1772548036556293600,0.904293701171875,121.98727416992188,26.32110595703125,179.6151123046875
1772548036566401800,0.91440185546875,122.2445068359375,26.287261962890625,180.68165588378906
1772548036576508700,0.9245087890625,121.09744262695312,25.982498168945312,181.6142120361328
1772548036586614500,0.934614501953125,120.6708984375,26.200668334960938,182.50132751464844
1772548036596721700,0.9447216796875,120.29617309570312,25.936691284179688,183.46499633789062
1772548036606828800,0.954828857421875,119.54231262207031,25.526107788085938,184.72567749023438
1772548036616935700,0.964935791015625,119.95013427734375,25.549819946289062,185.77880859375
1772548036627042800,0.975042724609375,119.1090087890625,25.28564453125,186.84774780273438
1772548036637149700,0.985149658203125,119.15980529785156,25.04425048828125,187.68507385253906
1772548036647255600,0.995255615234375,118.80790710449219,24.75732421875,188.71910095214844
1772548036657363700,1.00536376953125,118.6942138671875,24.22100830078125,189.61334228515625
1772548036667470600,1.015470703125,118.96916198730469,23.882797241210938,190.1143035888672
1772548036677577700,1.02557763671875,118.64456176757812,23.7587890625,190.4866943359375
1772548036687685600,1.035685546875,118.57154846191406,23.669723510742188,190.74285888671875
1772548036697791500,1.04579150390625,118.408935546875,23.293899536132812,191.00868225097656
1772548036707898600,1.055898681640625,118.66952514648438,23.209762573242188,191.25144958496094
1772548036718006500,1.066006591796875,118.00086975097656,23.100997924804688,191.0058135986328
1772548036728113700,1.07611376953125,117.8880615234375,22.8382568359375,190.6705322265625
1772548036738221600,1.0862216796875,117.88131713867188,22.899215698242188,190.46566772460938
1772548036748328700,1.09632861328125,117.34210205078125,22.40093994140625,190.7243194580078
1772548036758435800,1.106435791015625,117.37425231933594,22.362579345703125,190.6869354248047
1772548036768540700,1.116540771484375,116.98442077636719,22.21466064453125,190.76368713378906
1772548036778645800,1.126645751953125,117.24156188964844,22.258209228515625,190.91439819335938
1772548036788752600,1.136752685546875,117.01734924316406,22.18798828125,191.2412567138672
1772548036798858800,1.146858642578125,117.13999938964844,21.933929443359375,191.469482421875
1772548036808963600,1.156963623046875,117.16400146484375,22.030380249023438,191.45614624023438
1772548036819070500,1.167070556640625,116.89076232910156,22.202774047851562,191.3856658935547
1772548036829177600,1.177177490234375,117.06716918945312,22.028671264648438,191.4263916015625
1772548036839284700,1.18728466796875,116.78021240234375,22.173782348632812,191.2994384765625
1772548036849391600,1.1973916015625,117.1964111328125,21.9971923828125,191.61083984375
1772548036859497500,1.20749755859375,116.91970825195312,21.951980590820312,191.59542846679688
1772548036869603600,1.217603515625,116.79350280761719,21.851333618164062,191.75930786132812
1772548036879709700,1.227709716796875,116.82490539550781,21.6834716796875,191.9766845703125
1772548036889816800,1.23781689453125,116.74052429199219,21.5606689453125,192.11050415039062
1772548036899923500,1.24792333984375,116.70768737792969,21.573318481445312,192.25408935546875
1772548036910030600,1.258030517578125,116.43698120117188,21.584136962890625,191.90272521972656
1772548036920136700,1.26813671875,116.34991455078125,21.835983276367188,191.44769287109375
1772548036930242600,1.27824267578125,116.41615295410156,21.474212646484375,191.29396057128906
1772548036940347600,1.28834765625,116.10870361328125,21.586257934570312,190.86300659179688
1772548036950452500,1.298452392578125,116.41055297851562,21.662261962890625,190.5376434326172
1772548036960557800,1.308557861328125,116.03282165527344,22.043548583984375,190.1195526123047
1772548036970664700,1.318664794921875,116.16981506347656,21.986160278320312,189.5863037109375
1772548036980770600,1.3287705078125,116.06495666503906,22.301803588867188,189.16578674316406
1772548036990877700,1.338877685546875,116.35017395019531,22.18524169921875,189.0487823486328
1772548037000985600,1.348985595703125,116.17691040039062,22.632553100585938,188.66976928710938
1772548037011093500,1.359093505859375,116.31889343261719,22.363388061523438,188.6441650390625
1772548037021200600,1.36920068359375,116.82167053222656,22.738861083984375,188.4474334716797
1772548037031308500,1.37930859375,116.74702453613281,22.751708984375,188.6018524169922
1772548037041416700,1.389416748046875,116.90158081054688,22.921707153320312,188.7979278564453
1772548037051524600,1.399524658203125,116.79022216796875,22.70294189453125,188.80645751953125
1772548037061632500,1.409632568359375,116.9324951171875,22.904571533203125,188.87081909179688
1772548037071739600,1.41973974609375,116.88916015625,23.040481567382812,188.87100219726562
1772548037081847600,1.42984765625,117.39639282226562,22.98077392578125,189.00018310546875
1772548037091955700,1.439955810546875,117.27743530273438,22.83526611328125,189.2339324951172
1772548037102062600,1.4500625,117.5198974609375,23.098739624023438,189.4395294189453
1772548037112169000,1.4601689453125,117.37100219726562,23.148483276367188,189.68682861328125
1772548037122275800,1.47027587890625,117.95584106445312,23.073944091796875,190.11080932617188
1772548037132384000,1.480384033203125,118.34822082519531,22.897476196289062,190.81546020507812
1772548037142492200,1.4904921875,118.51335144042969,22.8900146484375,191.30343627929688
1772548037152598800,1.500598876953125,118.61952209472656,22.918045043945312,191.99244689941406
1772548037162707000,1.51070703125,118.96148681640625,22.735885620117188,192.9169464111328
1772548037172816100,1.520816162109375,119.21427917480469,22.366943359375,193.64501953125
1772548037182924000,1.530924072265625,119.88259887695312,22.392532348632812,194.64169311523438
1772548037193033000,1.541032958984375,119.94456481933594,21.848678588867188,195.18402099609375
1772548037203140000,1.55114013671875,119.974365234375,21.713729858398438,195.86856079101562
1772548037213249000,1.5612490234375,120.09422302246094,21.7373046875,196.04473876953125
1772548037223356000,1.57135595703125,120.65939331054688,21.366287231445312,196.40164184570312
1772548037233464000,1.581464111328125,120.839599609375,21.505615234375,196.74761962890625
1772548037243570000,1.59156982421875,120.12733459472656,21.284011840820312,196.5392303466797
1772548037253677800,1.601677734375,120.57176208496094,21.365554809570312,196.2996368408203
1772548037263785000,1.611784912109375,120.47274780273438,21.640121459960938,195.9772491455078
1772548037273891000,1.62189111328125,120.34413146972656,21.610824584960938,195.99676513671875
1772548037283999000,1.6319990234375,120.82344055175781,21.9293212890625,195.75299072265625
1772548037294106000,1.642106201171875,120.9378662109375,22.25286865234375,195.78955078125
1772548037304213000,1.652212890625,121.02786254882812,22.14166259765625,195.8588409423828
1772548037314321200,1.662321044921875,121.05242919921875,22.134033203125,196.0092010498047
1772548037324429000,1.672428955078125,121.22434997558594,21.973846435546875,196.26101684570312
1772548037334538000,1.6825380859375,120.91444396972656,21.87701416015625,196.33645629882812
1772548037344646000,1.69264599609375,120.87713623046875,21.726272583007812,196.37901306152344
1772548037354754000,1.702754150390625,120.74519348144531,21.928451538085938,196.20777893066406
1772548037364862000,1.712862060546875,120.64129638671875,21.738235473632812,196.29705810546875
1772548037374969900,1.722969970703125,120.4212646484375,21.5841064453125,196.0317840576172
1772548037385078000,1.733078125,119.43168640136719,21.128082275390625,196.04000854492188
1772548037395185000,1.743184814453125,118.79371643066406,20.982925415039062,195.7620849609375
1772548037405290800,1.753290771484375,118.02557373046875,20.850570678710938,195.43209838867188
1772548037415399000,1.76339892578125,117.72012329101562,20.926895141601562,194.733154296875
1772548037425508000,1.773508056640625,117.26438903808594,20.750137329101562,194.39947509765625
1772548037435616000,1.783615966796875,117.06732177734375,20.95489501953125,193.75462341308594
1772548037445725000,1.793724853515625,116.89718627929688,20.883987426757812,193.34915161132812
1772548037455832800,1.803832763671875,116.60894775390625,21.120391845703125,192.75830078125
1772548037465940000,1.81393994140625,116.34403991699219,20.911575317382812,192.74069213867188
1772548037476047000,1.824047119140625,115.96261596679688,20.622833251953125,192.418701171875
1772548037486155000,1.834155029296875,115.18666076660156,20.713180541992188,191.93392944335938
1772548037496263000,1.844262939453125,115.10499572753906,20.495407104492188,191.70777893066406
1772548037506369800,1.854369873046875,114.7047119140625,20.190078735351562,191.5432586669922
1772548037516478000,1.86447802734375,114.83439636230469,20.124740600585938,191.48251342773438
1772548037526584800,1.874584716796875,114.35682678222656,20.224868774414062,191.1465606689453
1772548037536692000,1.88469189453125,114.74763488769531,20.482330322265625,191.24803161621094
1772548037546799900,1.8947998046875,114.95013427734375,20.785873413085938,190.8326873779297
1772548037556906000,1.904906005859375,114.94645690917969,20.854293823242188,190.7967987060547
1772548037567013000,1.91501318359375,115.67633056640625,21.58502197265625,190.42408752441406
1772548037577121000,1.92512109375,115.62664794921875,21.456253051757812,190.02894592285156
1772548037587229000,1.93522900390625,115.73945617675781,22.061416625976562,189.2630157470703
1772548037597337000,1.945337158203125,115.78105163574219,22.028762817382812,188.89395141601562
1772548037607445000,1.955445068359375,115.64234924316406,22.246017456054688,188.32601928710938
1772548037617553000,1.965552978515625,116.1207275390625,22.083969116210938,188.17437744140625
1772548037627661000,1.9756611328125,116.00236511230469,22.599578857421875,187.9022979736328
1772548037637768000,1.985767822265625,116.51345825195312,22.888580322265625,187.94482421875
1772548037647874800,1.995874755859375,116.839599609375,23.183151245117188,188.02902221679688
1772548037657981000,2.00598095703125,117.0223388671875,23.162200927734375,188.1632080078125
1772548037668088000,2.016088134765625,116.86781311035156,23.374710083007812,188.383056640625
1772548037678196000,2.026196044921875,117.11387634277344,23.173843383789062,188.50445556640625
1772548037688303900,2.036303955078125,117.33912658691406,23.350570678710938,188.42098999023438
1772548037698412800,2.046412841796875,117.53518676757812,23.20587158203125,188.42056274414062
1772548037708521000,2.05652099609375,117.6513671875,23.446762084960938,188.3551025390625
1772548037718628900,2.06662890625,117.23078918457031,23.61322021484375,188.10614013671875
1772548037728736000,2.076736083984375,117.60002136230469,23.404434204101562,187.85519409179688
1772548037738845000,2.086844970703125,117.14511108398438,23.276290893554688,187.8876953125
1772548037748952800,2.096952880859375,117.0074462890625,23.368377685546875,187.22677612304688
1772548037759060700,2.107060791015625,116.83058166503906,23.183181762695312,186.88148498535156
1772548037769166800,2.117166748046875,116.2059326171875,22.999526977539062,186.3798828125
1772548037779275000,2.12727490234375,116.32293701171875,22.776046752929688,185.7694549560547
1772548037789382000,2.1373818359375,116.158203125,22.6500244140625,185.3042755126953
1772548037799489000,2.147489013671875,116.35087585449219,22.646713256835938,184.75338745117188
1772548037809597000,2.157596923828125,116.28535461425781,22.608169555664062,184.1758270263672
1772548037819705900,2.167705810546875,116.28573608398438,22.567214965820312,183.64991760253906
1772548037829814000,2.17781396484375,116.4781494140625,22.73443603515625,182.72100830078125
1772548037839922000,2.187921875,116.69728088378906,23.068634033203125,181.67941284179688
1772548037850029000,2.198029052734375,117.25761413574219,23.053253173828125,180.86517333984375
1772548037860137000,2.208136962890625,117.38803100585938,22.611968994140625,179.699951171875
1772548037870242800,2.218242919921875,117.18766784667969,22.791183471679688,178.54368591308594
1772548037880350000,2.228349853515625,117.71914672851562,22.3560791015625,177.71292114257812
1772548037890456000,2.2384560546875,117.72917175292969,22.191909790039062,177.0032958984375
1772548037900563000,2.24856298828125,118.49415588378906,22.315109252929688,176.7539520263672
1772548037910668800,2.258668701171875,118.08981323242188,22.202865600585938,176.51148986816406
1772548037920777000,2.26877685546875,118.20596313476562,22.2513427734375,176.2828826904297
1772548037930882800,2.2788828125,118.50413513183594,22.324752807617188,176.39999389648438
1772548037940990000,2.288989990234375,118.68495178222656,22.689132690429688,176.68360900878906
1772548037951097000,2.29909716796875,118.61367797851562,22.658050537109375,177.20413208007812
1772548037961204000,2.309203857421875,118.49928283691406,22.471054077148438,177.65106201171875
1772548037971309800,2.319309814453125,118.5689697265625,22.89532470703125,177.79100036621094
1772548037981418000,2.32941796875,118.45088195800781,22.919876098632812,177.84141540527344
1772548037991524900,2.33952490234375,118.01985168457031,22.628952026367188,177.97915649414062
1772548038001631000,2.349630859375,117.86932373046875,22.877899169921875,177.9899139404297
1772548038011739100,2.3597392578125,117.976806640625,22.68646240234375,178.07882690429688
1772548038021848000,2.36984814453125,117.79815673828125,22.671783447265625,178.07948303222656
1772548038031955000,2.379954833984375,117.81753540039062,22.708831787109375,178.205810546875
1772548038042063000,2.39006298828125,118.01289367675781,22.68243408203125,178.6932830810547
1772548038052171000,2.4001708984375,117.83158874511719,22.731948852539062,178.74380493164062
1772548038062278100,2.410278076171875,117.80769348144531,22.771804809570312,178.6491241455078
1772548038072384800,2.420384765625,117.88346862792969,22.596908569335938,178.94561767578125
1772548038082492000,2.430491943359375,117.67001342773438,22.875030517578125,178.98829650878906
1772548038092599800,2.440599853515625,117.72932434082031,22.725875854492188,179.25537109375
1772548038102708000,2.4507080078125,117.59564208984375,22.829788208007812,179.1469268798828
1772548038112815600,2.460815673828125,117.63554382324219,22.813552856445312,179.5197296142578
1772548038122924500,2.470924560546875,117.20144653320312,22.835586547851562,179.6233673095703
1772548038133032400,2.481032470703125,117.61271667480469,23.050735473632812,179.6136932373047
1772548038143140600,2.491140625,117.37330627441406,22.887725830078125,179.59030151367188
1772548038153248500,2.50124853515625,117.5611572265625,22.904342651367188,179.4317169189453
1772548038163356400,2.5113564453125,117.23782348632812,22.836563110351562,179.35552978515625
1772548038173464600,2.521464599609375,117.47900390625,22.635528564453125,179.30091857910156
1772548038183572500,2.531572509765625,117.60531616210938,22.488784790039062,179.42446899414062
1772548038193680600,2.5416806640625,117.06817626953125,22.61199951171875,178.84840393066406
1772548038203788500,2.55178857421875,117.48884582519531,22.462814331054688,178.70118713378906
1772548038213897500,2.5618974609375,117.82534790039062,22.9359130859375,178.56735229492188
1772548038224006400,2.57200634765625,117.82516479492188,22.639175415039062,178.41610717773438
1772548038234114600,2.582114501953125,117.89675903320312,22.764572143554688,178.38568115234375
1772548038244222700,2.59222265625,117.50624084472656,22.666275024414062,178.35317993164062
1772548038254331600,2.60233154296875,117.45170593261719,22.711669921875,178.4332275390625
1772548038264439600,2.612439453125,117.54338073730469,22.523971557617188,178.46133422851562
1772548038274547500,2.62254736328125,117.325439453125,22.471633911132812,178.60418701171875
1772548038284656600,2.63265673828125,117.25898742675781,22.533828735351562,178.62188720703125
1772548038294764500,2.6427646484375,117.41290283203125,22.412521362304688,178.9685516357422
1772548038304873500,2.65287353515625,117.12860107421875,22.462554931640625,178.81436157226562
1772548038314981400,2.6629814453125,117.1383056640625,22.461715698242188,179.08383178710938
1772548038325089500,2.673089599609375,117.23477172851562,22.46002197265625,179.2732391357422
1772548038335197400,2.683197509765625,117.12832641601562,22.228164672851562,179.36524963378906
1772548038345306600,2.693306640625,117.0081787109375,22.274765014648438,179.30307006835938
1772548038355414500,2.70341455078125,116.85411071777344,22.3507080078125,179.3656768798828
1772548038365523500,2.7135234375,116.36058044433594,22.235443115234375,179.29673767089844
1772548038375631600,2.723631591796875,116.92619323730469,21.963623046875,179.23561096191406
1772548038385739500,2.733739501953125,116.68656921386719,21.751373291015625,178.97158813476562
1772548038395847700,2.74384765625,116.74964904785156,21.939651489257812,178.85543823242188
1772548038405956600,2.75395654296875,116.54826354980469,21.67474365234375,178.82025146484375
1772548038416064500,2.764064453125,116.38822937011719,22.091964721679688,178.54006958007812
1772548038426173400,2.77417333984375,116.84898376464844,21.898635864257812,178.7498016357422
1772548038436282600,2.78428271484375,117.00862121582031,22.231170654296875,178.825927734375
1772548038446390500,2.794390625,117.54219055175781,22.202865600585938,179.26278686523438
1772548038456498700,2.804498779296875,117.43525695800781,22.339767456054688,179.81919860839844
1772548038466606600,2.814606689453125,117.3055419921875,22.4605712890625,180.3948516845703
1772548038476713500,2.82471337890625,117.16584777832031,22.225067138671875,180.7483673095703
1772548038486821400,2.8348212890625,117.33134460449219,22.365219116210938,181.04745483398438
1772548038496929500,2.844929443359375,117.28469848632812,22.147933959960938,181.21157836914062
1772548038507036400,2.855036376953125,117.93482971191406,22.236923217773438,180.7420196533203
1772548038517144300,2.865144287109375,117.94612121582031,22.3572998046875,180.65525817871094
1772548038527253500,2.87525341796875,117.68692016601562,22.2039794921875,179.777587890625
1772548038537361700,2.885361572265625,118.16838073730469,22.118148803710938,179.15853881835938
1772548038547469600,2.895469482421875,118.2901611328125,22.007080078125,178.5612030029297
1772548038557577700,2.90557763671875,118.708984375,21.866775512695312,178.25296020507812
1772548038567685600,2.915685546875,118.8724365234375,22.080947875976562,177.8245391845703
1772548038577793500,2.92579345703125,119.17636108398438,21.815353393554688,177.43504333496094
1772548038587902500,2.93590234375,119.12838745117188,21.567413330078125,177.29376220703125
1772548038598009600,2.946009521484375,119.02049255371094,21.772613525390625,177.0155029296875
1772548038608117500,2.956117431640625,119.540771484375,21.697723388671875,176.6546173095703
1772548038618226400,2.966226318359375,119.93406677246094,21.364364624023438,176.0668487548828
1772548038628335400,2.97633544921875,120.09828186035156,20.900970458984375,175.4058380126953
1772548038638443500,2.986443603515625,120.11570739746094,20.316986083984375,175.19537353515625
1772548038648551400,2.996551513671875,120.12351989746094,20.018524169921875,174.850341796875
1772548038658658600,3.006658447265625,120.05821228027344,19.687789916992188,174.57994079589844
1772548038668767500,3.016767578125,119.96369934082031,19.21722412109375,174.44183349609375
1772548038678875400,3.02687548828125,119.61351013183594,18.72406005859375,173.99208068847656
1772548038688983600,3.036983642578125,119.61752319335938,18.238067626953125,173.64585876464844
1772548038699090400,3.04709033203125,119.72216796875,17.936920166015625,173.44012451171875
1772548038709199400,3.057199462890625,119.79336547851562,17.55914306640625,173.09197998046875
1772548038719308500,3.06730859375,120.34577941894531,17.029525756835938,172.39456176757812
1772548038729417500,3.07741748046875,120.29640197753906,16.320648193359375,171.3554229736328
1772548038739527400,3.08752734375,121.05928039550781,15.235641479492188,170.32986450195312
1772548038749636400,3.09763623046875,121.40805053710938,13.789627075195312,169.12449645996094
1772548038759744800,3.107744873046875,121.99958801269531,12.349929809570312,167.64886474609375
1772548038769853700,3.117853759765625,122.56419372558594,10.873504638671875,166.57870483398438
1772548038779961600,3.127961669921875,123.28669738769531,9.4334716796875,165.71002197265625
1772548038790070500,3.138070556640625,123.97552490234375,8.0269775390625,164.91921997070312
1772548038800178400,3.148178466796875,125.15447998046875,7.1699371337890625,164.5566864013672
1772548038810287400,3.158287353515625,125.95895385742188,6.42529296875,163.80609130859375
1772548038820396500,3.168396484375,126.429443359375,6.12957763671875,163.77540588378906
1772548038830504400,3.17850439453125,126.9407958984375,5.7116241455078125,163.6975555419922
1772548038840612400,3.1886123046875,126.85466003417969,5.7049102783203125,163.62606811523438
1772548038850722600,3.19872265625,127.21842956542969,6.1450042724609375,163.77944946289062
1772548038860832500,3.20883251953125,126.71295166015625,6.163787841796875,163.71168518066406
1772548038870941700,3.218941650390625,126.2091064453125,6.048187255859375,163.7819366455078
1772548038881050600,3.229050537109375,125.71160888671875,5.9918670654296875,164.08322143554688
1772548038891159600,3.23915966796875,125.46864318847656,6.3342132568359375,164.0255584716797
1772548038901267500,3.249267333984375,125.27507019042969,6.16314697265625,164.28111267089844
1772548038911377400,3.25937744140625,125.43438720703125,6.1196441650390625,164.65838623046875
1772548038921485300,3.2694853515625,125.40092468261719,6.149810791015625,164.4247283935547
1772548038931594500,3.279594482421875,124.76080322265625,6.386383056640625,164.40638732910156
1772548038941703700,3.28970361328125,124.90538024902344,6.320343017578125,164.3119354248047
1772548038951811600,3.2998115234375,124.90043640136719,6.1974639892578125,164.2096405029297
1772548038961920500,3.30992041015625,124.89628601074219,6.169921875,164.37472534179688
1772548038972029400,3.320029541015625,124.39241027832031,6.339569091796875,164.1688690185547
1772548038982137300,3.330137451171875,125.21197509765625,6.319183349609375,164.0862579345703
1772548038992246500,3.34024658203125,125.00575256347656,6.167877197265625,164.33538818359375
1772548039002353400,3.350353515625,124.92486572265625,6.154632568359375,164.09811401367188
1772548039012461300,3.36046142578125,124.85589599609375,6.1242218017578125,163.9740753173828
1772548039022569500,3.370569580078125,124.88459777832031,6.052886962890625,163.9351348876953
1772548039032678700,3.3806787109375,125.25654602050781,6.2318267822265625,164.0583038330078
1772548039042786600,3.39078662109375,125.16067504882812,6.36505126953125,164.12039184570312
1772548039052895500,3.4008955078125,125.23788452148438,6.5487060546875,163.9106903076172
1772548039063004400,3.41100439453125,125.7098388671875,6.92474365234375,163.94970703125
1772548039073111600,3.421111572265625,125.78839111328125,7.1202850341796875,164.03126525878906
1772548039083219500,3.431219482421875,125.51689147949219,7.2681732177734375,163.99179077148438
1772548039093327600,3.44132763671875,125.15132141113281,7.2160797119140625,164.0842742919922
1772548039103435500,3.451435546875,124.79782104492188,7.1519317626953125,164.1611785888672
1772548039113543700,3.461543701171875,124.88108825683594,7.262359619140625,164.15565490722656
1772548039123650800,3.47165087890625,124.80613708496094,7.20562744140625,164.0372314453125
1772548039133758700,3.4817587890625,125.03265380859375,7.542327880859375,164.23971557617188
1772548039143867000,3.491866943359375,124.70965576171875,7.141326904296875,164.15573120117188
1772548039153974800,3.501974853515625,124.458740234375,7.2018585205078125,164.03456115722656
1772548039164084700,3.512084716796875,124.33367919921875,7.2875518798828125,164.09837341308594
1772548039174192600,3.522192626953125,124.5426025390625,7.259490966796875,164.0997772216797
1772548039184301800,3.5323017578125,124.88116455078125,7.5218963623046875,164.26402282714844
1772548039194411800,3.542411865234375,124.25405883789062,7.3448638916015625,164.1468505859375
1772548039204519700,3.552519775390625,124.3466796875,7.4589080810546875,164.11753845214844
1772548039214628600,3.562628662109375,124.52494812011719,7.351806640625,164.07723999023438
1772548039224735700,3.57273583984375,124.44468688964844,7.6122589111328125,164.02316284179688
1772548039234844700,3.5828447265625,124.64488220214844,7.5516204833984375,164.09466552734375
1772548039244953900,3.592953857421875,124.56227111816406,7.470184326171875,164.18557739257812
1772548039255061800,3.603061767578125,124.75840759277344,7.5881500244140625,164.2716064453125
1772548039265168600,3.613168701171875,124.89712524414062,7.783905029296875,164.11668395996094
1772548039275277800,3.62327783203125,124.78530883789062,7.627532958984375,164.273193359375
1772548039285385000,3.633385009765625,124.80551147460938,7.6555633544921875,164.0012969970703
1772548039295492900,3.643492919921875,124.95867919921875,7.5532379150390625,164.12014770507812
1772548039305601800,3.653601806640625,124.81205749511719,7.56121826171875,163.97976684570312
1772548039315710000,3.6637099609375,125.10549926757812,7.691619873046875,163.93942260742188
1772548039325819000,3.67381884765625,125.55323791503906,7.6044769287109375,164.32386779785156
1772548039335926800,3.6839267578125,124.95172119140625,7.4931793212890625,163.85496520996094
1772548039346035700,3.69403564453125,125.23501586914062,7.2774200439453125,164.017578125
1772548039356143600,3.7041435546875,125.23052978515625,7.1082916259765625,164.10752868652344
1772548039366252500,3.71425244140625,125.158935546875,6.941619873046875,164.07948303222656
1772548039376361700,3.72436181640625,125.73155212402344,7.1682586669921875,164.09109497070312
1772548039386471000,3.734470947265625,125.33624267578125,7.1197662353515625,163.9713897705078
1772548039396578800,3.744578857421875,125.57243347167969,6.9406280517578125,163.95880126953125
1772548039406687700,3.754687744140625,125.74359130859375,6.870635986328125,163.9332275390625
1772548039416796700,3.764796630859375,125.65159606933594,6.8486480712890625,163.92564392089844
1772548039426904600,3.774904541015625,125.5972900390625,6.788482666015625,163.8087158203125
1772548039437011700,3.78501171875,125.3951416015625,6.77239990234375,163.9701690673828
1772548039447120600,3.79512060546875,125.29244995117188,6.7418365478515625,163.9024200439453
1772548039457229800,3.805229736328125,125.24171447753906,6.830841064453125,163.91455078125
1772548039467337700,3.815337646484375,125.03514099121094,6.9375,164.01950073242188
1772548039477446000,3.82544580078125,124.67958068847656,6.5938568115234375,164.15310668945312
1772548039487552800,3.835552734375,124.75167846679688,6.2786865234375,164.123779296875
1772548039497661000,3.845660888671875,124.85128784179688,6.543853759765625,164.02098083496094
1772548039507767600,3.855767578125,124.94305419921875,6.532928466796875,164.04910278320312
1772548039517875700,3.865875732421875,124.93353271484375,6.38726806640625,164.28662109375
1772548039527982600,3.875982666015625,124.88250732421875,6.3193206787109375,164.24993896484375
1772548039538088000,3.886087890625,124.69929504394531,6.22589111328125,164.06161499023438
1772548039548192800,3.89619287109375,124.90562438964844,6.34423828125,163.9923553466797
1772548039558300000,3.9062998046875,125.09300231933594,6.4645843505859375,164.1117401123047
1772548039568406800,3.91640673828125,124.93876647949219,6.463592529296875,164.0259552001953
1772548039578512600,3.9265126953125,125.09970092773438,6.5117034912109375,163.9656982421875
1772548039588619800,3.936619873046875,124.82066345214844,6.394134521484375,164.0978240966797
1772548039598724900,3.946724853515625,125.1884765625,6.4827728271484375,164.1813507080078
1772548039608829700,3.95682958984375,124.97940063476562,6.4189605712890625,164.19070434570312
1772548039618936800,3.966936767578125,124.8941650390625,6.3809661865234375,164.14356994628906
1772548039629044700,3.977044677734375,124.98658752441406,6.7594451904296875,164.10342407226562
1772548039639153700,3.987153564453125,125.12477111816406,6.6489105224609375,163.95184326171875
1772548039649261800,3.99726171875,124.96929931640625,6.94677734375,163.82386779785156
1772548039659369700,4.00736962890625,125.25021362304688,6.7248992919921875,164.24102783203125
1772548039669477600,4.0174775390625,124.69268798828125,6.6558380126953125,164.11839294433594
1772548039679584800,4.027584716796875,125.00555419921875,6.47467041015625,164.26426696777344
1772548039689692700,4.037692626953125,125.00273132324219,6.4886932373046875,164.1518096923828
1772548039699800800,4.04780078125,125.25581359863281,6.8773040771484375,164.1989288330078
1772548039709909800,4.05790966796875,125.23681640625,6.8581390380859375,164.16636657714844
1772548039720016600,4.0680166015625,124.94174194335938,6.430572509765625,164.16844177246094
1772548039730124800,4.078124755859375,125.248046875,6.548095703125,164.1949920654297
1772548039740232700,4.088232666015625,125.03471374511719,6.770721435546875,164.09730529785156
1772548039750339800,4.09833984375,125.20062255859375,6.8964691162109375,164.19952392578125
1772548039760448800,4.10844873046875,125.0985107421875,6.9434661865234375,164.075439453125
1772548039770556700,4.118556640625,125.05215454101562,7.223907470703125,164.09417724609375
1772548039780664600,4.12866455078125,125.23245239257812,6.894866943359375,164.19033813476562
1772548039790772700,4.138772705078125,125.30429077148438,7.0035552978515625,163.8700408935547
1772548039800880600,4.148880615234375,124.90760803222656,6.8278656005859375,164.30433654785156
1772548039810988500,4.158988525390625,125.16177368164062,6.955169677734375,163.92843627929688
1772548039821097000,4.169096923828125,125.16526794433594,6.9236907958984375,163.88735961914062
1772548039831204900,4.179204833984375,125.2952880859375,6.9400177001953125,163.81423950195312
1772548039841314800,4.189314697265625,125.48231506347656,6.80078125,163.7864227294922
1772548039851422700,4.199422607421875,125.81031799316406,6.7498931884765625,163.973388671875
1772548039861531000,4.20953076171875,125.60098266601562,6.4988250732421875,163.77099609375
1772548039871638800,4.219638671875,125.37928771972656,6.7618560791015625,163.58914184570312
1772548039881746000,4.229745849609375,125.95292663574219,6.505523681640625,163.93063354492188
1772548039891851800,4.239851806640625,125.95201110839844,6.54010009765625,164.00364685058594
1772548039901957600,4.24995751953125,125.68885803222656,6.851226806640625,163.96986389160156
1772548039912064800,4.260064697265625,125.72740173339844,6.7280120849609375,164.31947326660156
1772548039922172700,4.270172607421875,125.01422119140625,7.0355987548828125,164.14276123046875
1772548039932278800,4.28027880859375,124.71311950683594,7.1260223388671875,164.52471923828125
1772548039942387000,4.290386962890625,124.50794982910156,7.028717041015625,164.90444946289062
1772548039952493600,4.30049365234375,124.23588562011719,6.9814910888671875,164.71055603027344
1772548039962599700,4.310599609375,123.7440185546875,7.0660858154296875,164.9092254638672
1772548039972705800,4.320705810546875,123.75588989257812,7.207672119140625,164.85211181640625
1772548039982813000,4.33081298828125,124.06599426269531,7.15521240234375,165.0823516845703
1772548039992918800,4.340918701171875,124.13029479980469,7.00946044921875,165.09732055664062
1772548040003026700,4.351026611328125,124.12539672851562,7.1175689697265625,164.93496704101562
1772548040013133800,4.3611337890625,124.54698181152344,7.2893524169921875,164.68417358398438
1772548040023240700,4.37124072265625,124.6026611328125,6.918731689453125,164.72439575195312
1772548040033347800,4.381347900390625,124.64640808105469,7.118927001953125,164.68695068359375
1772548040043453700,4.39145361328125,124.93206787109375,6.930877685546875,164.64321899414062
1772548040053561600,4.4015615234375,124.80023193359375,6.83160400390625,164.60946655273438
1772548040063669800,4.411669677734375,125.29653930664062,6.6475830078125,164.28176879882812
1772548040073776600,4.421776611328125,125.1080322265625,6.4637298583984375,164.35121154785156
1772548040083884800,4.431884765625,124.56045532226562,6.4426422119140625,164.29417419433594
1772548040093993700,4.44199365234375,125.04844665527344,6.0623931884765625,164.24365234375
1772548040104100600,4.4521005859375,124.97637939453125,6.300262451171875,163.86196899414062
1772548040114207700,4.462207763671875,124.93315124511719,5.91571044921875,164.11727905273438
1772548040124315600,4.472315673828125,125.19952392578125,6.086639404296875,163.86219787597656
1772548040134422800,4.4824228515625,125.68130493164062,6.04229736328125,164.20069885253906
1772548040144530000,4.492530029296875,125.2158203125,6.1074371337890625,163.8967742919922
1772548040154636800,4.50263671875,125.63067626953125,6.2376251220703125,163.87799072265625
1772548040164743700,4.51274365234375,125.42170715332031,6.42218017578125,163.97105407714844
1772548040174852900,4.522852783203125,125.44535827636719,6.179595947265625,163.76138305664062
1772548040184960000,4.5329599609375,125.72607421875,6.3872833251953125,163.97113037109375
1772548040195066600,4.543066650390625,125.323486328125,6.0099639892578125,163.88482666015625
1772548040205174800,4.5531748046875,124.90562438964844,6.0305328369140625,163.76528930664062
1772548040215282700,4.56328271484375,125.16273498535156,5.8906097412109375,163.86328125
1772548040225391900,4.573391845703125,125.40892028808594,6.19354248046875,163.74163818359375
1772548040235499800,4.583499755859375,125.5213623046875,6.288848876953125,163.78118896484375
1772548040245608700,4.593608642578125,125.34126281738281,6.542236328125,163.80392456054688
1772548040255716900,4.603716796875,125.08378601074219,6.2696075439453125,163.94468688964844
1772548040265825800,4.61382568359375,125.04656982421875,6.136962890625,164.09413146972656
1772548040275933700,4.62393359375,124.79449462890625,6.3408050537109375,163.99334716796875
1772548040286041900,4.634041748046875,124.68386840820312,6.1869049072265625,163.9635009765625
1772548040296148700,4.644148681640625,124.45623779296875,6.3496856689453125,164.2532501220703
1772548040306257700,4.654257568359375,123.86141967773438,6.0345458984375,164.2630157470703
1772548040316363800,4.66436376953125,124.04165649414062,5.9540557861328125,164.29444885253906
1772548040326471700,4.6744716796875,124.28134155273438,6.0506134033203125,164.6153106689453
1772548040336578800,4.684578857421875,123.92277526855469,6.5262451171875,164.05984497070312
1772548040346686000,4.69468603515625,124.02345275878906,6.5014495849609375,164.2275848388672
1772548040356792600,4.70479248046875,124.20339965820312,6.4796600341796875,164.19412231445312
1772548040366900700,4.714900634765625,124.34182739257812,6.6383056640625,164.22760009765625
1772548040377006800,4.7250068359375,124.48965454101562,6.9060211181640625,164.27798461914062
1772548040387114800,4.73511474609375,124.70793151855469,6.6877288818359375,164.4862823486328
1772548040397220900,4.745220947265625,124.35910034179688,6.9373931884765625,164.36471557617188
1772548040407328000,4.755327880859375,124.62303161621094,6.8046112060546875,164.37844848632812
1772548040417432800,4.765432861328125,124.90986633300781,7.2246856689453125,164.34544372558594
1772548040427540700,4.775540771484375,124.79582214355469,7.0997314453125,164.1398162841797
1772548040437646800,4.785646728515625,124.79551696777344,7.175018310546875,164.28656005859375
1772548040447753700,4.795753662109375,124.83309936523438,7.01959228515625,164.13262939453125
1772548040457859800,4.80585986328125,124.70722961425781,6.987060546875,164.23684692382812
1772548040467966700,4.815966796875,124.56228637695312,7.226715087890625,164.4757537841797
1772548040478072800,4.82607275390625,124.44976806640625,7.02423095703125,164.39178466796875
1772548040488179700,4.8361796875,124.1802978515625,6.8349151611328125,164.3954315185547
1772548040498286800,4.846286865234375,124.16847229003906,6.8473663330078125,164.485595703125
1772548040508393700,4.856393798828125,123.64739990234375,6.635406494140625,164.5304412841797
1772548040518500900,4.8665009765625,124.25759887695312,6.7889556884765625,164.68711853027344
1772548040528607700,4.876607666015625,124.18911743164062,6.9181365966796875,164.34210205078125
1772548040538715000,4.88671484375,124.03428649902344,6.6407928466796875,164.36712646484375
1772548040548821800,4.89682177734375,124.224609375,6.58160400390625,164.6569366455078
1772548040558929700,4.9069296875,123.98329162597656,6.58001708984375,164.47996520996094
1772548040569038800,4.917038818359375,123.93316650390625,6.4899749755859375,164.63372802734375
1772548040579144700,4.927144775390625,123.88386535644531,6.5118560791015625,164.7353515625
1772548040589252600,4.937252685546875,123.41181945800781,6.47332763671875,164.7772674560547
1772548040599359700,4.94735986328125,123.13900756835938,6.5767059326171875,164.85891723632812
1772548040609467600,4.957467529296875,123.48301696777344,6.67755126953125,165.0025634765625
1772548040619575800,4.967575927734375,123.49894714355469,6.7433624267578125,164.80865478515625
1772548040629682700,4.9776826171875,123.56765747070312,6.681884765625,164.8768768310547
1772548040639789800,4.987789794921875,123.84089660644531,7.059722900390625,164.6882781982422
1772548040649897700,4.997897705078125,123.92652893066406,7.14501953125,164.86317443847656
1772548040660004900,5.0080048828125,124.46356201171875,7.0285491943359375,164.9261474609375
1772548040670112000,5.018112060546875,123.64791870117188,7.0245513916015625,164.69296264648438
1772548040680217900,5.0282177734375,124.0799560546875,6.9456787109375,164.7249298095703
1772548040690324700,5.03832470703125,123.970947265625,6.85125732421875,164.74197387695312
1772548040700432000,5.048431884765625,124.20767211914062,7.162078857421875,164.71624755859375
1772548040710537700,5.058537841796875,124.47137451171875,7.069580078125,164.7297821044922
1772548040720645600,5.068645751953125,124.103271484375,7.248992919921875,164.66172790527344
1772548040730752800,5.078752685546875,123.99043273925781,7.0511016845703125,164.9463653564453
1772548040740860700,5.088860595703125,123.65977478027344,7.1611175537109375,164.77362060546875
1772548040750967800,5.0989677734375,123.79196166992188,6.9895477294921875,164.9978790283203
1772548040761074700,5.10907470703125,123.00956726074219,6.9398651123046875,164.94735717773438
1772548040771182800,5.119182861328125,122.77629089355469,6.9042510986328125,165.29855346679688
1772548040781291800,5.129291748046875,122.36419677734375,6.678924560546875,165.1501007080078
1772548040791399700,5.139399658203125,122.09263610839844,6.6378936767578125,165.28367614746094
1772548040801505800,5.149505859375,122.12495422363281,6.6105194091796875,165.63006591796875
1772548040811613000,5.159613037109375,122.23774719238281,6.432373046875,165.53033447265625
1772548040821719800,5.1697197265625,121.9356689453125,6.819183349609375,165.50743103027344
1772548040831828000,5.179827880859375,121.839111328125,6.802978515625,165.57199096679688
1772548040841934600,5.1899345703125,122.24745178222656,6.8754119873046875,165.75994873046875
1772548040852041700,5.200041748046875,122.21113586425781,6.906829833984375,165.7516326904297
1772548040862148900,5.21014892578125,122.221435546875,6.921905517578125,165.56060791015625
1772548040872256800,5.2202568359375,122.29447937011719,6.9501495361328125,165.72547912597656
1772548040882364000,5.230364013671875,122.52359008789062,7.108642578125,165.6822509765625
1772548040892471800,5.240471923828125,122.37905883789062,6.984527587890625,165.4939727783203
1772548040902579000,5.250578857421875,122.7598876953125,6.8404998779296875,165.59548950195312
1772548040912684800,5.260684814453125,122.87873840332031,7.0377655029296875,165.5732879638672
1772548040922792700,5.270792724609375,123.03221130371094,6.945770263671875,165.32257080078125
1772548040932899800,5.28089990234375,123.53352355957031,6.898529052734375,165.31729125976562
1772548040943007700,5.2910078125,123.63607788085938,6.9241180419921875,165.39532470703125
1772548040953115600,5.30111572265625,124.0118408203125,7.2203826904296875,165.03253173828125
1772548040963223800,5.311223876953125,124.59408569335938,7.20654296875,165.00146484375
1772548040973330700,5.32133056640625,124.49250793457031,7.135162353515625,164.87435913085938
1772548040983436800,5.331436767578125,124.74400329589844,7.246307373046875,164.7569122314453
1772548040993544700,5.341544677734375,125.02523803710938,7.212890625,164.97869873046875
1772548041003651800,5.35165185546875,124.60287475585938,7.2588958740234375,164.66232299804688
1772548041013759700,5.361759765625,124.31092834472656,7.080718994140625,164.76858520507812
1772548041023867000,5.371866943359375,124.26077270507812,7.107635498046875,164.56045532226562
1772548041033974800,5.381974853515625,123.95355224609375,6.7056427001953125,164.77435302734375
1772548041044083000,5.3920830078125,124.20625305175781,6.8429412841796875,164.71554565429688
1772548041054189600,5.402189453125,123.78157043457031,6.786468505859375,164.58909606933594
1772548041064296700,5.412296630859375,123.71371459960938,6.6932830810546875,164.55508422851562
1772548041074402800,5.42240283203125,123.72023010253906,6.8470916748046875,164.40704345703125
1772548041084510000,5.432510009765625,123.73977661132812,6.5439300537109375,164.58258056640625
1772548041094615800,5.44261572265625,123.40023803710938,6.4697113037109375,164.47610473632812
1772548041104721700,5.4527216796875,123.652099609375,6.1011962890625,164.4742431640625
1772548041114827500,5.46282763671875,123.15248107910156,6.0128326416015625,164.32296752929688
1772548041124933400,5.472933349609375,123.20028686523438,5.9087982177734375,164.3598175048828
1772548041135037400,5.483037353515625,123.56204223632812,6.0290679931640625,164.6975860595703
1772548041145142500,5.493142578125,123.21354675292969,6.022430419921875,164.3894805908203
1772548041155248600,5.50324853515625,122.58522033691406,6.0785064697265625,164.45339965820312
1772548041165354500,5.5133544921875,122.78660583496094,6.2696533203125,164.47512817382812
1772548041175460600,5.523460693359375,123.11985778808594,6.201141357421875,164.49586486816406
1772548041185564400,5.533564453125,123.46145629882812,6.507598876953125,164.64735412597656
1772548041195668500,5.54366845703125,123.56642150878906,6.6764984130859375,164.47708129882812
1772548041205773600,5.553773681640625,123.61494445800781,6.8475799560546875,164.48670959472656
1772548041215877600,5.563877685546875,123.79093933105469,7.067047119140625,164.543701171875
1772548041225982500,5.573982421875,123.78207397460938,7.12982177734375,164.48583984375
1772548041236089300,5.58408935546875,123.83363342285156,7.161956787109375,164.4626007080078
1772548041246195500,5.594195556640625,124.10519409179688,7.134552001953125,164.1757049560547
1772548041256302600,5.604302490234375,124.2938232421875,6.88848876953125,164.17344665527344
1772548041266409700,5.61440966796875,124.49833679199219,6.9608154296875,163.9377899169922
1772548041276516400,5.624516357421875,125.14784240722656,6.9324951171875,164.00650024414062
1772548041286624500,5.63462451171875,125.42544555664062,6.9575042724609375,163.7738800048828
1772548041296731400,5.6447314453125,125.40577697753906,6.967315673828125,163.79879760742188
1772548041306840300,5.65484033203125,125.99624633789062,7.1302490234375,163.51345825195312
1772548041316948500,5.664948486328125,125.54652404785156,7.024566650390625,163.5644989013672
1772548041327055400,5.675055419921875,125.83665466308594,6.8653411865234375,163.9009552001953
1772548041337163500,5.68516357421875,125.42466735839844,6.9570465087890625,163.92385864257812
1772548041347270400,5.6952705078125,125.13563537597656,7.24420166015625,163.6985626220703
1772548041357378600,5.705378662109375,125.16596984863281,7.3969573974609375,163.91754150390625
1772548041367485400,5.7154853515625,124.65995788574219,7.82391357421875,164.1700897216797
1772548041377593600,5.725593505859375,124.48822021484375,7.996490478515625,164.13217163085938
1772548041387701500,5.735701416015625,124.16361999511719,7.991546630859375,164.133056640625
1772548041397810400,5.745810546875,123.8291015625,8.105560302734375,164.11094665527344
1772548041407919600,5.755919677734375,124.0406494140625,7.9880523681640625,164.08290100097656
1772548041418026500,5.766026611328125,124.3980712890625,7.714141845703125,164.1238250732422
1772548041428134400,5.776134521484375,124.55244445800781,7.73687744140625,163.84861755371094
1772548041438241500,5.786241455078125,124.65802001953125,7.6853485107421875,163.79483032226562
1772548041448348400,5.796348388671875,124.9918212890625,7.6739959716796875,163.7978057861328
1772548041458457300,5.806457275390625,124.69956970214844,7.7220306396484375,163.7581787109375
1772548041468564500,5.816564453125,124.93022155761719,7.758453369140625,164.10256958007812
1772548041478672400,5.82667236328125,124.52586364746094,7.58709716796875,164.01039123535156
1772548041488779500,5.836779541015625,124.53770446777344,7.477630615234375,163.97474670410156
1772548041498886700,5.84688671875,124.20925903320312,7.7054595947265625,164.05247497558594
1772548041508993500,5.85699365234375,124.23837280273438,7.709136962890625,164.17855834960938
1772548041519098600,5.8670986328125,123.46290588378906,7.8883514404296875,164.2760772705078
1772548041529205500,5.87720556640625,123.75515747070312,7.693328857421875,164.18179321289062
1772548041539311600,5.8873115234375,123.80949401855469,7.74346923828125,164.17633056640625
1772548041549418500,5.89741845703125,123.71588134765625,7.754180908203125,164.31324768066406
1772548041559526400,5.9075263671875,123.99273681640625,7.80462646484375,164.3454132080078
1772548041569634600,5.917634521484375,123.81990051269531,7.7484283447265625,164.12449645996094
1772548041579744500,5.92774462890625,123.88700866699219,7.6345977783203125,164.50367736816406
1772548041589852700,5.937852783203125,123.2947998046875,7.62579345703125,164.2080841064453
1772548041599960600,5.947960693359375,124.04515075683594,8.034881591796875,164.2455291748047
1772548041610068500,5.958068359375,123.9998779296875,7.8597259521484375,164.57266235351562
1772548041620174600,5.968174560546875,123.86613464355469,7.9724578857421875,164.51535034179688
1772548041630281500,5.978281494140625,123.82992553710938,7.8954620361328125,164.39691162109375
1772548041640389400,5.988389404296875,123.55474853515625,7.9674835205078125,164.14801025390625
1772548041650496500,5.99849658203125,123.94047546386719,7.9404449462890625,164.17115783691406
1772548041660605400,6.00860546875,124.15101623535156,8.080429077148438,164.44883728027344
1772548041670712600,6.018712646484375,123.89089965820312,8.239791870117188,164.24203491210938
1772548041680820500,6.028820556640625,124.00775146484375,8.261474609375,164.40945434570312
1772548041690928400,6.038928466796875,123.72203063964844,8.062820434570312,164.3131561279297
1772548041701037600,6.04903759765625,123.73551940917969,8.31695556640625,164.24127197265625
1772548041711145700,6.059145751953125,123.88369750976562,8.10009765625,164.437744140625
1772548041721255400,6.06925537109375,123.46527099609375,8.106216430664062,164.22940063476562
1772548041731364600,6.079364501953125,123.43756103515625,8.182357788085938,164.28530883789062
1772548041741473500,6.0894736328125,123.38092041015625,8.200469970703125,164.1650848388672
1772548041751582700,6.099582763671875,123.49412536621094,8.37933349609375,164.39785766601562
1772548041761691600,6.109691650390625,123.46134948730469,8.506881713867188,164.07704162597656
1772548041771800600,6.119800537109375,123.61892700195312,8.4329833984375,164.1510467529297
1772548041781908500,6.129908447265625,123.5047607421875,8.615066528320312,164.19439697265625
1772548041792017400,6.140017333984375,123.2935791015625,8.4925537109375,164.21527099609375
1772548041802127600,6.150127685546875,123.82861328125,8.645156860351562,164.22972106933594
1772548041812236500,6.160236572265625,123.65878295898438,8.4755859375,164.11476135253906
1772548041822346500,6.170346435546875,123.75633239746094,8.695327758789062,164.14556884765625
1772548041832455700,6.18045556640625,123.82888793945312,8.822128295898438,164.04237365722656
1772548041842564600,6.190564697265625,123.70408630371094,8.758819580078125,163.95852661132812
1772548041852672500,6.200672607421875,124.10891723632812,8.766647338867188,164.1295623779297
1772548041862780700,6.21078076171875,123.73173522949219,8.756423950195312,163.89468383789062
1772548041872888600,6.220888671875,123.81990051269531,8.716232299804688,164.0598907470703
1772548041882996500,6.23099658203125,123.49951171875,8.837265014648438,163.9364471435547
1772548041893103600,6.241103515625,123.79006958007812,8.728302001953125,164.0456085205078
1772548041903211500,6.25121142578125,123.83770751953125,8.823837280273438,164.05821228027344
1772548041913319700,6.261319580078125,123.71717834472656,8.853591918945312,164.09799194335938
1772548041923427600,6.271427490234375,123.59925842285156,8.610076904296875,164.0514678955078
1772548041933534700,6.28153466796875,123.25889587402344,8.861221313476562,164.02256774902344
1772548041943641300,6.291641357421875,123.47525024414062,8.851699829101562,164.3123016357422
1772548041953749500,6.30174951171875,123.15925598144531,8.512359619140625,164.17501831054688
1772548041963858700,6.311858642578125,123.55848693847656,8.760711669921875,164.2292022705078
1772548041973966600,6.321966552734375,123.33799743652344,8.598785400390625,164.3455810546875
1772548041984074500,6.332074462890625,123.42512512207031,8.596160888671875,164.3473663330078
1772548041994182700,6.3421826171875,123.90800476074219,8.739974975585938,164.44451904296875
1772548042004290600,6.35229052734375,123.89512634277344,8.628662109375,164.4835205078125
1772548042014398500,6.3623984375,124.02667236328125,8.879409790039062,164.30824279785156
1772548042024505600,6.372505615234375,123.912109375,9.085281372070312,164.06910705566406
1772548042034613500,6.382613525390625,124.21844482421875,8.924591064453125,164.105224609375
1772548042044719400,6.39271923828125,124.51994323730469,8.744049072265625,164.21693420410156
1772548042054827500,6.40282763671875,124.37884521484375,8.668106079101562,164.02320861816406
1772548042064934400,6.412934326171875,124.23710632324219,8.589950561523438,164.20944213867188
1772548042075040500,6.42304052734375,124.35664367675781,8.925613403320312,164.17843627929688
1772548042085148700,6.433148681640625,124.5513916015625,8.765487670898438,164.3569793701172
1772548042095253500,6.44325341796875,124.39227294921875,8.740341186523438,164.18270874023438
1772548042105360400,6.4533603515625,124.23503112792969,8.49554443359375,164.29519653320312
1772548042115467500,6.463467529296875,124.2298583984375,8.450424194335938,164.31051635742188
1772548042125574700,6.47357470703125,124.08790588378906,8.47003173828125,164.23593139648438
1772548042135680500,6.483680419921875,124.57781982421875,8.231536865234375,164.42306518554688
1772548042145786600,6.49378662109375,124.15058898925781,8.229110717773438,164.18524169921875
1772548042155893500,6.5038935546875,123.93466186523438,7.8196563720703125,164.2564697265625
1772548042166000600,6.514000732421875,123.78878784179688,8.063003540039062,164.24696350097656
1772548042176107500,6.524107421875,123.53692626953125,7.9124755859375,164.1411895751953
1772548042186214400,6.53421435546875,123.35845947265625,7.5802764892578125,164.39137268066406
1772548042196322600,6.544322509765625,123.53634643554688,7.3922271728515625,164.12400817871094
1772548042206431700,6.554431640625,123.3592529296875,7.0243682861328125,164.27520751953125
1772548042216538400,6.564538330078125,123.26226806640625,7.35064697265625,164.056640625
1772548042226645500,6.5746455078125,123.63809204101562,7.2704925537109375,164.1916046142578
1772548042236752400,6.58475244140625,123.30274963378906,7.0353851318359375,164.09222412109375
1772548042246859500,6.594859619140625,123.37986755371094,6.9777069091796875,164.041259765625
1772548042256966700,6.604966552734375,123.30921936035156,6.9739837646484375,164.0487823486328
1772548042267073500,6.615073486328125,123.53012084960938,6.9449920654296875,164.13186645507812
1772548042277179400,6.625179443359375,123.6883544921875,6.749755859375,164.0491180419922
1772548042287287600,6.63528759765625,123.42811584472656,6.6460418701171875,164.11109924316406
1772548042297394400,6.64539453125,122.97270202636719,6.8095703125,163.95753479003906
1772548042307501600,6.65550146484375,123.3336181640625,6.708465576171875,164.157958984375
1772548042317608700,6.665608642578125,123.11354064941406,6.82470703125,164.13909912109375
1772548042327715600,6.675715576171875,123.49652099609375,6.712493896484375,164.21392822265625
1772548042337822500,6.685822509765625,122.97599792480469,6.7297821044921875,164.04957580566406
1772548042347931600,6.695931640625,123.02006530761719,6.8078460693359375,164.23731994628906
1772548042358038500,6.70603857421875,122.74636840820312,6.4766082763671875,164.2508087158203
1772548042368147700,6.716147705078125,122.92494201660156,6.6012420654296875,164.26194763183594
1772548042378254300,6.72625439453125,122.771240234375,6.5430145263671875,164.38194274902344
1772548042388362800,6.73636279296875,122.67236328125,6.5810546875,164.3993682861328
1772548042398469400,6.746469482421875,122.48703002929688,6.59637451171875,164.39195251464844
1772548042408578600,6.75657861328125,122.52326965332031,6.603363037109375,164.42967224121094
1772548042418686700,6.766686767578125,122.44537353515625,6.57122802734375,164.65451049804688
1772548042428794600,6.776794677734375,122.20425415039062,6.4722137451171875,164.7073211669922
1772548042438903600,6.786903564453125,122.0057373046875,6.188262939453125,164.89346313476562
1772548042449012500,6.797012451171875,122.237060546875,6.5105133056640625,164.9071807861328
1772548042459120600,6.80712060546875,122.12977600097656,6.5352630615234375,164.76861572265625
1772548042469227500,6.8172275390625,122.14506530761719,6.3621673583984375,165.00938415527344
1772548042479335400,6.82733544921875,121.84803771972656,6.330413818359375,164.87002563476562
1772548042489442600,6.837442626953125,121.73382568359375,6.3436279296875,164.9430694580078
1772548042499549700,6.8475498046875,121.73973083496094,6.1407012939453125,164.88912963867188
1772548042509656300,6.85765625,121.05470275878906,6.083770751953125,165.0614776611328
1772548042519764500,6.867764404296875,121.50492858886719,6.273712158203125,165.1495361328125
1772548042529871400,6.877871337890625,121.19511413574219,6.1973876953125,165.07308959960938
1772548042539979500,6.8879794921875,121.08158874511719,5.977020263671875,165.3184051513672
1772548042550086400,6.89808642578125,121.34500122070312,6.074249267578125,165.40721130371094
1772548042560192500,6.908192626953125,121.08161926269531,5.9716796875,165.59996032714844
1772548042570299600,6.918299560546875,120.63168334960938,5.9435577392578125,165.49893188476562
1772548042580406500,6.928406494140625,120.115478515625,5.9101715087890625,165.64865112304688
1772548042590513400,6.938513427734375,120.52444458007812,5.7397308349609375,165.6930694580078
1772548042600620500,6.94862060546875,120.01997375488281,5.6025848388671875,165.7903594970703
1772548042610729500,6.9587294921875,120.26405334472656,5.8120269775390625,166.06153869628906
1772548042620836600,6.968836669921875,119.81843566894531,6.098419189453125,165.9153289794922
1772548042630944500,6.978944580078125,119.69970703125,5.948455810546875,165.81663513183594
1772548042641052400,6.989052490234375,119.03756713867188,5.776824951171875,166.05734252929688
1772548042651159600,6.99915966796875,118.88760375976562,6.011993408203125,166.16787719726562
1772548042661267500,7.009267333984375,118.89382934570312,5.93695068359375,166.4645233154297
1772548042671373600,7.01937353515625,118.62734985351562,6.224365234375,166.3062286376953
1772548042681479400,7.0294794921875,118.57379150390625,6.1614532470703125,166.52244567871094
1772548042691587300,7.03958740234375,118.50144958496094,6.025543212890625,166.69223022460938
1772548042701695500,7.049695556640625,118.15678405761719,6.161163330078125,166.76339721679688
1772548042711802400,7.05980224609375,118.08589172363281,5.9155120849609375,167.08209228515625
1772548042721909500,7.069909423828125,117.70986938476562,6.443359375,166.82098388671875
1772548042732017400,7.080017333984375,117.86000061035156,6.3268585205078125,167.1943817138672
1772548042742123500,7.09012353515625,117.69676208496094,6.227020263671875,167.16781616210938
1772548042752231700,7.100231689453125,117.75236511230469,6.3927764892578125,167.34683227539062
1772548042762338600,7.110338623046875,117.0753173828125,6.461334228515625,167.248046875
1772548042772446700,7.12044677734375,116.84336853027344,6.264251708984375,167.3817901611328
1772548042782554600,7.1305546875,116.98698425292969,6.25927734375,167.34840393066406
1772548042792663600,7.14066357421875,116.83589172363281,6.535491943359375,167.31463623046875
1772548042802770700,7.150770751953125,117.02470397949219,6.223358154296875,167.60494995117188
1772548042812878600,7.160878662109375,116.79229736328125,6.6189727783203125,167.3383331298828
1772548042822985500,7.1709853515625,116.76905822753906,6.2559661865234375,167.38258361816406
1772548042833094700,7.1810947265625,116.27577209472656,6.399627685546875,167.37696838378906
1772548042843202600,7.19120263671875,116.76617431640625,6.5498199462890625,167.19949340820312
1772548042853310500,7.201310546875,116.67362976074219,6.6817169189453125,167.25498962402344
1772548042863418600,7.211418701171875,116.47882080078125,6.2825775146484375,167.2217254638672
1772548042873526500,7.221526611328125,116.51246643066406,6.4381256103515625,167.127197265625
1772548042883633700,7.231633544921875,116.46809387207031,6.3548583984375,167.28610229492188
1772548042893740300,7.241740234375,116.98512268066406,6.6847381591796875,167.2510223388672
1772548042903846400,7.251846435546875,116.84153747558594,6.531494140625,166.98956298828125
1772548042913954600,7.26195458984375,116.92236328125,6.605133056640625,167.0527801513672
1772548042924062500,7.2720625,117.13272094726562,6.5623626708984375,166.9649200439453
1772548042934170400,7.28217041015625,117.16166687011719,6.7658233642578125,166.9249725341797
1772548042944279600,7.292279541015625,117.23289489746094,6.833465576171875,166.99020385742188
1772548042954386400,7.302386474609375,116.93708801269531,6.82501220703125,166.78488159179688
1772548042964493600,7.31249365234375,117.43435668945312,6.90826416015625,166.62997436523438
1772548042974601500,7.3226015625,117.64947509765625,6.9213714599609375,166.7041778564453
1772548042984708600,7.33270849609375,117.69406127929688,7.0989990234375,166.50930786132812
1772548042994817500,7.342817626953125,117.86331176757812,7.2910919189453125,166.44320678710938
1772548043004926500,7.352926513671875,118.0657958984375,7.5856781005859375,166.5131378173828
1772548043015035600,7.36303564453125,117.66737365722656,7.5999908447265625,166.4699249267578
1772548043025142500,7.373142578125,118.19589233398438,7.597747802734375,166.47479248046875
1772548043035250400,7.38325048828125,117.96617126464844,7.7625885009765625,166.3154754638672
1772548043045357600,7.393357666015625,118.36865234375,7.6511688232421875,166.175537109375
1772548043055466500,7.403466552734375,118.29000854492188,7.63116455078125,166.13079833984375
1772548043065573400,7.413573486328125,118.52546691894531,7.71038818359375,165.97232055664062
1772548043075681500,7.423681640625,118.34393310546875,7.6394195556640625,165.94052124023438
1772548043085788400,7.433788330078125,118.50238037109375,7.7946624755859375,165.8743133544922
1772548043095896600,7.443896484375,118.64686584472656,7.8018341064453125,165.6156005859375
1772548043106002700,7.454002685546875,118.63421630859375,7.8817901611328125,165.54312133789062
1772548043116115000,7.464114990234375,118.60926818847656,7.9531402587890625,165.46734619140625
1772548043126222800,7.474222900390625,118.54653930664062,7.953094482421875,165.26901245117188
1772548043136331800,7.484331787109375,118.6583251953125,8.24981689453125,165.57664489746094
1772548043146442000,7.49444189453125,118.4024658203125,8.2830810546875,165.57623291015625
1772548043156551000,7.504551025390625,118.473388671875,8.309738159179688,165.54786682128906
1772548043166659800,7.514659912109375,118.58340454101562,8.658096313476562,165.536865234375
1772548043176767700,7.524767822265625,118.51718139648438,8.674636840820312,165.7195587158203
1772548043186875000,7.534875,118.78128051757812,8.629379272460938,165.80950927734375
1772548043196982000,7.54498193359375,118.75849914550781,8.761993408203125,165.6957244873047
1772548043207088600,7.555088623046875,118.34271240234375,8.782073974609375,165.70114135742188
1772548043217196800,7.56519677734375,118.61019897460938,8.78570556640625,165.66973876953125
1772548043227305000,7.575304931640625,118.62664794921875,8.792556762695312,165.52940368652344
1772548043237412900,7.585412841796875,118.18515014648438,8.777908325195312,165.3942413330078
1772548043247521800,7.595521728515625,118.69398498535156,8.754074096679688,165.3910369873047
1772548043257630000,7.6056298828125,118.57365417480469,8.5810546875,165.2979736328125
1772548043267736800,7.61573681640625,118.61680603027344,8.591552734375,165.14125061035156
1772548043277845000,7.625844970703125,118.74501037597656,8.80657958984375,165.12144470214844
1772548043287953000,7.635952880859375,118.77413940429688,8.82177734375,165.06251525878906
1772548043298061800,7.646061767578125,118.874267578125,8.684738159179688,164.94383239746094
1772548043308169700,7.656169677734375,118.93998718261719,8.61309814453125,164.91693115234375
1772548043318278000,7.66627783203125,118.84622192382812,8.565658569335938,164.85882568359375
1772548043328385800,7.6763857421875,119.17118835449219,8.501846313476562,164.9630889892578
1772548043338493000,7.686492919921875,118.74700927734375,8.586654663085938,164.63111877441406
1772548043348600800,7.696600830078125,119.10214233398438,8.4417724609375,164.52163696289062
1772548043358709800,7.706709716796875,119.05807495117188,8.594512939453125,164.47096252441406
1772548043368818700,7.716818603515625,119.5562744140625,8.152801513671875,164.6395263671875
1772548043378926800,7.7269267578125,119.51254272460938,8.403518676757812,164.18215942382812
1772548043389034800,7.73703466796875,119.40231323242188,8.370941162109375,163.98471069335938
1772548043399142700,7.747142578125,119.879150390625,8.365371704101562,164.2686309814453
1772548043409250800,7.757250732421875,119.69905090332031,8.52508544921875,163.94598388671875
1772548043419358700,7.767358642578125,120.033935546875,8.818161010742188,164.07803344726562
1772548043429466600,7.777466552734375,119.95854187011719,8.734359741210938,163.8653564453125
1772548043439575800,7.787575927734375,120.11045837402344,8.666580200195312,163.7200927734375
1772548043449684000,7.79768408203125,120.10238647460938,8.825057983398438,163.58323669433594
1772548043459793000,7.80779296875,120.23985290527344,8.677108764648438,163.5330047607422
1772548043469900800,7.81790087890625,120.43678283691406,8.568618774414062,163.56729125976562
1772548043480009000,7.828009033203125,120.60801696777344,8.607330322265625,163.51751708984375
1772548043490114800,7.83811474609375,120.40892028808594,8.46453857421875,163.4205780029297
1772548043500221700,7.8482216796875,120.58430480957031,8.592117309570312,163.15411376953125
1772548043510329600,7.85832958984375,120.53616333007812,8.50555419921875,163.16238403320312
1772548043520435700,7.868435791015625,120.75962829589844,8.507125854492188,162.9894256591797
1772548043530542800,7.87854296875,120.775634765625,8.263473510742188,163.08636474609375
1772548043540650800,7.888650634765625,121.2069091796875,8.238006591796875,163.03799438476562
1772548043550759000,7.898759033203125,120.92774963378906,8.472763061523438,162.90380859375
1772548043560867800,7.908867919921875,121.04978942871094,8.426162719726562,162.71975708007812
1772548043570976800,7.918976806640625,121.04072570800781,8.324050903320312,162.75254821777344
1772548043581084700,7.929084716796875,121.13409423828125,8.38067626953125,163.01553344726562
1772548043591192800,7.93919287109375,120.97859191894531,8.377456665039062,162.75033569335938
1772548043601300700,7.94930078125,121.37265014648438,8.574905395507812,162.66851806640625
1772548043611410000,7.959409912109375,121.26608276367188,8.57098388671875,162.86146545410156
1772548043621517800,7.969517822265625,121.20124816894531,8.423812866210938,162.6386260986328
1772548043631625000,7.979625,121.20198059082031,8.526504516601562,162.64642333984375
1772548043641732900,7.98973291015625,121.17201232910156,8.49676513671875,162.6441192626953
1772548043651841800,7.999841796875,121.19219970703125,8.486343383789062,162.6998748779297
1772548043661950000,8.009949951171874,120.94760131835938,8.597061157226562,162.84878540039062
1772548043672057900,8.020057861328125,121.10499572753906,8.604873657226562,162.76141357421875
1772548043682166800,8.030166748046875,120.96908569335938,8.91534423828125,162.73446655273438
1772548043692275700,8.040275634765624,120.77067565917969,8.660202026367188,162.820068359375
1772548043702384600,8.050384521484375,120.84135437011719,8.671920776367188,162.8534393310547
1772548043712492800,8.060492919921876,120.65116882324219,8.708053588867188,162.7666473388672
1772548043722601000,8.07060107421875,120.68524169921875,8.630340576171875,162.72772216796875
1772548043732708900,8.080708984375,120.32972717285156,8.572311401367188,162.8308868408203
1772548043742817000,8.090817138671875,120.8138427734375,8.655319213867188,162.92869567871094
1772548043752926000,8.100926025390624,120.81108093261719,8.448928833007812,163.2332763671875
1772548043763035000,8.111034912109375,120.40457153320312,8.619384765625,162.79920959472656
1772548043773142800,8.121142822265625,120.2432861328125,8.48065185546875,162.88800048828125
1772548043783252700,8.131252685546874,120.08529663085938,8.706329345703125,163.03631591796875
1772548043793360600,8.141360595703125,119.81231689453125,8.504180908203125,163.21376037597656
1772548043803469800,8.1514697265625,119.93000793457031,8.777145385742188,163.3118438720703
1772548043813578000,8.161577880859374,119.83551025390625,8.532669067382812,163.1954345703125
1772548043823686000,8.171685791015625,119.35174560546875,8.697174072265625,163.3583984375
1772548043833793800,8.181793701171875,119.27922058105469,8.8492431640625,163.44480895996094
1772548043843901000,8.19190087890625,119.56794738769531,9.161270141601562,163.32997131347656
1772548043854008800,8.2020087890625,119.27568054199219,8.75701904296875,163.61050415039062
1772548043864115700,8.21211572265625,119.00970458984375,8.892776489257812,163.54995727539062
1772548043874223600,8.2222236328125,118.8253173828125,8.768341064453125,163.73533630371094
1772548043884330800,8.232330810546875,118.75480651855469,8.919509887695312,163.70814514160156
1772548043894436900,8.242436767578125,118.79524230957031,8.892318725585938,163.9912567138672
1772548043904544000,8.2525439453125,118.08685302734375,9.125564575195312,163.98716735839844
1772548043914651000,8.26265087890625,117.87284851074219,9.064773559570312,163.98904418945312
1772548043924758800,8.2727587890625,118.15766906738281,9.030838012695312,164.20562744140625
1772548043934867000,8.282866943359375,117.94248962402344,9.092910766601562,164.34779357910156
1772548043944973800,8.292973876953125,118.06892395019531,9.1676025390625,164.4825897216797
1772548043955082000,8.30308203125,117.79408264160156,9.218185424804688,164.3781280517578
1772548043965188900,8.31318896484375,117.56094360351562,9.236663818359375,164.37203979492188
1772548043975296800,8.323296875,117.38595581054688,9.061019897460938,164.4100341796875
1772548043985404700,8.33340478515625,116.98565673828125,8.770660400390625,164.48992919921875
1772548043995511800,8.34351171875,117.01210021972656,8.928421020507812,164.50729370117188
1772548044005618700,8.35361865234375,116.90309143066406,8.690597534179688,164.49635314941406
1772548044015725800,8.363725830078126,116.90049743652344,8.671401977539062,164.57066345214844
1772548044025832000,8.37383203125,116.67874145507812,8.5634765625,164.5587615966797
1772548044035937800,8.383937744140624,116.11651611328125,8.61749267578125,164.73678588867188
1772548044046044000,8.3940439453125,115.85165405273438,8.389175415039062,164.747314453125
1772548044056151800,8.40415185546875,115.7838134765625,8.287399291992188,164.9586944580078
1772548044066259000,8.414259033203125,115.633056640625,8.248977661132812,165.05355834960938
1772548044076365800,8.42436572265625,114.91093444824219,8.025527954101562,164.9676055908203
1772548044086473700,8.4344736328125,115.445068359375,7.7339324951171875,165.3538055419922
1772548044096579800,8.444579833984376,114.89056396484375,8.0865478515625,165.207763671875
1772548044106686700,8.454686767578124,114.75236511230469,8.281936645507812,165.13211059570312
1772548044116788000,8.4647880859375,114.231201171875,8.309890747070312,165.31358337402344
1772548044126894600,8.47489453125,114.5465087890625,8.243515014648438,165.6169891357422
1772548044137001700,8.485001708984376,114.18794250488281,8.122970581054688,165.82266235351562
1772548044147109600,8.495109619140624,113.68513488769531,8.154876708984375,165.93592834472656
1772548044157216800,8.505216796875,113.15679931640625,8.170654296875,166.3253631591797
1772548044167324000,8.515323974609375,113.29985046386719,8.16448974609375,166.4825897216797
1772548044177428700,8.5254287109375,113.191162109375,8.131149291992188,166.58555603027344
1772548044187534800,8.535534912109375,112.80216979980469,8.05865478515625,167.0140380859375
1772548044197639700,8.5456396484375,112.76890563964844,8.196792602539062,167.29885864257812
1772548044207746800,8.555746826171875,112.34988403320312,7.870880126953125,167.21182250976562
1772548044217853700,8.565853759765625,112.51278686523438,7.9492034912109375,167.3164520263672
1772548044227961900,8.5759619140625,112.49217224121094,7.7587127685546875,167.5615234375
1772548044238069800,8.58606982421875,112.05558776855469,7.6780853271484375,167.74136352539062
1772548044248177000,8.596177001953125,111.76152038574219,7.6820220947265625,167.82489013671875
1772548044258283800,8.60628369140625,111.57304382324219,7.2522735595703125,168.0865020751953
1772548044268391000,8.616390869140625,111.33448791503906,7.302490234375,168.31204223632812
1772548044278498800,8.626498779296876,111.65333557128906,7.17669677734375,168.526611328125
1772548044288606000,8.63660595703125,111.32850646972656,6.752227783203125,168.88360595703125
1772548044298712800,8.646712890625,111.01397705078125,7.0078125,168.8357696533203
1772548044308819700,8.65681982421875,110.80845642089844,6.8262176513671875,169.00538635253906
1772548044318926800,8.6669267578125,110.58616638183594,6.7216949462890625,169.18988037109375
1772548044329033000,8.677032958984375,110.41278076171875,6.569671630859375,169.1531982421875
1772548044339138800,8.687138916015625,110.7659912109375,6.4100341796875,169.67625427246094
1772548044349245700,8.69724560546875,110.34848022460938,5.86279296875,169.72169494628906
1772548044359352800,8.707352783203126,110.41143798828125,6.0033111572265625,169.6913299560547
1772548044369460000,8.7174599609375,110.22889709472656,5.8406524658203125,170.0500946044922
1772548044379565800,8.72756591796875,109.90228271484375,5.8517913818359375,170.23439025878906
1772548044389671000,8.7376708984375,109.41793823242188,5.6788787841796875,170.70945739746094
1772548044399777000,8.747777099609374,109.74531555175781,5.627349853515625,171.0943145751953
1772548044409883600,8.757883544921874,109.62605285644531,5.62860107421875,171.30796813964844
1772548044419990800,8.76799072265625,109.61512756347656,5.713043212890625,171.83677673339844
1772548044430098000,8.778097900390625,109.24606323242188,5.843719482421875,171.87301635742188
1772548044440202800,8.78820263671875,109.01380920410156,5.5826263427734375,171.99447631835938
1772548044450309600,8.7983095703125,109.22137451171875,5.563507080078125,172.4264678955078
1772548044460416800,8.808416748046875,109.21464538574219,5.358154296875,172.6328125
1772548044470523000,8.81852294921875,108.96527099609375,5.235382080078125,173.02684020996094
1772548044480628700,8.828628662109375,108.8731689453125,5.487762451171875,172.9704132080078
1772548044490734800,8.83873486328125,108.6768798828125,5.0958099365234375,173.51132202148438
1772548044500842000,8.848842041015626,108.78718566894531,5.1206817626953125,174.03990173339844
1772548044510948900,8.858948974609374,108.40849304199219,4.966583251953125,174.33181762695312
1772548044521053700,8.8690537109375,108.84773254394531,4.54046630859375,174.74591064453125
1772548044531159800,8.879159912109374,108.46266174316406,4.265167236328125,175.09983825683594
1772548044541265700,8.889265625,108.61244201660156,3.8638763427734375,175.38967895507812
1772548044551370800,8.899370849609374,108.39958190917969,3.733245849609375,175.643798828125
1772548044561476600,8.9094765625,108.30783081054688,3.334686279296875,176.0486602783203
1772548044571582000,8.91958203125,108.34782409667969,2.7632904052734375,176.0498504638672
1772548044581687800,8.929687744140624,108.11778259277344,2.344146728515625,176.24085998535156
1772548044591793700,8.939793701171874,107.81678771972656,1.837310791015625,176.0719451904297
1772548044601900800,8.94990087890625,108.16580200195312,1.04461669921875,176.48507690429688
1772548044612008000,8.960008056640625,108.33578491210938,0.3064422607421875,176.65475463867188
1772548044622114800,8.97011474609375,108.06626892089844,0.1192474365234375,176.52061462402344
1772548044632222000,8.980221923828125,108.24430847167969,-0.1536865234375,176.2991485595703
1772548044642328800,8.990328857421876,108.07791137695312,-0.629730224609375,176.38243103027344
1772548044652436700,9.000436767578124,107.81729125976562,-0.990264892578125,176.59405517578125
1772548044662542800,9.01054296875,107.93547058105469,-1.5159454345703125,176.54820251464844
1772548044672649000,9.02064892578125,107.7120361328125,-1.386260986328125,176.73941040039062
1772548044682754800,9.0307548828125,107.720458984375,-1.460784912109375,176.56689453125
1772548044692861700,9.04086181640625,107.89756774902344,-1.55194091796875,176.55860900878906
1772548044702968800,9.05096875,107.97987365722656,-1.297515869140625,176.85948181152344
1772548044713076700,9.06107666015625,107.77714538574219,-1.4781646728515625,176.7709503173828
1772548044723183900,9.071183837890626,107.94903564453125,-1.6163330078125,176.8681182861328
1772548044733291800,9.081291748046874,108.17900085449219,-1.311676025390625,176.79486083984375
1772548044743399000,9.09139892578125,108.19635009765625,-1.1702423095703125,176.78109741210938
1772548044753503700,9.101503662109375,108.31130981445312,-0.989166259765625,176.9476776123047
1772548044763611000,9.11161083984375,108.31205749511719,-0.9429779052734375,176.6386260986328
1772548044773717800,9.1217177734375,108.44148254394531,-0.84832763671875,176.55258178710938
1772548044783825000,9.131824951171875,108.42642211914062,-0.3932342529296875,176.4840545654297
1772548044793930800,9.1419306640625,108.9044189453125,-0.1902008056640625,176.5366973876953
1772548044804036900,9.152036865234376,108.87957763671875,0.05303955078125,176.6934356689453
1772548044814141700,9.1621416015625,108.98843383789062,0.5686492919921875,176.48060607910156
1772548044824247800,9.172247802734375,109.09323120117188,0.4613800048828125,176.74371337890625
1772548044834355000,9.18235498046875,109.03109741210938,0.931396484375,176.6686248779297
1772548044844461800,9.1924619140625,109.05380249023438,1.2159423828125,177.11631774902344
1772548044854568700,9.202568603515624,109.04344177246094,1.74468994140625,177.4644317626953
1772548044864673800,9.212673828125,109.50923156738281,1.9012908935546875,177.65338134765625
1772548044874780000,9.22277978515625,109.42137145996094,2.07275390625,178.15505981445312
1772548044884885800,9.2328857421875,109.72401428222656,2.5144500732421875,178.21542358398438
1772548044894993000,9.242992919921875,109.66476440429688,2.7468719482421875,178.33804321289062
1772548044905097700,9.25309765625,109.66148376464844,2.5705108642578125,178.2562713623047
1772548044915203800,9.263203857421875,109.61582946777344,2.447265625,178.07176208496094
1772548044925310000,9.27331005859375,109.84738159179688,2.1885986328125,177.6859588623047
1772548044935414800,9.283414794921875,110.15486145019531,2.1072998046875,177.36294555664062
1772548044945522000,9.29352197265625,110.81597900390625,1.9634552001953125,177.29696655273438
1772548044955628000,9.3036279296875,110.11552429199219,1.5720977783203125,176.8728485107422
1772548044965734000,9.31373388671875,110.95414733886719,1.8431396484375,176.61575317382812
1772548044975840800,9.3238408203125,111.13658142089844,2.2287445068359375,176.33038330078125
1772548044985948000,9.333947998046876,111.1219482421875,2.252288818359375,176.3183135986328
1772548044996054800,9.3440546875,111.59445190429688,2.34197998046875,176.43820190429688
1772548045006162000,9.354161865234374,111.44876098632812,2.8371124267578125,176.2567138671875
1772548045016268800,9.364268798828125,111.39262390136719,3.21075439453125,176.3187255859375
1772548045026375700,9.374375732421875,111.39888000488281,3.6812896728515625,176.48716735839844
1772548045036481800,9.384481689453125,111.90711975097656,4.114654541015625,176.51051330566406
1772548045046587600,9.394587646484375,111.82157897949219,4.5929107666015625,176.199951171875
1772548045056692000,9.40469189453125,111.80694580078125,4.7981414794921875,176.28294372558594
1772548045066796800,9.414796875,111.62498474121094,5.0213775634765625,176.1513671875
1772548045076903000,9.42490283203125,112.18936157226562,5.12884521484375,176.31153869628906
1772548045087008800,9.4350087890625,112.64292907714844,5.3607177734375,176.4761962890625
1772548045097115000,9.445114990234375,112.43634033203125,5.533050537109375,176.16619873046875
1772548045107220000,9.455219970703125,112.29957580566406,5.809478759765625,176.1250762939453
1772548045117326000,9.465326171875,112.53121948242188,5.840240478515625,175.6928253173828
1772548045127432000,9.475431884765625,112.6630859375,6.1401519775390625,175.69886779785156
1772548045137538000,9.4855380859375,112.54022216796875,5.93402099609375,175.70509338378906
1772548045147645000,9.49564501953125,112.58995056152344,6.3276214599609375,175.32557678222656
1772548045157750000,9.50575,113.03079223632812,6.4448089599609375,174.9709930419922
1772548045167855900,9.51585595703125,112.89398193359375,6.537689208984375,174.78567504882812
1772548045177961000,9.5259609375,113.34625244140625,6.47222900390625,174.7375030517578
1772548045188066000,9.536066162109375,113.77583312988281,6.2433929443359375,174.6395263671875
1772548045198169900,9.546169921875,113.86271667480469,6.2506103515625,174.5624542236328
1772548045208275000,9.55627490234375,113.99281311035156,6.259490966796875,174.4296112060547
1772548045218379000,9.56637890625,114.07342529296875,6.3488616943359375,174.03634643554688
1772548045228483000,9.576483154296875,114.2398681640625,6.39459228515625,174.2875213623047
1772548045238588000,9.586587890625,113.84178161621094,6.5608367919921875,173.9881134033203
1772548045248694000,9.596694091796875,114.46235656738281,6.392852783203125,174.11553955078125
1772548045258797800,9.6067978515625,114.73013305664062,6.725555419921875,174.06964111328125
1772548045268903000,9.61690283203125,114.46311950683594,6.5481109619140625,174.026611328125
1772548045279008800,9.6270087890625,114.84115600585938,6.648162841796875,174.18646240234375
1772548045289115000,9.637114990234375,114.9217529296875,6.4571380615234375,174.1461639404297
1772548045299220700,9.647220703125,115.00471496582031,6.5957183837890625,174.0403289794922
1772548045309326800,9.657326904296875,115.23135375976562,6.423126220703125,174.21742248535156
1772548045319432000,9.667431884765625,115.04493713378906,6.428955078125,174.42340087890625
1772548045329536000,9.677535888671875,115.58926391601562,6.589141845703125,174.57008361816406
1772548045339639800,9.687639892578124,115.36161804199219,6.56561279296875,174.6956329345703
1772548045349746000,9.697745849609374,115.399169921875,6.357177734375,174.69345092773438
1772548045359850000,9.70785009765625,115.28556823730469,6.4606781005859375,174.83963012695312
1772548045369954800,9.717954833984376,115.31694030761719,6.0462646484375,175.072998046875
1772548045380061000,9.72806103515625,115.92527770996094,6.010528564453125,175.12501525878906
1772548045390167000,9.7381669921875,115.83647155761719,6.11358642578125,175.20533752441406
1772548045400273000,9.74827294921875,115.74301147460938,5.89752197265625,175.2272186279297
1772548045410378000,9.7583779296875,115.84681701660156,5.56365966796875,175.2621307373047
1772548045420485000,9.768485107421874,115.63706970214844,5.4683990478515625,175.67271423339844
1772548045430591000,9.778591064453124,115.09695434570312,5.3723602294921875,175.30348205566406
1772548045440697900,9.78869775390625,115.07884216308594,4.9334564208984375,175.39979553222656
1772548045450804000,9.798803955078125,115.25643920898438,4.684295654296875,175.43038940429688
1772548045460909800,9.808909912109375,115.09516906738281,4.36175537109375,175.2487030029297
1772548045471015000,9.819014892578124,115.42572021484375,4.187042236328125,175.28147888183594
1772548045481120800,9.829120849609374,115.20137023925781,4.021881103515625,175.02859497070312
1772548045491227000,9.839226806640625,115.21563720703125,3.7053680419921875,175.00450134277344
1772548045501333000,9.8493330078125,115.4927978515625,3.63427734375,174.82601928710938
1772548045511438800,9.85943896484375,115.38746643066406,3.19854736328125,174.72802734375
1772548045521546800,9.869546630859375,115.68905639648438,2.9952545166015625,174.71900939941406
1772548045531654000,9.87965380859375,115.47601318359375,3.29931640625,174.60833740234375
1772548045541760000,9.889760009765626,115.74114990234375,3.1674652099609375,174.62635803222656
1772548045551867100,9.8998671875,115.9744873046875,3.6312255859375,174.259033203125
1772548045561975000,9.90997509765625,116.16096496582031,3.5196533203125,174.44447326660156
1772548045572082000,9.92008203125,116.42330932617188,3.8782958984375,174.31784057617188
1772548045582189800,9.93018994140625,116.48204040527344,3.818603515625,174.56837463378906
1772548045592299000,9.940299072265624,116.37977600097656,4.1957855224609375,174.57272338867188
1772548045602406000,9.950406005859374,116.83468627929688,4.3135528564453125,174.6865692138672
1772548045612512800,9.9605126953125,117.2501220703125,5.002349853515625,174.4940185546875
1772548045622620000,9.970619873046875,117.29840087890625,5.28009033203125,174.71224975585938
1772548045632726000,9.98072607421875,117.7911376953125,5.530731201171875,175.02044677734375
1772548045642833000,9.9908330078125,117.43452453613281,6.0404205322265625,174.92286682128906
1772548045652939800,10.000939697265625,117.89187622070312,5.8721771240234375,174.7297821044922
1772548045663047700,10.011047607421874,118.04939270019531,5.611541748046875,174.69915771484375
1772548045673153800,10.02115380859375,118.27749633789062,5.6214141845703125,174.42678833007812
1772548045683260000,10.031260009765624,118.111083984375,5.6323699951171875,174.37060546875
1772548045693365800,10.04136572265625,117.861083984375,5.3611297607421875,174.21385192871094
1772548045703471900,10.051471923828124,118.42265319824219,5.4952392578125,174.2852020263672
1772548045713578000,10.061577880859375,118.77638244628906,5.4359130859375,173.89678955078125
1772548045723683800,10.071683837890625,118.22016906738281,5.5157318115234375,173.86495971679688
1772548045733789000,10.081788818359374,118.47390747070312,5.436767578125,173.8083953857422
1772548045743896000,10.09189599609375,118.71075439453125,5.36090087890625,173.977294921875
1772548045754002700,10.102002685546875,119.23808288574219,5.667083740234375,173.98536682128906
1772548045764109800,10.11210986328125,118.85183715820312,5.86639404296875,173.7868194580078
1772548045774216000,10.1222158203125,119.02226257324219,5.8490142822265625,174.02259826660156
1772548045784323000,10.132322998046876,118.61961364746094,6.1798248291015625,173.84976196289062
1772548045794429000,10.142428955078126,119.01055908203125,6.421417236328125,174.03091430664062
1772548045804535000,10.15253515625,119.35330200195312,6.432647705078125,174.42352294921875
1772548045814643000,10.162642822265624,119.19894409179688,6.84942626953125,174.18814086914062
1772548045824747800,10.172747802734374,118.939453125,7.1553955078125,174.06625366210938
1772548045834855000,10.18285498046875,118.87733459472656,6.99652099609375,174.07711791992188
1772548045844961800,10.1929619140625,119.03419494628906,6.8737335205078125,173.84622192382812
1772548045855069000,10.20306884765625,118.66584777832031,6.6243743896484375,174.014404296875
1772548045865176000,10.213176025390625,119.27035522460938,6.76080322265625,173.89791870117188
1772548045875284000,10.223283935546876,119.37815856933594,6.5075225830078125,173.7825164794922
1772548045885391000,10.23339111328125,119.12930297851562,6.468597412109375,173.58457946777344
1772548045895497000,10.2434970703125,119.23980712890625,6.2897796630859375,173.76663208007812
1772548045905603800,10.253603759765625,119.18218994140625,6.1852874755859375,173.7061309814453
1772548045915710000,10.2637099609375,118.82986450195312,6.2225494384765625,173.88021850585938
1772548045925817000,10.273817138671875,119.14920043945312,6.3679962158203125,173.65087890625
1772548045935923700,10.283923828125,119.02922058105469,6.3646697998046875,173.6603240966797
1772548045946029800,10.29402978515625,119.24578857421875,6.405731201171875,173.8186492919922
1772548045956137000,10.304136962890626,119.2657470703125,6.2899322509765625,173.60215759277344
1772548045966244000,10.314244140625,119.2611083984375,6.4445953369140625,173.64617919921875
1772548045976349000,10.324348876953126,118.91433715820312,6.5105743408203125,173.46658325195312
1772548045986454000,10.3344541015625,118.55126953125,6.4745941162109375,173.808837890625
1772548045996558800,10.344558837890625,119.14361572265625,6.5938873291015625,173.63348388671875
1772548046006665000,10.3546650390625,119.08689880371094,6.4468231201171875,173.82212829589844
1772548046016770800,10.364770751953126,119.09381103515625,6.5867156982421875,173.91552734375
1772548046026878000,10.3748779296875,118.65303039550781,6.4672088623046875,173.86302185058594
1772548046036984800,10.38498486328125,119.11331176757812,6.752197265625,173.95541381835938
1772548046047093000,10.395093017578125,119.3804931640625,6.7067413330078125,173.8707733154297
1772548046057199900,10.405199951171875,119.11968994140625,6.6091461181640625,174.0222930908203
1772548046067305700,10.4153056640625,119.19931030273438,6.835723876953125,173.95608520507812
1772548046077411800,10.425411865234375,119.1922607421875,6.8348541259765625,174.05712890625
1772548046087519000,10.43551904296875,119.27767944335938,6.707916259765625,174.36268615722656
1772548046097625900,10.4456259765625,119.24397277832031,6.7878265380859375,174.08160400390625
1772548046107731700,10.455731689453126,118.9014892578125,6.80682373046875,174.2230987548828
1772548046117837000,10.465837158203126,118.85256958007812,6.7115631103515625,174.10028076171875
1772548046127944000,10.47594384765625,119.33540344238281,6.5252532958984375,174.09292602539062
1772548046138050000,10.486050048828124,119.24226379394531,6.493316650390625,174.29302978515625
1772548046148157200,10.4961572265625,119.2489013671875,6.15301513671875,174.1610107421875
1772548046158265000,10.50626513671875,119.26496887207031,6.1861419677734375,174.26292419433594
1772548046168370000,10.516369873046875,119.42378234863281,6.3322906494140625,174.31552124023438
1772548046178475300,10.526475341796875,119.22877502441406,6.2023468017578125,174.4135284423828
1772548046188580900,10.536580810546875,119.52153015136719,6.3766326904296875,174.42022705078125
1772548046198688000,10.54668798828125,119.63427734375,6.04437255859375,174.4165496826172
1772548046208793000,10.55679296875,119.80076599121094,6.1407318115234375,174.4035186767578
1772548046218898200,10.566898193359375,119.52943420410156,6.219085693359375,174.49465942382812
1772548046229003000,10.5770029296875,119.44207763671875,6.5043487548828125,174.52513122558594
1772548046239109000,10.587109130859375,119.46430969238281,6.111846923828125,174.54917907714844
1772548046249213000,10.597212890625,119.77117919921875,6.0643310546875,174.7044219970703
1772548046259316000,10.60731591796875,119.43716430664062,6.137939453125,174.810302734375
1772548046269422000,10.617422119140626,119.73377990722656,6.3084259033203125,174.717041015625
1772548046279528200,10.627528076171876,119.44175720214844,6.1312408447265625,175.0842742919922
1772548046289634000,10.637634033203126,119.90046691894531,6.16973876953125,174.92897033691406
1772548046299741000,10.647740966796874,119.74592590332031,6.3897552490234375,174.89756774902344
1772548046309848000,10.65784814453125,119.49638366699219,6.641937255859375,174.7429962158203
1772548046319954200,10.6679541015625,119.539306640625,6.371612548828125,174.89901733398438
1772548046330059000,10.67805908203125,119.83114624023438,6.517608642578125,174.81723022460938
1772548046340165000,10.6881650390625,119.63630676269531,6.4687957763671875,175.01617431640625
1772548046350272300,10.698272216796875,119.428466796875,6.5465087890625,174.6912841796875
1772548046360379000,10.70837890625,119.85771179199219,6.323516845703125,174.81658935546875
1772548046370484200,10.718484130859375,119.68370056152344,6.27398681640625,174.87313842773438
1772548046380590000,10.728590087890625,119.87442016601562,6.2306365966796875,174.65257263183594
1772548046390696000,10.738696044921875,119.95364379882812,6.277313232421875,174.6805877685547
1772548046400803000,10.748802978515625,119.70352172851562,6.3364715576171875,174.63291931152344
1772548046410908000,10.758907958984375,119.54061889648438,6.550872802734375,174.5260467529297
1772548046421013000,10.769012939453125,120.00535583496094,6.494598388671875,174.92213439941406
1772548046431120100,10.7791201171875,119.77435302734375,6.6322174072265625,174.56118774414062
1772548046441226000,10.78922607421875,120.20747375488281,6.49310302734375,174.59152221679688
1772548046451331000,10.7993310546875,119.51669311523438,6.2528228759765625,174.6611328125
1772548046461437000,10.80943701171875,119.56350708007812,6.547576904296875,174.48187255859375
1772548046471544000,10.8195439453125,119.72276306152344,6.562164306640625,174.6094207763672
1772548046481650200,10.829650146484376,119.75662231445312,6.6501617431640625,174.2255401611328
1772548046491757000,10.839757080078124,119.42771911621094,6.612548828125,174.33322143554688
1772548046501862100,10.849862060546876,119.55230712890625,6.6050872802734375,174.1546173095703
1772548046511967200,10.85996728515625,119.37701416015625,6.4625396728515625,174.27503967285156
1772548046522071000,10.870071044921875,119.76727294921875,6.630859375,174.20059204101562
1772548046532175000,10.880175048828125,119.32432556152344,6.3085479736328125,174.17144775390625
1772548046542280000,10.890280029296875,119.32730102539062,6.5430145263671875,174.28012084960938
1772548046552385000,10.900385009765625,119.20591735839844,6.5935211181640625,174.27003479003906
1772548046562490000,10.910489990234375,119.45787048339844,6.79461669921875,174.22024536132812
1772548046572594200,10.92059423828125,119.44522094726562,6.5888519287109375,174.28182983398438
1772548046582699000,10.930698974609374,119.13502502441406,6.44781494140625,174.24203491210938
1772548046592805000,10.94080517578125,119.3756103515625,6.7973175048828125,174.20468139648438
1772548046602911000,10.950910888671874,119.44256591796875,6.68798828125,174.01983642578125
1772548046613016000,10.96101611328125,119.55805969238281,7.08001708984375,174.11302185058594
1772548046623120100,10.9711201171875,119.8436279296875,6.589599609375,174.14593505859375
1772548046633226200,10.981226318359376,119.59230041503906,6.6522369384765625,174.0563507080078
1772548046643331000,10.9913310546875,119.59039306640625,6.53167724609375,174.06475830078125
1772548046653436200,11.001436279296875,119.43547058105469,6.9418487548828125,174.010986328125
1772548046663542000,11.0115419921875,119.57115173339844,6.685943603515625,174.07476806640625
1772548046673648000,11.021648193359376,119.46540832519531,6.749603271484375,173.98611450195312
1772548046683754000,11.03175390625,119.93745422363281,6.613037109375,174.04641723632812
1772548046693861000,11.041861083984376,119.93571472167969,6.727203369140625,173.81399536132812
1772548046703967000,11.051967041015626,119.64112854003906,6.659942626953125,174.10206604003906
1772548046714073000,11.062072998046874,119.56748962402344,6.6732025146484375,174.03701782226562
1772548046724180000,11.072179931640624,119.57135009765625,6.806304931640625,173.9434051513672
1772548046734287000,11.082287109375,119.39541625976562,6.7585906982421875,173.73025512695312
1772548046744394000,11.09239404296875,119.72868347167969,6.80047607421875,173.7686004638672
1772548046754500000,11.1025,120.03239440917969,6.6782073974609375,173.8572998046875
1772548046764606000,11.11260595703125,119.86039733886719,6.7330474853515625,173.54409790039062
1772548046774713000,11.122713134765625,120.04718017578125,6.5998382568359375,173.57232666015625
1772548046784820000,11.132820068359376,120.07551574707031,6.8314666748046875,173.5663604736328
1772548046794927000,11.142927001953124,119.83486938476562,6.57373046875,173.52398681640625
1772548046805033000,11.153032958984374,119.89340209960938,6.906402587890625,173.52244567871094
1772548046815138000,11.163137939453126,119.6407470703125,6.835052490234375,173.4106903076172
1772548046825244200,11.173244140625,119.7659912109375,6.699859619140625,173.35482788085938
1772548046835350000,11.18335009765625,119.82267761230469,6.451812744140625,173.32669067382812
1772548046845456100,11.1934560546875,119.83045959472656,6.592559814453125,173.1158905029297
1772548046855561000,11.20356103515625,119.73464965820312,6.5528411865234375,173.08724975585938
1772548046865668000,11.213668212890624,119.83993530273438,6.550537109375,173.0953826904297
1772548046875773000,11.22377294921875,119.81855773925781,7.0648651123046875,172.86988830566406
1772548046885879000,11.233879150390624,119.83447265625,7.0813140869140625,172.74935913085938
1772548046895984000,11.243984130859374,119.91975402832031,7.048828125,172.8623504638672
1772548046906089000,11.2540888671875,119.64604187011719,6.8066253662109375,172.66580200195312
1772548046916194000,11.264194091796876,119.55728149414062,6.9238739013671875,172.58692932128906
1772548046926299100,11.274299072265626,119.72514343261719,6.9674835205078125,172.37718200683594
1772548046936405200,11.2844052734375,119.59812927246094,7.3433837890625,172.28500366210938
1772548046946511000,11.294510986328126,120.06288146972656,7.2157745361328125,172.38803100585938
1772548046956617200,11.3046171875,119.5946044921875,7.4751739501953125,172.09031677246094
1772548046966723000,11.31472314453125,119.38435363769531,7.7415771484375,172.02737426757812
1772548046976828200,11.324828125,119.70254516601562,7.8642578125,171.9561309814453
1772548046986933000,11.33493310546875,119.26615905761719,8.099456787109375,171.96107482910156
1772548046997040000,11.3450400390625,119.64274597167969,8.052764892578125,171.9510040283203
1772548047007146200,11.355146240234374,119.39775085449219,8.006866455078125,171.75270080566406
1772548047017251000,11.3652509765625,119.67344665527344,7.9474945068359375,171.79946899414062
1772548047027357200,11.375357177734376,119.84538269042969,8.258316040039062,171.73106384277344
1772548047037462000,11.3854619140625,119.57614135742188,8.248779296875,171.54795837402344
1772548047047567000,11.395567138671876,119.68911743164062,8.442398071289062,171.16705322265625
1772548047057672000,11.405671875,119.66139221191406,8.418731689453125,171.13526916503906
1772548047067777300,11.41577734375,119.45999145507812,8.441452026367188,171.11593627929688
1772548047077884000,11.4258837890625,119.75117492675781,8.5838623046875,170.83079528808594
1772548047087990000,11.435989990234376,119.65444946289062,8.758377075195312,170.9475860595703
1772548047098097200,11.44609716796875,119.84886169433594,8.769363403320312,170.69190979003906
1772548047108205000,11.456205078125,119.81938171386719,8.943267822265625,170.61732482910156
1772548047118315000,11.46631494140625,119.87681579589844,9.181838989257812,170.2386932373047
1772548047128422100,11.476422119140626,119.77436828613281,9.2821044921875,170.3131866455078
1772548047138528000,11.486528076171876,120.15229797363281,9.48468017578125,170.0734100341797
1772548047148633000,11.496633056640626,120.02445983886719,9.416061401367188,169.6389617919922
1772548047158739200,11.5067392578125,120.48857116699219,9.523406982421875,169.48204040527344
1772548047168845000,11.516844970703126,120.44416809082031,9.554702758789062,169.33575439453125
1772548047178952000,11.526951904296874,120.60951232910156,9.550872802734375,168.92410278320312
1772548047189059000,11.53705908203125,120.76701354980469,9.291519165039062,168.87901306152344
1772548047199166000,11.547166015625,120.83158874511719,9.21026611328125,168.4595184326172
1772548047209272000,11.55727197265625,121.08259582519531,9.277542114257812,168.0858154296875
1772548047219379000,11.56737890625,121.44400024414062,9.142791748046875,167.83041381835938
1772548047229485000,11.577485107421875,121.82803344726562,9.01220703125,167.7445831298828
1772548047239591200,11.587591064453125,121.6455078125,8.831817626953125,167.35687255859375
1772548047249697000,11.597697021484375,121.97090148925781,8.903640747070312,167.1199493408203
1772548047259803100,11.60780322265625,121.97254943847656,8.685317993164062,166.96630859375
1772548047269909200,11.6179091796875,122.06585693359375,8.52630615234375,166.7716827392578
1772548047280016000,11.628015869140626,122.644775390625,8.532791137695312,166.80624389648438
1772548047290123000,11.638123046875,122.53253173828125,8.386123657226562,166.55307006835938
1772548047300230100,11.648230224609375,122.57569885253906,8.315185546875,166.58963012695312
1772548047310338000,11.658338134765625,122.31840515136719,8.239181518554688,166.47454833984375
1772548047320445200,11.668445068359375,122.41691589355469,8.239959716796875,166.60826110839844
1772548047330553000,11.678552978515626,122.25254821777344,8.422195434570312,166.59967041015625
1772548047340658000,11.688657958984376,122.04048156738281,8.461074829101562,166.54769897460938
1772548047350764000,11.698763916015626,121.972900390625,8.59442138671875,166.69821166992188
1772548047360872000,11.708871826171874,121.89582824707031,8.689102172851562,166.86215209960938
1772548047370979000,11.71897900390625,121.86431884765625,8.629714965820312,166.92135620117188
1772548047381085000,11.7290849609375,121.65658569335938,8.893600463867188,166.97018432617188
1772548047391192000,11.739192138671875,121.58213806152344,8.77203369140625,167.0922393798828
1772548047401299000,11.749298828125,120.95573425292969,8.803298950195312,167.3597869873047
1772548047411405000,11.759405029296875,121.1387939453125,8.924850463867188,167.34754943847656
1772548047421511000,11.769510986328125,121.10836791992188,8.75384521484375,167.67506408691406
1772548047431618800,11.779618896484376,120.64413452148438,8.678298950195312,167.53445434570312
1772548047441726000,11.789725830078124,120.61074829101562,8.994033813476562,167.4934844970703
1772548047451833900,11.799833740234375,120.46504211425781,9.060638427734375,167.4844970703125
1772548047461942000,11.80994189453125,120.44070434570312,8.990554809570312,167.6668701171875
1772548047472050000,11.8200498046875,119.79141235351562,9.259613037109375,167.56961059570312
1772548047482157000,11.830156982421874,119.88893127441406,9.309219360351562,167.72299194335938
1772548047492264000,11.840263916015624,120.05976867675781,9.19879150390625,167.82281494140625
1772548047502370000,11.8503701171875,119.84965515136719,9.413909912109375,168.30517578125
1772548047512476000,11.860475830078125,119.58280944824219,9.220947265625,168.6027069091797
1772548047522582000,11.87058203125,118.81114196777344,9.154190063476562,168.7065887451172
1772548047532689200,11.880689208984375,118.5302734375,9.022628784179688,168.66592407226562
1772548047542796000,11.890796142578125,118.40765380859375,8.481689453125,168.9351043701172
1772548047552904200,11.900904296875,118.15423583984375,8.183517456054688,168.97084045410156
1772548047563010800,11.9110107421875,118.46113586425781,8.101516723632812,169.13377380371094
1772548047573117000,11.921116943359374,118.26922607421875,7.7280120849609375,169.0172882080078
1772548047583225000,11.93122509765625,118.47059631347656,7.5547027587890625,169.19967651367188
1772548047593332000,11.94133203125,118.30947875976562,7.297271728515625,169.1562957763672
1772548047603438000,11.95143798828125,118.4534912109375,6.8664398193359375,169.4055938720703
1772548047613545000,11.961544921875,118.50074768066406,6.8665771484375,169.79971313476562
1772548047623651000,11.971651123046875,117.652099609375,6.63116455078125,169.8112030029297
1772548047633757200,11.981757080078125,118.03599548339844,6.7467803955078125,169.78810119628906
1772548047643863800,11.99186376953125,117.97091674804688,6.521514892578125,170.06802368164062
1772548047653971000,12.001970947265624,117.523193359375,6.3889617919921875,170.150146484375
1772548047664078000,12.012078125,117.3546142578125,5.996429443359375,170.1855010986328
1772548047674185000,12.02218505859375,117.32545471191406,5.6142425537109375,170.01531982421875
1772548047684292000,12.0322919921875,117.37191772460938,5.3677215576171875,170.03805541992188
1772548047694398000,12.04239794921875,117.25270080566406,5.384613037109375,170.0074920654297
1772548047704504000,12.052504150390625,117.56417846679688,4.8120880126953125,170.1328125
1772548047714607900,12.06260791015625,117.22091674804688,4.7390899658203125,169.9474334716797
1772548047724714000,12.0727138671875,117.11965942382812,4.6590423583984375,170.0289306640625
1772548047734822100,12.082822265625,116.63471984863281,4.854400634765625,169.87583923339844
1772548047744928000,12.092927978515625,116.83915710449219,4.6917572021484375,170.02691650390625
1772548047755033900,12.103033935546875,116.75978088378906,4.6915740966796875,170.3318328857422
1772548047765141000,12.11314111328125,116.20252990722656,4.7016448974609375,170.3192138671875
1772548047775246000,12.12324609375,116.13182067871094,4.7355194091796875,170.33892822265625
1772548047785352000,12.13335205078125,115.77438354492188,4.2982635498046875,170.48915100097656
1772548047795457000,12.14345703125,115.490966796875,4.615325927734375,170.55747985839844
1772548047805563000,12.15356298828125,115.10870361328125,4.480926513671875,170.67185974121094
1772548047815669000,12.1636689453125,114.59841918945312,4.56927490234375,170.71157836914062
1772548047825776000,12.173776123046874,114.62095642089844,4.4796142578125,170.6293487548828
1772548047835881000,12.183880859375,114.33998107910156,4.2283477783203125,170.83534240722656
1772548047845987000,12.193987060546876,114.14118957519531,4.10833740234375,170.89617919921875
1772548047856094200,12.20409423828125,114.13111877441406,3.574188232421875,170.89443969726562
1772548047866200000,12.214199951171874,114.09867858886719,3.1838531494140625,170.8798370361328
1772548047876307000,12.224306884765625,114.33512878417969,2.8458404541015625,170.76622009277344
1772548047886414000,12.2344140625,114.22763061523438,2.6500701904296875,170.8640594482422
1772548047896521200,12.244521240234375,114.06599426269531,2.311431884765625,171.04391479492188
1772548047906628000,12.254628173828126,113.72171020507812,1.959869384765625,170.9091033935547
1772548047916735000,12.26473486328125,113.93367004394531,1.59844970703125,171.11648559570312
1772548047926841900,12.274841796875,113.86569213867188,1.580657958984375,171.30252075195312
1772548047936948000,12.284947998046874,113.75326538085938,1.3404541015625,171.12445068359375
1772548047947053000,12.295052978515624,114.30584716796875,1.3985443115234375,171.16258239746094
1772548047957159200,12.3051591796875,113.96463012695312,1.33050537109375,170.7488250732422
1772548047967265000,12.31526513671875,114.4691162109375,1.471893310546875,170.60757446289062
1772548047977371000,12.325370849609374,114.59698486328125,1.743804931640625,170.4458770751953
1772548047987475000,12.335474853515626,114.81494140625,1.7966461181640625,170.54977416992188
1772548047997580000,12.345580078125,114.51127624511719,2.0133819580078125,170.55943298339844
1772548048007684000,12.35568408203125,114.472412109375,2.1346282958984375,170.75299072265625
1772548048017790000,12.3657900390625,114.57455444335938,2.3590850830078125,170.88528442382812
1772548048027895800,12.375895751953125,115.10551452636719,2.7591552734375,170.9202117919922
1772548048038002000,12.386001953125,115.32734680175781,3.5753326416015625,170.64404296875
1772548048048107300,12.396107177734375,115.87013244628906,4.15386962890625,170.26376342773438
1772548048058213000,12.406213134765625,116.0040283203125,5.0895843505859375,170.1258544921875
1772548048068319000,12.416319091796876,115.98200988769531,5.7268524169921875,170.3424072265625
1772548048078423000,12.426423095703125,116.28730773925781,5.9490203857421875,170.76943969726562
1772548048088528000,12.43652783203125,116.29609680175781,6.4523162841796875,170.91795349121094
1772548048098634000,12.446634033203125,115.98283386230469,6.81201171875,170.73013305664062
1772548048108738000,12.456738037109375,116.45542907714844,6.932708740234375,170.6535186767578
1772548048118838500,12.466838623046876,116.10215759277344,7.327972412109375,170.3348388671875
1772548048128944600,12.476944580078126,116.80900573730469,7.350006103515625,170.28733825683594
1772548048139050800,12.48705078125,116.39964294433594,7.0856170654296875,170.35671997070312
1772548048149158000,12.497157958984374,116.30731201171875,7.375946044921875,170.23004150390625
1772548048159264500,12.507264404296874,116.58784484863281,7.3153839111328125,170.1863250732422
1772548048169371600,12.51737158203125,116.64094543457031,7.2591094970703125,170.06298828125
1772548048179477800,12.527477783203125,116.98094177246094,7.546478271484375,169.83203125
1772548048189584600,12.537584716796875,116.78627014160156,7.416473388671875,169.7009735107422
1772548048199690500,12.5476904296875,116.80555725097656,7.4339752197265625,169.44509887695312
1772548048209797600,12.557797607421875,116.73530578613281,7.375091552734375,169.3446807861328
1772548048219904800,12.56790478515625,116.95680236816406,7.3469696044921875,169.2740936279297
1772548048230012700,12.5780126953125,117.00300598144531,7.508514404296875,169.46994018554688
1772548048240119800,12.588119873046875,116.98944091796875,7.3040618896484375,169.00137329101562
1772548048250226700,12.598226806640625,117.15031433105469,7.3058013916015625,169.0591583251953
1772548048260334800,12.6083349609375,117.36070251464844,7.478302001953125,168.779296875
1772548048270443800,12.61844384765625,117.33464050292969,7.544921875,168.8292999267578
1772548048280552700,12.628552734375,117.91691589355469,7.7847442626953125,168.7073516845703
1772548048290660600,12.63866064453125,118.08395385742188,7.802032470703125,168.505859375
1772548048300768500,12.6487685546875,117.97055053710938,7.86602783203125,168.27273559570312
1772548048310876700,12.658876708984375,118.42591857910156,7.9653472900390625,167.98741149902344
1772548048320984600,12.668984619140625,118.96391296386719,8.126205444335938,167.86265563964844
1772548048331091700,12.679091796875,118.94026184082031,7.892852783203125,167.90321350097656
1772548048341199600,12.68919970703125,118.54740905761719,8.286346435546875,167.96165466308594
1772548048351305700,12.6993056640625,118.33924865722656,8.653060913085938,167.99554443359375
1772548048361411600,12.70941162109375,118.58207702636719,8.828720092773438,168.1328582763672
1772548048371518700,12.719518798828124,118.58746337890625,8.921279907226562,168.1872100830078
1772548048381625600,12.72962548828125,118.39445495605469,8.790451049804688,168.01556396484375
1772548048391733800,12.739733642578125,118.47097778320312,8.9010009765625,168.1383514404297
1772548048401840600,12.749840576171875,118.47360229492188,8.803436279296875,167.82350158691406
1772548048411947800,12.75994775390625,118.64747619628906,8.814666748046875,167.81179809570312
1772548048422054700,12.7700546875,118.95014953613281,8.793609619140625,167.62440490722656
1772548048432161500,12.78016162109375,118.71258544921875,8.494277954101562,167.3704833984375
1772548048442269400,12.79026953125,119.02186584472656,8.786972045898438,167.04869079589844
1772548048452376600,12.80037646484375,119.24082946777344,8.7547607421875,166.77345275878906
1772548048462484500,12.810484375,119.43281555175781,8.747573852539062,166.9777069091797
1772548048472590600,12.820590576171876,119.26193237304688,8.901275634765625,167.12208557128906
1772548048482697700,12.83069775390625,119.25718688964844,9.196197509765625,166.87625122070312
1772548048492803600,12.840803466796874,119.60301208496094,9.289688110351562,166.77793884277344
1772548048502910700,12.85091064453125,119.26844787597656,9.278717041015625,166.59225463867188
1772548048513017600,12.861017578125,119.7733154296875,9.439971923828125,166.5347900390625
1772548048523122400,12.871122314453125,119.5433349609375,9.370346069335938,166.4495086669922
1772548048533228500,12.881228515625,119.72611999511719,9.361099243164062,166.25511169433594
1772548048543335700,12.891335693359375,119.93009948730469,9.591140747070312,166.11476135253906
1772548048553442800,12.90144287109375,120.16477966308594,9.798446655273438,166.1075439453125
1772548048563550700,12.91155078125,120.32461547851562,9.946044921875,166.16915893554688
1772548048573657900,12.921657958984374,119.974609375,9.951812744140625,165.91744995117188
1772548048583763700,12.931763671875,119.64860534667969,9.970184326171875,165.85169982910156
1772548048593869600,12.94186962890625,119.97250366210938,9.750762939453125,165.91116333007812
1772548048603977700,12.951977783203125,120.20565795898438,9.724044799804688,165.96160888671875
1772548048614084600,12.962084716796875,120.29106140136719,9.817062377929688,165.90171813964844
1772548048624190500,12.9721904296875,120.19061279296875,9.540878295898438,165.6278076171875
1772548048634297600,12.982297607421875,120.50761413574219,9.490127563476562,165.53224182128906
1772548048644404700,12.99240478515625,120.74859619140625,9.410964965820312,165.47691345214844
1772548048654510800,13.0025107421875,120.773681640625,9.183807373046875,165.45384216308594
1772548048664617500,13.012617431640624,120.59645080566406,8.922836303710938,165.15484619140625
1772548048674723600,13.0227236328125,120.78477478027344,9.040679931640625,165.27813720703125
1772548048684830700,13.032830810546875,120.99270629882812,9.217254638671875,165.0313262939453
1772548048694937600,13.0429375,121.1287841796875,9.174179077148438,164.95443725585938
1772548048705045800,13.053045654296875,121.57698059082031,9.420394897460938,164.8562774658203
1772548048715152600,13.063152587890626,121.71197509765625,9.20947265625,164.7360076904297
1772548048725260800,13.0732607421875,121.93681335449219,9.317825317382812,164.59645080566406
1772548048735367400,13.083367431640625,122.00294494628906,9.081863403320312,164.64175415039062
1772548048745475800,13.093475830078125,122.380859375,9.188034057617188,164.3874053955078
1772548048755584800,13.103584716796876,122.39445495605469,8.925247192382812,164.6403045654297
1772548048765691600,13.113691650390624,122.27223205566406,8.525848388671875,164.35275268554688
1772548048775798500,13.123798583984374,122.57264709472656,8.28271484375,164.38088989257812
1772548048785905700,13.13390576171875,122.31562805175781,7.960662841796875,164.06654357910156
1772548048796011800,13.14401171875,122.65626525878906,8.0091552734375,163.73495483398438
1772548048806118000,13.154117919921875,123.21157836914062,7.5550994873046875,163.99728393554688
1772548048816224500,13.164224609375,122.66740417480469,7.8935394287109375,163.5986328125
