time,seconds_elapsed,z,y,x,local_time
1775952935146801400,0.070801513671875,-0.9066619873046875,-0.32452392578125,0.1041259765625,2026-04-11T19:15:35.146-05:00
1775952935156857300,0.080857421875,-0.9130859375,-0.3384246826171875,0.010772705078125,2026-04-11T19:15:35.156-05:00
1775952935166914300,0.090914306640625,-0.9228668212890625,-0.337646484375,-0.058319091796875,2026-04-11T19:15:35.166-05:00
1775952935176971300,0.10097119140625,-0.9482574462890625,-0.3452911376953125,-0.068328857421875,2026-04-11T19:15:35.176-05:00
1775952935187027200,0.111027099609375,-0.917999267578125,-0.3141937255859375,-0.09130859375,2026-04-11T19:15:35.187-05:00
1775952935197084200,0.121084228515625,-0.9447021484375,-0.329925537109375,-0.1550445556640625,2026-04-11T19:15:35.197-05:00
1775952935207141400,0.131141357421875,-1.03460693359375,-0.4007110595703125,-0.0034332275390625,2026-04-11T19:15:35.207-05:00
1775952935217197300,0.141197265625,-1.1522674560546875,-0.4744415283203125,0.083831787109375,2026-04-11T19:15:35.217-05:00
1775952935227254500,0.151254638671875,-1.3272705078125,-0.48419189453125,0.1825103759765625,2026-04-11T19:15:35.227-05:00
1775952935237311500,0.1613115234375,-1.31756591796875,-0.47259521484375,0.2617645263671875,2026-04-11T19:15:35.237-05:00
1775952935247367400,0.171367431640625,-1.139556884765625,-0.4498291015625,0.25701904296875,2026-04-11T19:15:35.247-05:00
1775952935257424400,0.18142431640625,-0.9078216552734375,-0.4536590576171875,0.2088623046875,2026-04-11T19:15:35.257-05:00
1775952935267480300,0.191480224609375,-0.8007354736328125,-0.51416015625,0.1781005859375,2026-04-11T19:15:35.267-05:00
1775952935277537300,0.201537353515625,-0.73052978515625,-0.54400634765625,0.1686248779296875,2026-04-11T19:15:35.277-05:00
1775952935287594500,0.211594482421875,-0.565673828125,-0.5591278076171875,0.131195068359375,2026-04-11T19:15:35.287-05:00
1775952935297650400,0.221650390625,-0.4146575927734375,-0.5685577392578125,0.0879364013671875,2026-04-11T19:15:35.297-05:00
1775952935307707400,0.231707275390625,-0.3390350341796875,-0.493927001953125,0.0984344482421875,2026-04-11T19:15:35.307-05:00
1775952935317764400,0.241764404296875,-0.3667755126953125,-0.4210968017578125,0.1577606201171875,2026-04-11T19:15:35.317-05:00
1775952935327820300,0.2518203125,-0.4963531494140625,-0.3938140869140625,0.2521209716796875,2026-04-11T19:15:35.327-05:00
1775952935337877200,0.261877197265625,-0.573516845703125,-0.389801025390625,0.289337158203125,2026-04-11T19:15:35.337-05:00
1775952935347933400,0.271933349609375,-0.6388092041015625,-0.419586181640625,0.3017425537109375,2026-04-11T19:15:35.347-05:00
1775952935357990400,0.281990478515625,-0.7772064208984375,-0.438690185546875,0.311431884765625,2026-04-11T19:15:35.357-05:00
1775952935368047400,0.29204736328125,-0.8914794921875,-0.392852783203125,0.210723876953125,2026-04-11T19:15:35.368-05:00
1775952935378103300,0.302103271484375,-0.9742889404296875,-0.3719635009765625,0.09967041015625,2026-04-11T19:15:35.378-05:00
1775952935388160300,0.31216015625,-1.0270538330078125,-0.380218505859375,0.1250762939453125,2026-04-11T19:15:35.388-05:00
1775952935398217200,0.32221728515625,-0.9937896728515625,-0.389617919921875,0.1767578125,2026-04-11T19:15:35.398-05:00
1775952935408273200,0.332273193359375,-0.9912567138671875,-0.38043212890625,0.1800537109375,2026-04-11T19:15:35.408-05:00
1775952935418330400,0.342330322265625,-1.0373382568359375,-0.4015045166015625,0.1383209228515625,2026-04-11T19:15:35.418-05:00
1775952935428387300,0.35238720703125,-1.0662689208984375,-0.410552978515625,0.0645599365234375,2026-04-11T19:15:35.428-05:00
1775952935438443300,0.362443359375,-1.011810302734375,-0.390167236328125,-0.0096435546875,2026-04-11T19:15:35.438-05:00
1775952935448500500,0.37250048828125,-0.922332763671875,-0.4024810791015625,-0.0523529052734375,2026-04-11T19:15:35.448-05:00
1775952935458556200,0.38255615234375,-0.8885498046875,-0.357757568359375,-0.145111083984375,2026-04-11T19:15:35.458-05:00
1775952935468613400,0.39261328125,-0.860076904296875,-0.32183837890625,-0.2449493408203125,2026-04-11T19:15:35.468-05:00
1775952935478670300,0.40267041015625,-0.8328094482421875,-0.353302001953125,-0.20721435546875,2026-04-11T19:15:35.478-05:00
1775952935488726500,0.4127265625,-0.8379058837890625,-0.3667755126953125,-0.1298065185546875,2026-04-11T19:15:35.488-05:00
1775952935498783500,0.422783447265625,-0.8863677978515625,-0.465911865234375,-0.0344085693359375,2026-04-11T19:15:35.498-05:00
1775952935508840400,0.43284033203125,-0.9334869384765625,-0.5719146728515625,0.112762451171875,2026-04-11T19:15:35.508-05:00
1775952935518896400,0.442896484375,-0.909881591796875,-0.6181793212890625,0.26458740234375,2026-04-11T19:15:35.518-05:00
1775952935528953300,0.452953369140625,-0.8492431640625,-0.5881195068359375,0.269775390625,2026-04-11T19:15:35.528-05:00
1775952935539010300,0.46301025390625,-0.7832794189453125,-0.454833984375,0.2453460693359375,2026-04-11T19:15:35.539-05:00
1775952935549066200,0.473066162109375,-0.77801513671875,-0.3316497802734375,0.1594390869140625,2026-04-11T19:15:35.549-05:00
1775952935559123500,0.48312353515625,-0.88067626953125,-0.3058319091796875,-0.006256103515625,2026-04-11T19:15:35.559-05:00
1775952935569179400,0.493179443359375,-0.9742279052734375,-0.3419952392578125,-0.114532470703125,2026-04-11T19:15:35.569-05:00
1775952935579236400,0.503236328125,-0.9720306396484375,-0.3725738525390625,-0.166961669921875,2026-04-11T19:15:35.579-05:00
1775952935589293300,0.513293212890625,-0.9308929443359375,-0.379608154296875,-0.1767425537109375,2026-04-11T19:15:35.589-05:00
1775952935599349200,0.523349365234375,-0.9523468017578125,-0.331695556640625,-0.1533966064453125,2026-04-11T19:15:35.599-05:00
1775952935609406200,0.53340625,-1.0574951171875,-0.304168701171875,-0.1369476318359375,2026-04-11T19:15:35.609-05:00
1775952935619463200,0.543463134765625,-1.1148834228515625,-0.3155975341796875,-0.1343841552734375,2026-04-11T19:15:35.619-05:00
1775952935629519400,0.553519287109375,-1.1094207763671875,-0.3465423583984375,-0.138702392578125,2026-04-11T19:15:35.629-05:00
1775952935639576300,0.563576416015625,-1.084014892578125,-0.3903656005859375,-0.184112548828125,2026-04-11T19:15:35.639-05:00
1775952935649633300,0.57363330078125,-0.9800567626953125,-0.3844757080078125,-0.1995391845703125,2026-04-11T19:15:35.649-05:00
1775952935659689200,0.583689208984375,-0.837890625,-0.3456268310546875,-0.1631927490234375,2026-04-11T19:15:35.659-05:00
1775952935669746400,0.593746337890625,-0.7295074462890625,-0.3400726318359375,-0.1195526123046875,2026-04-11T19:15:35.669-05:00
1775952935679802000,0.603802001953125,-0.6913604736328125,-0.3556365966796875,-0.05389404296875,2026-04-11T19:15:35.679-05:00
1775952935689859300,0.613859375,-0.6944580078125,-0.3808135986328125,-0.000335693359375,2026-04-11T19:15:35.689-05:00
1775952935699916300,0.623916259765625,-0.6968231201171875,-0.413604736328125,-0.04376220703125,2026-04-11T19:15:35.699-05:00
1775952935709972500,0.633972412109375,-0.7636260986328125,-0.40216064453125,-0.1249847412109375,2026-04-11T19:15:35.709-05:00
1775952935720029400,0.644029541015625,-0.8760223388671875,-0.373046875,-0.1628570556640625,2026-04-11T19:15:35.720-05:00
1775952935730086400,0.65408642578125,-0.94781494140625,-0.375457763671875,-0.16607666015625,2026-04-11T19:15:35.730-05:00
1775952935740142300,0.664142333984375,-0.942108154296875,-0.44140625,-0.195892333984375,2026-04-11T19:15:35.740-05:00
1775952935750199300,0.67419921875,-0.87249755859375,-0.4880828857421875,-0.231964111328125,2026-04-11T19:15:35.750-05:00
1775952935760256300,0.68425634765625,-0.85101318359375,-0.451507568359375,-0.1928253173828125,2026-04-11T19:15:35.760-05:00
1775952935770312400,0.6943125,-0.8976593017578125,-0.395660400390625,-0.1102142333984375,2026-04-11T19:15:35.770-05:00
1775952935780369400,0.704369384765625,-1.0032958984375,-0.3829803466796875,-0.0951080322265625,2026-04-11T19:15:35.780-05:00
1775952935790425300,0.71442529296875,-1.089080810546875,-0.384307861328125,-0.1280059814453125,2026-04-11T19:15:35.790-05:00
1775952935800482300,0.724482421875,-1.0661773681640625,-0.3629913330078125,-0.1228790283203125,2026-04-11T19:15:35.800-05:00
1775952935810539300,0.734539306640625,-1.0167694091796875,-0.3606414794921875,-0.0744781494140625,2026-04-11T19:15:35.810-05:00
1775952935820595200,0.74459521484375,-1.000213623046875,-0.3663482666015625,-0.037384033203125,2026-04-11T19:15:35.820-05:00
1775952935830652400,0.75465234375,-1.030853271484375,-0.3591766357421875,-0.0232086181640625,2026-04-11T19:15:35.830-05:00
1775952935840709400,0.76470947265625,-1.0803070068359375,-0.3369903564453125,-0.0271453857421875,2026-04-11T19:15:35.840-05:00
1775952935850765300,0.774765380859375,-1.0756988525390625,-0.3193817138671875,-0.0131988525390625,2026-04-11T19:15:35.850-05:00
1775952935860822300,0.784822265625,-1.02801513671875,-0.3251190185546875,0.0155487060546875,2026-04-11T19:15:35.860-05:00
1775952935870879200,0.794879150390625,-0.968414306640625,-0.333648681640625,0.03424072265625,2026-04-11T19:15:35.870-05:00
1775952935880935200,0.80493505859375,-0.9040679931640625,-0.3454742431640625,0.0195159912109375,2026-04-11T19:15:35.880-05:00
1775952935890992400,0.814992431640625,-0.8815765380859375,-0.3560333251953125,-0.0389862060546875,2026-04-11T19:15:35.890-05:00
1775952935901048300,0.82504833984375,-0.8632659912109375,-0.373626708984375,-0.11834716796875,2026-04-11T19:15:35.901-05:00
1775952935911105500,0.83510546875,-0.79644775390625,-0.3505706787109375,-0.1142425537109375,2026-04-11T19:15:35.911-05:00
1775952935921162500,0.84516259765625,-0.711334228515625,-0.293853759765625,0.0115509033203125,2026-04-11T19:15:35.921-05:00
1775952935931218400,0.855218505859375,-0.645050048828125,-0.263427734375,0.0896453857421875,2026-04-11T19:15:35.931-05:00
1775952935941275400,0.865275390625,-0.57708740234375,-0.26824951171875,0.0825958251953125,2026-04-11T19:15:35.941-05:00
1775952935951332400,0.875332275390625,-0.5566558837890625,-0.315216064453125,0.0031585693359375,2026-04-11T19:15:35.951-05:00
1775952935961388300,0.88538818359375,-0.6224517822265625,-0.33392333984375,-0.06854248046875,2026-04-11T19:15:35.961-05:00
1775952935971445200,0.8954453125,-0.737030029296875,-0.32867431640625,-0.1093902587890625,2026-04-11T19:15:35.971-05:00
1775952935981501400,0.90550146484375,-0.8679046630859375,-0.2933502197265625,-0.09918212890625,2026-04-11T19:15:35.981-05:00
1775952935991558400,0.915558349609375,-0.978424072265625,-0.2415924072265625,-0.0166473388671875,2026-04-11T19:15:35.991-05:00
1775952936001615400,0.925615478515625,-1.03546142578125,-0.2276611328125,0.0246124267578125,2026-04-11T19:15:36.001-05:00
1775952936011671300,0.93567138671875,-1.103790283203125,-0.25439453125,-0.041351318359375,2026-04-11T19:15:36.011-05:00
1775952936021728300,0.945728271484375,-1.1162567138671875,-0.2747039794921875,-0.1610870361328125,2026-04-11T19:15:36.021-05:00
1775952936031785200,0.95578515625,-1.0522613525390625,-0.308685302734375,-0.26025390625,2026-04-11T19:15:36.031-05:00
1775952936041841400,0.96584130859375,-0.90997314453125,-0.2198333740234375,-0.1967926025390625,2026-04-11T19:15:36.041-05:00
1775952936051898400,0.9758984375,-0.825927734375,-0.207916259765625,-0.0401458740234375,2026-04-11T19:15:36.051-05:00
1775952936061955300,0.985955322265625,-0.9146270751953125,-0.51483154296875,-0.1339263916015625,2026-04-11T19:15:36.061-05:00
1775952936072011300,0.99601123046875,-0.9434356689453125,-0.4715728759765625,-0.196563720703125,2026-04-11T19:15:36.072-05:00
1775952936082068200,1.006068115234375,-1.08709716796875,-0.312164306640625,-0.1986083984375,2026-04-11T19:15:36.082-05:00
1775952936092124700,1.016124755859375,-1.26556396484375,-0.293212890625,-0.2050018310546875,2026-04-11T19:15:36.092-05:00
1775952936102181600,1.026181640625,-1.3275604248046875,-0.2968597412109375,-0.25042724609375,2026-04-11T19:15:36.102-05:00
1775952936112238600,1.036238525390625,-1.354827880859375,-0.31805419921875,-0.284088134765625,2026-04-11T19:15:36.112-05:00
1775952936122294800,1.046294677734375,-1.3286590576171875,-0.3441162109375,-0.271881103515625,2026-04-11T19:15:36.122-05:00
1775952936132351700,1.056351806640625,-1.2657928466796875,-0.345703125,-0.2167510986328125,2026-04-11T19:15:36.132-05:00
1775952936142409000,1.066408935546875,-1.1871490478515625,-0.3156280517578125,-0.1291351318359375,2026-04-11T19:15:36.142-05:00
1775952936152464600,1.076464599609375,-1.097076416015625,-0.278411865234375,-0.0431365966796875,2026-04-11T19:15:36.152-05:00
1775952936162521900,1.08652197265625,-1.025665283203125,-0.2606201171875,0.0141754150390625,2026-04-11T19:15:36.162-05:00
1775952936172578800,1.096578857421875,-1.0089111328125,-0.2371673583984375,-0.00543212890625,2026-04-11T19:15:36.172-05:00
1775952936182635000,1.106635009765625,-1.026885986328125,-0.2379913330078125,-0.10565185546875,2026-04-11T19:15:36.182-05:00
1775952936192692000,1.11669189453125,-0.961090087890625,-0.23504638671875,-0.19769287109375,2026-04-11T19:15:36.192-05:00
1775952936202749000,1.1267490234375,-0.8270111083984375,-0.2232666015625,-0.2564544677734375,2026-04-11T19:15:36.202-05:00
1775952936212804900,1.136804931640625,-0.63055419921875,-0.2032318115234375,-0.216461181640625,2026-04-11T19:15:36.212-05:00
1775952936222861800,1.14686181640625,-0.401763916015625,-0.1295928955078125,-0.188568115234375,2026-04-11T19:15:36.222-05:00
1775952936232917800,1.156917724609375,-0.3045501708984375,-0.0774993896484375,-0.1472320556640625,2026-04-11T19:15:36.232-05:00
1775952936242974700,1.166974609375,-0.20751953125,-0.0278778076171875,-0.100494384765625,2026-04-11T19:15:36.242-05:00
1775952936253031700,1.17703173828125,-0.130859375,0.029693603515625,-0.097625732421875,2026-04-11T19:15:36.253-05:00
1775952936263087900,1.187087890625,-0.0582733154296875,0.062713623046875,-0.132843017578125,2026-04-11T19:15:36.263-05:00
1775952936273144800,1.197144775390625,0.009613037109375,0.0890045166015625,-0.194183349609375,2026-04-11T19:15:36.273-05:00
1775952936283201800,1.207201904296875,0.0314788818359375,0.1451263427734375,-0.2406005859375,2026-04-11T19:15:36.283-05:00
1775952936293257700,1.2172578125,0.0272674560546875,0.172821044921875,-0.248870849609375,2026-04-11T19:15:36.293-05:00
1775952936303314700,1.227314697265625,0.0464324951171875,0.2165985107421875,-0.2447357177734375,2026-04-11T19:15:36.303-05:00
1775952936313371600,1.23737158203125,0.0894927978515625,0.282440185546875,-0.22454833984375,2026-04-11T19:15:36.313-05:00
1775952936323427800,1.247427734375,0.154449462890625,0.366943359375,-0.1961669921875,2026-04-11T19:15:36.323-05:00
1775952936333484800,1.25748486328125,0.238494873046875,0.4591064453125,-0.155303955078125,2026-04-11T19:15:36.333-05:00
1775952936343540700,1.267540771484375,0.3078155517578125,0.5035858154296875,-0.1318511962890625,2026-04-11T19:15:36.343-05:00
1775952936353597700,1.27759765625,0.2982635498046875,0.5411224365234375,-0.185577392578125,2026-04-11T19:15:36.353-05:00
1775952936363655000,1.287655029296875,0.275848388671875,0.635406494140625,-0.2656707763671875,2026-04-11T19:15:36.363-05:00
1775952936373710600,1.297710693359375,0.284820556640625,0.7322845458984375,-0.48980712890625,2026-04-11T19:15:36.373-05:00
1775952936383767800,1.307767822265625,0.1674346923828125,0.79925537109375,-0.721923828125,2026-04-11T19:15:36.383-05:00
1775952936393824800,1.31782470703125,0.0909576416015625,0.840118408203125,-0.871826171875,2026-04-11T19:15:36.393-05:00
1775952936403881000,1.327880859375,0.0143890380859375,0.8973541259765625,-0.942901611328125,2026-04-11T19:15:36.403-05:00
1775952936413938000,1.33793798828125,-0.1012725830078125,0.9369049072265625,-0.9752044677734375,2026-04-11T19:15:36.413-05:00
1775952936423993900,1.347993896484375,-0.1400299072265625,0.9891204833984375,-1.0220794677734375,2026-04-11T19:15:36.423-05:00
1775952936434050800,1.35805078125,-0.1434173583984375,1.021636962890625,-1.132354736328125,2026-04-11T19:15:36.434-05:00
1775952936444107800,1.368107666015625,-0.0936431884765625,1.0456085205078125,-1.248504638671875,2026-04-11T19:15:36.444-05:00
1775952936454164000,1.3781640625,-0.043701171875,1.079315185546875,-1.3466033935546875,2026-04-11T19:15:36.454-05:00
1775952936464221000,1.388220947265625,-0.039764404296875,1.1006622314453125,-1.4644927978515625,2026-04-11T19:15:36.464-05:00
1775952936474278000,1.39827783203125,-0.0565185546875,1.0890350341796875,-1.65362548828125,2026-04-11T19:15:36.474-05:00
1775952936484333800,1.408333740234375,-0.089202880859375,1.0298614501953125,-1.84576416015625,2026-04-11T19:15:36.484-05:00
1775952936494390800,1.418390869140625,-0.1214141845703125,0.9658203125,-2.0168609619140625,2026-04-11T19:15:36.494-05:00
1775952936504447700,1.42844775390625,-0.294525146484375,0.9408416748046875,-2.1763458251953125,2026-04-11T19:15:36.504-05:00
1775952936514503700,1.438503662109375,-0.55419921875,0.9993438720703125,-2.2413482666015625,2026-04-11T19:15:36.514-05:00
1775952936524560600,1.448560546875,-0.7505950927734375,1.0928497314453125,-2.20050048828125,2026-04-11T19:15:36.524-05:00
1775952936534617600,1.45861767578125,-0.94049072265625,1.0872650146484375,-2.188385009765625,2026-04-11T19:15:36.534-05:00
1775952936544673800,1.468673828125,-1.0856170654296875,1.0254669189453125,-2.2311248779296875,2026-04-11T19:15:36.544-05:00
1775952936554730800,1.478730712890625,-1.2733612060546875,0.9036865234375,-2.4754638671875,2026-04-11T19:15:36.554-05:00
1775952936564786700,1.48878662109375,-1.40777587890625,0.6805877685546875,-2.6971893310546875,2026-04-11T19:15:36.564-05:00
1775952936574843600,1.49884375,-1.25067138671875,0.6291046142578125,-2.8054656982421875,2026-04-11T19:15:36.574-05:00
1775952936584900900,1.50890087890625,-0.9311981201171875,0.5240020751953125,-2.696441650390625,2026-04-11T19:15:36.584-05:00
1775952936594956800,1.518956787109375,-0.5803680419921875,0.3180694580078125,-2.41375732421875,2026-04-11T19:15:36.594-05:00
1775952936605014000,1.529013916015625,-0.212493896484375,0.2359619140625,-2.079376220703125,2026-04-11T19:15:36.605-05:00
1775952936615071000,1.539071044921875,0.039764404296875,0.1665191650390625,-1.9005126953125,2026-04-11T19:15:36.615-05:00
1775952936625127000,1.549126953125,0.1227874755859375,0.0491180419921875,-2.09521484375,2026-04-11T19:15:36.625-05:00
1775952936635183900,1.559183837890625,0.2611236572265625,0.1038055419921875,-2.11761474609375,2026-04-11T19:15:36.635-05:00
1775952936645240800,1.56924072265625,0.42144775390625,0.116607666015625,-2.0479736328125,2026-04-11T19:15:36.645-05:00
1775952936655296800,1.579296875,0.42767333984375,-0.0478515625,-2.1647491455078125,2026-04-11T19:15:36.655-05:00
1775952936665353700,1.589353759765625,0.33734130859375,-0.194061279296875,-2.2536163330078125,2026-04-11T19:15:36.665-05:00
1775952936675410000,1.599409912109375,0.302093505859375,-0.2692413330078125,-2.20880126953125,2026-04-11T19:15:36.675-05:00
1775952936685467000,1.609466796875,0.3438873291015625,-0.25830078125,-2.0201568603515625,2026-04-11T19:15:36.685-05:00
1775952936695523800,1.61952392578125,0.433837890625,-0.1277618408203125,-1.748504638671875,2026-04-11T19:15:36.695-05:00
1775952936705579800,1.629579833984375,0.539031982421875,0.011322021484375,-1.4678497314453125,2026-04-11T19:15:36.705-05:00
1775952936715636700,1.63963671875,0.571533203125,0.103485107421875,-1.2277069091796875,2026-04-11T19:15:36.715-05:00
1775952936725693700,1.649693603515625,0.5870208740234375,0.231048583984375,-1.0059814453125,2026-04-11T19:15:36.725-05:00
1775952936735750000,1.65975,0.8301849365234375,0.4131317138671875,-0.8366241455078125,2026-04-11T19:15:36.735-05:00
1775952936745806800,1.669806884765625,0.9334564208984375,0.4998016357421875,-0.77349853515625,2026-04-11T19:15:36.745-05:00
1775952936755863800,1.67986376953125,0.29779052734375,0.3814697265625,-0.642578125,2026-04-11T19:15:36.755-05:00
1775952936765919700,1.689919677734375,0.453460693359375,0.4772491455078125,-0.5738525390625,2026-04-11T19:15:36.765-05:00
1775952936775976700,1.699976806640625,0.51336669921875,0.6233367919921875,-0.49151611328125,2026-04-11T19:15:36.775-05:00
1775952936786032600,1.71003271484375,0.47271728515625,0.7054290771484375,-0.5650177001953125,2026-04-11T19:15:36.786-05:00
1775952936796089600,1.720089599609375,0.2484893798828125,0.8294219970703125,-0.657989501953125,2026-04-11T19:15:36.796-05:00
1775952936806146800,1.730146728515625,0.159881591796875,0.801055908203125,-0.479644775390625,2026-04-11T19:15:36.806-05:00
1775952936816202800,1.74020263671875,-0.0687713623046875,0.8331298828125,-0.7241973876953125,2026-04-11T19:15:36.816-05:00
1775952936826260000,1.750260009765625,-0.090545654296875,0.8551483154296875,-0.6188507080078125,2026-04-11T19:15:36.826-05:00
1775952936836317000,1.76031689453125,0.1554107666015625,0.77197265625,-0.4316253662109375,2026-04-11T19:15:36.836-05:00
1775952936846372900,1.770372802734375,0.183074951171875,0.5630035400390625,-0.727081298828125,2026-04-11T19:15:36.846-05:00
1775952936856429800,1.780429931640625,0.134246826171875,0.416717529296875,-1.038604736328125,2026-04-11T19:15:36.856-05:00
1775952936866485800,1.79048583984375,-0.0453643798828125,0.1692352294921875,-1.296295166015625,2026-04-11T19:15:36.866-05:00
1775952936876543000,1.80054296875,-0.41162109375,0.2431793212890625,-1.5560455322265625,2026-04-11T19:15:36.876-05:00
1775952936886600000,1.810599853515625,-0.4652862548828125,0.4308929443359375,-1.4737396240234375,2026-04-11T19:15:36.886-05:00
1775952936896656000,1.82065576171875,-0.494476318359375,0.4137725830078125,-1.190216064453125,2026-04-11T19:15:36.896-05:00
1775952936906712800,1.830712890625,-0.5346832275390625,0.429412841796875,-0.92059326171875,2026-04-11T19:15:36.906-05:00
1775952936916769800,1.840769775390625,-0.40301513671875,0.5185546875,-0.7752227783203125,2026-04-11T19:15:36.916-05:00
1775952936926825700,1.85082568359375,-0.162506103515625,0.529510498046875,-0.57598876953125,2026-04-11T19:15:36.926-05:00
1775952936936882700,1.860882568359375,0.0919952392578125,0.55511474609375,-0.2657012939453125,2026-04-11T19:15:36.936-05:00
1775952936946939600,1.870939697265625,0.4977569580078125,0.6080322265625,-0.13238525390625,2026-04-11T19:15:36.946-05:00
1775952936956995800,1.880995849609375,0.7062530517578125,0.548095703125,-0.1736297607421875,2026-04-11T19:15:36.956-05:00
1775952936967052800,1.891052734375,0.4714202880859375,0.6419677734375,-0.492523193359375,2026-04-11T19:15:36.967-05:00
1775952936977109800,1.90110986328125,0.3431243896484375,0.5776824951171875,-0.72308349609375,2026-04-11T19:15:36.977-05:00
1775952936987165700,1.911165771484375,0.212982177734375,0.4957427978515625,-0.8052520751953125,2026-04-11T19:15:36.987-05:00
1775952936997222700,1.92122265625,0.193359375,0.5955352783203125,-0.6736907958984375,2026-04-11T19:15:36.997-05:00
1775952937007278800,1.93127880859375,0.168121337890625,0.4438629150390625,-0.1957855224609375,2026-04-11T19:15:37.007-05:00
1775952937017335800,1.941335693359375,-0.0162200927734375,0.355255126953125,-0.0224609375,2026-04-11T19:15:37.017-05:00
1775952937027392800,1.951392822265625,-0.0136566162109375,0.4969635009765625,-0.1253204345703125,2026-04-11T19:15:37.027-05:00
1775952937037448700,1.96144873046875,0.0036773681640625,0.6965179443359375,-0.3242034912109375,2026-04-11T19:15:37.037-05:00
1775952937047506000,1.971505859375,0.01153564453125,0.9182281494140625,-0.6490936279296875,2026-04-11T19:15:37.047-05:00
1775952937057563000,1.98156298828125,0.0086669921875,0.8806610107421875,-0.7979278564453125,2026-04-11T19:15:37.057-05:00
1775952937067618800,1.991618896484375,-0.0884857177734375,0.7538604736328125,-0.87646484375,2026-04-11T19:15:37.067-05:00
1775952937077675800,2.00167578125,-0.20721435546875,0.6818695068359375,-0.9315948486328125,2026-04-11T19:15:37.077-05:00
1775952937087732700,2.011732666015625,-0.229766845703125,0.648712158203125,-0.92718505859375,2026-04-11T19:15:37.087-05:00
1775952937097788400,2.021788330078125,-0.1563873291015625,0.6839752197265625,-0.8788909912109375,2026-04-11T19:15:37.097-05:00
1775952937107845400,2.031845458984375,-0.024261474609375,0.826934814453125,-0.782623291015625,2026-04-11T19:15:37.107-05:00
1775952937117901300,2.0419013671875,0.0872650146484375,0.9331817626953125,-0.6477203369140625,2026-04-11T19:15:37.117-05:00
1775952937127958300,2.051958251953125,0.1468658447265625,0.9388275146484375,-0.5469818115234375,2026-04-11T19:15:37.127-05:00
1775952937138015200,2.06201513671875,0.2078094482421875,0.896026611328125,-0.4971160888671875,2026-04-11T19:15:37.138-05:00
1775952937148071400,2.072071533203125,0.2760162353515625,0.839752197265625,-0.4753265380859375,2026-04-11T19:15:37.148-05:00
1775952937158128400,2.08212841796875,0.352386474609375,0.776702880859375,-0.4436798095703125,2026-04-11T19:15:37.158-05:00
1775952937168185600,2.092185546875,0.495574951171875,0.7124481201171875,-0.454010009765625,2026-04-11T19:15:37.168-05:00
1775952937178241300,2.1022412109375,0.6060943603515625,0.5637359619140625,-0.590911865234375,2026-04-11T19:15:37.178-05:00
1775952937188298500,2.112298583984375,0.6930694580078125,0.5418853759765625,-0.7213897705078125,2026-04-11T19:15:37.188-05:00
1775952937198355500,2.12235546875,0.7848663330078125,0.7230987548828125,-0.80096435546875,2026-04-11T19:15:37.198-05:00
1775952937208411400,2.132411376953125,0.6003265380859375,0.84417724609375,-0.784912109375,2026-04-11T19:15:37.208-05:00
1775952937218468400,2.14246826171875,0.4154052734375,0.9152984619140625,-0.807586669921875,2026-04-11T19:15:37.218-05:00
1775952937228524500,2.152524658203125,0.34149169921875,0.923919677734375,-0.8301849365234375,2026-04-11T19:15:37.228-05:00
1775952937238581500,2.16258154296875,0.267333984375,0.886444091796875,-0.8145294189453125,2026-04-11T19:15:37.238-05:00
1775952937248638500,2.172638427734375,0.220855712890625,0.849578857421875,-0.7748870849609375,2026-04-11T19:15:37.248-05:00
1775952937258694400,2.1826943359375,0.20819091796875,0.806793212890625,-0.709503173828125,2026-04-11T19:15:37.258-05:00
1775952937268751400,2.19275146484375,0.190277099609375,0.7547760009765625,-0.6189117431640625,2026-04-11T19:15:37.268-05:00
1775952937278808300,2.202808349609375,0.1421661376953125,0.715667724609375,-0.546417236328125,2026-04-11T19:15:37.278-05:00
1775952937288864500,2.212864501953125,0.1150970458984375,0.7062835693359375,-0.5111541748046875,2026-04-11T19:15:37.288-05:00
1775952937298921500,2.22292138671875,0.1069793701171875,0.696014404296875,-0.467376708984375,2026-04-11T19:15:37.298-05:00
1775952937308978400,2.232978515625,0.1102752685546875,0.6536865234375,-0.4124298095703125,2026-04-11T19:15:37.308-05:00
1775952937319034400,2.243034423828125,0.13348388671875,0.6337432861328125,-0.377349853515625,2026-04-11T19:15:37.319-05:00
1775952937329091300,2.25309130859375,0.1559600830078125,0.6198577880859375,-0.34930419921875,2026-04-11T19:15:37.329-05:00
1775952937339147300,2.263147216796875,0.1669769287109375,0.611053466796875,-0.326141357421875,2026-04-11T19:15:37.339-05:00
1775952937349204500,2.27320458984375,0.18902587890625,0.61895751953125,-0.3128662109375,2026-04-11T19:15:37.349-05:00
1775952937359261400,2.283261474609375,0.2164154052734375,0.61712646484375,-0.3022003173828125,2026-04-11T19:15:37.359-05:00
1775952937369317400,2.2933173828125,0.2291259765625,0.5906829833984375,-0.2701568603515625,2026-04-11T19:15:37.369-05:00
1775952937379374300,2.303374267578125,0.2236328125,0.577117919921875,-0.2550201416015625,2026-04-11T19:15:37.379-05:00
1775952937389431600,2.313431640625,0.174285888671875,0.52947998046875,-0.2249755859375,2026-04-11T19:15:37.389-05:00
1775952937399487200,2.3234873046875,0.1036834716796875,0.4564361572265625,-0.18170166015625,2026-04-11T19:15:37.399-05:00
1775952937409544400,2.33354443359375,0.10504150390625,0.441131591796875,-0.148468017578125,2026-04-11T19:15:37.409-05:00
1775952937419601400,2.343601318359375,0.11114501953125,0.44097900390625,-0.1123046875,2026-04-11T19:15:37.419-05:00
1775952937429657600,2.35365771484375,0.0855712890625,0.4090423583984375,-0.0706024169921875,2026-04-11T19:15:37.429-05:00
1775952937439714600,2.363714599609375,0.05633544921875,0.39971923828125,-0.0458984375,2026-04-11T19:15:37.439-05:00
1775952937449771500,2.373771484375,0.0262603759765625,0.3565216064453125,-0.02471923828125,2026-04-11T19:15:37.449-05:00
1775952937459827500,2.383827392578125,-0.01220703125,0.2820892333984375,-0.008056640625,2026-04-11T19:15:37.459-05:00
1775952937469884400,2.393884521484375,-0.029052734375,0.2108306884765625,0.0201568603515625,2026-04-11T19:15:37.469-05:00
1775952937479940400,2.4039404296875,-0.0040435791015625,0.2415924072265625,0.0144805908203125,2026-04-11T19:15:37.479-05:00
1775952937489997300,2.413997314453125,-0.0063629150390625,0.39495849609375,-0.0813751220703125,2026-04-11T19:15:37.489-05:00
1775952937500054500,2.424054443359375,-0.0276641845703125,0.6860504150390625,-0.2081146240234375,2026-04-11T19:15:37.500-05:00
1775952937510110500,2.4341103515625,-0.08868408203125,1.304443359375,-0.32061767578125,2026-04-11T19:15:37.510-05:00
1775952937520167400,2.44416748046875,-0.19244384765625,2.1322174072265625,-0.6294097900390625,2026-04-11T19:15:37.520-05:00
1775952937530224400,2.454224365234375,-0.225494384765625,2.935028076171875,-0.92620849609375,2026-04-11T19:15:37.530-05:00
1775952937540280300,2.4642802734375,-0.3695831298828125,3.4809417724609375,-1.014434814453125,2026-04-11T19:15:37.540-05:00
1775952937550337300,2.474337158203125,-0.541778564453125,3.601959228515625,-0.9075927734375,2026-04-11T19:15:37.550-05:00
1775952937560394200,2.484394287109375,-0.6128692626953125,3.3460235595703125,-0.583648681640625,2026-04-11T19:15:37.560-05:00
1775952937570450400,2.494450439453125,-0.85455322265625,2.8096771240234375,-0.071075439453125,2026-04-11T19:15:37.570-05:00
1775952937580507400,2.50450732421875,-0.992218017578125,1.8774871826171875,0.275299072265625,2026-04-11T19:15:37.580-05:00
1775952937590564400,2.514564453125,-0.4966888427734375,1.1977691650390625,0.153961181640625,2026-04-11T19:15:37.590-05:00
1775952937600620300,2.524620361328125,-0.1906280517578125,0.9417266845703125,-0.0425262451171875,2026-04-11T19:15:37.600-05:00
1775952937610677500,2.534677490234375,-0.0868377685546875,0.728759765625,-0.124969482421875,2026-04-11T19:15:37.610-05:00
1775952937620733400,2.5447333984375,-0.032958984375,0.5606689453125,-0.1378326416015625,2026-04-11T19:15:37.620-05:00
1775952937630790400,2.554790283203125,0.029632568359375,0.4744873046875,-0.1454010009765625,2026-04-11T19:15:37.630-05:00
1775952937640847600,2.56484765625,0.267425537109375,0.44940185546875,-0.17022705078125,2026-04-11T19:15:37.640-05:00
1775952937650903600,2.574903564453125,2.25921630859375,0.5283355712890625,-0.3068695068359375,2026-04-11T19:15:37.650-05:00
1775952937660960500,2.58496044921875,0.98602294921875,0.572021484375,-0.2082672119140625,2026-04-11T19:15:37.660-05:00
1775952937671017500,2.595017578125,-0.1344146728515625,0.60107421875,-0.0397186279296875,2026-04-11T19:15:37.671-05:00
1775952937681073400,2.605073486328125,-0.041839599609375,0.7812957763671875,-0.1001434326171875,2026-04-11T19:15:37.681-05:00
1775952937691130400,2.61513037109375,-0.134368896484375,0.974395751953125,-0.1628265380859375,2026-04-11T19:15:37.691-05:00
1775952937701187300,2.625187255859375,-0.3280487060546875,1.194488525390625,-0.2554473876953125,2026-04-11T19:15:37.701-05:00
1775952937711243500,2.635243408203125,-0.3625640869140625,1.3637847900390625,-0.3752288818359375,2026-04-11T19:15:37.711-05:00
1775952937721300500,2.645300537109375,-0.2231597900390625,1.3665008544921875,-0.4881134033203125,2026-04-11T19:15:37.721-05:00
1775952937731356400,2.6553564453125,-0.136505126953125,1.2439117431640625,-0.5544586181640625,2026-04-11T19:15:37.731-05:00
1775952937741413400,2.665413330078125,-0.10205078125,1.1009063720703125,-0.5528717041015625,2026-04-11T19:15:37.741-05:00
1775952937751470300,2.67547021484375,-0.0962066650390625,0.942169189453125,-0.5347442626953125,2026-04-11T19:15:37.751-05:00
1775952937761526300,2.6855263671875,-0.098358154296875,0.82891845703125,-0.510101318359375,2026-04-11T19:15:37.761-05:00
1775952937771583500,2.69558349609375,-0.0929107666015625,0.766845703125,-0.4969635009765625,2026-04-11T19:15:37.771-05:00
1775952937781640400,2.705640380859375,-0.1005859375,0.739776611328125,-0.4953765869140625,2026-04-11T19:15:37.781-05:00
1775952937791696400,2.7156962890625,-0.1083221435546875,0.7421722412109375,-0.513427734375,2026-04-11T19:15:37.791-05:00
1775952937801753300,2.72575341796875,-0.124908447265625,0.7711944580078125,-0.5489959716796875,2026-04-11T19:15:37.801-05:00
1775952937811810300,2.735810302734375,-0.1336669921875,0.8136749267578125,-0.5954132080078125,2026-04-11T19:15:37.811-05:00
1775952937821866200,2.7458662109375,-0.14166259765625,0.858795166015625,-0.6521148681640625,2026-04-11T19:15:37.821-05:00
1775952937831923500,2.75592333984375,-0.145904541015625,0.89593505859375,-0.70208740234375,2026-04-11T19:15:37.831-05:00
1775952937841979400,2.7659794921875,-0.148345947265625,0.92584228515625,-0.75909423828125,2026-04-11T19:15:37.841-05:00
1775952937852036600,2.77603662109375,-0.142852783203125,0.918182373046875,-0.786834716796875,2026-04-11T19:15:37.852-05:00
1775952937862093600,2.786093505859375,-0.1419830322265625,0.89727783203125,-0.790863037109375,2026-04-11T19:15:37.862-05:00
1775952937872149500,2.7961494140625,-0.1368408203125,0.8446044921875,-0.753448486328125,2026-04-11T19:15:37.872-05:00
1775952937882206500,2.80620654296875,-0.1248779296875,0.7707672119140625,-0.68524169921875,2026-04-11T19:15:37.882-05:00
1775952937892263400,2.816263427734375,-0.11993408203125,0.707183837890625,-0.639373779296875,2026-04-11T19:15:37.892-05:00
1775952937902319400,2.8263193359375,-0.104736328125,0.6471099853515625,-0.608154296875,2026-04-11T19:15:37.902-05:00
1775952937912376600,2.83637646484375,-0.082550048828125,0.6009063720703125,-0.58447265625,2026-04-11T19:15:37.912-05:00
1775952937922433500,2.84643359375,-0.08380126953125,0.5718841552734375,-0.629241943359375,2026-04-11T19:15:37.922-05:00
1775952937932489500,2.856489501953125,-0.0933380126953125,0.5577850341796875,-0.687255859375,2026-04-11T19:15:37.932-05:00
1775952937942546400,2.86654638671875,-0.099090576171875,0.561676025390625,-0.69989013671875,2026-04-11T19:15:37.942-05:00
1775952937952602400,2.876602294921875,-0.1031494140625,0.5700531005859375,-0.6823577880859375,2026-04-11T19:15:37.952-05:00
1775952937962659300,2.886659423828125,-0.1107330322265625,0.592498779296875,-0.6431732177734375,2026-04-11T19:15:37.962-05:00
1775952937972716300,2.89671630859375,-0.1202545166015625,0.6202545166015625,-0.597564697265625,2026-04-11T19:15:37.972-05:00
1775952937982772500,2.9067724609375,-0.1260833740234375,0.6473846435546875,-0.5672149658203125,2026-04-11T19:15:37.982-05:00
1775952937992829400,2.916829345703125,-0.13116455078125,0.668426513671875,-0.5432586669921875,2026-04-11T19:15:37.992-05:00
1775952938002886400,2.926886474609375,-0.13482666015625,0.6783294677734375,-0.5291595458984375,2026-04-11T19:15:38.002-05:00
1775952938012942300,2.9369423828125,-0.1359405517578125,0.6874237060546875,-0.5150146484375,2026-04-11T19:15:38.012-05:00
1775952938022999300,2.946999267578125,-0.1317596435546875,0.694793701171875,-0.5021820068359375,2026-04-11T19:15:38.022-05:00
1775952938033056300,2.95705615234375,-0.1270599365234375,0.71148681640625,-0.49432373046875,2026-04-11T19:15:38.033-05:00
1775952938043112400,2.967112548828125,-0.1179046630859375,0.7496337890625,-0.4947509765625,2026-04-11T19:15:38.043-05:00
1775952938053169700,2.977169677734375,-0.115203857421875,0.8121490478515625,-0.5080108642578125,2026-04-11T19:15:38.053-05:00
1775952938063226600,2.9872265625,-0.113525390625,0.893096923828125,-0.542236328125,2026-04-11T19:15:38.063-05:00
1775952938073282600,2.997282470703125,-0.11065673828125,0.970428466796875,-0.57421875,2026-04-11T19:15:38.073-05:00
1775952938083339500,3.007339599609375,-0.0897674560546875,1.0229949951171875,-0.589691162109375,2026-04-11T19:15:38.083-05:00
1775952938093395700,3.017395751953125,0.02032470703125,1.0140838623046875,-0.5758209228515625,2026-04-11T19:15:38.093-05:00
1775952938103452700,3.02745263671875,0.36260986328125,0.928253173828125,-0.5451812744140625,2026-04-11T19:15:38.103-05:00
1775952938113509600,3.037509521484375,1.823883056640625,0.9122314453125,-0.542694091796875,2026-04-11T19:15:38.113-05:00
1775952938123565800,3.04756591796875,1.4127960205078125,0.8658905029296875,-0.506011962890625,2026-04-11T19:15:38.123-05:00
1775952938133622800,3.057622802734375,0.035247802734375,0.8293609619140625,-0.4472503662109375,2026-04-11T19:15:38.133-05:00
1775952938143679700,3.0676796875,-0.0390167236328125,0.8803558349609375,-0.521820068359375,2026-04-11T19:15:38.143-05:00
1775952938153735700,3.077735595703125,-0.122283935546875,0.880157470703125,-0.5387420654296875,2026-04-11T19:15:38.153-05:00
1775952938163792600,3.087792724609375,-0.15399169921875,0.857177734375,-0.52716064453125,2026-04-11T19:15:38.163-05:00
1775952938173849600,3.097849609375,-0.1748046875,0.8115081787109375,-0.507568359375,2026-04-11T19:15:38.173-05:00
1775952938183905500,3.107905517578125,-0.1915130615234375,0.7665557861328125,-0.4908905029296875,2026-04-11T19:15:38.183-05:00
1775952938193962800,3.117962646484375,-0.20147705078125,0.7474517822265625,-0.492034912109375,2026-04-11T19:15:38.193-05:00
1775952938204018700,3.128018798828125,-0.20843505859375,0.7527313232421875,-0.50213623046875,2026-04-11T19:15:38.204-05:00
1775952938214075600,3.13807568359375,-0.216827392578125,0.75689697265625,-0.526947021484375,2026-04-11T19:15:38.214-05:00
1775952938224132900,3.1481328125,-0.2223663330078125,0.751373291015625,-0.5508880615234375,2026-04-11T19:15:38.224-05:00
1775952938234188500,3.1581884765625,-0.228240966796875,0.7391204833984375,-0.55609130859375,2026-04-11T19:15:38.234-05:00
1775952938244245800,3.168245849609375,-0.228668212890625,0.7211761474609375,-0.548980712890625,2026-04-11T19:15:38.244-05:00
1775952938254302700,3.178302734375,-0.2191162109375,0.6895599365234375,-0.5638580322265625,2026-04-11T19:15:38.254-05:00
1775952938264359000,3.18835888671875,-0.2097320556640625,0.654266357421875,-0.574493408203125,2026-04-11T19:15:38.264-05:00
1775952938274415900,3.198415771484375,-0.2034454345703125,0.6371917724609375,-0.590545654296875,2026-04-11T19:15:38.274-05:00
1775952938284472800,3.208472900390625,-0.1967315673828125,0.6193695068359375,-0.6042938232421875,2026-04-11T19:15:38.284-05:00
1775952938294528800,3.21852880859375,-0.1815338134765625,0.59991455078125,-0.605712890625,2026-04-11T19:15:38.294-05:00
1775952938304585700,3.228585693359375,-0.16729736328125,0.56414794921875,-0.5915069580078125,2026-04-11T19:15:38.304-05:00
1775952938314641700,3.2386416015625,-0.15576171875,0.5341796875,-0.580078125,2026-04-11T19:15:38.314-05:00
1775952938324698600,3.24869873046875,-0.1361083984375,0.50640869140625,-0.5639495849609375,2026-04-11T19:15:38.324-05:00
1775952938334755600,3.258755615234375,-0.10430908203125,0.4973602294921875,-0.5646820068359375,2026-04-11T19:15:38.334-05:00
1775952938344811800,3.268811767578125,-0.0775604248046875,0.4989013671875,-0.56622314453125,2026-04-11T19:15:38.344-05:00
1775952938354868700,3.27886865234375,-0.0572662353515625,0.5001678466796875,-0.5480194091796875,2026-04-11T19:15:38.354-05:00
1775952938364925700,3.28892578125,-0.0413818359375,0.5059661865234375,-0.52587890625,2026-04-11T19:15:38.364-05:00
1775952938374981600,3.298981689453125,-0.0238037109375,0.504852294921875,-0.4915924072265625,2026-04-11T19:15:38.374-05:00
1775952938385038600,3.30903857421875,-0.00616455078125,0.4979248046875,-0.4619903564453125,2026-04-11T19:15:38.385-05:00
1775952938395095600,3.319095458984375,-0.0069427490234375,0.496673583984375,-0.4598236083984375,2026-04-11T19:15:38.395-05:00
1775952938405151700,3.32915185546875,-0.0413665771484375,0.528076171875,-0.5249786376953125,2026-04-11T19:15:38.405-05:00
1775952938415208700,3.339208740234375,-0.095947265625,0.5668487548828125,-0.609588623046875,2026-04-11T19:15:38.415-05:00
1775952938425264600,3.3492646484375,-0.1492767333984375,0.608428955078125,-0.6612396240234375,2026-04-11T19:15:38.425-05:00
1775952938435321600,3.359321533203125,-0.19744873046875,0.6522216796875,-0.7129058837890625,2026-04-11T19:15:38.435-05:00
1775952938445378800,3.36937890625,-0.2495269775390625,0.678802490234375,-0.765045166015625,2026-04-11T19:15:38.445-05:00
1775952938455434500,3.3794345703125,-0.305389404296875,0.700225830078125,-0.813812255859375,2026-04-11T19:15:38.455-05:00
1775952938465491700,3.38949169921875,-0.3516845703125,0.741729736328125,-0.8436279296875,2026-04-11T19:15:38.465-05:00
1775952938475548700,3.399548583984375,-0.394134521484375,0.82220458984375,-0.8382110595703125,2026-04-11T19:15:38.475-05:00
1775952938485604900,3.40960498046875,-0.448089599609375,0.922454833984375,-0.7674713134765625,2026-04-11T19:15:38.485-05:00
1775952938495661800,3.419661865234375,-0.4817047119140625,1.0207366943359375,-0.63214111328125,2026-04-11T19:15:38.495-05:00
1775952938505718800,3.42971875,-0.4815826416015625,1.143310546875,-0.519744873046875,2026-04-11T19:15:38.505-05:00
1775952938515774700,3.439774658203125,-0.4699859619140625,1.2415313720703125,-0.43109130859375,2026-04-11T19:15:38.515-05:00
1775952938525831700,3.449831787109375,-0.4723663330078125,1.2225494384765625,-0.3343963623046875,2026-04-11T19:15:38.525-05:00
1775952938535888600,3.459888671875,-0.445709228515625,1.096923828125,-0.2679595947265625,2026-04-11T19:15:38.535-05:00
1775952938545944800,3.46994482421875,-0.3842315673828125,0.9251556396484375,-0.2924346923828125,2026-04-11T19:15:38.545-05:00
1775952938556001800,3.480001708984375,-0.3590087890625,0.8024749755859375,-0.2996063232421875,2026-04-11T19:15:38.556-05:00
1775952938566057700,3.4900576171875,-0.4068145751953125,0.75604248046875,-0.231292724609375,2026-04-11T19:15:38.566-05:00
1775952938576114700,3.50011474609375,-0.493072509765625,0.7469940185546875,-0.1680908203125,2026-04-11T19:15:38.576-05:00
1775952938586171600,3.510171630859375,-0.55560302734375,0.7926177978515625,-0.1145477294921875,2026-04-11T19:15:38.586-05:00
1775952938596227600,3.5202275390625,-0.6268310546875,0.8804931640625,-0.074432373046875,2026-04-11T19:15:38.596-05:00
1775952938606284500,3.530284423828125,-0.6970977783203125,0.9905548095703125,-0.082183837890625,2026-04-11T19:15:38.606-05:00
1775952938616341800,3.540341796875,-0.712127685546875,1.093963623046875,-0.1023712158203125,2026-04-11T19:15:38.616-05:00
1775952938626397700,3.550397705078125,-0.6920013427734375,1.1563720703125,-0.1124114990234375,2026-04-11T19:15:38.626-05:00
1775952938636454700,3.56045458984375,-0.67242431640625,1.1552886962890625,-0.067901611328125,2026-04-11T19:15:38.636-05:00
1775952938646510600,3.570510498046875,-0.6375732421875,1.1081390380859375,-0.0121612548828125,2026-04-11T19:15:38.646-05:00
1775952938656567600,3.580567626953125,-0.5719757080078125,1.0092926025390625,-0.044952392578125,2026-04-11T19:15:38.656-05:00
1775952938666624500,3.59062451171875,-0.455535888671875,0.958740234375,-0.0765380859375,2026-04-11T19:15:38.666-05:00
1775952938676680700,3.6006806640625,-0.3522186279296875,0.9687652587890625,-0.0800323486328125,2026-04-11T19:15:38.676-05:00
1775952938686738000,3.610738037109375,-0.0922088623046875,1.180816650390625,0.078216552734375,2026-04-11T19:15:38.686-05:00
1775952938696795000,3.620794921875,0.1201019287109375,1.4543914794921875,0.283447265625,2026-04-11T19:15:38.696-05:00
1775952938706850800,3.630850830078125,-0.1413726806640625,1.505340576171875,0.264617919921875,2026-04-11T19:15:38.706-05:00
1775952938716907800,3.64090771484375,-0.3012237548828125,1.5086212158203125,0.1793670654296875,2026-04-11T19:15:38.716-05:00
1775952938726964700,3.65096484375,-0.3590240478515625,1.4856109619140625,0.0453643798828125,2026-04-11T19:15:38.726-05:00
1775952938737020700,3.661020751953125,-0.366607666015625,1.2490081787109375,-0.228851318359375,2026-04-11T19:15:38.737-05:00
1775952938747077600,3.67107763671875,-0.2244873046875,1.0392303466796875,-0.4417572021484375,2026-04-11T19:15:38.747-05:00
1775952938757134800,3.681134765625,-0.0911712646484375,0.9609222412109375,-0.5580902099609375,2026-04-11T19:15:38.757-05:00
1775952938767190800,3.691190673828125,-0.036163330078125,0.9185333251953125,-0.6378936767578125,2026-04-11T19:15:38.767-05:00
1775952938777247700,3.701247802734375,-0.0521087646484375,0.88409423828125,-0.6688385009765625,2026-04-11T19:15:38.777-05:00
1775952938787304700,3.7113046875,-0.0877838134765625,0.8465576171875,-0.6750335693359375,2026-04-11T19:15:38.787-05:00
1775952938797360600,3.721360595703125,-0.1315765380859375,0.8253631591796875,-0.6713714599609375,2026-04-11T19:15:38.797-05:00
1775952938807417600,3.73141748046875,-0.17291259765625,0.8138427734375,-0.650421142578125,2026-04-11T19:15:38.807-05:00
1775952938817473800,3.741473876953125,-0.2112884521484375,0.800384521484375,-0.6046905517578125,2026-04-11T19:15:38.817-05:00
1775952938827530800,3.75153076171875,-0.2585906982421875,0.820068359375,-0.5260772705078125,2026-04-11T19:15:38.827-05:00
1775952938837587700,3.761587646484375,-0.314208984375,0.887939453125,-0.4412078857421875,2026-04-11T19:15:38.837-05:00
1775952938847643600,3.7716435546875,-0.3648223876953125,0.964569091796875,-0.376708984375,2026-04-11T19:15:38.847-05:00
1775952938857700600,3.78170068359375,-0.39727783203125,1.05072021484375,-0.32861328125,2026-04-11T19:15:38.857-05:00
1775952938867757600,3.791757568359375,-0.39794921875,1.1321258544921875,-0.3059234619140625,2026-04-11T19:15:38.867-05:00
1775952938877813500,3.8018134765625,-0.37109375,1.192047119140625,-0.302581787109375,2026-04-11T19:15:38.877-05:00
1775952938887870700,3.81187060546875,-0.3371734619140625,1.2011566162109375,-0.3112640380859375,2026-04-11T19:15:38.887-05:00
1775952938897928000,3.821927978515625,-0.304840087890625,1.1339263916015625,-0.327239990234375,2026-04-11T19:15:38.897-05:00
1775952938907984000,3.83198388671875,-0.2942352294921875,1.0396270751953125,-0.3375091552734375,2026-04-11T19:15:38.907-05:00
1775952938918040800,3.842040771484375,-0.3011932373046875,0.9537200927734375,-0.3523712158203125,2026-04-11T19:15:38.918-05:00
1775952938928096800,3.8520966796875,-0.310546875,0.8912353515625,-0.3763885498046875,2026-04-11T19:15:38.928-05:00
1775952938938153700,3.86215380859375,-0.321807861328125,0.8492584228515625,-0.3935546875,2026-04-11T19:15:38.938-05:00
1775952938948210700,3.872210693359375,-0.328704833984375,0.827667236328125,-0.410400390625,2026-04-11T19:15:38.948-05:00
1775952938958267000,3.882266845703125,-0.3315887451171875,0.8146209716796875,-0.430816650390625,2026-04-11T19:15:38.958-05:00
1775952938968323800,3.89232373046875,-0.32647705078125,0.8089599609375,-0.454620361328125,2026-04-11T19:15:38.968-05:00
1775952938978380800,3.902380859375,-0.319976806640625,0.82135009765625,-0.4662017822265625,2026-04-11T19:15:38.978-05:00
1775952938988436700,3.912436767578125,-0.3152618408203125,0.8563385009765625,-0.4534912109375,2026-04-11T19:15:38.988-05:00
1775952938998493700,3.92249365234375,-0.31414794921875,0.8732147216796875,-0.4268341064453125,2026-04-11T19:15:38.998-05:00
1775952939008550700,3.932550537109375,-0.3195343017578125,0.8746490478515625,-0.39813232421875,2026-04-11T19:15:39.008-05:00
1775952939018606600,3.942606689453125,-0.32794189453125,0.8829803466796875,-0.3954315185546875,2026-04-11T19:15:39.018-05:00
1775952939028663800,3.952663818359375,-0.3361053466796875,0.909088134765625,-0.44317626953125,2026-04-11T19:15:39.028-05:00
1775952939038719700,3.9627197265625,-0.349029541015625,0.9412994384765625,-0.510589599609375,2026-04-11T19:15:39.038-05:00
1775952939048776700,3.972776611328125,-0.3591461181640625,0.9656524658203125,-0.5456695556640625,2026-04-11T19:15:39.048-05:00
1775952939058833700,3.982833740234375,-0.36895751953125,0.9779052734375,-0.54046630859375,2026-04-11T19:15:39.058-05:00
1775952939068889600,3.9928896484375,-0.3689422607421875,0.984283447265625,-0.4930572509765625,2026-04-11T19:15:39.068-05:00
1775952939078946600,4.002946533203125,-0.35113525390625,0.9795379638671875,-0.4093475341796875,2026-04-11T19:15:39.078-05:00
1775952939089003500,4.01300341796875,-0.32147216796875,0.953765869140625,-0.3356475830078125,2026-04-11T19:15:39.089-05:00
1775952939099060200,4.023060302734375,-0.2846221923828125,0.932342529296875,-0.2994842529296875,2026-04-11T19:15:39.099-05:00
1775952939109117200,4.0331171875,-0.2574615478515625,0.925689697265625,-0.2947235107421875,2026-04-11T19:15:39.109-05:00
1775952939119174100,4.043174072265625,-0.242156982421875,0.91363525390625,-0.2960662841796875,2026-04-11T19:15:39.119-05:00
1775952939129230000,4.05322998046875,-0.229400634765625,0.90753173828125,-0.2740478515625,2026-04-11T19:15:39.129-05:00
1775952939139287000,4.063287109375,-0.2191162109375,0.9168701171875,-0.24383544921875,2026-04-11T19:15:39.139-05:00
1775952939149344000,4.073343994140625,-0.2032928466796875,0.93853759765625,-0.2317962646484375,2026-04-11T19:15:39.149-05:00
1775952939159400000,4.08339990234375,-0.1812896728515625,0.9720001220703125,-0.2511138916015625,2026-04-11T19:15:39.159-05:00
1775952939169457000,4.093456787109375,-0.160675048828125,0.9968719482421875,-0.2926025390625,2026-04-11T19:15:39.169-05:00
1775952939179513000,4.10351318359375,-0.1513214111328125,0.9967803955078125,-0.3468170166015625,2026-04-11T19:15:39.179-05:00
1775952939189570000,4.113570068359375,-0.14483642578125,0.9731597900390625,-0.3937835693359375,2026-04-11T19:15:39.189-05:00
1775952939199627000,4.123626953125,-0.139404296875,0.931976318359375,-0.4322967529296875,2026-04-11T19:15:39.199-05:00
1775952939209683000,4.133682861328125,-0.1395721435546875,0.89727783203125,-0.4569549560546875,2026-04-11T19:15:39.209-05:00
1775952939219740000,4.143739990234375,-0.1433258056640625,0.8783721923828125,-0.4644622802734375,2026-04-11T19:15:39.219-05:00
1775952939229796900,4.153796875,-0.1468048095703125,0.8611297607421875,-0.4533538818359375,2026-04-11T19:15:39.229-05:00
1775952939239853000,4.16385302734375,-0.1640167236328125,0.845458984375,-0.41656494140625,2026-04-11T19:15:39.239-05:00
1775952939249910000,4.173909912109375,-0.183380126953125,0.841339111328125,-0.3453216552734375,2026-04-11T19:15:39.249-05:00
1775952939259967200,4.18396728515625,-0.205841064453125,0.8674163818359375,-0.2606201171875,2026-04-11T19:15:39.259-05:00
1775952939270023200,4.194023193359375,-0.227874755859375,0.9170074462890625,-0.18804931640625,2026-04-11T19:15:39.270-05:00
1775952939280080100,4.204080078125,-0.24847412109375,0.9796600341796875,-0.1514892578125,2026-04-11T19:15:39.280-05:00
1775952939290137000,4.21413720703125,-0.2629241943359375,1.051483154296875,-0.164215087890625,2026-04-11T19:15:39.290-05:00
1775952939300193000,4.224193115234375,-0.2668914794921875,1.0752410888671875,-0.2412109375,2026-04-11T19:15:39.300-05:00
1775952939310250000,4.23425,-0.256317138671875,1.01312255859375,-0.374053955078125,2026-04-11T19:15:39.310-05:00
1775952939320306200,4.24430615234375,-0.2484588623046875,0.9322357177734375,-0.4711761474609375,2026-04-11T19:15:39.320-05:00
1775952939330363100,4.254363037109375,-0.2494049072265625,0.8684234619140625,-0.519927978515625,2026-04-11T19:15:39.330-05:00
1775952939340420000,4.264420166015625,-0.2558746337890625,0.8467254638671875,-0.5511627197265625,2026-04-11T19:15:39.340-05:00
1775952939350476000,4.27447607421875,-0.2695465087890625,0.850006103515625,-0.5627288818359375,2026-04-11T19:15:39.350-05:00
1775952939360533000,4.284532958984375,-0.288238525390625,0.868560791015625,-0.528411865234375,2026-04-11T19:15:39.360-05:00
1775952939370590000,4.29458984375,-0.30828857421875,0.911224365234375,-0.43121337890625,2026-04-11T19:15:39.370-05:00
1775952939380646100,4.304646240234375,-0.3170166015625,0.956024169921875,-0.3065338134765625,2026-04-11T19:15:39.380-05:00
1775952939390703000,4.314703125,-0.311553955078125,0.9930572509765625,-0.2132720947265625,2026-04-11T19:15:39.390-05:00
1775952939400760000,4.324760009765625,-0.307403564453125,0.9964752197265625,-0.1866302490234375,2026-04-11T19:15:39.400-05:00
1775952939410816000,4.33481591796875,-0.299163818359375,0.9803009033203125,-0.2254791259765625,2026-04-11T19:15:39.410-05:00
1775952939420873000,4.344873046875,-0.301849365234375,0.954559326171875,-0.294677734375,2026-04-11T19:15:39.420-05:00
1775952939430929000,4.354928955078125,-0.3209991455078125,0.9275360107421875,-0.3696441650390625,2026-04-11T19:15:39.430-05:00
1775952939440985900,4.36498583984375,-0.34027099609375,0.9099578857421875,-0.4361114501953125,2026-04-11T19:15:39.440-05:00
1775952939451042800,4.375042724609375,-0.35943603515625,0.90057373046875,-0.4837646484375,2026-04-11T19:15:39.451-05:00
1775952939461099000,4.38509912109375,-0.376434326171875,0.897552490234375,-0.502227783203125,2026-04-11T19:15:39.461-05:00
1775952939471156000,4.395156005859375,-0.393798828125,0.9037628173828125,-0.4641265869140625,2026-04-11T19:15:39.471-05:00
1775952939481213200,4.405213134765625,-0.402313232421875,0.917327880859375,-0.3998870849609375,2026-04-11T19:15:39.481-05:00
1775952939491269000,4.41526904296875,-0.3984375,0.9476470947265625,-0.3339996337890625,2026-04-11T19:15:39.491-05:00
1775952939501326000,4.425326171875,-0.3917236328125,0.9758148193359375,-0.2824554443359375,2026-04-11T19:15:39.501-05:00
1775952939511383000,4.435383056640625,-0.3797760009765625,0.9939422607421875,-0.2332611083984375,2026-04-11T19:15:39.511-05:00
1775952939521439200,4.445439208984375,-0.3744049072265625,0.996978759765625,-0.1937408447265625,2026-04-11T19:15:39.521-05:00
1775952939531496200,4.45549609375,-0.363525390625,0.9996490478515625,-0.1968231201171875,2026-04-11T19:15:39.531-05:00
1775952939541552000,4.46555224609375,-0.348175048828125,0.988189697265625,-0.2774658203125,2026-04-11T19:15:39.541-05:00
1775952939551609000,4.475609130859375,-0.3242034912109375,0.959808349609375,-0.387115478515625,2026-04-11T19:15:39.551-05:00
1775952939561666000,4.485666015625,-0.2970428466796875,0.916595458984375,-0.4676361083984375,2026-04-11T19:15:39.561-05:00
1775952939571722000,4.495721923828125,-0.2592315673828125,0.8592529296875,-0.5227203369140625,2026-04-11T19:15:39.571-05:00
1775952939581779000,4.505779052734375,-0.2230377197265625,0.7942047119140625,-0.547210693359375,2026-04-11T19:15:39.581-05:00
1775952939591836000,4.5158359375,-0.184478759765625,0.754364013671875,-0.5334014892578125,2026-04-11T19:15:39.591-05:00
1775952939601892000,4.52589208984375,-0.151214599609375,0.73553466796875,-0.50518798828125,2026-04-11T19:15:39.601-05:00
1775952939611949000,4.535948974609375,-0.1326141357421875,0.7453460693359375,-0.462738037109375,2026-04-11T19:15:39.611-05:00
1775952939622006000,4.546006103515625,-0.132171630859375,0.7845306396484375,-0.4046478271484375,2026-04-11T19:15:39.622-05:00
1775952939632062000,4.55606201171875,-0.1468048095703125,0.820709228515625,-0.36224365234375,2026-04-11T19:15:39.632-05:00
1775952939642119000,4.566118896484375,-0.16522216796875,0.8430938720703125,-0.3554840087890625,2026-04-11T19:15:39.642-05:00
1775952939652176000,4.57617578125,-0.1791229248046875,0.862823486328125,-0.3719940185546875,2026-04-11T19:15:39.652-05:00
1775952939662232000,4.586232177734375,-0.191192626953125,0.862823486328125,-0.4052734375,2026-04-11T19:15:39.662-05:00
1775952939672289000,4.5962890625,-0.2000579833984375,0.8551025390625,-0.423431396484375,2026-04-11T19:15:39.672-05:00
1775952939682346200,4.60634619140625,-0.21746826171875,0.83953857421875,-0.4127655029296875,2026-04-11T19:15:39.682-05:00
1775952939692402000,4.61640185546875,-0.235931396484375,0.824462890625,-0.38348388671875,2026-04-11T19:15:39.692-05:00
1775952939702459100,4.626459228515625,-0.2528533935546875,0.8251495361328125,-0.359283447265625,2026-04-11T19:15:39.702-05:00
1775952939712514800,4.636514892578125,-0.26593017578125,0.835296630859375,-0.3498077392578125,2026-04-11T19:15:39.712-05:00
1775952939722572000,4.646572021484375,-0.278167724609375,0.8458099365234375,-0.3509674072265625,2026-04-11T19:15:39.722-05:00
1775952939732629000,4.65662890625,-0.296478271484375,0.8497772216796875,-0.355804443359375,2026-04-11T19:15:39.732-05:00
1775952939742685200,4.666685302734375,-0.3194427490234375,0.84832763671875,-0.3553466796875,2026-04-11T19:15:39.742-05:00
1775952939752742100,4.6767421875,-0.355316162109375,0.8782196044921875,-0.344451904296875,2026-04-11T19:15:39.752-05:00
1775952939762799000,4.686799072265625,-0.40179443359375,1.0094451904296875,-0.3397979736328125,2026-04-11T19:15:39.762-05:00
1775952939772855000,4.69685498046875,-0.4279937744140625,1.1551055908203125,-0.3926544189453125,2026-04-11T19:15:39.772-05:00
1775952939782912000,4.706912109375,-0.4244384765625,1.18768310546875,-0.465423583984375,2026-04-11T19:15:39.782-05:00
1775952939792969000,4.716968994140625,-0.4011688232421875,1.077728271484375,-0.534515380859375,2026-04-11T19:15:39.792-05:00
1775952939803025200,4.727025146484375,-0.3870849609375,0.94732666015625,-0.5703125,2026-04-11T19:15:39.803-05:00
1775952939813082000,4.73708203125,-0.3824310302734375,0.895843505859375,-0.5861053466796875,2026-04-11T19:15:39.813-05:00
1775952939823138000,4.747137939453125,-0.38592529296875,0.8951263427734375,-0.6041259765625,2026-04-11T19:15:39.823-05:00
1775952939833195000,4.757195068359375,-0.4053955078125,0.9188690185546875,-0.5788421630859375,2026-04-11T19:15:39.833-05:00
1775952939843252000,4.767251953125,-0.42657470703125,1.00555419921875,-0.47271728515625,2026-04-11T19:15:39.843-05:00
1775952939853308000,4.777307861328125,-0.429779052734375,1.1244964599609375,-0.362335205078125,2026-04-11T19:15:39.853-05:00
1775952939863364900,4.78736474609375,-0.4229278564453125,1.2268218994140625,-0.29693603515625,2026-04-11T19:15:39.863-05:00
1775952939873422000,4.797422119140625,-0.4078369140625,1.314361572265625,-0.254608154296875,2026-04-11T19:15:39.873-05:00
1775952939883478000,4.80747802734375,-0.3954010009765625,1.3697052001953125,-0.2176513671875,2026-04-11T19:15:39.883-05:00
1775952939893535000,4.817534912109375,-0.3858795166015625,1.3851165771484375,-0.181304931640625,2026-04-11T19:15:39.893-05:00
1775952939903592200,4.82759228515625,-0.3692474365234375,1.3372650146484375,-0.1992034912109375,2026-04-11T19:15:39.903-05:00
1775952939913647900,4.83764794921875,-0.34912109375,1.231719970703125,-0.29229736328125,2026-04-11T19:15:39.913-05:00
1775952939923705000,4.847705078125,-0.334503173828125,1.1397705078125,-0.3906097412109375,2026-04-11T19:15:39.923-05:00
1775952939933762000,4.857761962890625,-0.3256988525390625,1.078887939453125,-0.4667816162109375,2026-04-11T19:15:39.933-05:00
1775952939943818200,4.867818359375,-0.31890869140625,1.0303955078125,-0.51971435546875,2026-04-11T19:15:39.943-05:00
1775952939953875200,4.877875244140625,-0.3178863525390625,0.9985198974609375,-0.555023193359375,2026-04-11T19:15:39.953-05:00
1775952939963931100,4.88793115234375,-0.311859130859375,0.9972381591796875,-0.5752410888671875,2026-04-11T19:15:39.963-05:00
1775952939973988000,4.897988037109375,-0.302520751953125,1.018890380859375,-0.5873260498046875,2026-04-11T19:15:39.973-05:00
1775952939984045000,4.908045166015625,-0.2929534912109375,1.046051025390625,-0.5938262939453125,2026-04-11T19:15:39.984-05:00
1775952939994101000,4.91810107421875,-0.2853240966796875,1.081817626953125,-0.581390380859375,2026-04-11T19:15:39.994-05:00
1775952940004158000,4.928157958984375,-0.2786712646484375,1.13275146484375,-0.5550384521484375,2026-04-11T19:15:40.004-05:00
1775952940014215200,4.938215087890625,-0.2769317626953125,1.1868743896484375,-0.5112457275390625,2026-04-11T19:15:40.014-05:00
1775952940024271000,4.94827099609375,-0.2792205810546875,1.2236480712890625,-0.4670257568359375,2026-04-11T19:15:40.024-05:00
1775952940034328000,4.958328125,-0.2859039306640625,1.2445068359375,-0.41571044921875,2026-04-11T19:15:40.034-05:00
1775952940044385000,4.968385009765625,-0.2894439697265625,1.2602996826171875,-0.37457275390625,2026-04-11T19:15:40.044-05:00
1775952940054441000,4.97844091796875,-0.288299560546875,1.26800537109375,-0.350555419921875,2026-04-11T19:15:40.054-05:00
1775952940064498000,4.988497802734375,-0.2844390869140625,1.268096923828125,-0.3242645263671875,2026-04-11T19:15:40.064-05:00
1775952940074555000,4.998554931640625,-0.2783660888671875,1.2652740478515625,-0.305633544921875,2026-04-11T19:15:40.074-05:00
1775952940084611000,5.008611083984375,-0.26922607421875,1.24859619140625,-0.296295166015625,2026-04-11T19:15:40.084-05:00
1775952940094672000,5.018671875,-0.2574310302734375,1.2186737060546875,-0.2926025390625,2026-04-11T19:15:40.094-05:00
1775952940104727800,5.028727783203125,-0.25213623046875,1.1943359375,-0.2971038818359375,2026-04-11T19:15:40.104-05:00
1775952940114784800,5.03878466796875,-0.2546234130859375,1.1897735595703125,-0.30877685546875,2026-04-11T19:15:40.114-05:00
1775952940124841700,5.048841796875,-0.26531982421875,1.2041168212890625,-0.33197021484375,2026-04-11T19:15:40.124-05:00
1775952940134897700,5.058897705078125,-0.282318115234375,1.2233428955078125,-0.3562469482421875,2026-04-11T19:15:40.134-05:00
1775952940144954600,5.06895458984375,-0.298065185546875,1.24652099609375,-0.38720703125,2026-04-11T19:15:40.144-05:00
1775952940155011800,5.07901171875,-0.309661865234375,1.2517852783203125,-0.42718505859375,2026-04-11T19:15:40.155-05:00
1775952940165067800,5.08906787109375,-0.315155029296875,1.23681640625,-0.469879150390625,2026-04-11T19:15:40.165-05:00
1775952940175125000,5.099125,-0.3205413818359375,1.2235870361328125,-0.516021728515625,2026-04-11T19:15:40.175-05:00
1775952940185182000,5.109181884765625,-0.3248291015625,1.2009124755859375,-0.555267333984375,2026-04-11T19:15:40.185-05:00
1775952940195238000,5.11923779296875,-0.3217926025390625,1.1630401611328125,-0.581756591796875,2026-04-11T19:15:40.195-05:00
1775952940205294800,5.129294921875,-0.304412841796875,1.107940673828125,-0.5893707275390625,2026-04-11T19:15:40.205-05:00
1775952940215351800,5.139351806640625,-0.28143310546875,1.032867431640625,-0.5697784423828125,2026-04-11T19:15:40.215-05:00
1775952940225408000,5.149407958984375,-0.252777099609375,0.9416351318359375,-0.539520263671875,2026-04-11T19:15:40.225-05:00
1775952940235465000,5.15946484375,-0.225433349609375,0.844390869140625,-0.49871826171875,2026-04-11T19:15:40.235-05:00
1775952940245521000,5.16952099609375,-0.2046966552734375,0.751800537109375,-0.4665374755859375,2026-04-11T19:15:40.245-05:00
1775952940255577900,5.179577880859375,-0.183502197265625,0.6767120361328125,-0.4495697021484375,2026-04-11T19:15:40.255-05:00
1775952940265634800,5.189634765625,-0.1649017333984375,0.61383056640625,-0.4334869384765625,2026-04-11T19:15:40.265-05:00
1775952940275690800,5.199690673828125,-0.151702880859375,0.5709686279296875,-0.423614501953125,2026-04-11T19:15:40.275-05:00
1775952940285747700,5.209747802734375,-0.1463775634765625,0.54803466796875,-0.4298858642578125,2026-04-11T19:15:40.285-05:00
1775952940295804700,5.2198046875,-0.13958740234375,0.5520172119140625,-0.458526611328125,2026-04-11T19:15:40.295-05:00
1775952940305860900,5.22986083984375,-0.0396881103515625,0.568023681640625,-0.5447235107421875,2026-04-11T19:15:40.305-05:00
1775952940315917800,5.239917724609375,0.6640167236328125,0.579498291015625,-0.8271026611328125,2026-04-11T19:15:40.315-05:00
1775952940325974800,5.249974853515625,1.7816925048828125,0.6076812744140625,-1.36785888671875,2026-04-11T19:15:40.325-05:00
1775952940336030700,5.26003076171875,2.090972900390625,0.67108154296875,-1.583221435546875,2026-04-11T19:15:40.336-05:00
1775952940346087700,5.270087646484375,1.5923309326171875,0.751068115234375,-1.2848052978515625,2026-04-11T19:15:40.346-05:00
1775952940356145000,5.280144775390625,1.0494232177734375,0.793487548828125,-0.8654022216796875,2026-04-11T19:15:40.356-05:00
1775952940366200800,5.290200927734375,0.549468994140625,0.8082733154296875,-0.49371337890625,2026-04-11T19:15:40.366-05:00
1775952940376258000,5.300258056640625,0.220550537109375,0.810577392578125,-0.331085205078125,2026-04-11T19:15:40.376-05:00
1775952940386313700,5.310313720703125,0.0538177490234375,0.7854766845703125,-0.305633544921875,2026-04-11T19:15:40.386-05:00
1775952940396371000,5.320370849609375,-0.0629425048828125,0.8210906982421875,-0.3274993896484375,2026-04-11T19:15:40.396-05:00
1775952940406428000,5.330427978515625,-0.146270751953125,0.9285736083984375,-0.4010467529296875,2026-04-11T19:15:40.406-05:00
1775952940416483800,5.34048388671875,-0.2425384521484375,1.0601806640625,-0.4453125,2026-04-11T19:15:40.416-05:00
1775952940426540800,5.350540771484375,-0.309478759765625,1.192657470703125,-0.4364013671875,2026-04-11T19:15:40.426-05:00
1775952940436597800,5.36059765625,-0.340972900390625,1.3099365234375,-0.4059600830078125,2026-04-11T19:15:40.436-05:00
1775952940446654000,5.370654052734375,-0.345611572265625,1.3782196044921875,-0.3223114013671875,2026-04-11T19:15:40.446-05:00
1775952940456711000,5.3807109375,-0.326385498046875,1.3990325927734375,-0.227386474609375,2026-04-11T19:15:40.456-05:00
1775952940466768000,5.390767822265625,-0.3624267578125,1.3743896484375,-0.1064453125,2026-04-11T19:15:40.466-05:00
1775952940476823800,5.40082373046875,-0.3964691162109375,1.319732666015625,-0.0841064453125,2026-04-11T19:15:40.476-05:00
1775952940486880800,5.410880859375,-0.39910888671875,1.1836395263671875,-0.118316650390625,2026-04-11T19:15:40.486-05:00
1775952940496937700,5.420937744140625,-0.3433837890625,1.0164031982421875,-0.0780487060546875,2026-04-11T19:15:40.496-05:00
1775952940506994000,5.430993896484375,-0.28350830078125,0.9203948974609375,-0.0269622802734375,2026-04-11T19:15:40.506-05:00
1775952940517051000,5.44105078125,-0.2530059814453125,0.8725433349609375,-0.0344390869140625,2026-04-11T19:15:40.517-05:00
1775952940527106800,5.45110693359375,-0.184783935546875,0.8705291748046875,-0.1032867431640625,2026-04-11T19:15:40.527-05:00
1775952940537163800,5.461163818359375,0.554443359375,0.9109344482421875,-0.4140777587890625,2026-04-11T19:15:40.537-05:00
1775952940547220700,5.471220703125,0.924957275390625,1.044403076171875,-0.6648406982421875,2026-04-11T19:15:40.547-05:00
1775952940557276700,5.481276611328125,0.366973876953125,1.1703948974609375,-0.62591552734375,2026-04-11T19:15:40.557-05:00
1775952940567333600,5.491333740234375,0.086517333984375,1.1710662841796875,-0.6321868896484375,2026-04-11T19:15:40.567-05:00
1775952940577390800,5.501390869140625,-0.0996246337890625,1.1280364990234375,-0.5838470458984375,2026-04-11T19:15:40.577-05:00
1775952940587446800,5.51144677734375,-0.2094268798828125,1.093658447265625,-0.5430450439453125,2026-04-11T19:15:40.587-05:00
1775952940597504000,5.52150390625,-0.189849853515625,1.0400543212890625,-0.53692626953125,2026-04-11T19:15:40.597-05:00
1775952940607561000,5.53156103515625,-0.1289215087890625,1.0271453857421875,-0.6014404296875,2026-04-11T19:15:40.607-05:00
1775952940617617000,5.541616943359375,-0.1461944580078125,1.0364990234375,-0.7089080810546875,2026-04-11T19:15:40.617-05:00
1775952940627673900,5.551673828125,-0.0755615234375,1.035980224609375,-0.894561767578125,2026-04-11T19:15:40.627-05:00
1775952940637730800,5.561730712890625,0.0444183349609375,1.0263214111328125,-1.085479736328125,2026-04-11T19:15:40.637-05:00
1775952940647787000,5.571787109375,0.0321197509765625,0.9982452392578125,-1.1258087158203125,2026-04-11T19:15:40.647-05:00
1775952940657844000,5.581843994140625,0.0490875244140625,0.9820556640625,-1.1304473876953125,2026-04-11T19:15:40.657-05:00
1775952940667900000,5.59189990234375,0.1382598876953125,0.9683380126953125,-1.119659423828125,2026-04-11T19:15:40.667-05:00
1775952940677956900,5.601956787109375,0.1326446533203125,0.9560089111328125,-0.9991302490234375,2026-04-11T19:15:40.677-05:00
1775952940688013800,5.612013916015625,0.0854949951171875,0.9431304931640625,-0.6866912841796875,2026-04-11T19:15:40.688-05:00
1775952940698069800,5.62206982421875,0.02880859375,0.9618682861328125,-0.438812255859375,2026-04-11T19:15:40.698-05:00
1775952940708126700,5.632126708984375,0.020477294921875,0.9726104736328125,-0.3089599609375,2026-04-11T19:15:40.708-05:00
1775952940718183700,5.64218359375,0.004547119140625,0.9466094970703125,-0.19598388671875,2026-04-11T19:15:40.718-05:00
1775952940728239900,5.652239990234375,-0.0391693115234375,0.893707275390625,-0.147186279296875,2026-04-11T19:15:40.728-05:00
1775952940738296800,5.662296875,-0.05389404296875,0.80926513671875,-0.153839111328125,2026-04-11T19:15:40.738-05:00
1775952940748353800,5.672353759765625,-0.038330078125,0.7215576171875,-0.1357879638671875,2026-04-11T19:15:40.748-05:00
1775952940758409700,5.68240966796875,-0.023406982421875,0.6399383544921875,-0.0842437744140625,2026-04-11T19:15:40.758-05:00
1775952940768466700,5.692466796875,-0.0552215576171875,0.56640625,-0.0358428955078125,2026-04-11T19:15:40.768-05:00
1775952940778523600,5.702523681640625,-0.0487518310546875,0.4941864013671875,0.004638671875,2026-04-11T19:15:40.778-05:00
1775952940788579800,5.712579833984375,-0.0101318359375,0.4185638427734375,0.040283203125,2026-04-11T19:15:40.788-05:00
1775952940798636800,5.72263671875,0.01336669921875,0.34564208984375,0.058380126953125,2026-04-11T19:15:40.798-05:00
1775952940808694000,5.732694091796875,0.0068206787109375,0.275360107421875,0.048065185546875,2026-04-11T19:15:40.808-05:00
1775952940818750000,5.74275,0.008880615234375,0.207794189453125,0.0500030517578125,2026-04-11T19:15:40.818-05:00
1775952940828807000,5.752806884765625,0.055328369140625,0.1576690673828125,0.0673065185546875,2026-04-11T19:15:40.828-05:00
1775952940838862800,5.76286279296875,0.07550048828125,0.129058837890625,0.0656585693359375,2026-04-11T19:15:40.838-05:00
1775952940848919800,5.772919921875,0.082733154296875,0.1260986328125,0.0517120361328125,2026-04-11T19:15:40.848-05:00
1775952940858976800,5.782976806640625,0.09527587890625,0.1314239501953125,0.0465240478515625,2026-04-11T19:15:40.858-05:00
1775952940869033000,5.793032958984375,0.101043701171875,0.1345367431640625,-0.003021240234375,2026-04-11T19:15:40.869-05:00
1775952940879090000,5.80308984375,0.09893798828125,0.1356658935546875,-0.0705108642578125,2026-04-11T19:15:40.879-05:00
1775952940889147000,5.81314697265625,0.1071929931640625,0.1466217041015625,-0.124237060546875,2026-04-11T19:15:40.889-05:00
1775952940899202800,5.823202880859375,0.1265106201171875,0.1573333740234375,-0.1287078857421875,2026-04-11T19:15:40.899-05:00
1775952940909259800,5.833259765625,0.12213134765625,0.1642608642578125,-0.134429931640625,2026-04-11T19:15:40.909-05:00
1775952940919316700,5.843316650390625,0.1247711181640625,0.17071533203125,-0.1319732666015625,2026-04-11T19:15:40.919-05:00
1775952940929373000,5.853373046875,0.122711181640625,0.173248291015625,-0.155731201171875,2026-04-11T19:15:40.929-05:00
1775952940939430000,5.863429931640625,0.109161376953125,0.1738128662109375,-0.171478271484375,2026-04-11T19:15:40.939-05:00
1775952940949485800,5.87348583984375,0.1271209716796875,0.1864471435546875,-0.155181884765625,2026-04-11T19:15:40.949-05:00
1775952940959542800,5.883542724609375,0.2214202880859375,0.2235107421875,-0.1640472412109375,2026-04-11T19:15:40.959-05:00
1775952940969599700,5.893599853515625,0.2775115966796875,0.287872314453125,-0.20013427734375,2026-04-11T19:15:40.969-05:00
1775952940979655700,5.90365576171875,0.3158416748046875,0.375732421875,-0.20220947265625,2026-04-11T19:15:40.979-05:00
1775952940989712600,5.913712646484375,0.35577392578125,0.470123291015625,-0.2008056640625,2026-04-11T19:15:40.989-05:00
1775952940999769900,5.923769775390625,0.37677001953125,0.56866455078125,-0.211883544921875,2026-04-11T19:15:40.999-05:00
1775952941009825800,5.93382568359375,0.413604736328125,0.6601715087890625,-0.2574920654296875,2026-04-11T19:15:41.009-05:00
1775952941019882800,5.9438828125,0.429168701171875,0.7468719482421875,-0.3637847900390625,2026-04-11T19:15:41.019-05:00
1775952941029940000,5.95393994140625,0.4259185791015625,0.814605712890625,-0.499298095703125,2026-04-11T19:15:41.029-05:00
1775952941039995600,5.96399560546875,0.3849029541015625,0.84112548828125,-0.61614990234375,2026-04-11T19:15:41.039-05:00
1775952941050052900,5.974052978515625,0.3497314453125,0.841339111328125,-0.6987457275390625,2026-04-11T19:15:41.050-05:00
1775952941060109800,5.98410986328125,0.388031005859375,0.8102264404296875,-0.7547454833984375,2026-04-11T19:15:41.060-05:00
1775952941070166000,5.994166015625,0.5327301025390625,0.8070068359375,-0.8507080078125,2026-04-11T19:15:41.070-05:00
1775952941080223000,6.004222900390625,0.7273406982421875,0.845947265625,-1.0266265869140625,2026-04-11T19:15:41.080-05:00
1775952941090280000,6.014280029296875,0.816680908203125,0.9251251220703125,-1.2615509033203125,2026-04-11T19:15:41.090-05:00
1775952941100332300,6.024332275390625,0.6317291259765625,0.980499267578125,-1.4162445068359375,2026-04-11T19:15:41.100-05:00
1775952941110389200,6.03438916015625,0.30914306640625,1.0118255615234375,-1.4631195068359375,2026-04-11T19:15:41.110-05:00
1775952941120445200,6.044445068359375,0.09051513671875,1.0123443603515625,-1.495147705078125,2026-04-11T19:15:41.120-05:00
1775952941130502400,6.05450244140625,0.1189422607421875,0.9341583251953125,-1.5365753173828125,2026-04-11T19:15:41.130-05:00
1775952941140559400,6.064559326171875,0.3183441162109375,0.71746826171875,-1.4443511962890625,2026-04-11T19:15:41.140-05:00
1775952941150615300,6.074615234375,0.4386138916015625,0.4740142822265625,-1.229827880859375,2026-04-11T19:15:41.150-05:00
1775952941160672300,6.08467236328125,0.3925323486328125,0.300537109375,-1.0816802978515625,2026-04-11T19:15:41.160-05:00
1775952941170729500,6.0947294921875,0.304168701171875,0.176605224609375,-1.0248565673828125,2026-04-11T19:15:41.170-05:00
1775952941180785200,6.10478515625,0.2911376953125,0.0688323974609375,-0.990814208984375,2026-04-11T19:15:41.180-05:00
1775952941190842400,6.11484228515625,0.30413818359375,-0.022857666015625,-0.9823760986328125,2026-04-11T19:15:41.190-05:00
1775952941200899300,6.1248994140625,0.342742919921875,-0.0853118896484375,-0.98614501953125,2026-04-11T19:15:41.200-05:00
1775952941210955500,6.13495556640625,0.4038848876953125,-0.1072235107421875,-0.9785308837890625,2026-04-11T19:15:41.210-05:00
1775952941221012500,6.145012451171875,0.4522247314453125,-0.0432586669921875,-0.890411376953125,2026-04-11T19:15:41.221-05:00
1775952941231068400,6.155068359375,0.546539306640625,0.16949462890625,-0.9435272216796875,2026-04-11T19:15:41.231-05:00
1775952941241125400,6.16512548828125,0.7905731201171875,0.52215576171875,-1.3752593994140625,2026-04-11T19:15:41.241-05:00
1775952941251182300,6.175182373046875,0.903656005859375,0.899261474609375,-2.068695068359375,2026-04-11T19:15:41.251-05:00
1775952941261238300,6.18523828125,0.4035797119140625,1.312774658203125,-2.62322998046875,2026-04-11T19:15:41.261-05:00
1775952941271295500,6.19529541015625,0.0456085205078125,1.739990234375,-2.914459228515625,2026-04-11T19:15:41.271-05:00
1775952941281352400,6.2053525390625,0.2637481689453125,1.96771240234375,-2.8160858154296875,2026-04-11T19:15:41.281-05:00
1775952941291408400,6.215408447265625,0.4726715087890625,1.862548828125,-2.020904541015625,2026-04-11T19:15:41.291-05:00
1775952941301465300,6.22546533203125,0.1714630126953125,1.49981689453125,-1.134429931640625,2026-04-11T19:15:41.301-05:00
1775952941311522300,6.235522216796875,-0.2039794921875,1.1155853271484375,-0.7079315185546875,2026-04-11T19:15:41.311-05:00
1775952941321578200,6.245578125,-0.5091552734375,0.8516998291015625,-0.3156280517578125,2026-04-11T19:15:41.321-05:00
1775952941331635200,6.25563525390625,-0.5964813232421875,0.6754302978515625,-0.0794677734375,2026-04-11T19:15:41.331-05:00
1775952941341692200,6.265692138671875,-0.553985595703125,0.5195465087890625,0.0013427734375,2026-04-11T19:15:41.341-05:00
1775952941351748400,6.275748291015625,-0.5444183349609375,0.4245147705078125,-0.002777099609375,2026-04-11T19:15:41.351-05:00
1775952941361805300,6.285805419921875,-0.5099945068359375,0.4194183349609375,-0.001190185546875,2026-04-11T19:15:41.361-05:00
1775952941371861200,6.295861328125,-0.4839019775390625,0.468719482421875,-0.008270263671875,2026-04-11T19:15:41.371-05:00
1775952941381918200,6.305918212890625,-0.5215911865234375,0.55523681640625,-0.034454345703125,2026-04-11T19:15:41.381-05:00
1775952941391975400,6.315975341796875,-0.5673980712890625,0.671630859375,-0.1182708740234375,2026-04-11T19:15:41.391-05:00
1775952941402031400,6.32603125,-0.3458251953125,0.831451416015625,-0.228668212890625,2026-04-11T19:15:41.402-05:00
1775952941412088300,6.33608837890625,0.5866851806640625,1.0304718017578125,-0.4380645751953125,2026-04-11T19:15:41.412-05:00
1775952941422145500,6.3461455078125,1.168701171875,1.1189422607421875,-0.7046051025390625,2026-04-11T19:15:41.422-05:00
1775952941432201500,6.356201416015625,0.6027069091796875,1.1037445068359375,-0.8518218994140625,2026-04-11T19:15:41.432-05:00
1775952941442258400,6.366258544921875,0.2145538330078125,0.965911865234375,-0.88702392578125,2026-04-11T19:15:41.442-05:00
1775952941452315400,6.3763154296875,0.431427001953125,0.7433013916015625,-0.7731475830078125,2026-04-11T19:15:41.452-05:00
1775952941462371300,6.386371337890625,0.2679443359375,0.5646209716796875,-0.7409210205078125,2026-04-11T19:15:41.462-05:00
1775952941472428300,6.39642822265625,-0.2589874267578125,0.4451751708984375,-0.7419281005859375,2026-04-11T19:15:41.472-05:00
1775952941482485200,6.4064853515625,-0.1835479736328125,0.3498992919921875,-0.7768096923828125,2026-04-11T19:15:41.482-05:00
1775952941492541400,6.41654150390625,0.1829071044921875,0.2664337158203125,-0.8484344482421875,2026-04-11T19:15:41.492-05:00
1775952941502598400,6.426598388671875,0.10809326171875,0.2232513427734375,-0.92181396484375,2026-04-11T19:15:41.502-05:00
1775952941512654300,6.436654296875,-0.064697265625,0.2506256103515625,-0.9546356201171875,2026-04-11T19:15:41.512-05:00
1775952941522711300,6.446711181640625,0.107391357421875,0.338775634765625,-0.96929931640625,2026-04-11T19:15:41.522-05:00
1775952941532768300,6.456768310546875,0.2313079833984375,0.462005615234375,-0.922149658203125,2026-04-11T19:15:41.532-05:00
1775952941542824200,6.46682421875,0.2080078125,0.5408782958984375,-0.854095458984375,2026-04-11T19:15:41.542-05:00
1775952941552881400,6.47688134765625,0.169708251953125,0.5520782470703125,-0.8528594970703125,2026-04-11T19:15:41.552-05:00
1775952941562938400,6.4869384765625,0.136688232421875,0.525421142578125,-0.873504638671875,2026-04-11T19:15:41.562-05:00
1775952941572994300,6.496994384765625,0.170257568359375,0.4730682373046875,-0.9274139404296875,2026-04-11T19:15:41.572-05:00
1775952941583051300,6.50705126953125,0.143951416015625,0.407928466796875,-0.9581298828125,2026-04-11T19:15:41.583-05:00
1775952941593108200,6.517108154296875,0.2406463623046875,0.35699462890625,-0.9383697509765625,2026-04-11T19:15:41.593-05:00
1775952941603164200,6.5271640625,0.28216552734375,0.331298828125,-0.9300079345703125,2026-04-11T19:15:41.603-05:00
1775952941613221000,6.53722119140625,0.372711181640625,0.3367462158203125,-0.8928070068359375,2026-04-11T19:15:41.613-05:00
1775952941623277300,6.54727734375,0.4505157470703125,0.3797454833984375,-0.85382080078125,2026-04-11T19:15:41.623-05:00
1775952941633334500,6.55733447265625,0.408294677734375,0.4408416748046875,-0.8170928955078125,2026-04-11T19:15:41.633-05:00
1775952941643391500,6.5673916015625,0.418975830078125,0.4908599853515625,-0.8221282958984375,2026-04-11T19:15:41.643-05:00
1775952941653447400,6.577447509765625,0.35198974609375,0.5020904541015625,-0.918487548828125,2026-04-11T19:15:41.653-05:00
1775952941663504400,6.58750439453125,0.416412353515625,0.4781494140625,-1.03656005859375,2026-04-11T19:15:41.663-05:00
1775952941673561300,6.597561279296875,0.4339752197265625,0.4458160400390625,-1.05908203125,2026-04-11T19:15:41.673-05:00
1775952941683617300,6.6076171875,0.430389404296875,0.437774658203125,-0.9703216552734375,2026-04-11T19:15:41.683-05:00
1775952941693674500,6.617674560546875,0.44775390625,0.4361724853515625,-0.8752288818359375,2026-04-11T19:15:41.693-05:00
1775952941703731500,6.6277314453125,0.3788299560546875,0.3972625732421875,-0.825286865234375,2026-04-11T19:15:41.703-05:00
1775952941713787400,6.637787353515625,0.389892578125,0.3235015869140625,-0.8045501708984375,2026-04-11T19:15:41.713-05:00
1775952941723844400,6.64784423828125,0.367828369140625,0.26580810546875,-0.7864227294921875,2026-04-11T19:15:41.723-05:00
1775952941733901300,6.6579013671875,0.280609130859375,0.2232666015625,-0.791015625,2026-04-11T19:15:41.733-05:00
1775952941743957200,6.667957275390625,0.319732666015625,0.1790771484375,-0.832275390625,2026-04-11T19:15:41.743-05:00
1775952941754014200,6.67801416015625,0.286712646484375,0.133209228515625,-0.89617919921875,2026-04-11T19:15:41.754-05:00
1775952941764070400,6.6880703125,0.332611083984375,0.11322021484375,-0.9658660888671875,2026-04-11T19:15:41.764-05:00
1775952941774127400,6.69812744140625,0.3719940185546875,0.133575439453125,-0.9837799072265625,2026-04-11T19:15:41.774-05:00
1775952941784184300,6.708184326171875,0.37042236328125,0.1790771484375,-0.940948486328125,2026-04-11T19:15:41.784-05:00
1775952941794240300,6.718240234375,0.358154296875,0.2189483642578125,-0.90045166015625,2026-04-11T19:15:41.794-05:00
1775952941804297200,6.728297119140625,0.3051910400390625,0.238311767578125,-0.8730621337890625,2026-04-11T19:15:41.804-05:00
1775952941814354200,6.738354248046875,0.352813720703125,0.24664306640625,-0.8878173828125,2026-04-11T19:15:41.814-05:00
1775952941824410400,6.748410400390625,0.3624267578125,0.2433929443359375,-0.930206298828125,2026-04-11T19:15:41.824-05:00
1775952941834467300,6.75846728515625,0.40771484375,0.257598876953125,-0.9323272705078125,2026-04-11T19:15:41.834-05:00
1775952941844524500,6.768524658203125,0.4119415283203125,0.2798919677734375,-0.931121826171875,2026-04-11T19:15:41.844-05:00
1775952941854580500,6.77858056640625,0.4370880126953125,0.2867889404296875,-0.9029388427734375,2026-04-11T19:15:41.854-05:00
1775952941864637400,6.788637451171875,0.500274658203125,0.287994384765625,-0.8727874755859375,2026-04-11T19:15:41.864-05:00
1775952941874693400,6.798693359375,0.44378662109375,0.275390625,-0.86041259765625,2026-04-11T19:15:41.874-05:00
1775952941884750300,6.808750244140625,0.435821533203125,0.2564239501953125,-0.83026123046875,2026-04-11T19:15:41.884-05:00
1775952941894807300,6.818807373046875,0.41455078125,0.2383575439453125,-0.8394775390625,2026-04-11T19:15:41.894-05:00
1775952941904863500,6.828863525390625,0.4165191650390625,0.225250244140625,-0.8513946533203125,2026-04-11T19:15:41.904-05:00
1775952941914920400,6.83892041015625,0.43902587890625,0.214385986328125,-0.8744659423828125,2026-04-11T19:15:41.914-05:00
1775952941924977400,6.848977294921875,0.4604339599609375,0.209991455078125,-0.861846923828125,2026-04-11T19:15:41.924-05:00
1775952941935033300,6.859033447265625,0.4871978759765625,0.2005615234375,-0.8912811279296875,2026-04-11T19:15:41.935-05:00
1775952941945090300,6.86909033203125,0.463623046875,0.2042388916015625,-0.8969268798828125,2026-04-11T19:15:41.945-05:00
1775952941955147300,6.879147216796875,0.435699462890625,0.2068939208984375,-0.9395599365234375,2026-04-11T19:15:41.955-05:00
1775952941965203500,6.889203369140625,0.458648681640625,0.2080535888671875,-0.9603729248046875,2026-04-11T19:15:41.965-05:00
1775952941975260400,6.899260498046875,0.4471893310546875,0.224761962890625,-0.9294586181640625,2026-04-11T19:15:41.975-05:00
1775952941985317400,6.9093173828125,0.439727783203125,0.2259521484375,-0.9322967529296875,2026-04-11T19:15:41.985-05:00
1775952941995373300,6.919373291015625,0.4163665771484375,0.2058868408203125,-0.9504547119140625,2026-04-11T19:15:41.995-05:00
1775952942005430300,6.92943017578125,0.4102935791015625,0.1798248291015625,-0.9771575927734375,2026-04-11T19:15:42.005-05:00
1775952942015486200,6.939486328125,0.4097747802734375,0.170867919921875,-0.9632110595703125,2026-04-11T19:15:42.015-05:00
1775952942025543200,6.949543212890625,0.4206695556640625,0.1581878662109375,-0.9371490478515625,2026-04-11T19:15:42.025-05:00
1775952942035600100,6.95960009765625,0.4188079833984375,0.145721435546875,-0.904632568359375,2026-04-11T19:15:42.035-05:00
1775952942045656300,6.96965625,0.4317474365234375,0.1343231201171875,-0.8302001953125,2026-04-11T19:15:42.045-05:00
1775952942055713300,6.97971337890625,0.4196014404296875,0.1048431396484375,-0.8025360107421875,2026-04-11T19:15:42.055-05:00
1775952942065770500,6.9897705078125,0.375335693359375,0.0692291259765625,-0.8417205810546875,2026-04-11T19:15:42.065-05:00
1775952942075826200,6.999826171875,0.4094085693359375,0.0229339599609375,-0.9048614501953125,2026-04-11T19:15:42.075-05:00
1775952942085883400,7.00988330078125,0.403564453125,-0.0094146728515625,-0.946014404296875,2026-04-11T19:15:42.085-05:00
1775952942095940000,7.019940185546875,0.4266815185546875,-0.027862548828125,-0.9907989501953125,2026-04-11T19:15:42.095-05:00
1775952942105996300,7.029996337890625,0.4346771240234375,-0.029998779296875,-0.9901580810546875,2026-04-11T19:15:42.105-05:00
1775952942116053200,7.04005322265625,0.4161376953125,-0.0173492431640625,-0.9787445068359375,2026-04-11T19:15:42.116-05:00
1775952942126109200,7.050109130859375,0.4104766845703125,-0.0152435302734375,-0.9310302734375,2026-04-11T19:15:42.126-05:00
1775952942136166100,7.060166259765625,0.381561279296875,-0.0162811279296875,-0.903961181640625,2026-04-11T19:15:42.136-05:00
1775952942146223000,7.07022314453125,0.4095306396484375,-0.0193939208984375,-0.8745880126953125,2026-04-11T19:15:42.146-05:00
1775952942156279000,7.080279052734375,0.448883056640625,-0.005096435546875,-0.8258819580078125,2026-04-11T19:15:42.156-05:00
1775952942166336000,7.0903359375,0.417327880859375,0.0068206787109375,-0.80914306640625,2026-04-11T19:15:42.166-05:00
1775952942176393000,7.10039306640625,0.468017578125,0.0047454833984375,-0.8342742919921875,2026-04-11T19:15:42.176-05:00
1775952942186449200,7.11044921875,0.573394775390625,-0.0118560791015625,-0.8032073974609375,2026-04-11T19:15:42.186-05:00
1775952942196506000,7.120506103515625,0.65740966796875,-0.041656494140625,-0.76641845703125,2026-04-11T19:15:42.196-05:00
1775952942206563300,7.130563232421875,0.5910491943359375,0.00042724609375,-0.745880126953125,2026-04-11T19:15:42.206-05:00
1775952942216619000,7.140618896484375,0.4621429443359375,0.014434814453125,-0.803985595703125,2026-04-11T19:15:42.216-05:00
1775952942226676200,7.15067626953125,0.399261474609375,-0.027313232421875,-0.9567108154296875,2026-04-11T19:15:42.226-05:00
1775952942236733200,7.160733154296875,0.4940643310546875,0.0105743408203125,-1.0615081787109375,2026-04-11T19:15:42.236-05:00
1775952942246789400,7.170789306640625,0.5406951904296875,0.150848388671875,-1.0637969970703125,2026-04-11T19:15:42.246-05:00
1775952942256846300,7.180846435546875,0.563629150390625,0.1876220703125,-0.959686279296875,2026-04-11T19:15:42.256-05:00
1775952942266902300,7.19090234375,0.5138092041015625,0.154327392578125,-0.8818359375,2026-04-11T19:15:42.266-05:00
1775952942276959200,7.200959228515625,0.4512176513671875,0.152099609375,-0.8460540771484375,2026-04-11T19:15:42.276-05:00
1775952942287016200,7.21101611328125,0.5202789306640625,0.15386962890625,-0.8387298583984375,2026-04-11T19:15:42.287-05:00
1775952942297072000,7.221072021484375,0.5683441162109375,0.146942138671875,-0.8377532958984375,2026-04-11T19:15:42.297-05:00
1775952942307129000,7.231129150390625,0.6168365478515625,0.16229248046875,-0.8580322265625,2026-04-11T19:15:42.307-05:00
1775952942317186000,7.24118603515625,0.6174163818359375,0.1634674072265625,-0.91473388671875,2026-04-11T19:15:42.317-05:00
1775952942327242200,7.2512421875,0.606903076171875,0.144866943359375,-0.9205322265625,2026-04-11T19:15:42.327-05:00
1775952942337299200,7.26129931640625,0.5746917724609375,0.0971832275390625,-0.848175048828125,2026-04-11T19:15:42.337-05:00
1775952942347356200,7.271356201171875,0.5499267578125,-0.0073089599609375,-0.8305511474609375,2026-04-11T19:15:42.347-05:00
1775952942357412000,7.281412109375,0.548187255859375,-0.0947723388671875,-0.8524322509765625,2026-04-11T19:15:42.357-05:00
1775952942367469000,7.291468994140625,0.5810089111328125,-0.1161651611328125,-0.9270477294921875,2026-04-11T19:15:42.367-05:00
1775952942377525200,7.301525146484375,0.570098876953125,-0.0277862548828125,-0.92822265625,2026-04-11T19:15:42.377-05:00
1775952942387582200,7.311582275390625,0.5198974609375,0.0626220703125,-0.971588134765625,2026-04-11T19:15:42.387-05:00
1775952942397639200,7.32163916015625,0.503936767578125,0.0850982666015625,-0.9893646240234375,2026-04-11T19:15:42.397-05:00
1775952942407695000,7.331695068359375,0.5384979248046875,0.0912933349609375,-0.9356231689453125,2026-04-11T19:15:42.407-05:00
1775952942417752000,7.341751953125,0.517578125,0.122406005859375,-0.8771209716796875,2026-04-11T19:15:42.417-05:00
1775952942427809300,7.351809326171875,0.5090789794921875,0.1454315185546875,-0.8780059814453125,2026-04-11T19:15:42.427-05:00
1775952942437865000,7.361864990234375,0.4850311279296875,0.1828765869140625,-0.85614013671875,2026-04-11T19:15:42.437-05:00
1775952942447922200,7.371922119140625,0.4662017822265625,0.2086029052734375,-0.869293212890625,2026-04-11T19:15:42.447-05:00
1775952942457979100,7.381979248046875,0.44110107421875,0.2035980224609375,-0.9062042236328125,2026-04-11T19:15:42.457-05:00
1775952942468035300,7.392035400390625,0.4346771240234375,0.1804351806640625,-0.9359283447265625,2026-04-11T19:15:42.468-05:00
1775952942478092300,7.40209228515625,0.422088623046875,0.1570892333984375,-0.9608154296875,2026-04-11T19:15:42.478-05:00
1775952942488148200,7.412148193359375,0.3939208984375,0.137115478515625,-0.9697418212890625,2026-04-11T19:15:42.488-05:00
1775952942498205200,7.422205078125,0.337799072265625,0.1132965087890625,-0.9748077392578125,2026-04-11T19:15:42.498-05:00
1775952942508262100,7.43226220703125,0.3485107421875,0.109619140625,-1.0168609619140625,2026-04-11T19:15:42.508-05:00
1775952942518318300,7.442318359375,0.3939361572265625,0.1769561767578125,-1.009307861328125,2026-04-11T19:15:42.518-05:00
1775952942528375300,7.452375244140625,0.41302490234375,0.271148681640625,-0.9654083251953125,2026-04-11T19:15:42.528-05:00
1775952942538432300,7.462432373046875,0.446441650390625,0.3670196533203125,-0.90228271484375,2026-04-11T19:15:42.538-05:00
1775952942548488200,7.47248828125,0.437347412109375,0.448333740234375,-0.8604583740234375,2026-04-11T19:15:42.548-05:00
1775952942558545200,7.482545166015625,0.4265289306640625,0.4913330078125,-0.8520050048828125,2026-04-11T19:15:42.558-05:00
1775952942568602000,7.49260205078125,0.4145355224609375,0.4919586181640625,-0.868408203125,2026-04-11T19:15:42.568-05:00
1775952942578658000,7.502657958984375,0.439422607421875,0.4649200439453125,-0.8978118896484375,2026-04-11T19:15:42.578-05:00
1775952942588715000,7.512715087890625,0.460784912109375,0.436737060546875,-0.8994140625,2026-04-11T19:15:42.588-05:00
1775952942598771200,7.522771240234375,0.469879150390625,0.410552978515625,-0.93218994140625,2026-04-11T19:15:42.598-05:00
1775952942608828200,7.532828125,0.4702911376953125,0.3901824951171875,-0.9627532958984375,2026-04-11T19:15:42.608-05:00
1775952942618885000,7.542885009765625,0.3867034912109375,0.3861083984375,-0.962127685546875,2026-04-11T19:15:42.618-05:00
1775952942628941000,7.552941162109375,0.2802886962890625,0.414306640625,-0.8838348388671875,2026-04-11T19:15:42.628-05:00
1775952942638998000,7.562998046875,0.1721954345703125,0.460479736328125,-0.76580810546875,2026-04-11T19:15:42.638-05:00
1775952942649055000,7.573054931640625,0.1111297607421875,0.5115509033203125,-0.6602630615234375,2026-04-11T19:15:42.649-05:00
1775952942659111200,7.583111083984375,0.0547637939453125,0.570526123046875,-0.604248046875,2026-04-11T19:15:42.659-05:00
1775952942669168400,7.59316845703125,-0.00567626953125,0.6515655517578125,-0.591033935546875,2026-04-11T19:15:42.669-05:00
1775952942679225300,7.603225341796875,-0.087799072265625,0.7459869384765625,-0.6097412109375,2026-04-11T19:15:42.679-05:00
1775952942689281300,7.61328125,-0.1386260986328125,0.8324737548828125,-0.6551666259765625,2026-04-11T19:15:42.689-05:00
1775952942699338200,7.623338134765625,-0.1003875732421875,0.8924560546875,-0.69427490234375,2026-04-11T19:15:42.699-05:00
1775952942709395200,7.633395263671875,-0.078460693359375,0.93939208984375,-0.72955322265625,2026-04-11T19:15:42.709-05:00
1775952942719451100,7.643451171875,-0.06280517578125,0.9540252685546875,-0.739959716796875,2026-04-11T19:15:42.719-05:00
1775952942729508000,7.653508056640625,-0.046783447265625,0.9232330322265625,-0.7693939208984375,2026-04-11T19:15:42.729-05:00
1775952942739564300,7.663564208984375,-0.0076141357421875,0.8943634033203125,-0.7316436767578125,2026-04-11T19:15:42.739-05:00
1775952942749621200,7.673621337890625,-0.0048980712890625,0.86431884765625,-0.6846771240234375,2026-04-11T19:15:42.749-05:00
1775952942759678200,7.68367822265625,-0.0172271728515625,0.8285064697265625,-0.6411895751953125,2026-04-11T19:15:42.759-05:00
1775952942769734100,7.693734130859375,-0.0478515625,0.796478271484375,-0.586639404296875,2026-04-11T19:15:42.769-05:00
1775952942779791000,7.703791015625,-0.0576324462890625,0.7768402099609375,-0.5248260498046875,2026-04-11T19:15:42.779-05:00
1775952942789848000,7.71384814453125,-0.0237579345703125,0.7660980224609375,-0.497955322265625,2026-04-11T19:15:42.789-05:00
1775952942799904300,7.723904296875,-0.0226898193359375,0.77252197265625,-0.4808807373046875,2026-04-11T19:15:42.799-05:00
1775952942809961200,7.733961181640625,-0.0254058837890625,0.81512451171875,-0.472808837890625,2026-04-11T19:15:42.809-05:00
1775952942820018200,7.74401806640625,-0.036956787109375,0.866485595703125,-0.447021484375,2026-04-11T19:15:42.820-05:00
1775952942830074000,7.75407421875,-0.07855224609375,0.9020843505859375,-0.435302734375,2026-04-11T19:15:42.830-05:00
1775952942840131000,7.764131103515625,-0.122161865234375,0.93426513671875,-0.41790771484375,2026-04-11T19:15:42.840-05:00
1775952942850187000,7.77418701171875,-0.1500396728515625,0.949066162109375,-0.40087890625,2026-04-11T19:15:42.850-05:00
1775952942860244000,7.784243896484375,-0.1518707275390625,0.9345245361328125,-0.38983154296875,2026-04-11T19:15:42.860-05:00
1775952942870301200,7.79430126953125,-0.1307830810546875,0.8933868408203125,-0.3524627685546875,2026-04-11T19:15:42.870-05:00
1775952942880357000,7.804357177734375,-0.0894927978515625,0.8351287841796875,-0.31402587890625,2026-04-11T19:15:42.880-05:00
1775952942890414300,7.814414306640625,-0.0495758056640625,0.7779693603515625,-0.3093719482421875,2026-04-11T19:15:42.890-05:00
1775952942900471300,7.82447119140625,-0.02728271484375,0.7415771484375,-0.340850830078125,2026-04-11T19:15:42.900-05:00
1775952942910527200,7.83452734375,-0.035858154296875,0.7320404052734375,-0.3834686279296875,2026-04-11T19:15:42.910-05:00
1775952942920584200,7.844584228515625,-0.0262298583984375,0.7257843017578125,-0.4548492431640625,2026-04-11T19:15:42.920-05:00
1775952942930641200,7.85464111328125,-0.01031494140625,0.7358245849609375,-0.551605224609375,2026-04-11T19:15:42.930-05:00
1775952942940697300,7.864697265625,0.007049560546875,0.75823974609375,-0.6731109619140625,2026-04-11T19:15:42.940-05:00
1775952942950754300,7.87475439453125,0.0016326904296875,0.795684814453125,-0.79010009765625,2026-04-11T19:15:42.950-05:00
1775952942960811300,7.884811279296875,-0.012939453125,0.8432159423828125,-0.8848876953125,2026-04-11T19:15:42.960-05:00
1775952942970867200,7.8948671875,-0.0126190185546875,0.8895721435546875,-0.97308349609375,2026-04-11T19:15:42.970-05:00
1775952942980924200,7.904924072265625,-0.0009918212890625,0.9166259765625,-1.053741455078125,2026-04-11T19:15:42.980-05:00
1775952942990980000,7.91497998046875,0.0175933837890625,0.9213409423828125,-1.075653076171875,2026-04-11T19:15:42.990-05:00
1775952943001037000,7.925037109375,0.0419769287109375,0.90069580078125,-1.0237579345703125,2026-04-11T19:15:43.001-05:00
1775952943011094300,7.93509423828125,0.03802490234375,0.8667144775390625,-0.91461181640625,2026-04-11T19:15:43.011-05:00
1775952943021150200,7.945150146484375,0.00927734375,0.837432861328125,-0.80499267578125,2026-04-11T19:15:43.021-05:00
1775952943031207200,7.955207275390625,-0.0208740234375,0.8127899169921875,-0.7279052734375,2026-04-11T19:15:43.031-05:00
1775952943041264000,7.96526416015625,-0.05035400390625,0.7921142578125,-0.6763153076171875,2026-04-11T19:15:43.041-05:00
1775952943051320000,7.975320068359375,-0.074554443359375,0.7723846435546875,-0.659027099609375,2026-04-11T19:15:43.051-05:00
1775952943061377000,7.985376953125,-0.080718994140625,0.73956298828125,-0.65289306640625,2026-04-11T19:15:43.061-05:00
1775952943071434000,7.99543408203125,-0.098480224609375,0.6951446533203125,-0.6472930908203125,2026-04-11T19:15:43.071-05:00
1775952943081490200,8.005490234375,-0.1341552734375,0.6468505859375,-0.640380859375,2026-04-11T19:15:43.081-05:00
1775952943091547100,8.015547119140624,-0.177490234375,0.5979156494140625,-0.6288299560546875,2026-04-11T19:15:43.091-05:00
1775952943101603600,8.025603515625,-0.214752197265625,0.571044921875,-0.64697265625,2026-04-11T19:15:43.101-05:00
1775952943111660500,8.03566064453125,-0.22576904296875,0.5616455078125,-0.6906890869140625,2026-04-11T19:15:43.111-05:00
1775952943121717500,8.045717529296875,-0.21563720703125,0.5619964599609375,-0.74761962890625,2026-04-11T19:15:43.121-05:00
1775952943131773400,8.0557734375,-0.201690673828125,0.5595550537109375,-0.7721405029296875,2026-04-11T19:15:43.131-05:00
1775952943141830400,8.065830322265626,-0.197845458984375,0.5796661376953125,-0.8074493408203125,2026-04-11T19:15:43.141-05:00
1775952943151887400,8.075887451171875,-0.190093994140625,0.624786376953125,-0.82061767578125,2026-04-11T19:15:43.151-05:00
1775952943161943600,8.085943603515625,-0.1872711181640625,0.674835205078125,-0.8199920654296875,2026-04-11T19:15:43.161-05:00
1775952943172000500,8.09600048828125,-0.1931610107421875,0.704620361328125,-0.824432373046875,2026-04-11T19:15:43.172-05:00
1775952943182057500,8.106057373046875,-0.2080535888671875,0.712127685546875,-0.8344573974609375,2026-04-11T19:15:43.182-05:00
1775952943192113400,8.116113525390626,-0.2154541015625,0.7354278564453125,-0.8185272216796875,2026-04-11T19:15:43.192-05:00
1775952943202170600,8.126170654296875,-0.2053070068359375,0.7458038330078125,-0.771942138671875,2026-04-11T19:15:43.202-05:00
1775952943212226600,8.1362265625,-0.17608642578125,0.718231201171875,-0.7367095947265625,2026-04-11T19:15:43.212-05:00
1775952943222283800,8.14628369140625,-0.1665496826171875,0.68359375,-0.73052978515625,2026-04-11T19:15:43.222-05:00
1775952943232340700,8.1563408203125,-0.21875,0.668670654296875,-0.7732696533203125,2026-04-11T19:15:43.232-05:00
1775952943242396700,8.166396728515625,-0.32025146484375,0.6802978515625,-0.7888031005859375,2026-04-11T19:15:43.242-05:00
1775952943252453600,8.17645361328125,-0.40875244140625,0.6816253662109375,-0.751556396484375,2026-04-11T19:15:43.252-05:00
1775952943262510600,8.186510498046875,-0.4590301513671875,0.683685302734375,-0.7269439697265625,2026-04-11T19:15:43.262-05:00
1775952943272566500,8.19656640625,-0.507598876953125,0.683441162109375,-0.6569976806640625,2026-04-11T19:15:43.272-05:00
1775952943282623500,8.20662353515625,-0.5519561767578125,0.690032958984375,-0.5525665283203125,2026-04-11T19:15:43.282-05:00
1775952943292680400,8.216680419921875,-0.5785980224609375,0.7098541259765625,-0.46527099609375,2026-04-11T19:15:43.292-05:00
1775952943302736600,8.226736572265626,-0.5656280517578125,0.72705078125,-0.3947296142578125,2026-04-11T19:15:43.302-05:00
1775952943312793600,8.236793701171875,-0.538238525390625,0.71746826171875,-0.3137664794921875,2026-04-11T19:15:43.312-05:00
1775952943322849500,8.246849609375,-0.48089599609375,0.700103759765625,-0.2497100830078125,2026-04-11T19:15:43.322-05:00
1775952943332906500,8.256906494140624,-0.4144439697265625,0.6800384521484375,-0.20257568359375,2026-04-11T19:15:43.332-05:00
1775952943342963500,8.26696337890625,-0.3652801513671875,0.677734375,-0.1597900390625,2026-04-11T19:15:43.342-05:00
1775952943353019600,8.27701953125,-0.32269287109375,0.69927978515625,-0.1286773681640625,2026-04-11T19:15:43.353-05:00
1775952943363076600,8.28707666015625,-0.2898712158203125,0.7464752197265625,-0.1278228759765625,2026-04-11T19:15:43.363-05:00
1775952943373133600,8.297133544921875,-0.23809814453125,0.821441650390625,-0.14544677734375,2026-04-11T19:15:43.373-05:00
1775952943383189500,8.307189453125,-0.1710052490234375,0.9110870361328125,-0.16693115234375,2026-04-11T19:15:43.383-05:00
1775952943393246500,8.31724658203125,-0.0583648681640625,0.9966583251953125,-0.1922760009765625,2026-04-11T19:15:43.393-05:00
1775952943403303400,8.327303466796875,0.3012847900390625,1.0839385986328125,-0.2306060791015625,2026-04-11T19:15:43.403-05:00
1775952943413359400,8.337359375,1.52093505859375,1.2587432861328125,-0.3517608642578125,2026-04-11T19:15:43.413-05:00
1775952943423416300,8.347416259765625,1.15423583984375,1.1014556884765625,-0.3881378173828125,2026-04-11T19:15:43.423-05:00
1775952943433473500,8.3574736328125,0.1240997314453125,0.875335693359375,-0.27825927734375,2026-04-11T19:15:43.433-05:00
1775952943443529700,8.36752978515625,-0.02606201171875,0.798309326171875,-0.304046630859375,2026-04-11T19:15:43.443-05:00
1775952943453586700,8.377586669921875,-0.03057861328125,0.737396240234375,-0.3599090576171875,2026-04-11T19:15:43.453-05:00
1775952943463642600,8.387642578125,-0.0754547119140625,0.7041015625,-0.421783447265625,2026-04-11T19:15:43.463-05:00
1775952943473699600,8.397699462890625,-0.1321868896484375,0.69696044921875,-0.4982452392578125,2026-04-11T19:15:43.473-05:00
1775952943483756500,8.407756591796876,-0.19830322265625,0.7252197265625,-0.5766754150390625,2026-04-11T19:15:43.483-05:00
1775952943493812700,8.417812744140624,-0.2440185546875,0.767181396484375,-0.660888671875,2026-04-11T19:15:43.493-05:00
1775952943503869700,8.42786962890625,-0.2841949462890625,0.8055877685546875,-0.726806640625,2026-04-11T19:15:43.503-05:00
1775952943513926700,8.4379267578125,-0.329315185546875,0.821380615234375,-0.7507781982421875,2026-04-11T19:15:43.513-05:00
1775952943523982600,8.447982666015625,-0.325653076171875,0.803619384765625,-0.748382568359375,2026-04-11T19:15:43.523-05:00
1775952943534039600,8.45803955078125,-0.2959747314453125,0.749481201171875,-0.7108306884765625,2026-04-11T19:15:43.534-05:00
1775952943544096500,8.468096435546874,-0.2523193359375,0.6649627685546875,-0.6568756103515625,2026-04-11T19:15:43.544-05:00
1775952943554152400,8.47815234375,-0.2220611572265625,0.59332275390625,-0.6199493408203125,2026-04-11T19:15:43.554-05:00
1775952943564209400,8.48820947265625,-0.1971282958984375,0.5505828857421875,-0.6075439453125,2026-04-11T19:15:43.564-05:00
1775952943574265600,8.498265625,-0.181640625,0.54022216796875,-0.6294403076171875,2026-04-11T19:15:43.574-05:00
1775952943584322600,8.508322509765625,-0.173736572265625,0.554901123046875,-0.66033935546875,2026-04-11T19:15:43.584-05:00
1775952943594379500,8.518379638671876,-0.1690673828125,0.5823211669921875,-0.6863861083984375,2026-04-11T19:15:43.594-05:00
1775952943604435500,8.528435546875,-0.151641845703125,0.601470947265625,-0.6900787353515625,2026-04-11T19:15:43.604-05:00
1775952943614492400,8.538492431640625,-0.122650146484375,0.6008758544921875,-0.6498870849609375,2026-04-11T19:15:43.614-05:00
1775952943624549400,8.54854931640625,-0.0901031494140625,0.5939788818359375,-0.6172943115234375,2026-04-11T19:15:43.624-05:00
1775952943634605600,8.55860546875,-0.0689849853515625,0.5872802734375,-0.61688232421875,2026-04-11T19:15:43.634-05:00
1775952943644662500,8.56866259765625,-0.06695556640625,0.5794677734375,-0.642486572265625,2026-04-11T19:15:43.644-05:00
1775952943654719700,8.5787197265625,-0.064666748046875,0.55596923828125,-0.6446990966796875,2026-04-11T19:15:43.654-05:00
1775952943664775700,8.588775634765625,-0.0461273193359375,0.5210113525390625,-0.6095428466796875,2026-04-11T19:15:43.664-05:00
1775952943674832600,8.59883251953125,-0.0123443603515625,0.4799957275390625,-0.569549560546875,2026-04-11T19:15:43.674-05:00
1775952943684888600,8.608888671875,0.0592193603515625,0.437469482421875,-0.5352630615234375,2026-04-11T19:15:43.684-05:00
1775952943694945500,8.618945556640625,0.1817474365234375,0.417633056640625,-0.5746307373046875,2026-04-11T19:15:43.694-05:00
1775952943705002500,8.62900244140625,0.284210205078125,0.4293212890625,-0.7238311767578125,2026-04-11T19:15:43.705-05:00
1775952943715058700,8.63905859375,0.3140411376953125,0.4475555419921875,-0.844207763671875,2026-04-11T19:15:43.715-05:00
1775952943725115600,8.64911572265625,0.1057891845703125,0.4669036865234375,-0.8644866943359375,2026-04-11T19:15:43.725-05:00
1775952943735172600,8.659172607421874,-0.08782958984375,0.48199462890625,-0.87066650390625,2026-04-11T19:15:43.735-05:00
1775952943745228500,8.669228515625,-0.14501953125,0.489593505859375,-0.8369903564453125,2026-04-11T19:15:43.745-05:00
1775952943755285500,8.679285400390626,-0.166107177734375,0.5045013427734375,-0.7576141357421875,2026-04-11T19:15:43.755-05:00
1775952943765342500,8.689342529296875,-0.2095794677734375,0.5687713623046875,-0.725433349609375,2026-04-11T19:15:43.765-05:00
1775952943775398700,8.699398681640625,-0.2695159912109375,0.6130218505859375,-0.714263916015625,2026-04-11T19:15:43.775-05:00
1775952943785455600,8.70945556640625,-0.359649658203125,0.648406982421875,-0.736053466796875,2026-04-11T19:15:43.785-05:00
1775952943795511600,8.719511474609375,-0.4979705810546875,0.681304931640625,-0.788787841796875,2026-04-11T19:15:43.795-05:00
1775952943805568500,8.729568603515625,-0.7166748046875,0.7101898193359375,-0.86309814453125,2026-04-11T19:15:43.805-05:00
1775952943815625500,8.73962548828125,-0.948638916015625,0.7517852783203125,-0.8511199951171875,2026-04-11T19:15:43.815-05:00
1775952943825681400,8.749681396484375,-1.1070098876953125,0.808929443359375,-0.721923828125,2026-04-11T19:15:43.825-05:00
1775952943835738400,8.75973828125,-1.222320556640625,0.9059295654296875,-0.5352630615234375,2026-04-11T19:15:43.835-05:00
1775952943845795300,8.76979541015625,-1.2042236328125,1.0597076416015625,-0.4475860595703125,2026-04-11T19:15:43.845-05:00
1775952943855851500,8.7798515625,-1.2067413330078125,1.244781494140625,-0.4614105224609375,2026-04-11T19:15:43.855-05:00
1775952943865908500,8.789908447265624,-1.1088409423828125,1.4171142578125,-0.38690185546875,2026-04-11T19:15:43.865-05:00
1775952943875965700,8.799965576171875,-0.9274749755859375,1.5253143310546875,-0.21636962890625,2026-04-11T19:15:43.875-05:00
1775952943886021400,8.810021484375,-0.61328125,1.5291595458984375,-0.0306854248046875,2026-04-11T19:15:43.886-05:00
1775952943896078600,8.82007861328125,0.1334228515625,1.52740478515625,0.2693023681640625,2026-04-11T19:15:43.896-05:00
1775952943906134800,8.830134765625,0.1298980712890625,1.3633880615234375,0.3411865234375,2026-04-11T19:15:43.906-05:00
1775952943916191700,8.840191650390626,-0.396148681640625,1.14666748046875,0.1773834228515625,2026-04-11T19:15:43.916-05:00
1775952943926248700,8.850248779296875,-0.4449462890625,1.08355712890625,0.202728271484375,2026-04-11T19:15:43.926-05:00
1775952943936304600,8.8603046875,-0.4537506103515625,1.07806396484375,0.27862548828125,2026-04-11T19:15:43.936-05:00
1775952943946361600,8.870361572265624,-0.461822509765625,1.0939788818359375,0.30389404296875,2026-04-11T19:15:43.946-05:00
1775952943956418600,8.88041845703125,-0.4514007568359375,1.1420745849609375,0.2445068359375,2026-04-11T19:15:43.956-05:00
1775952943966474500,8.890474609375,-0.39794921875,1.1790618896484375,0.078033447265625,2026-04-11T19:15:43.966-05:00
1775952943976531500,8.900531494140624,-0.285858154296875,1.201202392578125,-0.1108856201171875,2026-04-11T19:15:43.976-05:00
1775952943986588400,8.91058837890625,-0.151824951171875,1.2671661376953125,-0.1830902099609375,2026-04-11T19:15:43.986-05:00
1775952943996644600,8.92064453125,0.0191802978515625,1.360809326171875,-0.1999969482421875,2026-04-11T19:15:43.996-05:00
1775952944006701600,8.93070166015625,0.1633148193359375,1.3995208740234375,-0.215545654296875,2026-04-11T19:15:44.006-05:00
1775952944016757500,8.940757568359375,0.201812744140625,1.3686676025390625,-0.2701416015625,2026-04-11T19:15:44.016-05:00
1775952944026814500,8.950814453125,0.2574005126953125,1.2938690185546875,-0.3766021728515625,2026-04-11T19:15:44.026-05:00
1775952944036871400,8.960871337890625,0.343292236328125,1.20587158203125,-0.49090576171875,2026-04-11T19:15:44.036-05:00
1775952944046927600,8.970927734375,0.3525848388671875,1.1037445068359375,-0.574859619140625,2026-04-11T19:15:44.046-05:00
1775952944056984600,8.980984619140624,0.2357025146484375,0.998992919921875,-0.61474609375,2026-04-11T19:15:44.056-05:00
1775952944067041500,8.99104150390625,0.0491790771484375,0.9236907958984375,-0.618621826171875,2026-04-11T19:15:44.067-05:00
1775952944077097500,9.001097412109376,-0.1186065673828125,0.8830718994140625,-0.5978240966796875,2026-04-11T19:15:44.077-05:00
1775952944087154400,9.011154541015625,-0.2577972412109375,0.859130859375,-0.54119873046875,2026-04-11T19:15:44.087-05:00
1775952944097211100,9.021211181640625,-0.3632354736328125,0.83758544921875,-0.4618682861328125,2026-04-11T19:15:44.097-05:00
1775952944107267000,9.03126708984375,-0.43145751953125,0.82177734375,-0.4080810546875,2026-04-11T19:15:44.107-05:00
1775952944117324300,9.04132421875,-0.48974609375,0.811798095703125,-0.3614044189453125,2026-04-11T19:15:44.117-05:00
1775952944127380200,9.051380126953125,-0.5457611083984375,0.8162689208984375,-0.3397216796875,2026-04-11T19:15:44.127-05:00
1775952944137437200,9.061437255859374,-0.5942840576171875,0.8241119384765625,-0.329193115234375,2026-04-11T19:15:44.137-05:00
1775952944147494100,9.071494140625,-0.618499755859375,0.8284759521484375,-0.32666015625,2026-04-11T19:15:44.147-05:00
1775952944157550000,9.081550048828126,-0.6110687255859375,0.843719482421875,-0.3237457275390625,2026-04-11T19:15:44.157-05:00
1775952944167607000,9.09160693359375,-0.5691986083984375,0.8398590087890625,-0.29248046875,2026-04-11T19:15:44.167-05:00
1775952944177664000,9.1016640625,-0.5032958984375,0.8376922607421875,-0.2740631103515625,2026-04-11T19:15:44.177-05:00
1775952944187720200,9.11172021484375,-0.442901611328125,0.834686279296875,-0.28717041015625,2026-04-11T19:15:44.187-05:00
1775952944197777200,9.121777099609375,-0.41400146484375,0.8377227783203125,-0.328277587890625,2026-04-11T19:15:44.197-05:00
1775952944207834000,9.131834228515626,-0.3629150390625,0.8429718017578125,-0.3818511962890625,2026-04-11T19:15:44.207-05:00
1775952944217890000,9.14189013671875,-0.2239227294921875,0.8786468505859375,-0.4236907958984375,2026-04-11T19:15:44.217-05:00
1775952944227947300,9.151947265625,-0.014923095703125,0.9476318359375,-0.47259521484375,2026-04-11T19:15:44.227-05:00
1775952944238003000,9.1620029296875,0.1227264404296875,1.0067138671875,-0.50628662109375,2026-04-11T19:15:44.238-05:00
1775952944248060200,9.17206005859375,0.1556549072265625,1.0498504638671875,-0.5442352294921875,2026-04-11T19:15:44.248-05:00
1775952944258117400,9.182117431640625,0.1716461181640625,1.07025146484375,-0.594970703125,2026-04-11T19:15:44.258-05:00
1775952944268173300,9.19217333984375,0.180419921875,1.0672454833984375,-0.6361846923828125,2026-04-11T19:15:44.268-05:00
1775952944278230300,9.202230224609375,0.11083984375,1.0295867919921875,-0.6460113525390625,2026-04-11T19:15:44.278-05:00
1775952944288287200,9.212287353515626,-0.0732574462890625,0.9675445556640625,-0.61907958984375,2026-04-11T19:15:44.288-05:00
1775952944298343200,9.22234326171875,-0.2270660400390625,0.9191436767578125,-0.5799407958984375,2026-04-11T19:15:44.298-05:00
1775952944308400000,9.232400146484375,-0.333343505859375,0.889739990234375,-0.528900146484375,2026-04-11T19:15:44.308-05:00
1775952944318457000,9.24245703125,-0.392852783203125,0.8621978759765625,-0.448638916015625,2026-04-11T19:15:44.318-05:00
1775952944328513300,9.25251318359375,-0.465240478515625,0.8480682373046875,-0.385894775390625,2026-04-11T19:15:44.328-05:00
1775952944338570200,9.2625703125,-0.53790283203125,0.846710205078125,-0.340972900390625,2026-04-11T19:15:44.338-05:00
1775952944348626200,9.272626220703126,-0.5808258056640625,0.85272216796875,-0.3317413330078125,2026-04-11T19:15:44.348-05:00
1775952944358683100,9.28268310546875,-0.5911102294921875,0.852447509765625,-0.33758544921875,2026-04-11T19:15:44.358-05:00
1775952944368740000,9.292739990234375,-0.5793914794921875,0.8583831787109375,-0.34552001953125,2026-04-11T19:15:44.368-05:00
1775952944378796000,9.302796142578124,-0.564849853515625,0.8621826171875,-0.3260498046875,2026-04-11T19:15:44.378-05:00
1775952944388853200,9.312853271484375,-0.51922607421875,0.8570709228515625,-0.3023834228515625,2026-04-11T19:15:44.388-05:00
1775952944398910200,9.32291015625,-0.4368896484375,0.8347320556640625,-0.28009033203125,2026-04-11T19:15:44.398-05:00
1775952944408966100,9.332966064453124,-0.362274169921875,0.8438873291015625,-0.286376953125,2026-04-11T19:15:44.408-05:00
1775952944419023000,9.343023193359375,-0.2983551025390625,0.86199951171875,-0.29193115234375,2026-04-11T19:15:44.419-05:00
1775952944429080000,9.353080078125,-0.2400360107421875,0.8944854736328125,-0.341705322265625,2026-04-11T19:15:44.429-05:00
1775952944439136000,9.363135986328125,-0.1816558837890625,0.91168212890625,-0.369842529296875,2026-04-11T19:15:44.439-05:00
1775952944449193000,9.37319287109375,-0.1073150634765625,0.9174957275390625,-0.447418212890625,2026-04-11T19:15:44.449-05:00
1775952944459249200,9.383249267578124,-0.0865936279296875,0.918060302734375,-0.47735595703125,2026-04-11T19:15:44.459-05:00
1775952944469306400,9.393306396484375,-0.078643798828125,0.9067535400390625,-0.5081634521484375,2026-04-11T19:15:44.469-05:00
1775952944479363300,9.40336328125,-0.131988525390625,0.9085845947265625,-0.558502197265625,2026-04-11T19:15:44.479-05:00
1775952944489419300,9.413419189453125,-0.2133331298828125,0.90997314453125,-0.5390625,2026-04-11T19:15:44.489-05:00
1775952944499476200,9.423476318359375,-0.2779998779296875,0.9031524658203125,-0.5425567626953125,2026-04-11T19:15:44.499-05:00
1775952944509533200,9.433533203125,-0.3463592529296875,0.8892822265625,-0.5300750732421875,2026-04-11T19:15:44.509-05:00
1775952944519589000,9.443589111328125,-0.382904052734375,0.8735504150390625,-0.518035888671875,2026-04-11T19:15:44.519-05:00
1775952944529646300,9.453646240234375,-0.4028472900390625,0.8470916748046875,-0.51458740234375,2026-04-11T19:15:44.529-05:00
1775952944539703300,9.463703369140624,-0.41387939453125,0.822967529296875,-0.4647674560546875,2026-04-11T19:15:44.539-05:00
1775952944549759200,9.47375927734375,-0.4213409423828125,0.8111572265625,-0.40924072265625,2026-04-11T19:15:44.549-05:00
1775952944559816200,9.483816162109376,-0.409698486328125,0.7914886474609375,-0.38189697265625,2026-04-11T19:15:44.559-05:00
1775952944569872100,9.4938720703125,-0.38458251953125,0.787872314453125,-0.3924407958984375,2026-04-11T19:15:44.569-05:00
1775952944579929000,9.50392919921875,-0.373443603515625,0.8101959228515625,-0.4146270751953125,2026-04-11T19:15:44.579-05:00
1775952944589986000,9.513986083984374,-0.36981201171875,0.8439178466796875,-0.440032958984375,2026-04-11T19:15:44.589-05:00
1775952944600042200,9.524042236328125,-0.3379974365234375,0.87225341796875,-0.47454833984375,2026-04-11T19:15:44.600-05:00
1775952944610099200,9.53409912109375,-0.320281982421875,0.887603759765625,-0.4778900146484375,2026-04-11T19:15:44.610-05:00
1775952944620156200,9.54415625,-0.3106536865234375,0.896514892578125,-0.483642578125,2026-04-11T19:15:44.620-05:00
1775952944630212000,9.554212158203125,-0.310821533203125,0.90753173828125,-0.4837646484375,2026-04-11T19:15:44.630-05:00
1775952944640269000,9.56426904296875,-0.312347412109375,0.923309326171875,-0.4708709716796875,2026-04-11T19:15:44.640-05:00
1775952944650325000,9.574324951171874,-0.28271484375,0.9478759765625,-0.4485626220703125,2026-04-11T19:15:44.650-05:00
1775952944660382200,9.58438232421875,-0.293731689453125,0.9884490966796875,-0.4439849853515625,2026-04-11T19:15:44.660-05:00
1775952944670439200,9.594439208984374,-0.3019866943359375,1.0366973876953125,-0.4417877197265625,2026-04-11T19:15:44.670-05:00
1775952944680495000,9.6044951171875,-0.417266845703125,1.1609039306640625,-0.3443603515625,2026-04-11T19:15:44.680-05:00
1775952944690552300,9.61455224609375,-0.4626617431640625,1.4219512939453125,-0.2282562255859375,2026-04-11T19:15:44.690-05:00
1775952944700609300,9.624609375,-0.448822021484375,1.609893798828125,-0.25787353515625,2026-04-11T19:15:44.700-05:00
1775952944710665200,9.634665283203125,-0.36737060546875,1.570281982421875,-0.47412109375,2026-04-11T19:15:44.710-05:00
1775952944720722200,9.64472216796875,-0.159423828125,1.249420166015625,-0.72802734375,2026-04-11T19:15:44.720-05:00
1775952944730779100,9.654779052734375,-0.09185791015625,0.900238037109375,-0.8114776611328125,2026-04-11T19:15:44.730-05:00
1775952944740835300,9.66483544921875,-0.193939208984375,0.7235260009765625,-0.6366119384765625,2026-04-11T19:15:44.740-05:00
1775952944750892300,9.674892333984374,-0.27081298828125,0.6309661865234375,-0.5602874755859375,2026-04-11T19:15:44.750-05:00
1775952944760948200,9.6849482421875,-0.3157196044921875,0.565887451171875,-0.5635833740234375,2026-04-11T19:15:44.760-05:00
1775952944771005200,9.695005126953125,-0.4023895263671875,0.559417724609375,-0.567657470703125,2026-04-11T19:15:44.771-05:00
1775952944781062100,9.705062255859374,-0.522125244140625,0.585205078125,-0.5017852783203125,2026-04-11T19:15:44.781-05:00
1775952944791118000,9.7151181640625,-0.660888671875,0.671112060546875,-0.3665924072265625,2026-04-11T19:15:44.791-05:00
1775952944801175300,9.72517529296875,-0.7770843505859375,0.8227081298828125,-0.316253662109375,2026-04-11T19:15:44.801-05:00
1775952944811232300,9.735232177734375,-0.85693359375,0.9981536865234375,-0.358917236328125,2026-04-11T19:15:44.811-05:00
1775952944821288200,9.7452880859375,-0.896148681640625,1.1593017578125,-0.419525146484375,2026-04-11T19:15:44.821-05:00
1775952944831345200,9.75534521484375,-0.8800201416015625,1.2965545654296875,-0.4400482177734375,2026-04-11T19:15:44.831-05:00
1775952944841402000,9.765402099609375,-0.8162994384765625,1.381256103515625,-0.4500732421875,2026-04-11T19:15:44.841-05:00
1775952944851458000,9.7754580078125,-0.708709716796875,1.381744384765625,-0.435760498046875,2026-04-11T19:15:44.851-05:00
1775952944861515000,9.785514892578124,-0.578155517578125,1.3171539306640625,-0.42645263671875,2026-04-11T19:15:44.861-05:00
1775952944871571200,9.7955712890625,-0.428985595703125,1.2573394775390625,-0.4277801513671875,2026-04-11T19:15:44.871-05:00
1775952944881628200,9.805628173828126,-0.2837982177734375,1.2154998779296875,-0.4345855712890625,2026-04-11T19:15:44.881-05:00
1775952944891685000,9.81568505859375,-0.17578125,1.1770477294921875,-0.4376983642578125,2026-04-11T19:15:44.891-05:00
1775952944901741000,9.825740966796875,-0.1282501220703125,1.1334381103515625,-0.4375762939453125,2026-04-11T19:15:44.901-05:00
1775952944911798300,9.83579833984375,-0.113739013671875,1.0995941162109375,-0.4395294189453125,2026-04-11T19:15:44.911-05:00
1775952944921855200,9.845855224609375,-0.1167449951171875,1.0876007080078125,-0.4066162109375,2026-04-11T19:15:44.921-05:00
1775952944931911200,9.8559111328125,-0.1592559814453125,1.0809478759765625,-0.4084930419921875,2026-04-11T19:15:44.931-05:00
1775952944941968100,9.865968017578124,-0.220550537109375,1.0728302001953125,-0.4526824951171875,2026-04-11T19:15:44.941-05:00
1775952944952025300,9.876025390625,-0.2864837646484375,1.0572662353515625,-0.4744720458984375,2026-04-11T19:15:44.952-05:00
1775952944962081300,9.886081298828126,-0.3583526611328125,1.0400543212890625,-0.4915924072265625,2026-04-11T19:15:44.962-05:00
1775952944972138200,9.89613818359375,-0.4082794189453125,1.0346527099609375,-0.5093536376953125,2026-04-11T19:15:44.972-05:00
1775952944982194200,9.906194091796875,-0.44390869140625,1.0567626953125,-0.5124969482421875,2026-04-11T19:15:44.982-05:00
