time,seconds_elapsed,z,y,x,local_time
1775952935156857300,0.080857421875,-8.893445022001861,-3.9247643372550605,1.2935396353527904,2026-04-11T19:15:35.156-05:00
1775952935166914300,0.090914306640625,-8.887483483248948,-3.93188965909034,1.3127306580349802,2026-04-11T19:15:35.166-05:00
1775952935176971300,0.10097119140625,-8.884217174929379,-3.9418703703567384,1.3048838900573552,2026-04-11T19:15:35.176-05:00
1775952935187027200,0.111027099609375,-8.885534102746844,-3.948042629250884,1.2769599642127751,2026-04-11T19:15:35.187-05:00
1775952935197084200,0.121084228515625,-8.894805204439162,-3.9439308100178834,1.2240251504261046,2026-04-11T19:15:35.197-05:00
1775952935207141400,0.131141357421875,-8.906875581461192,-3.939038069540262,1.149753022643551,2026-04-11T19:15:35.207-05:00
1775952935217197300,0.141197265625,-8.90712049613297,-3.9575966395378113,1.082136553357914,2026-04-11T19:15:35.217-05:00
1775952935227254500,0.151254638671875,-8.886047312965989,-4.016227692204714,1.0384904499854892,2026-04-11T19:15:35.227-05:00
1775952935237311500,0.1613115234375,-8.843913221591711,-4.115302691201865,1.00988679824844,2026-04-11T19:15:35.237-05:00
1775952935247367400,0.171367431640625,-8.784110202535986,-4.244243543891608,0.9980934115368872,2026-04-11T19:15:35.247-05:00
1775952935257424400,0.18142431640625,-8.712952845773101,-4.385772952258587,1.0098685319393872,2026-04-11T19:15:35.257-05:00
1775952935267480300,0.191480224609375,-8.635261118805408,-4.528040319511294,1.0485684841465204,2026-04-11T19:15:35.267-05:00
1775952935277537300,0.201537353515625,-8.56295050035417,-4.6537721470266575,1.0902600193850696,2026-04-11T19:15:35.277-05:00
1775952935287594500,0.211594482421875,-8.511866209805012,-4.737019170033931,1.1310041907709092,2026-04-11T19:15:35.287-05:00
1775952935297650400,0.221650390625,-8.48378110204935,-4.777683188855648,1.1702923911947756,2026-04-11T19:15:35.297-05:00
1775952935307707400,0.231707275390625,-8.477469434684515,-4.780613689349591,1.2035901920974255,2026-04-11T19:15:35.307-05:00
1775952935317764400,0.241764404296875,-8.490414256453514,-4.747681433823704,1.2420846117950974,2026-04-11T19:15:35.317-05:00
1775952935327820300,0.2518203125,-8.515603058245778,-4.687359651590883,1.2975162838988006,2026-04-11T19:15:35.327-05:00
1775952935337877200,0.261877197265625,-8.55028624909222,-4.604852925556898,1.3632004699476064,2026-04-11T19:15:35.337-05:00
1775952935347933400,0.271933349609375,-8.592428523772954,-4.50382971510142,1.4339024841584265,2026-04-11T19:15:35.347-05:00
1775952935357990400,0.281990478515625,-8.640309049844742,-4.386533415237069,1.5079007634356616,2026-04-11T19:15:35.357-05:00
1775952935368047400,0.29204736328125,-8.696386910897493,-4.263759268483519,1.537399975772947,2026-04-11T19:15:35.368-05:00
1775952935378103300,0.302103271484375,-8.750026146626473,-4.164596298941969,1.5045156510420143,2026-04-11T19:15:35.378-05:00
1775952935388160300,0.31216015625,-8.795041346395015,-4.086689467918872,1.4548549635551868,2026-04-11T19:15:35.388-05:00
1775952935398217200,0.32221728515625,-8.835360497301817,-4.021374115182459,1.3911634126283228,2026-04-11T19:15:35.398-05:00
1775952935408273200,0.332273193359375,-8.870774340510367,-3.969435253630578,1.31275900734663,2026-04-11T19:15:35.408-05:00
1775952935418330400,0.342330322265625,-8.899616988635062,-3.931779476714134,1.2281323665492236,2026-04-11T19:15:35.418-05:00
1775952935428387300,0.35238720703125,-8.921083555033803,-3.9079280610054727,1.145754892918095,2026-04-11T19:15:35.428-05:00
1775952935438443300,0.362443359375,-8.93910494941473,-3.893065715177357,1.0520566915884613,2026-04-11T19:15:35.438-05:00
1775952935448500500,0.37250048828125,-8.959352203151584,-3.877343245388567,0.9309139454290271,2026-04-11T19:15:35.448-05:00
1775952935458556200,0.38255615234375,-8.985587299126387,-3.851257494756579,0.7729280539102852,2026-04-11T19:15:35.458-05:00
1775952935468613400,0.39261328125,-9.014775399687887,-3.8156668336763975,0.5872735630149022,2026-04-11T19:15:35.468-05:00
1775952935478670300,0.40267041015625,-9.041544164147972,-3.778984870228171,0.3743435637136921,2026-04-11T19:15:35.478-05:00
1775952935488726500,0.4127265625,-9.06012319241166,-3.750177585677802,0.14393895372673868,2026-04-11T19:15:35.488-05:00
1775952935498783500,0.422783447265625,-9.06689663206935,-3.7361212955355643,-0.05632068423214368,2026-04-11T19:15:35.498-05:00
1775952935508840400,0.43284033203125,-9.06437383559346,-3.737973060882091,-0.18727526049762963,2026-04-11T19:15:35.508-05:00
1775952935518896400,0.442896484375,-9.058551997572183,-3.7481720910742875,-0.25342596807964146,2026-04-11T19:15:35.518-05:00
1775952935528953300,0.452953369140625,-9.053619217345117,-3.75742711841464,-0.2900022974626161,2026-04-11T19:15:35.528-05:00
1775952935539010300,0.46301025390625,-9.05212284130752,-3.757774324417114,-0.3295295125404373,2026-04-11T19:15:35.539-05:00
1775952935549066200,0.473066162109375,-9.059707597348094,-3.73482365694046,-0.3783814774602651,2026-04-11T19:15:35.549-05:00
1775952935559123500,0.48312353515625,-9.078733784857391,-3.6843984148219224,-0.41494438110608606,2026-04-11T19:15:35.559-05:00
1775952935569179400,0.493179443359375,-9.105314333269,-3.6172304199561474,-0.423410413493216,2026-04-11T19:15:35.569-05:00
1775952935579236400,0.503236328125,-9.136792006072401,-3.5383024291917677,-0.41211124003939326,2026-04-11T19:15:35.579-05:00
1775952935589293300,0.513293212890625,-9.172057965242862,-3.448307685489952,-0.3910443039501086,2026-04-11T19:15:35.589-05:00
1775952935599349200,0.523349365234375,-9.206668090853094,-3.3574057638153434,-0.36806342399828135,2026-04-11T19:15:35.599-05:00
1775952935609406200,0.53340625,-9.232031664690375,-3.2891128565728662,-0.34887612764313813,2026-04-11T19:15:35.609-05:00
1775952935619463200,0.543463134765625,-9.240307325604558,-3.2646225584387776,-0.3596482450155541,2026-04-11T19:15:35.619-05:00
1775952935629519400,0.553519287109375,-9.226573983806372,-3.296233502233028,-0.41899551966041326,2026-04-11T19:15:35.629-05:00
1775952935639576300,0.563576416015625,-9.189269796806574,-3.3847537894681095,-0.5207220195470378,2026-04-11T19:15:35.639-05:00
1775952935649633300,0.57363330078125,-9.131650551530718,-3.5155572211593387,-0.6513089954759925,2026-04-11T19:15:35.649-05:00
1775952935659689200,0.583689208984375,-9.06445216152668,-3.6579794867128133,-0.7907422352813184,2026-04-11T19:15:35.659-05:00
1775952935669746400,0.593746337890625,-9.00372442884147,-3.7775887396946546,-0.9127717011474072,2026-04-11T19:15:35.669-05:00
1775952935679802000,0.603802001953125,-8.962550706931948,-3.854503344810009,-0.9929126478981226,2026-04-11T19:15:35.679-05:00
1775952935689859300,0.613859375,-8.944705838161706,-3.8864910129621624,-1.0284981944117695,2026-04-11T19:15:35.689-05:00
1775952935699916300,0.623916259765625,-8.946658141273259,-3.8752535796329375,-1.0536121043369173,2026-04-11T19:15:35.699-05:00
1775952935709972500,0.633972412109375,-8.962703851667046,-3.8339761050879955,-1.068152378603816,2026-04-11T19:15:35.709-05:00
1775952935720029400,0.644029541015625,-8.985641075140236,-3.780937757861614,-1.0644948059443384,2026-04-11T19:15:35.720-05:00
1775952935730086400,0.65408642578125,-9.00889452495575,-3.727973644915223,-1.0547136358380318,2026-04-11T19:15:35.730-05:00
1775952935740142300,0.664142333984375,-9.028906216371059,-3.6815298736482855,-1.046697210381925,2026-04-11T19:15:35.740-05:00
1775952935750199300,0.67419921875,-9.04591404979527,-3.641010231733322,-1.0415706611484288,2026-04-11T19:15:35.750-05:00
1775952935760256300,0.68425634765625,-9.062617347314953,-3.5987408235415814,-1.0432705238688738,2026-04-11T19:15:35.760-05:00
1775952935770312400,0.6943125,-9.07916457749009,-3.5551889743238685,-1.048708331008628,2026-04-11T19:15:35.770-05:00
1775952935780369400,0.704369384765625,-9.09375073672533,-3.516271214647591,-1.0535294675547628,2026-04-11T19:15:35.780-05:00
1775952935790425300,0.71442529296875,-9.108785808771849,-3.4810642921879884,-1.0404790665194392,2026-04-11T19:15:35.790-05:00
1775952935800482300,0.724482421875,-9.129788849312067,-3.4384655059114095,-0.9971456092927604,2026-04-11T19:15:35.800-05:00
1775952935810539300,0.734539306640625,-9.158413470771908,-3.3811636560216543,-0.9282144041467457,2026-04-11T19:15:35.810-05:00
1775952935820595200,0.74459521484375,-9.191225607049464,-3.312963103237748,-0.8461878628451377,2026-04-11T19:15:35.820-05:00
1775952935830652400,0.75465234375,-9.22336963480711,-3.244448369938135,-0.7572268461052328,2026-04-11T19:15:35.830-05:00
1775952935840709400,0.76470947265625,-9.251137347176671,-3.1854192578643556,-0.6632857759304345,2026-04-11T19:15:35.840-05:00
1775952935850765300,0.774765380859375,-9.272487009197473,-3.141334324683249,-0.5686731631696224,2026-04-11T19:15:35.850-05:00
1775952935860822300,0.784822265625,-9.285407865568995,-3.116178548377752,-0.4909376701254397,2026-04-11T19:15:35.860-05:00
1775952935870879200,0.794879150390625,-9.288288389441371,-3.113344201734662,-0.4529605157675221,2026-04-11T19:15:35.870-05:00
1775952935880935200,0.80493505859375,-9.27959888702929,-3.1370605928868054,-0.4672086752200499,2026-04-11T19:15:35.880-05:00
1775952935890992400,0.814992431640625,-9.257481163245439,-3.1929820943340657,-0.523724818092212,2026-04-11T19:15:35.890-05:00
1775952935901048300,0.82504833984375,-9.223713918200135,-3.277483209055662,-0.592952083575353,2026-04-11T19:15:35.901-05:00
1775952935911105500,0.83510546875,-9.18677622642517,-3.366642086455226,-0.6627597792949527,2026-04-11T19:15:35.911-05:00
1775952935921162500,0.84516259765625,-9.155188078984617,-3.4364702404409644,-0.7372849319905043,2026-04-11T19:15:35.921-05:00
1775952935931218400,0.855218505859375,-9.132249101945757,-3.48333691329509,-0.7992328541204333,2026-04-11T19:15:35.931-05:00
1775952935941275400,0.865275390625,-9.119962451824545,-3.505336563657224,-0.842188564075902,2026-04-11T19:15:35.941-05:00
1775952935951332400,0.875332275390625,-9.117683400976658,-3.50145563057065,-0.8820652319122105,2026-04-11T19:15:35.951-05:00
1775952935961388300,0.88538818359375,-9.122111154291034,-3.476673363752663,-0.9328560194075107,2026-04-11T19:15:35.961-05:00
1775952935971445200,0.8954453125,-9.131495653229951,-3.4368808670684694,-0.9869231251597403,2026-04-11T19:15:35.971-05:00
1775952935981501400,0.90550146484375,-9.143604608696698,-3.3878529245272277,-1.0427517606917769,2026-04-11T19:15:35.981-05:00
1775952935991558400,0.915558349609375,-9.153677674421667,-3.3389415941029785,-1.109974846745655,2026-04-11T19:15:35.991-05:00
1775952936001615400,0.925615478515625,-9.15645181531012,-3.2999721042394636,-1.1999845688208937,2026-04-11T19:15:36.001-05:00
1775952936011671300,0.93567138671875,-9.148678843221068,-3.281500335742533,-1.3053037229046225,2026-04-11T19:15:36.011-05:00
1775952936021728300,0.945728271484375,-9.128975779363513,-3.2922438480749725,-1.4118497884348034,2026-04-11T19:15:36.021-05:00
1775952936031785200,0.95578515625,-9.101904232564568,-3.323529797698557,-1.5099258395224808,2026-04-11T19:15:36.031-05:00
1775952936041841400,0.96584130859375,-9.075705376946926,-3.3448446806669234,-1.6167762948267161,2026-04-11T19:15:36.041-05:00
1775952936051898400,0.9758984375,-9.06006707831025,-3.3344162256330248,-1.7225683271192014,2026-04-11T19:15:36.051-05:00
1775952936061955300,0.985955322265625,-9.061454148754477,-3.284658215251565,-1.8087167706564067,2026-04-11T19:15:36.061-05:00
1775952936072011300,0.99601123046875,-9.07454100934267,-3.2060482043951746,-1.8826427153497933,2026-04-11T19:15:36.072-05:00
1775952936082068200,1.006068115234375,-9.091230278337001,-3.1179224694356322,-1.9489673912592231,2026-04-11T19:15:36.082-05:00
1775952936092124700,1.016124755859375,-9.109581343063711,-3.0372707236185668,-1.9902013189233838,2026-04-11T19:15:36.092-05:00
1775952936102181600,1.026181640625,-9.131087072429061,-2.9720781204789875,-1.9900717011943458,2026-04-11T19:15:36.102-05:00
1775952936112238600,1.036238525390625,-9.154727475735545,-2.9249036968499422,-1.9509693787313998,2026-04-11T19:15:36.112-05:00
1775952936122294800,1.046294677734375,-9.177442580890656,-2.8951591314494607,-1.887588501188904,2026-04-11T19:15:36.122-05:00
1775952936132351700,1.056351806640625,-9.196483965969085,-2.8818478144556283,-1.813841274063289,2026-04-11T19:15:36.132-05:00
1775952936142409000,1.066408935546875,-9.209552121856808,-2.8837568629473447,-1.74312303937003,2026-04-11T19:15:36.142-05:00
1775952936152464600,1.076464599609375,-9.213208890798688,-2.9003727744445205,-1.6955832895599305,2026-04-11T19:15:36.152-05:00
1775952936162521900,1.08652197265625,-9.203983381813764,-2.9348969753369687,-1.6862538818091153,2026-04-11T19:15:36.162-05:00
1775952936172578800,1.096578857421875,-9.181309777712821,-2.992010609178245,-1.7093293447092175,2026-04-11T19:15:36.172-05:00
1775952936182635000,1.106635009765625,-9.143352095240354,-3.081171240143478,-1.7538197899512946,2026-04-11T19:15:36.182-05:00
1775952936192692000,1.11669189453125,-9.08562120628357,-3.2097900212720036,-1.8218465936034918,2026-04-11T19:15:36.192-05:00
1775952936202749000,1.1267490234375,-9.0031504283458,-3.377266648583114,-1.925548083357513,2026-04-11T19:15:36.202-05:00
1775952936212804900,1.136804931640625,-8.891329637283086,-3.5743434643879533,-2.0829566133797166,2026-04-11T19:15:36.212-05:00
1775952936222861800,1.14686181640625,-8.746517846244574,-3.7867856071069834,-2.3084761182062326,2026-04-11T19:15:36.222-05:00
1775952936232917800,1.156917724609375,-8.566334297573565,-3.9990339808195827,-2.606918235902488,2026-04-11T19:15:36.232-05:00
1775952936242974700,1.166974609375,-8.34827080784142,-4.197556611518562,-2.9761174589976664,2026-04-11T19:15:36.242-05:00
1775952936253031700,1.17703173828125,-8.093210005101561,-4.376342860612273,-3.393812709714472,2026-04-11T19:15:36.253-05:00
1775952936263087900,1.187087890625,-7.800223668593167,-4.535594388152659,-3.8412604168772697,2026-04-11T19:15:36.263-05:00
1775952936273144800,1.197144775390625,-7.464464942806958,-4.673500345325469,-4.3139930796831845,2026-04-11T19:15:36.273-05:00
1775952936283201800,1.207201904296875,-7.080911031144857,-4.785721826143562,-4.809152678352594,2026-04-11T19:15:36.283-05:00
1775952936293257700,1.2172578125,-6.649297145190834,-4.8729018046855925,-5.311502480787039,2026-04-11T19:15:36.293-05:00
1775952936303314700,1.227314697265625,-6.174275494664907,-4.934939450925588,-5.804746601223945,2026-04-11T19:15:36.303-05:00
1775952936313371600,1.23737158203125,-5.662815334057807,-4.966365685802698,-6.279976926064491,2026-04-11T19:15:36.313-05:00
1775952936323427800,1.247427734375,-5.127652226302027,-4.957492643517256,-6.730589526998997,2026-04-11T19:15:36.323-05:00
1775952936333484800,1.25748486328125,-4.578497710333764,-4.903423784199357,-7.15291302203834,2026-04-11T19:15:36.333-05:00
1775952936343540700,1.267540771484375,-4.0422143663764,-4.792816460579633,-7.540543973881006,2026-04-11T19:15:36.343-05:00
1775952936353597700,1.27759765625,-3.5410730629488825,-4.605993912285566,-7.900380325347185,2026-04-11T19:15:36.353-05:00
1775952936363655000,1.287655029296875,-3.0833757644504307,-4.334695675972104,-8.238542020621896,2026-04-11T19:15:36.363-05:00
1775952936373710600,1.297710693359375,-2.682868672160804,-3.989756741647422,-8.547188867598772,2026-04-11T19:15:36.373-05:00
1775952936383767800,1.307767822265625,-2.3543226542323827,-3.593265607000887,-8.815666785794496,2026-04-11T19:15:36.383-05:00
1775952936393824800,1.31782470703125,-2.0924248450793326,-3.1610178070574997,-9.044340516868234,2026-04-11T19:15:36.393-05:00
1775952936403881000,1.327880859375,-1.87706316165179,-2.6951526919335125,-9.24030089586377,2026-04-11T19:15:36.403-05:00
1775952936413938000,1.33793798828125,-1.6947252114258706,-2.1954512120507657,-9.40628991496563,2026-04-11T19:15:36.413-05:00
1775952936423993900,1.347993896484375,-1.5358267351068555,-1.6601003266379237,-9.542310496783257,2026-04-11T19:15:36.423-05:00
1775952936434050800,1.35805078125,-1.400758339447528,-1.0908165572892874,-9.644604750087856,2026-04-11T19:15:36.434-05:00
1775952936444107800,1.368107666015625,-1.2926535001680255,-0.4933770991668105,-9.708553198385237,2026-04-11T19:15:36.444-05:00
1775952936454164000,1.3781640625,-1.2139543497234582,0.130128199310787,-9.73035177321732,2026-04-11T19:15:36.454-05:00
1775952936464221000,1.388220947265625,-1.1641574686363338,0.7767984656028449,-9.706271809449792,2026-04-11T19:15:36.464-05:00
1775952936474278000,1.39827783203125,-1.1373777443908155,1.439419055622816,-9.633525722190738,2026-04-11T19:15:36.474-05:00
1775952936484333800,1.408333740234375,-1.1175349067363887,2.107415931853652,-9.512112926918268,2026-04-11T19:15:36.484-05:00
1775952936494390800,1.418390869140625,-1.0708555731479077,2.7667709442064163,-9.347119348594546,2026-04-11T19:15:36.494-05:00
1775952936504447700,1.42844775390625,-0.9725328538227825,3.400398225584626,-9.146685623577236,2026-04-11T19:15:36.504-05:00
1775952936514503700,1.438503662109375,-0.8158668857961893,4.002239791123569,-8.915538780388236,2026-04-11T19:15:36.514-05:00
1775952936524560600,1.448560546875,-0.6008591669054701,4.572608067773282,-8.654512347242235,2026-04-11T19:15:36.524-05:00
1775952936534617600,1.45861767578125,-0.3464690665014088,5.103274156370759,-8.36701408675611,2026-04-11T19:15:36.534-05:00
1775952936544673800,1.468673828125,-0.07708747746422887,5.58942276558876,-8.057467660591005,2026-04-11T19:15:36.544-05:00
1775952936554730800,1.478730712890625,0.16891939173163845,6.023306350040436,-7.7370298380553715,2026-04-11T19:15:36.554-05:00
1775952936564786700,1.48878662109375,0.3355266340633854,6.3909583436936135,-7.430576701730489,2026-04-11T19:15:36.564-05:00
1775952936574843600,1.49884375,0.38978984690960494,6.684371965703368,-7.165027238202095,2026-04-11T19:15:36.574-05:00
1775952936584900900,1.50890087890625,0.34161494100112466,6.921105669113993,-6.9391627193301915,2026-04-11T19:15:36.584-05:00
1775952936594956800,1.518956787109375,0.22379142065858468,7.118519754049181,-6.74143591518402,2026-04-11T19:15:36.594-05:00
1775952936605014000,1.529013916015625,0.06214517543481197,7.290817517906427,-6.5582379871278995,2026-04-11T19:15:36.605-05:00
1775952936615071000,1.539071044921875,-0.12523802524958735,7.443590497082472,-6.383389954265952,2026-04-11T19:15:36.615-05:00
1775952936625127000,1.549126953125,-0.3190158999737352,7.563487627094983,-6.2339616093426935,2026-04-11T19:15:36.625-05:00
1775952936635183900,1.559183837890625,-0.5137097296321764,7.648634346243739,-6.11595190051198,2026-04-11T19:15:36.635-05:00
1775952936645240800,1.56924072265625,-0.6965361574947834,7.7014540822833775,-6.030989890280366,2026-04-11T19:15:36.645-05:00
1775952936655296800,1.579296875,-0.8561142866410315,7.7152096359133715,-5.992746376603842,2026-04-11T19:15:36.655-05:00
1775952936665353700,1.589353759765625,-1.0109087617073207,7.68481391312778,-6.00766805140376,2026-04-11T19:15:36.665-05:00
1775952936675410000,1.599409912109375,-1.1821343662884085,7.611458754059672,-6.069484748369455,2026-04-11T19:15:36.675-05:00
1775952936685467000,1.609466796875,-1.362510003465414,7.503679347342253,-6.165124219959974,2026-04-11T19:15:36.685-05:00
1775952936695523800,1.61952392578125,-1.5303700771361588,7.374350956639647,-6.280708162948489,2026-04-11T19:15:36.695-05:00
1775952936705579800,1.629579833984375,-1.6585224097967146,7.234542088454961,-6.409451447239518,2026-04-11T19:15:36.705-05:00
1775952936715636700,1.63963671875,-1.7281529953837393,7.09312169342041,-6.547631252917647,2026-04-11T19:15:36.715-05:00
1775952936725693700,1.649693603515625,-1.727318005864322,6.9638365573376415,-6.68518737373948,2026-04-11T19:15:36.725-05:00
1775952936735750000,1.65975,-1.6147250613853334,6.863541953417658,-6.815777747201919,2026-04-11T19:15:36.735-05:00
1775952936745806800,1.669806884765625,-1.4109968248672782,6.7861594385296105,-6.937398047745227,2026-04-11T19:15:36.745-05:00
1775952936755863800,1.67986376953125,-1.2137570005204528,6.710039490923285,-7.04787677654922,2026-04-11T19:15:36.755-05:00
1775952936765919700,1.689919677734375,-1.011858755908534,6.624456718444824,-7.159825577905774,2026-04-11T19:15:36.765-05:00
1775952936775976700,1.699976806640625,-0.7769518295336514,6.513414510539174,-7.289867085313796,2026-04-11T19:15:36.775-05:00
1775952936786032600,1.71003271484375,-0.5583282947659493,6.344640244632959,-7.456820565533637,2026-04-11T19:15:36.786-05:00
1775952936796089600,1.720089599609375,-0.34388032864984125,6.115892863801121,-7.6581959553152315,2026-04-11T19:15:36.796-05:00
1775952936806146800,1.730146728515625,-0.08605699326093308,5.851300262606143,-7.869259795418381,2026-04-11T19:15:36.806-05:00
1775952936816202800,1.74020263671875,0.2120768348042853,5.549872845488786,-8.082346665781737,2026-04-11T19:15:36.816-05:00
1775952936826260000,1.750260009765625,0.5529519354898482,5.25042052783668,-8.264244032633304,2026-04-11T19:15:36.826-05:00
1775952936836317000,1.76031689453125,0.915503318068385,4.997532977482676,-8.387903145527838,2026-04-11T19:15:36.836-05:00
1775952936846372900,1.770372802734375,1.2495339048877359,4.79738245332092,-8.461333707919716,2026-04-11T19:15:36.846-05:00
1775952936856429800,1.780429931640625,1.520766967010498,4.637522438493371,-8.505941495931149,2026-04-11T19:15:36.856-05:00
1775952936866485800,1.79048583984375,1.7080384281158447,4.491349880495667,-8.548729082778095,2026-04-11T19:15:36.866-05:00
1775952936876543000,1.80054296875,1.7704074982672928,4.326911597967148,-8.620549287363886,2026-04-11T19:15:36.876-05:00
1775952936886600000,1.810599853515625,1.738951014382392,4.1501422416538,-8.713368440836668,2026-04-11T19:15:36.886-05:00
1775952936896656000,1.82065576171875,1.6668663136415183,3.9788381650090217,-8.806861548048257,2026-04-11T19:15:36.896-05:00
1775952936906712800,1.830712890625,1.5781674549691378,3.816779471093416,-8.89449014714062,2026-04-11T19:15:36.906-05:00
1775952936916769800,1.840769775390625,1.504920724711567,3.6662963564202187,-8.970165273588895,2026-04-11T19:15:36.916-05:00
1775952936926825700,1.85082568359375,1.4548333362452686,3.5496091283649203,-9.025195086893438,2026-04-11T19:15:36.926-05:00
1775952936936882700,1.860882568359375,1.3938665341071783,3.495422195625305,-9.055913465762139,2026-04-11T19:15:36.936-05:00
1775952936946939600,1.870939697265625,1.263963850647956,3.521157233123481,-9.065001027581095,2026-04-11T19:15:36.946-05:00
1775952936956995800,1.880995849609375,1.063611228042841,3.6283570863872763,-9.048433339139818,2026-04-11T19:15:36.956-05:00
1775952936967052800,1.891052734375,0.8042478327382355,3.76929905025512,-9.017537265616655,2026-04-11T19:15:36.967-05:00
1775952936977109800,1.90110986328125,0.552028244773671,3.9020428023591633,-8.979961275938154,2026-04-11T19:15:36.977-05:00
1775952936987165700,1.911165771484375,0.36201866394132376,4.0077585545450445,-8.942997280678153,2026-04-11T19:15:36.987-05:00
1775952936997222700,1.92122265625,0.266630865556933,4.09520682863444,-8.906658139318226,2026-04-11T19:15:36.997-05:00
1775952937007278800,1.93127880859375,0.3324252705145627,4.204066724064946,-8.853570107731223,2026-04-11T19:15:37.007-05:00
1775952937017335800,1.941335693359375,0.4822686990447342,4.360612792038918,-8.770567999395727,2026-04-11T19:15:37.017-05:00
1775952937027392800,1.951392822265625,0.639618630747497,4.5822336819916965,-8.646642344519496,2026-04-11T19:15:37.027-05:00
1775952937037448700,1.96144873046875,0.778874102833122,4.84004582926631,-8.493391810959578,2026-04-11T19:15:37.037-05:00
1775952937047506000,1.971505859375,0.8861343810472637,5.079818461981415,-8.34149853722751,2026-04-11T19:15:37.047-05:00
1775952937057563000,1.98156298828125,0.9899076208632439,5.287430700325966,-8.199607017549871,2026-04-11T19:15:37.057-05:00
1775952937067618800,1.991618896484375,1.1106948315832763,5.470538027489185,-8.062875072592496,2026-04-11T19:15:37.067-05:00
1775952937077675800,2.00167578125,1.224352044292912,5.632036749434471,-7.9341966702312225,2026-04-11T19:15:37.077-05:00
1775952937087732700,2.011732666015625,1.309530400688946,5.773794413599371,-7.817852264264226,2026-04-11T19:15:37.087-05:00
1775952937097788400,2.021788330078125,1.3661163573943078,5.899100124657154,-7.713928948453068,2026-04-11T19:15:37.097-05:00
1775952937107845400,2.031845458984375,1.4063884542889893,6.013032208785415,-7.618128148820996,2026-04-11T19:15:37.107-05:00
1775952937117901300,2.0419013671875,1.4342948444768786,6.122499130198359,-7.525170463660359,2026-04-11T19:15:37.117-05:00
1775952937127958300,2.051958251953125,1.4486414958678184,6.232799579825997,-7.431288649392128,2026-04-11T19:15:37.127-05:00
1775952937138015200,2.06201513671875,1.4667894392378626,6.35101679392755,-7.326901223200559,2026-04-11T19:15:37.138-05:00
1775952937148071400,2.072071533203125,1.5101207775726913,6.483881542062759,-7.20063864980936,2026-04-11T19:15:37.148-05:00
1775952937158128400,2.08212841796875,1.6005542049527168,6.6367907148391,-7.040001513129472,2026-04-11T19:15:37.158-05:00
1775952937168185600,2.092185546875,1.7677416400589048,6.810621679612994,-6.830879454743862,2026-04-11T19:15:37.168-05:00
1775952937178241300,2.1022412109375,2.0190812303185464,6.987120986813307,-6.5782841653347015,2026-04-11T19:15:37.178-05:00
1775952937188298500,2.112298583984375,2.244452412715554,7.1463400733888145,-6.329504634821415,2026-04-11T19:15:37.188-05:00
1775952937198355500,2.12235546875,2.3422249508120117,7.282340196940303,-6.136110891443491,2026-04-11T19:15:37.198-05:00
1775952937208411400,2.132411376953125,2.3228420588195324,7.400092716139555,-6.001118483629822,2026-04-11T19:15:37.208-05:00
1775952937218468400,2.14246826171875,2.2356860456749796,7.501698402658104,-5.907333699995279,2026-04-11T19:15:37.218-05:00
1775952937228524500,2.152524658203125,2.138143663072586,7.584609325578809,-5.837160093572735,2026-04-11T19:15:37.228-05:00
1775952937238581500,2.16258154296875,2.0659943726629018,7.645058825844526,-5.784039913281798,2026-04-11T19:15:37.238-05:00
1775952937248638500,2.172638427734375,2.03056299379766,7.68259389899075,-5.74673631080389,2026-04-11T19:15:37.248-05:00
1775952937258694400,2.1826943359375,2.031792097201198,7.704438066530227,-5.7169777168780564,2026-04-11T19:15:37.258-05:00
1775952937268751400,2.19275146484375,2.058904998923838,7.724588289633393,-5.679966375344991,2026-04-11T19:15:37.268-05:00
1775952937278808300,2.202808349609375,2.0899431112661957,7.758653056320548,-5.621904646998644,2026-04-11T19:15:37.278-05:00
1775952937288864500,2.212864501953125,2.10488802081123,7.813732553985714,-5.5394432214111085,2026-04-11T19:15:37.288-05:00
1775952937298921500,2.22292138671875,2.099341492599994,7.892168961840867,-5.42925616903007,2026-04-11T19:15:37.298-05:00
1775952937308978400,2.232978515625,2.080778100296855,7.994726249995828,-5.28442041259408,2026-04-11T19:15:37.308-05:00
1775952937319034400,2.243034423828125,2.057533856701106,8.117617301127314,-5.1030619749248025,2026-04-11T19:15:37.319-05:00
1775952937329091300,2.25309130859375,2.033349409645796,8.254781207761168,-4.888198450277746,2026-04-11T19:15:37.329-05:00
1775952937339147300,2.263147216796875,2.0065696854002772,8.399014322128892,-4.647643142752349,2026-04-11T19:15:37.339-05:00
1775952937349204500,2.27320458984375,1.9749263006411493,8.543490013080834,-4.390764476935566,2026-04-11T19:15:37.349-05:00
1775952937359261400,2.283261474609375,1.9386103940263388,8.683332199013233,-4.124551581062376,2026-04-11T19:15:37.359-05:00
1775952937369317400,2.2933173828125,1.8976548449121415,8.816454136779903,-3.852202082130313,2026-04-11T19:15:37.369-05:00
1775952937379374300,2.303374267578125,1.8504837822839617,8.940528844738006,-3.5795270045056937,2026-04-11T19:15:37.379-05:00
1775952937389431600,2.313431640625,1.7920504441462457,9.054925039246678,-3.3116867996916173,2026-04-11T19:15:37.389-05:00
1775952937399487200,2.3234873046875,1.7186995228618382,9.16197087099254,-3.0454458467677235,2026-04-11T19:15:37.399-05:00
1775952937409544400,2.33354443359375,1.6310240158878266,9.265268748381734,-2.768560750232637,2026-04-11T19:15:37.409-05:00
1775952937419601400,2.343601318359375,1.5284268341138958,9.36745837226808,-2.466785542590916,2026-04-11T19:15:37.419-05:00
1775952937429657600,2.35365771484375,1.4069722455263136,9.467656530076265,-2.1340869350276885,2026-04-11T19:15:37.429-05:00
1775952937439714600,2.363714599609375,1.2601457536645233,9.561916530007123,-1.7754386243022977,2026-04-11T19:15:37.439-05:00
1775952937449771500,2.373771484375,1.0842965078707785,9.644983520272374,-1.4032092397309839,2026-04-11T19:15:37.449-05:00
1775952937459827500,2.383827392578125,0.8785071010392159,9.712453712955117,-1.032889122847095,2026-04-11T19:15:37.459-05:00
1775952937469884400,2.393884521484375,0.6465731991257518,9.762095988002418,-0.6736638159513473,2026-04-11T19:15:37.469-05:00
1775952937479940400,2.4039404296875,0.39508123131599276,9.793016026923059,-0.3333694925621152,2026-04-11T19:15:37.479-05:00
1775952937489997300,2.413997314453125,0.12811265823729334,9.805767956468463,-0.0292675544393016,2026-04-11T19:15:37.489-05:00
1775952937500054500,2.424054443359375,-0.1471564270690549,9.803411164209246,0.20458943819096312,2026-04-11T19:15:37.500-05:00
1775952937510110500,2.4341103515625,-0.41924277241975066,9.792928933161496,0.30522600568272173,2026-04-11T19:15:37.510-05:00
1775952937520167400,2.44416748046875,-0.6509875815019011,9.783469030898809,0.1741909023937769,2026-04-11T19:15:37.520-05:00
1775952937530224400,2.454224365234375,-0.7596167369164526,9.773962951406835,-0.25103309986004607,2026-04-11T19:15:37.530-05:00
1775952937540280300,2.4642802734375,-0.6534133473441004,9.74150386635065,-0.9200846545092761,2026-04-11T19:15:37.540-05:00
1775952937550337300,2.474337158203125,-0.31376798938289285,9.654943188750742,-1.6893818045713007,2026-04-11T19:15:37.550-05:00
1775952937560394200,2.484394287109375,0.15076774943401106,9.503762447202206,-2.4137439804941416,2026-04-11T19:15:37.560-05:00
1775952937570450400,2.494450439453125,0.4094259830107912,9.326974970710276,-3.0017168874174356,2026-04-11T19:15:37.570-05:00
1775952937580507400,2.50450732421875,0.2398268653866835,9.179887051433324,-3.441301313859224,2026-04-11T19:15:37.580-05:00
1775952937590564400,2.514564453125,-0.21083540164213627,9.06685630005896,-3.730688749092817,2026-04-11T19:15:37.590-05:00
1775952937600620300,2.524620361328125,-0.7727012594170868,8.97459594951272,-3.8768487398698923,2026-04-11T19:15:37.600-05:00
1775952937610677500,2.534677490234375,-1.3601597870774567,8.893569525164365,-3.901894333799183,2026-04-11T19:15:37.610-05:00
1775952937620733400,2.5447333984375,-1.9297307758696376,8.81987242079079,-3.8283670330345627,2026-04-11T19:15:37.620-05:00
1775952937630790400,2.554790283203125,-2.4473048893123863,8.75292128354609,-3.683405896653235,2026-04-11T19:15:37.630-05:00
1775952937640847600,2.56484765625,-2.810722606396675,8.697758199250698,-3.552354919941723,2026-04-11T19:15:37.640-05:00
1775952937650903600,2.574903564453125,-2.7521196107804773,8.670405497422815,-3.663371408884227,2026-04-11T19:15:37.650-05:00
1775952937660960500,2.58496044921875,-2.488901220548153,8.664223009395599,-3.8609596813425417,2026-04-11T19:15:37.660-05:00
1775952937671017500,2.595017578125,-2.1806525791086253,8.672957519993185,-4.0242920484557745,2026-04-11T19:15:37.671-05:00
1775952937681073400,2.605073486328125,-1.8582219753205775,8.696537717545032,-4.133720391424,2026-04-11T19:15:37.681-05:00
1775952937691130400,2.61513037109375,-1.5655043727509677,8.731158949071169,-4.18168012021184,2026-04-11T19:15:37.691-05:00
1775952937701187300,2.625187255859375,-1.4030718770869075,8.76625773498118,-4.165876109619439,2026-04-11T19:15:37.701-05:00
1775952937711243500,2.635243408203125,-1.372208829050511,8.79831525349915,-4.108172985452414,2026-04-11T19:15:37.711-05:00
1775952937721300500,2.645300537109375,-1.392624278961122,8.828239851641655,-4.036481375682354,2026-04-11T19:15:37.721-05:00
1775952937731356400,2.6553564453125,-1.411187379003316,8.856340741488337,-3.9678918235808607,2026-04-11T19:15:37.731-05:00
1775952937741413400,2.665413330078125,-1.411319334819913,8.882274224168063,-3.9094466488748787,2026-04-11T19:15:37.741-05:00
1775952937751470300,2.67547021484375,-1.3922741503491998,8.90393076018095,-3.8667791812762617,2026-04-11T19:15:37.751-05:00
1775952937761526300,2.6855263671875,-1.356024294707924,8.920261132735014,-3.8419454765319823,2026-04-11T19:15:37.761-05:00
1775952937771583500,2.69558349609375,-1.3055387007042765,8.930839809894561,-3.834849673052132,2026-04-11T19:15:37.771-05:00
1775952937781640400,2.705640380859375,-1.244566930130124,8.935514815968274,-3.844221020248532,2026-04-11T19:15:37.781-05:00
1775952937791696400,2.7156962890625,-1.177805104912445,8.934063448116182,-3.8685479445144533,2026-04-11T19:15:37.791-05:00
1775952937801753300,2.72575341796875,-1.1115094359017907,8.926039716136454,-3.9064991972461343,2026-04-11T19:15:37.801-05:00
1775952937811810300,2.735810302734375,-1.0524812736760825,8.91081233638823,-3.957283043543994,2026-04-11T19:15:37.811-05:00
1775952937821866200,2.7458662109375,-1.0059305349033325,8.887942917454243,-4.02031934543252,2026-04-11T19:15:37.821-05:00
1775952937831923500,2.75592333984375,-0.9745998693551867,8.856904220589994,-4.095825252793729,2026-04-11T19:15:37.831-05:00
1775952937841979400,2.7659794921875,-0.9587039426956325,8.817213430714606,-4.184258154006302,2026-04-11T19:15:37.841-05:00
1775952937852036600,2.77603662109375,-0.9567625263042747,8.770307887154818,-4.2821375134781,2026-04-11T19:15:37.852-05:00
1775952937862093600,2.786093505859375,-0.9641592124268412,8.719856633812189,-4.382336255808174,2026-04-11T19:15:37.862-05:00
1775952937872149500,2.7961494140625,-0.9715569945279509,8.672491656047105,-4.473742619873583,2026-04-11T19:15:37.872-05:00
1775952937882206500,2.80620654296875,-0.9706631144281476,8.63454624853432,-4.546734790848196,2026-04-11T19:15:37.882-05:00
1775952937892263400,2.816263427734375,-0.9565640811227262,8.6098367546916,-4.596311307182908,2026-04-11T19:15:37.892-05:00
1775952937902319400,2.8263193359375,-0.9257781899757683,8.600468037843704,-4.62009521061331,2026-04-11T19:15:37.902-05:00
1775952937912376600,2.83637646484375,-0.8783801867239177,8.60554928663075,-4.619890335690975,2026-04-11T19:15:37.912-05:00
1775952937922433500,2.84643359375,-0.8206382649164646,8.616172971975804,-4.6106934682786465,2026-04-11T19:15:37.922-05:00
1775952937932489500,2.856489501953125,-0.7600204954117536,8.622799696639179,-4.6086979105472565,2026-04-11T19:15:37.932-05:00
1775952937942546400,2.86654638671875,-0.7041624876547604,8.621090554633737,-4.6207527977392076,2026-04-11T19:15:37.942-05:00
1775952937952602400,2.876602294921875,-0.6602800182431936,8.611094645798206,-4.645801314277946,2026-04-11T19:15:37.952-05:00
1775952937962659300,2.886659423828125,-0.635320787423104,8.595484404212236,-4.678075398156047,2026-04-11T19:15:37.962-05:00
1775952937972716300,2.89671630859375,-0.6353639689777046,8.57760914030373,-4.710766538402438,2026-04-11T19:15:37.972-05:00
1775952937982772500,2.9067724609375,-0.6645714318268001,8.559384916827081,-4.739795064488053,2026-04-11T19:15:37.982-05:00
1775952937992829400,2.916829345703125,-0.7258046298161148,8.541029175925255,-4.763864799122512,2026-04-11T19:15:37.992-05:00
1775952938002886400,2.926886474609375,-0.8192227720953523,8.521503222200273,-4.7836423895210025,2026-04-11T19:15:38.002-05:00
1775952938012942300,2.9369423828125,-0.9433107048612087,8.499236445334553,-4.800369360177219,2026-04-11T19:15:38.012-05:00
1775952938022999300,2.946999267578125,-1.0937502726536243,8.473003687447308,-4.814802082416415,2026-04-11T19:15:38.022-05:00
1775952938033056300,2.95705615234375,-1.2634784052185712,8.442830082979798,-4.826244975189864,2026-04-11T19:15:38.033-05:00
1775952938043112400,2.967112548828125,-1.4432465049564838,8.41039554784298,-4.832460196442902,2026-04-11T19:15:38.043-05:00
1775952938053169700,2.977169677734375,-1.6258676560379564,8.37725374121964,-4.832035833550989,2026-04-11T19:15:38.053-05:00
1775952938063226600,2.9872265625,-1.8080381407424806,8.344164541566371,-4.824552199797332,2026-04-11T19:15:38.063-05:00
1775952938073282600,2.997282470703125,-1.9949208947911858,8.310136599758266,-4.809607728643715,2026-04-11T19:15:38.073-05:00
1775952938083339500,3.007339599609375,-2.2106122485645114,8.271839894589782,-4.781238543249667,2026-04-11T19:15:38.083-05:00
1775952938093395700,3.017395751953125,-2.480584350840747,8.225653897476196,-4.72818178358376,2026-04-11T19:15:38.093-05:00
1775952938103452700,3.02745263671875,-2.7518077683523297,8.176115082803369,-4.663590068946778,2026-04-11T19:15:38.103-05:00
1775952938113509600,3.037509521484375,-2.756651993513107,8.161296868377924,-4.686627245663106,2026-04-11T19:15:38.113-05:00
1775952938123565800,3.04756591796875,-2.57502262994796,8.179778281486033,-4.757190728186071,2026-04-11T19:15:38.123-05:00
1775952938133622800,3.057622802734375,-2.38452679996863,8.20835555667281,-4.807007483017444,2026-04-11T19:15:38.133-05:00
1775952938143679700,3.0676796875,-2.1962628206945953,8.241805406332016,-4.8393669070914385,2026-04-11T19:15:38.143-05:00
1775952938153735700,3.077735595703125,-2.0107075158573684,8.277536060404778,-4.858995444408059,2026-04-11T19:15:38.153-05:00
1775952938163792600,3.087792724609375,-1.8350855760134754,8.313048687812685,-4.8678600111261,2026-04-11T19:15:38.163-05:00
1775952938173849600,3.097849609375,-1.6756896715663372,8.346168867126107,-4.868667235855758,2026-04-11T19:15:38.173-05:00
1775952938183905500,3.107905517578125,-1.533582463311404,8.375653904807567,-4.8648672590509054,2026-04-11T19:15:38.183-05:00
1775952938193962800,3.117962646484375,-1.4053883373357354,8.402007658725976,-4.858141750188172,2026-04-11T19:15:38.193-05:00
1775952938204018700,3.128018798828125,-1.286539839593321,8.426354748997092,-4.848891106761991,2026-04-11T19:15:38.204-05:00
1775952938214075600,3.13807568359375,-1.174103400850296,8.449139996778964,-4.83775888737291,2026-04-11T19:15:38.214-05:00
1775952938224132900,3.1481328125,-1.0679407086145132,8.470393797209859,-4.825177638219297,2026-04-11T19:15:38.224-05:00
1775952938234188500,3.1581884765625,-0.9714183167096226,8.490678460347652,-4.80989823602289,2026-04-11T19:15:38.234-05:00
1775952938244245800,3.168245849609375,-0.8925196981701999,8.510192139112949,-4.790658698023855,2026-04-11T19:15:38.244-05:00
1775952938254302700,3.178302734375,-0.8388076894659549,8.52798381639123,-4.768675998796522,2026-04-11T19:15:38.254-05:00
1775952938264359000,3.18835888671875,-0.8142619348175824,8.543922559279203,-4.744337968614698,2026-04-11T19:15:38.264-05:00
1775952938274415900,3.198415771484375,-0.8167571856994181,8.558384799873828,-4.717767941597104,2026-04-11T19:15:38.274-05:00
1775952938284472800,3.208472900390625,-0.8397232699409126,8.572180100992322,-4.688602052867412,2026-04-11T19:15:38.284-05:00
1775952938294528800,3.21852880859375,-0.8755285236198455,8.586333714029193,-4.656039215175807,2026-04-11T19:15:38.294-05:00
1775952938304585700,3.228585693359375,-0.9222958277527242,8.601304488667845,-4.619234794391692,2026-04-11T19:15:38.304-05:00
1775952938314641700,3.2386416015625,-0.9823041601222008,8.617417419078945,-4.576634254549443,2026-04-11T19:15:38.314-05:00
1775952938324698600,3.24869873046875,-1.0539680051025002,8.635198574963212,-4.526907223828137,2026-04-11T19:15:38.324-05:00
1775952938334755600,3.258755615234375,-1.1278942420568316,8.653154502892495,-4.474500160242616,2026-04-11T19:15:38.334-05:00
1775952938344811800,3.268811767578125,-1.1918383795052767,8.669937879911064,-4.4251624210998415,2026-04-11T19:15:38.344-05:00
1775952938354868700,3.27886865234375,-1.2414746632032096,8.685577347591519,-4.380626821541786,2026-04-11T19:15:38.354-05:00
1775952938364925700,3.28892578125,-1.2790458305761216,8.700388547754287,-4.340238112530112,2026-04-11T19:15:38.364-05:00
1775952938374981600,3.298981689453125,-1.3084804532445966,8.715724648573994,-4.3005131281241775,2026-04-11T19:15:38.374-05:00
1775952938385038600,3.30903857421875,-1.333368956916034,8.733024742943048,-4.2575566144511106,2026-04-11T19:15:38.385-05:00
1775952938395095600,3.319095458984375,-1.3482276494823395,8.752985580953956,-4.211638036102056,2026-04-11T19:15:38.395-05:00
1775952938405151700,3.32915185546875,-1.3414448574744164,8.774822734230757,-4.16813967063725,2026-04-11T19:15:38.405-05:00
1775952938415208700,3.339208740234375,-1.3074905654244124,8.796392176482081,-4.13331853262484,2026-04-11T19:15:38.415-05:00
1775952938425264600,3.3492646484375,-1.2491171407803892,8.81648044026494,-4.108500025449693,2026-04-11T19:15:38.425-05:00
1775952938435321600,3.359321533203125,-1.1747013667434454,8.833655446949601,-4.093532173420488,2026-04-11T19:15:38.435-05:00
1775952938445378800,3.36937890625,-1.0986711432471872,8.846459983465074,-4.086986112777889,2026-04-11T19:15:38.445-05:00
1775952938455434500,3.3794345703125,-1.0414865630615502,8.85280906023085,-4.088209224832058,2026-04-11T19:15:38.455-05:00
1775952938465491700,3.38949169921875,-1.0259465371675789,8.849485468766092,-4.099320985955,2026-04-11T19:15:38.465-05:00
1775952938475548700,3.399548583984375,-1.065906280177459,8.833123532029985,-4.12433881509453,2026-04-11T19:15:38.475-05:00
1775952938485604900,3.40960498046875,-1.1555759566433728,8.806416726890205,-4.157169363811612,2026-04-11T19:15:38.485-05:00
1775952938495661800,3.419661865234375,-1.2735387575924395,8.77880566638708,-4.181035100306571,2026-04-11T19:15:38.495-05:00
1775952938505718800,3.42971875,-1.3977099116623402,8.757951678928732,-4.18510161909312,2026-04-11T19:15:38.505-05:00
1775952938515774700,3.439774658203125,-1.5160203570052981,8.744438701882958,-4.172152997931838,2026-04-11T19:15:38.515-05:00
1775952938525831700,3.449831787109375,-1.6273263304136691,8.73431010657847,-4.151389319105446,2026-04-11T19:15:38.525-05:00
1775952938535888600,3.459888671875,-1.7275665737979113,8.723483007615805,-4.133611085830629,2026-04-11T19:15:38.535-05:00
1775952938545944800,3.46994482421875,-1.8085042969495058,8.708580622038244,-4.130412874311208,2026-04-11T19:15:38.545-05:00
1775952938556001800,3.480001708984375,-1.8694694916523993,8.689429931366442,-4.143582444746792,2026-04-11T19:15:38.556-05:00
1775952938566057700,3.4900576171875,-1.9238287122189996,8.66629046331942,-4.167096299064159,2026-04-11T19:15:38.566-05:00
1775952938576114700,3.50011474609375,-1.9885949066400528,8.638774679884314,-4.1937390990570185,2026-04-11T19:15:38.576-05:00
1775952938586171600,3.510171630859375,-2.0733236926376817,8.607360719966888,-4.217232202847302,2026-04-11T19:15:38.586-05:00
1775952938596227600,3.5202275390625,-2.179770097185671,8.572026956257224,-4.235483314330875,2026-04-11T19:15:38.596-05:00
1775952938606284500,3.530284423828125,-2.2995526609078047,8.53202812334597,-4.252873425070941,2026-04-11T19:15:38.606-05:00
1775952938616341800,3.540341796875,-2.4156148889325557,8.488496440133451,-4.275584730833769,2026-04-11T19:15:38.616-05:00
1775952938626397700,3.550397705078125,-2.5123043079674243,8.44357476386726,-4.308685036402941,2026-04-11T19:15:38.626-05:00
1775952938636454700,3.56045458984375,-2.58534557878077,8.401006372728943,-4.348502667528391,2026-04-11T19:15:38.636-05:00
1775952938646510600,3.570510498046875,-2.6405440266504883,8.363388297474383,-4.387668264485895,2026-04-11T19:15:38.646-05:00
1775952938656567600,3.580567626953125,-2.6804136802241203,8.33148333916962,-4.4240430616810915,2026-04-11T19:15:38.656-05:00
1775952938666624500,3.59062451171875,-2.7050051006451246,8.307536061871051,-4.454008576355874,2026-04-11T19:15:38.666-05:00
1775952938676680700,3.6006806640625,-2.708545841991901,8.29194803211689,-4.480820595435798,2026-04-11T19:15:38.676-05:00
1775952938686738000,3.610738037109375,-2.637777192285657,8.283613334491848,-4.53809205018729,2026-04-11T19:15:38.686-05:00
1775952938696795000,3.620794921875,-2.4679163001865145,8.287379993548988,-4.625915587329864,2026-04-11T19:15:38.696-05:00
1775952938706850800,3.630850830078125,-2.2829534082844853,8.318793368944526,-4.664354039056599,2026-04-11T19:15:38.706-05:00
1775952938716907800,3.64090771484375,-2.1519249356657264,8.37454857391417,-4.626722227537631,2026-04-11T19:15:38.716-05:00
1775952938726964700,3.65096484375,-2.1307494611680506,8.42663941115737,-4.54114968419224,2026-04-11T19:15:38.726-05:00
1775952938737020700,3.661020751953125,-2.2329311940088865,8.449889938363432,-4.447893600606918,2026-04-11T19:15:38.737-05:00
1775952938747077600,3.67107763671875,-2.406495032279193,8.44799199578762,-4.360114779388904,2026-04-11T19:15:38.747-05:00
1775952938757134800,3.681134765625,-2.585677587214112,8.433271396517753,-4.285393300403654,2026-04-11T19:15:38.757-05:00
1775952938767190800,3.691190673828125,-2.7278701356649395,8.415264030662179,-4.232311406296492,2026-04-11T19:15:38.767-05:00
1775952938777247700,3.701247802734375,-2.8169074325114485,8.40181476650238,-4.200585896211862,2026-04-11T19:15:38.777-05:00
1775952938787304700,3.7113046875,-2.8504499288901686,8.398526830872893,-4.184502776417136,2026-04-11T19:15:38.787-05:00
1775952938797360600,3.721360595703125,-2.8323820650190115,8.408205344322324,-4.177328647004067,2026-04-11T19:15:38.797-05:00
1775952938807417600,3.73141748046875,-2.7715660695284603,8.430977148100734,-4.172221971514821,2026-04-11T19:15:38.807-05:00
1775952938817473800,3.741473876953125,-2.682264861048758,8.463457275944947,-4.164822801174223,2026-04-11T19:15:38.817-05:00
1775952938827530800,3.75153076171875,-2.5827427028059957,8.49758575551808,-4.158228517475724,2026-04-11T19:15:38.827-05:00
1775952938837587700,3.761587646484375,-2.4944442416280506,8.525712948849797,-4.154557720008492,2026-04-11T19:15:38.837-05:00
1775952938847643600,3.7716435546875,-2.435196372237056,8.543789288288353,-4.152571514627337,2026-04-11T19:15:38.847-05:00
1775952938857700600,3.78170068359375,-2.4107132344961166,8.55386703018844,-4.146106410266459,2026-04-11T19:15:38.857-05:00
1775952938867757600,3.791757568359375,-2.4112251295410094,8.561530112162233,-4.129959869846702,2026-04-11T19:15:38.867-05:00
1775952938877813500,3.8018134765625,-2.4190878257401285,8.571741709575056,-4.104099160142242,2026-04-11T19:15:38.877-05:00
1775952938887870700,3.81187060546875,-2.4179781109325584,8.58600287463963,-4.074841501475871,2026-04-11T19:15:38.887-05:00
1775952938897928000,3.821927978515625,-2.399500351086259,8.6044638294816,-4.046723368233442,2026-04-11T19:15:38.897-05:00
1775952938907984000,3.83198388671875,-2.365408550261706,8.62727654979229,-4.018123881214857,2026-04-11T19:15:38.907-05:00
1775952938918040800,3.842040771484375,-2.322018175216019,8.652340263900161,-3.989438469478488,2026-04-11T19:15:38.918-05:00
1775952938928096800,3.8520966796875,-2.277501134227961,8.676351838606596,-3.962863181763887,2026-04-11T19:15:38.928-05:00
1775952938938153700,3.86215380859375,-2.2380416688904163,8.698236922678351,-3.93728859552443,2026-04-11T19:15:38.938-05:00
1775952938948210700,3.872210693359375,-2.207875663207471,8.717975642371178,-3.9105736070781942,2026-04-11T19:15:38.948-05:00
1775952938958267000,3.882266845703125,-2.1886782107844946,8.734547422465681,-3.8842955487444994,2026-04-11T19:15:38.958-05:00
1775952938968323800,3.89232373046875,-2.1790512813918292,8.74670840038061,-3.862281869857013,2026-04-11T19:15:38.968-05:00
1775952938978380800,3.902380859375,-2.175198113095015,8.754647961208224,-3.846433435600996,2026-04-11T19:15:38.978-05:00
1775952938988436700,3.912436767578125,-2.173513959400356,8.759636855536698,-3.836011118046939,2026-04-11T19:15:38.988-05:00
1775952938998493700,3.92249365234375,-2.172473802697658,8.762446067738532,-3.830179635414481,2026-04-11T19:15:38.998-05:00
1775952939008550700,3.932550537109375,-2.1741941967494784,8.764031875625252,-3.8255724338799713,2026-04-11T19:15:39.008-05:00
1775952939018606600,3.942606689453125,-2.18160505752787,8.765801223385333,-3.8172912200078364,2026-04-11T19:15:39.018-05:00
1775952939028663800,3.952663818359375,-2.195523108243197,8.767497505909205,-3.8053985376402735,2026-04-11T19:15:39.028-05:00
1775952939038719700,3.9627197265625,-2.2163772418320176,8.767025212222338,-3.7943797154977914,2026-04-11T19:15:39.038-05:00
1775952939048776700,3.972776611328125,-2.244599273840338,8.762534915065764,-3.7881583567649124,2026-04-11T19:15:39.048-05:00
1775952939058833700,3.982833740234375,-2.282620961459726,8.751790818211436,-3.7902728647008535,2026-04-11T19:15:39.058-05:00
1775952939068889600,3.9928896484375,-2.332332356220484,8.734874754723906,-3.799022572867572,2026-04-11T19:15:39.068-05:00
1775952939078946600,4.002946533203125,-2.392315700279176,8.714004985174537,-3.8096351522967216,2026-04-11T19:15:39.078-05:00
1775952939089003500,4.01300341796875,-2.4588491966336963,8.690949688279629,-3.819927705991268,2026-04-11T19:15:39.089-05:00
1775952939099060200,4.023060302734375,-2.5261899177178737,8.66781898806095,-3.8285324527293443,2026-04-11T19:15:39.099-05:00
1775952939109117200,4.0331171875,-2.590657421453297,8.645279239472746,-3.836408300670981,2026-04-11T19:15:39.109-05:00
1775952939119174100,4.043174072265625,-2.653110370495915,8.621148422300815,-3.84801106018126,2026-04-11T19:15:39.119-05:00
1775952939129230000,4.05322998046875,-2.7150840115889907,8.59624194458127,-3.860481542436778,2026-04-11T19:15:39.129-05:00
1775952939139287000,4.063287109375,-2.777311042921245,8.573037010082603,-3.8678105701506134,2026-04-11T19:15:39.139-05:00
1775952939149344000,4.073343994140625,-2.8372575621008873,8.553046945977211,-3.8685567123427984,2026-04-11T19:15:39.149-05:00
1775952939159400000,4.08339990234375,-2.8896853762134906,8.53721341702938,-3.8647251713559028,2026-04-11T19:15:39.159-05:00
1775952939169457000,4.093456787109375,-2.9299995586842296,8.52580004261136,-3.8595638430699704,2026-04-11T19:15:39.169-05:00
1775952939179513000,4.10351318359375,-2.95792713779062,8.519175656035541,-3.8528792507395146,2026-04-11T19:15:39.179-05:00
1775952939189570000,4.113570068359375,-2.9755738536402583,8.516578040757775,-3.845027952717244,2026-04-11T19:15:39.189-05:00
1775952939199627000,4.123626953125,-2.986167436107993,8.515659172347187,-3.8388472182556983,2026-04-11T19:15:39.199-05:00
1775952939209683000,4.133682861328125,-2.9914348551169034,8.516227327623962,-3.8334833531349894,2026-04-11T19:15:39.209-05:00
1775952939219740000,4.143739990234375,-2.990993248829245,8.518089614364504,-3.8296865912005305,2026-04-11T19:15:39.219-05:00
1775952939229796900,4.153796875,-2.9841651563748717,8.520275141710043,-3.830150117059052,2026-04-11T19:15:39.229-05:00
1775952939239853000,4.16385302734375,-2.9714582350149747,8.522514445069431,-3.835044903363287,2026-04-11T19:15:39.239-05:00
1775952939249910000,4.173909912109375,-2.954531650133431,8.52507289738059,-3.8424306297004223,2026-04-11T19:15:39.249-05:00
1775952939259967200,4.18396728515625,-2.9352018035024403,8.529183839830756,-3.848117443165183,2026-04-11T19:15:39.259-05:00
1775952939270023200,4.194023193359375,-2.916044975350797,8.53559312235117,-3.848469617603719,2026-04-11T19:15:39.270-05:00
1775952939280080100,4.204080078125,-2.8980805718541145,8.54571762600243,-3.8395594581782815,2026-04-11T19:15:39.280-05:00
1775952939290137000,4.21413720703125,-2.8803754038155076,8.561111594489216,-3.8185342058062552,2026-04-11T19:15:39.290-05:00
1775952939300193000,4.224193115234375,-2.8608059032097457,8.580191558012366,-3.790316996103525,2026-04-11T19:15:39.300-05:00
1775952939310250000,4.23425,-2.836237863664329,8.600762636876105,-3.76205302464962,2026-04-11T19:15:39.310-05:00
1775952939320306200,4.24430615234375,-2.8076608807384966,8.620235399109125,-3.7388451675415038,2026-04-11T19:15:39.320-05:00
1775952939330363100,4.254363037109375,-2.77880245052278,8.636466987463832,-3.7229108085677027,2026-04-11T19:15:39.330-05:00
1775952939340420000,4.264420166015625,-2.752064665722847,8.649136499422788,-3.7133459846258163,2026-04-11T19:15:39.340-05:00
1775952939350476000,4.27447607421875,-2.7286557330846786,8.657512113580108,-3.7111055122226473,2026-04-11T19:15:39.350-05:00
1775952939360533000,4.284532958984375,-2.709597689132392,8.660394975540042,-3.7183354634761807,2026-04-11T19:15:39.360-05:00
1775952939370590000,4.29458984375,-2.6972031947225332,8.658148073396086,-3.732552204877138,2026-04-11T19:15:39.370-05:00
1775952939380646100,4.304646240234375,-2.691628609460592,8.65422417795062,-3.7456548475563523,2026-04-11T19:15:39.380-05:00
1775952939390703000,4.314703125,-2.6878873771056533,8.654295489621163,-3.7481761827275153,2026-04-11T19:15:39.390-05:00
1775952939400760000,4.324760009765625,-2.6797327122226355,8.660344122135639,-3.7400346695870157,2026-04-11T19:15:39.400-05:00
1775952939410816000,4.33481591796875,-2.6614839388266205,8.67062001695633,-3.7292423496767877,2026-04-11T19:15:39.410-05:00
1775952939420873000,4.344873046875,-2.631413210211694,8.683848916363715,-3.719790046198666,2026-04-11T19:15:39.420-05:00
1775952939430929000,4.354928955078125,-2.594588915683329,8.698471900478005,-3.711482528841495,2026-04-11T19:15:39.430-05:00
1775952939440985900,4.36498583984375,-2.558657186080515,8.712254926636815,-3.704090372763574,2026-04-11T19:15:39.440-05:00
1775952939451042800,4.375042724609375,-2.5302812786847353,8.72306215185523,-3.698140816709399,2026-04-11T19:15:39.451-05:00
1775952939461099000,4.38509912109375,-2.5144649931326506,8.729488970032333,-3.6937621632337567,2026-04-11T19:15:39.461-05:00
1775952939471156000,4.395156005859375,-2.5142095570668577,8.73134131990075,-3.6895571127593514,2026-04-11T19:15:39.471-05:00
1775952939481213200,4.405213134765625,-2.528917881377041,8.72902953582704,-3.6849729998394847,2026-04-11T19:15:39.481-05:00
1775952939491269000,4.41526904296875,-2.552979432705045,8.724294908520578,-3.679587215147912,2026-04-11T19:15:39.491-05:00
1775952939501326000,4.425326171875,-2.5803093381792306,8.717837110683321,-3.675828154875338,2026-04-11T19:15:39.501-05:00
1775952939511383000,4.435383056640625,-2.607155259528756,8.71060482134223,-3.6740295810207724,2026-04-11T19:15:39.511-05:00
1775952939521439200,4.445439208984375,-2.633405553072691,8.703709801131486,-3.6716473620593546,2026-04-11T19:15:39.521-05:00
1775952939531496200,4.45549609375,-2.661189632055163,8.697538419020175,-3.6662338125780223,2026-04-11T19:15:39.531-05:00
1775952939541552000,4.46555224609375,-2.6931854835137723,8.690907602703572,-3.6585873894780874,2026-04-11T19:15:39.541-05:00
1775952939551609000,4.475609130859375,-2.7321079193651676,8.681833484888076,-3.6512653760269282,2026-04-11T19:15:39.551-05:00
1775952939561666000,4.485666015625,-2.7798168882623315,8.669398366206885,-3.6447935496643185,2026-04-11T19:15:39.561-05:00
1775952939571722000,4.495721923828125,-2.833161817219853,8.654289644402265,-3.6396199464187022,2026-04-11T19:15:39.571-05:00
1775952939581779000,4.505779052734375,-2.8873148476898667,8.636808932769299,-3.6385879730224606,2026-04-11T19:15:39.581-05:00
1775952939591836000,4.5158359375,-2.9362323155939576,8.618982768699526,-3.6417116580009457,2026-04-11T19:15:39.591-05:00
1775952939601892000,4.52589208984375,-2.97330444740355,8.603685246324538,-3.6478020838305354,2026-04-11T19:15:39.601-05:00
1775952939611949000,4.535948974609375,-2.995188362431526,8.592876852062345,-3.655366673865914,2026-04-11T19:15:39.611-05:00
1775952939622006000,4.546006103515625,-3.0037764502957462,8.587591605135797,-3.6607357996836303,2026-04-11T19:15:39.622-05:00
1775952939632062000,4.55606201171875,-3.0034438573405144,8.587523800596594,-3.6611686381429434,2026-04-11T19:15:39.632-05:00
1775952939642119000,4.566118896484375,-2.998599924440682,8.590614167827367,-3.657888885819912,2026-04-11T19:15:39.642-05:00
1775952939652176000,4.57617578125,-2.990527969405055,8.59692992684543,-3.6496480039581654,2026-04-11T19:15:39.652-05:00
1775952939662232000,4.586232177734375,-2.9784885720431804,8.606531283405422,-3.6368425906598567,2026-04-11T19:15:39.662-05:00
1775952939672289000,4.5962890625,-2.9617490341663357,8.61744781421721,-3.624640696212649,2026-04-11T19:15:39.672-05:00
1775952939682346200,4.60634619140625,-2.9409277799338103,8.62867414163053,-3.6148759657844898,2026-04-11T19:15:39.682-05:00
1775952939692402000,4.61640185546875,-2.917054152393341,8.640507202765345,-3.6059430100053547,2026-04-11T19:15:39.692-05:00
1775952939702459100,4.626459228515625,-2.8904581141516563,8.653096050703525,-3.5971629067003725,2026-04-11T19:15:39.702-05:00
1775952939712514800,4.636514892578125,-2.859179178790748,8.666334886983037,-3.5902813304930925,2026-04-11T19:15:39.712-05:00
1775952939722572000,4.646572021484375,-2.8216075730264185,8.680583777087927,-3.585580313195288,2026-04-11T19:15:39.722-05:00
1775952939732629000,4.65662890625,-2.7791005566865206,8.696040289416908,-3.5813214867070315,2026-04-11T19:15:39.732-05:00
1775952939742685200,4.666685302734375,-2.73504017342478,8.712533743578195,-3.5751489355519412,2026-04-11T19:15:39.742-05:00
1775952939752742100,4.6767421875,-2.6955983898743985,8.72941882740557,-3.563899811784923,2026-04-11T19:15:39.752-05:00
1775952939762799000,4.686799072265625,-2.664349265129864,8.747757032650709,-3.542368071195483,2026-04-11T19:15:39.762-05:00
1775952939772855000,4.69685498046875,-2.638264683541655,8.765816420954465,-3.517160856963694,2026-04-11T19:15:39.772-05:00
1775952939782912000,4.706912109375,-2.6101649627387524,8.78067204478085,-3.5010333135053515,2026-04-11T19:15:39.782-05:00
1775952939792969000,4.716968994140625,-2.5752663755759597,8.79146816408336,-3.4997815598785875,2026-04-11T19:15:39.792-05:00
1775952939803025200,4.727025146484375,-2.537818688452244,8.799311863321066,-3.507416584801674,2026-04-11T19:15:39.803-05:00
1775952939813082000,4.73708203125,-2.5036834868773816,8.805559233278036,-3.516261570036411,2026-04-11T19:15:39.813-05:00
1775952939823138000,4.747137939453125,-2.481278178323805,8.807149132817983,-3.528141977444291,2026-04-11T19:15:39.823-05:00
1775952939833195000,4.757195068359375,-2.4804510798498987,8.800410179951786,-3.5454952633053063,2026-04-11T19:15:39.833-05:00
1775952939843252000,4.767251953125,-2.5047248126238584,8.788087873995304,-3.5589711232110854,2026-04-11T19:15:39.843-05:00
1775952939853308000,4.777307861328125,-2.5484181161388753,8.774506507888436,-3.561456802546978,2026-04-11T19:15:39.853-05:00
1775952939863364900,4.78736474609375,-2.6005340878233314,8.761995401361585,-3.5545825328633187,2026-04-11T19:15:39.863-05:00
1775952939873422000,4.797422119140625,-2.6499673962950703,8.75202754957676,-3.5426091864749787,2026-04-11T19:15:39.873-05:00
1775952939883478000,4.80747802734375,-2.688202142143249,8.746004636025429,-3.528649050183594,2026-04-11T19:15:39.883-05:00
1775952939893535000,4.817534912109375,-2.7101009624794123,8.74667274454534,-3.5101916024729607,2026-04-11T19:15:39.893-05:00
1775952939903592200,4.82759228515625,-2.7148583861395714,8.755842723950742,-3.4835546476989983,2026-04-11T19:15:39.903-05:00
1775952939913647900,4.83764794921875,-2.7031381377294657,8.77140386569798,-3.4533912723645566,2026-04-11T19:15:39.913-05:00
1775952939923705000,4.847705078125,-2.678397956487536,8.789497740793228,-3.426558502757549,2026-04-11T19:15:39.923-05:00
1775952939933762000,4.857761962890625,-2.6456834353655574,8.807208169528842,-3.4064398438364267,2026-04-11T19:15:39.933-05:00
1775952939943818200,4.867818359375,-2.61177298245728,8.822502769294381,-3.3930063617676494,2026-04-11T19:15:39.943-05:00
1775952939953875200,4.877875244140625,-2.5832749099865553,8.833758907324075,-3.3855224357530473,2026-04-11T19:15:39.953-05:00
1775952939963931100,4.88793115234375,-2.5643615352019666,8.840720563030242,-3.381729473210871,2026-04-11T19:15:39.963-05:00
1775952939973988000,4.897988037109375,-2.5560253762722014,8.843928419160843,-3.3796491598054765,2026-04-11T19:15:39.973-05:00
1775952939984045000,4.908045166015625,-2.55807938619256,8.843831388527155,-3.378353567036986,2026-04-11T19:15:39.984-05:00
1775952939994101000,4.91810107421875,-2.5686566020473838,8.841535971066355,-3.3763363819956775,2026-04-11T19:15:39.994-05:00
1775952940004158000,4.928157958984375,-2.5861110101953146,8.838652524584532,-3.3705516611143946,2026-04-11T19:15:40.004-05:00
1775952940014215200,4.938215087890625,-2.609186473095417,8.837191219860316,-3.3565716510787604,2026-04-11T19:15:40.014-05:00
1775952940024271000,4.94827099609375,-2.638257961539924,8.838371369555592,-3.330639337442815,2026-04-11T19:15:40.024-05:00
1775952940034328000,4.958328125,-2.6739459455147383,8.84240340155065,-3.291248699557781,2026-04-11T19:15:40.034-05:00
1775952940044385000,4.968385009765625,-2.7154829477787015,8.848462555459141,-3.240563637459278,2026-04-11T19:15:40.044-05:00
1775952940054441000,4.97844091796875,-2.7608699034690853,8.855746282726527,-3.181782362666726,2026-04-11T19:15:40.054-05:00
1775952940064498000,4.988497802734375,-2.8077006282269954,8.864239970305562,-3.11648133071661,2026-04-11T19:15:40.064-05:00
1775952940074555000,4.998554931640625,-2.852705014340579,8.874141771116852,-3.04664587020725,2026-04-11T19:15:40.074-05:00
1775952940084611000,5.008611083984375,-2.89198985376358,8.886181168478727,-2.9736463927090164,2026-04-11T19:15:40.084-05:00
1775952940094672000,5.018671875,-2.922026095587015,8.901192859649658,-2.89843391533643,2026-04-11T19:15:40.094-05:00
1775952940104727800,5.028727783203125,-2.940405509625375,8.919899898207188,-2.821308297818899,2026-04-11T19:15:40.104-05:00
1775952940114784800,5.03878466796875,-2.945623828795552,8.942942920142412,-2.7417998768180607,2026-04-11T19:15:40.114-05:00
1775952940124841700,5.048841796875,-2.937053568848967,8.970496697500348,-2.659756092120707,2026-04-11T19:15:40.124-05:00
1775952940134897700,5.058897705078125,-2.915571220359206,9.002230975413323,-2.5748168782427907,2026-04-11T19:15:40.134-05:00
1775952940144954600,5.06895458984375,-2.8840757196381688,9.037132192924618,-2.486511695063114,2026-04-11T19:15:40.144-05:00
1775952940155011800,5.07901171875,-2.8469062649339434,9.073363782256841,-2.3957411446832118,2026-04-11T19:15:40.155-05:00
1775952940165067800,5.08906787109375,-2.8091660246044396,9.108522189399599,-2.30516611687541,2026-04-11T19:15:40.165-05:00
1775952940175125000,5.099125,-2.777164035665989,9.139992847940325,-2.217721349917352,2026-04-11T19:15:40.175-05:00
1775952940185182000,5.109181884765625,-2.758671808902919,9.165183987820148,-2.135306686080992,2026-04-11T19:15:40.185-05:00
1775952940195238000,5.11923779296875,-2.760219915127754,9.182171947500109,-2.058956290719658,2026-04-11T19:15:40.195-05:00
1775952940205294800,5.129294921875,-2.785890070696175,9.190032013350725,-1.9880929484672842,2026-04-11T19:15:40.205-05:00
1775952940215351800,5.139351806640625,-2.8387244197830555,9.188712162923812,-1.918230307690054,2026-04-11T19:15:40.215-05:00
1775952940225408000,5.149407958984375,-2.919674856285751,9.178080294272304,-1.8462778550267218,2026-04-11T19:15:40.225-05:00
1775952940235465000,5.15946484375,-3.029571985809505,9.157334443363547,-1.7706791548155247,2026-04-11T19:15:40.235-05:00
1775952940245521000,5.16952099609375,-3.1685046556815504,9.125188077518343,-1.6917144853025674,2026-04-11T19:15:40.245-05:00
1775952940255577900,5.179577880859375,-3.3350197444841263,9.08004077580273,-1.6127261426530777,2026-04-11T19:15:40.255-05:00
1775952940265634800,5.189634765625,-3.5277605769112705,9.019980567115544,-1.5379307216487823,2026-04-11T19:15:40.265-05:00
1775952940275690800,5.199690673828125,-3.7475700335279103,8.942156738200783,-1.4710321913741529,2026-04-11T19:15:40.275-05:00
1775952940285747700,5.209747802734375,-3.9984319232732055,8.841858042627573,-1.415796772494912,2026-04-11T19:15:40.285-05:00
1775952940295804700,5.2198046875,-4.290497345544398,8.71052766445279,-1.3743078471563757,2026-04-11T19:15:40.295-05:00
1775952940305860900,5.22986083984375,-4.649128997395932,8.524579560905694,-1.3738703325219452,2026-04-11T19:15:40.305-05:00
1775952940315917800,5.239917724609375,-5.022164729914069,8.28264069006741,-1.531703079305589,2026-04-11T19:15:40.315-05:00
1775952940325974800,5.249974853515625,-5.267494996756315,8.043075562623143,-1.9320505971193311,2026-04-11T19:15:40.325-05:00
1775952940336030700,5.26003076171875,-5.325566661974787,7.863539664205908,-2.444065322869271,2026-04-11T19:15:40.336-05:00
1775952940346087700,5.270087646484375,-5.235586531320214,7.77580643569529,-2.880252069696784,2026-04-11T19:15:40.346-05:00
1775952940356145000,5.280144775390625,-5.052817057809233,7.797300474622845,-3.1371219676852222,2026-04-11T19:15:40.356-05:00
1775952940366200800,5.290200927734375,-4.811318039692938,7.920165222269296,-3.208206259211898,2026-04-11T19:15:40.366-05:00
1775952940376258000,5.300258056640625,-4.518917101857066,8.11033298933804,-3.1578920762524008,2026-04-11T19:15:40.376-05:00
1775952940386313700,5.310313720703125,-4.175042289632558,8.328922548770905,-3.0607945148080584,2026-04-11T19:15:40.386-05:00
1775952940396371000,5.320370849609375,-3.785045777702331,8.545761465144157,-2.9688007062435147,2026-04-11T19:15:40.396-05:00
1775952940406428000,5.330427978515625,-3.359839712963998,8.738646089956164,-2.9185508206918835,2026-04-11T19:15:40.406-05:00
1775952940416483800,5.34048388671875,-2.915854421214759,8.892238568821549,-2.931942509445548,2026-04-11T19:15:40.416-05:00
1775952940426540800,5.350540771484375,-2.4692048786923286,8.999445144087076,-3.013870558808744,2026-04-11T19:15:40.426-05:00
1775952940436597800,5.36059765625,-2.0368466041117905,9.05905994709432,-3.15516148224473,2026-04-11T19:15:40.436-05:00
1775952940446654000,5.370654052734375,-1.6321546273529528,9.075840986025334,-3.3370003969073294,2026-04-11T19:15:40.446-05:00
1775952940456711000,5.3807109375,-1.2652967066869139,9.058490038251877,-3.537395835740864,2026-04-11T19:15:40.456-05:00
1775952940466768000,5.390767822265625,-0.9504391685016452,9.019296091982723,-3.730866151486337,2026-04-11T19:15:40.466-05:00
1775952940476823800,5.40082373046875,-0.7013185694657266,8.97013604749441,-3.900667130091786,2026-04-11T19:15:40.476-05:00
1775952940486880800,5.410880859375,-0.4997915327863767,8.919654983535409,-4.044796199563145,2026-04-11T19:15:40.486-05:00
1775952940496937700,5.420937744140625,-0.3207860514514148,8.872494003909825,-4.164890021191537,2026-04-11T19:15:40.496-05:00
1775952940506994000,5.430993896484375,-0.15394202295541762,8.833245112583041,-4.256812225824595,2026-04-11T19:15:40.506-05:00
1775952940517051000,5.44105078125,0.00693219671624247,8.802215183547139,-4.3233489370495075,2026-04-11T19:15:40.517-05:00
1775952940527106800,5.45110693359375,0.1909576753374189,8.775740433597564,-4.3726744012326,2026-04-11T19:15:40.527-05:00
1775952940537163800,5.461163818359375,0.5200234793562442,8.737692150232196,-4.421843798071146,2026-04-11T19:15:40.537-05:00
1775952940547220700,5.471220703125,0.9705948714975267,8.678161518377065,-4.46294094761312,2026-04-11T19:15:40.547-05:00
1775952940557276700,5.481276611328125,1.3645806722596288,8.604898129245639,-4.501557678516209,2026-04-11T19:15:40.557-05:00
1775952940567333600,5.491333740234375,1.639141563630849,8.522954005530476,-4.565397405742108,2026-04-11T19:15:40.567-05:00
1775952940577390800,5.501390869140625,1.8313637790113686,8.429625148969889,-4.664535240842402,2026-04-11T19:15:40.577-05:00
1775952940587446800,5.51144677734375,1.9921482152074574,8.32174812709689,-4.790644084976614,2026-04-11T19:15:40.587-05:00
1775952940597504000,5.52150390625,2.166300813151151,8.196459951695799,-4.929054484540224,2026-04-11T19:15:40.597-05:00
1775952940607561000,5.53156103515625,2.374488367165625,8.049633898225427,-5.073022810491919,2026-04-11T19:15:40.607-05:00
1775952940617617000,5.541616943359375,2.6060519744619723,7.879953038868307,-5.223529013779759,2026-04-11T19:15:40.617-05:00
1775952940627673900,5.551673828125,2.823347110170126,7.686615994113684,-5.39583612998724,2026-04-11T19:15:40.627-05:00
1775952940637730800,5.561730712890625,2.9959336278408766,7.4695917843014,-5.603565272709727,2026-04-11T19:15:40.637-05:00
1775952940647787000,5.571787109375,3.1387001767873763,7.2311705661952494,-5.833446041485667,2026-04-11T19:15:40.647-05:00
1775952940657844000,5.581843994140625,3.289574336604774,6.972237890458106,-6.0611056270807975,2026-04-11T19:15:40.657-05:00
1775952940667900000,5.59189990234375,3.464394020155072,6.697797848987579,-6.269596986347437,2026-04-11T19:15:40.667-05:00
1775952940677956900,5.601956787109375,3.6528292643427847,6.427672163584828,-6.442996573966741,2026-04-11T19:15:40.677-05:00
1775952940688013800,5.612013916015625,3.854814310455322,6.191936239039897,-6.555207825651764,2026-04-11T19:15:40.688-05:00
1775952940698069800,5.62206982421875,4.068684732411802,5.995654957526922,-6.60820174921453,2026-04-11T19:15:40.698-05:00
1775952940708126700,5.632126708984375,4.286756113189458,5.829589366057514,-6.618912528321147,2026-04-11T19:15:40.708-05:00
1775952940718183700,5.64218359375,4.498475494591892,5.685297799500822,-6.603902590715885,2026-04-11T19:15:40.718-05:00
1775952940728239900,5.652239990234375,4.692335686437786,5.553215726175904,-6.581350567167997,2026-04-11T19:15:40.728-05:00
1775952940738296800,5.662296875,4.8609322576895355,5.422461102062464,-6.567997164598107,2026-04-11T19:15:40.738-05:00
1775952940748353800,5.672353759765625,5.000691733774542,5.28662055298686,-6.573822509750723,2026-04-11T19:15:40.748-05:00
1775952940758409700,5.68240966796875,5.114131065949797,5.14760312744081,-6.596834552025794,2026-04-11T19:15:40.758-05:00
1775952940768466700,5.692466796875,5.207371659705043,5.013553553435206,-6.627062517029047,2026-04-11T19:15:40.768-05:00
1775952940778523600,5.702523681640625,5.293040941423177,4.8904897760853165,-6.651106240439415,2026-04-11T19:15:40.778-05:00
1775952940788579800,5.712579833984375,5.379346767479181,4.781049742679298,-6.6614236363142725,2026-04-11T19:15:40.788-05:00
1775952940798636800,5.72263671875,5.464233958908915,4.686214280948042,-6.659725600224733,2026-04-11T19:15:40.798-05:00
1775952940808694000,5.732694091796875,5.5359933732181785,4.607322822801769,-6.655503014093637,2026-04-11T19:15:40.808-05:00
1775952940818750000,5.74275,5.585928493732213,4.545615431429446,-6.656212039145827,2026-04-11T19:15:40.818-05:00
1775952940828807000,5.752806884765625,5.6109407699137925,4.499766703446209,-6.666321929749846,2026-04-11T19:15:40.828-05:00
1775952940838862800,5.76286279296875,5.608235602608323,4.471757291275263,-6.6874079723984,2026-04-11T19:15:40.838-05:00
1775952940848919800,5.772919921875,5.582611332008242,4.460482740806043,-6.716321932193637,2026-04-11T19:15:40.848-05:00
1775952940858976800,5.782976806640625,5.542168846982717,4.465660143443942,-6.746302644437551,2026-04-11T19:15:40.858-05:00
1775952940869033000,5.793032958984375,5.493034521457552,4.486193520645797,-6.772815972831845,2026-04-11T19:15:40.869-05:00
1775952940879090000,5.80308984375,5.433665217643976,4.521745018759369,-6.7970204397618765,2026-04-11T19:15:40.879-05:00
1775952940889147000,5.81314697265625,5.3619823757022615,4.5736093537703155,-6.819211228781938,2026-04-11T19:15:40.889-05:00
1775952940899202800,5.823202880859375,5.276255810838937,4.6431098832368844,-6.839084388509392,2026-04-11T19:15:40.899-05:00
1775952940909259800,5.833259765625,5.172980145281553,4.730388938239217,-6.858139802113175,2026-04-11T19:15:40.909-05:00
1775952940919316700,5.843316650390625,5.05114532520473,4.834330374228954,-6.876449365785717,2026-04-11T19:15:40.919-05:00
1775952940929373000,5.853373046875,4.92206827891469,4.952065942293405,-6.886268164488673,2026-04-11T19:15:40.929-05:00
1775952940939430000,5.863429931640625,4.796763444639742,5.082084653347731,-6.8799611732989545,2026-04-11T19:15:40.939-05:00
1775952940949485800,5.87348583984375,4.677452297821641,5.222682626083493,-6.856779035153985,2026-04-11T19:15:40.949-05:00
1775952940959542800,5.883542724609375,4.561880922053754,5.368431405711173,-6.821990630367398,2026-04-11T19:15:40.959-05:00
1775952940969599700,5.893599853515625,4.443348358392715,5.514869336646795,-6.78330580266416,2026-04-11T19:15:40.969-05:00
1775952940979655700,5.90365576171875,4.314044517609477,5.6616831151574845,-6.745718122547864,2026-04-11T19:15:40.979-05:00
1775952940989712600,5.913712646484375,4.172162934803962,5.809006012234091,-6.709610451856255,2026-04-11T19:15:40.989-05:00
1775952940999769900,5.923769775390625,4.023664856468141,5.9556736602723594,-6.671617113548517,2026-04-11T19:15:40.999-05:00
1775952941009825800,5.93382568359375,3.864359552913904,6.099951198303699,-6.635335255333781,2026-04-11T19:15:41.009-05:00
1775952941019882800,5.9438828125,3.6701983322948215,6.241531752336025,-6.613872196066379,2026-04-11T19:15:41.019-05:00
1775952941029940000,5.95393994140625,3.4271447782129045,6.378297015041112,-6.613800299873947,2026-04-11T19:15:41.029-05:00
1775952941039995600,5.96399560546875,3.1531253002420065,6.505264521831274,-6.6264400012165305,2026-04-11T19:15:41.039-05:00
1775952941050052900,5.974052978515625,2.8880928463250397,6.615588936856389,-6.638018795329332,2026-04-11T19:15:41.050-05:00
1775952941060109800,5.98410986328125,2.6736957701459527,6.703524409940838,-6.639613371044397,2026-04-11T19:15:41.060-05:00
1775952941070166000,5.994166015625,2.5287507081165908,6.7654878219008445,-6.633547787395119,2026-04-11T19:15:41.070-05:00
1775952941080223000,6.004222900390625,2.417321838980913,6.798235660770535,-6.641606006166339,2026-04-11T19:15:41.080-05:00
1775952941090280000,6.014280029296875,2.2619553361803293,6.801364606446027,-6.692934042343497,2026-04-11T19:15:41.090-05:00
1775952941100332300,6.024332275390625,2.0403955287650226,6.7788067376792425,-6.786381556847691,2026-04-11T19:15:41.100-05:00
1775952941110389200,6.03438916015625,1.8051666769593953,6.735797032514214,-6.894982216820121,2026-04-11T19:15:41.110-05:00
1775952941120445200,6.044445068359375,1.6172086948946118,6.676220223429799,-6.998796227037906,2026-04-11T19:15:41.120-05:00
1775952941130502400,6.05450244140625,1.484682677194476,6.605592443498969,-7.094522207868099,2026-04-11T19:15:41.130-05:00
1775952941140559400,6.064559326171875,1.3713292697370052,6.53597062574029,-7.181290975260734,2026-04-11T19:15:41.140-05:00
1775952941150615300,6.074615234375,1.2502853077769278,6.478634289059043,-7.254962360671162,2026-04-11T19:15:41.150-05:00
1775952941160672300,6.08467236328125,1.126401665411517,6.435609386324882,-7.3133116737872355,2026-04-11T19:15:41.160-05:00
1775952941170729500,6.0947294921875,1.0070082471374422,6.402761594212055,-7.359414084270596,2026-04-11T19:15:41.170-05:00
1775952941180785200,6.10478515625,0.8815718954373151,6.381500779518484,-7.3938938614994285,2026-04-11T19:15:41.180-05:00
1775952941190842400,6.11484228515625,0.7507957901444285,6.375027199590206,-7.413887432736158,2026-04-11T19:15:41.190-05:00
1775952941200899300,6.1248994140625,0.6370083751838654,6.380887031534313,-7.419495335745811,2026-04-11T19:15:41.200-05:00
1775952941210955500,6.13495556640625,0.5761660396756604,6.387687359198927,-7.418615045779943,2026-04-11T19:15:41.210-05:00
1775952941221012500,6.145012451171875,0.5792944738944992,6.381520653262734,-7.423678758910298,2026-04-11T19:15:41.221-05:00
1775952941231068400,6.155068359375,0.6014243265075608,6.344997972029447,-7.453166134679317,2026-04-11T19:15:41.231-05:00
1775952941241125400,6.16512548828125,0.5515418129635974,6.2583782577186815,-7.529867097043991,2026-04-11T19:15:41.241-05:00
1775952941251182300,6.175182373046875,0.37753841423224654,6.105643856987356,-7.664788777709007,2026-04-11T19:15:41.251-05:00
1775952941261238300,6.18523828125,0.20495520276343449,5.873879758682847,-7.850218994861841,2026-04-11T19:15:41.261-05:00
1775952941271295500,6.19529541015625,0.15096195683185942,5.56696894171834,-8.071955035626887,2026-04-11T19:15:41.271-05:00
1775952941281352400,6.2053525390625,0.2182568934123963,5.2345355609625575,-8.28989636028409,2026-04-11T19:15:41.281-05:00
1775952941291408400,6.215408447265625,0.3507789655897766,4.961963651451468,-8.45140618814528,2026-04-11T19:15:41.291-05:00
1775952941301465300,6.22546533203125,0.49254035608172414,4.748844340123236,-8.56599293678999,2026-04-11T19:15:41.301-05:00
1775952941311522300,6.235522216796875,0.6811427735298872,4.569269571000337,-8.650329508599638,2026-04-11T19:15:41.311-05:00
1775952941321578200,6.245578125,0.9445319902844727,4.425488584314286,-8.700190394833683,2026-04-11T19:15:41.321-05:00
1775952941331635200,6.25563525390625,1.2607232612915336,4.327554279784858,-8.709377909895776,2026-04-11T19:15:41.331-05:00
1775952941341692200,6.265692138671875,1.6114662057198583,4.274638097633421,-8.677617328497767,2026-04-11T19:15:41.341-05:00
1775952941351748400,6.275748291015625,1.9843689595080911,4.260498220860958,-8.60702111274898,2026-04-11T19:15:41.351-05:00
1775952941361805300,6.285805419921875,2.3459354957677423,4.283244013415277,-8.504162795820832,2026-04-11T19:15:41.361-05:00
1775952941371861200,6.295861328125,2.660908477026224,4.333177672624588,-8.385314882600307,2026-04-11T19:15:41.371-05:00
1775952941381918200,6.305918212890625,2.878575076395273,4.398269445738196,-8.27885415726602,2026-04-11T19:15:41.381-05:00
1775952941391975400,6.315975341796875,2.9532804810285564,4.463082401910424,-8.217630165496468,2026-04-11T19:15:41.391-05:00
1775952941402031400,6.32603125,2.8262814100563523,4.508221520319581,-8.237623152211308,2026-04-11T19:15:41.402-05:00
1775952941412088300,6.33608837890625,2.524182377287745,4.498308029070496,-8.340508941668272,2026-04-11T19:15:41.412-05:00
1775952941422145500,6.3461455078125,2.2541405707761646,4.412113846695423,-8.463007778611779,2026-04-11T19:15:41.422-05:00
1775952941432201500,6.356201416015625,2.232096789011359,4.269783058817684,-8.541492701783776,2026-04-11T19:15:41.432-05:00
1775952941442258400,6.366258544921875,2.4802570185825226,4.100854479132592,-8.555797705990075,2026-04-11T19:15:41.442-05:00
1775952941452315400,6.3763154296875,2.8087349397107957,3.9341979360327124,-8.53249515633583,2026-04-11T19:15:41.452-05:00
1775952941462371300,6.386371337890625,3.0344208871453997,3.7999037396162745,-8.51606483053863,2026-04-11T19:15:41.462-05:00
1775952941472428300,6.39642822265625,3.173714207023382,3.7075191781684755,-8.50601163855791,2026-04-11T19:15:41.472-05:00
1775952941482485200,6.4064853515625,3.2708260892540215,3.637517128920555,-8.499443950605391,2026-04-11T19:15:41.482-05:00
1775952941492541400,6.41654150390625,3.319253727814555,3.568187279845774,-8.510054191946983,2026-04-11T19:15:41.492-05:00
1775952941502598400,6.426598388671875,3.320645182172954,3.4955054899945854,-8.53962281625867,2026-04-11T19:15:41.502-05:00
1775952941512654300,6.436654296875,3.284281198632717,3.419059379173815,-8.584515266430378,2026-04-11T19:15:41.512-05:00
1775952941522711300,6.446711181640625,3.2446123283281922,3.3280890684381124,-8.63520032852888,2026-04-11T19:15:41.522-05:00
1775952941532768300,6.456768310546875,3.2401763917073607,3.223301244752109,-8.676517258301377,2026-04-11T19:15:41.532-05:00
1775952941542824200,6.46682421875,3.2656060165181753,3.120941232734918,-8.704363881126046,2026-04-11T19:15:41.542-05:00
1775952941552881400,6.47688134765625,3.3050358173698187,3.0320456824466584,-8.720884807816148,2026-04-11T19:15:41.552-05:00
1775952941562938400,6.4869384765625,3.3467601588994262,2.9545789964064952,-8.731555839434266,2026-04-11T19:15:41.562-05:00
1775952941572994300,6.496994384765625,3.378310604678094,2.882367162154615,-8.743533277475834,2026-04-11T19:15:41.572-05:00
1775952941583051300,6.50705126953125,3.398253614771366,2.8152605420872567,-8.75765824894011,2026-04-11T19:15:41.583-05:00
1775952941593108200,6.517108154296875,3.4021707882151007,2.7507354629456997,-8.776620139041542,2026-04-11T19:15:41.593-05:00
1775952941603164200,6.5271640625,3.4033193737283347,2.6871207766473293,-8.795860846084356,2026-04-11T19:15:41.603-05:00
1775952941613221000,6.53722119140625,3.4034967761218544,2.622392283888161,-8.815306135788559,2026-04-11T19:15:41.613-05:00
1775952941623277300,6.54727734375,3.409223337075114,2.5569766856476663,-8.832297602599859,2026-04-11T19:15:41.623-05:00
1775952941633334500,6.55733447265625,3.4343235838010906,2.4958953172191976,-8.840039010506867,2026-04-11T19:15:41.633-05:00
1775952941643391500,6.5673916015625,3.4675960310667753,2.4415008792087436,-8.842241488987208,2026-04-11T19:15:41.643-05:00
1775952941653447400,6.577447509765625,3.500144547972083,2.3942722411744297,-8.842332674401998,2026-04-11T19:15:41.653-05:00
1775952941663504400,6.58750439453125,3.522405479618907,2.34953483543396,-8.845494353303312,2026-04-11T19:15:41.663-05:00
1775952941673561300,6.597561279296875,3.5489825208991763,2.305193443273753,-8.846533633223176,2026-04-11T19:15:41.673-05:00
1775952941683617300,6.6076171875,3.6023049457639456,2.2625993331722913,-8.835974245285987,2026-04-11T19:15:41.683-05:00
1775952941693674500,6.617674560546875,3.676279698035121,2.2214090985193846,-8.815932158732414,2026-04-11T19:15:41.693-05:00
1775952941703731500,6.6277314453125,3.74791636274755,2.184624843740463,-8.79493847054243,2026-04-11T19:15:41.703-05:00
1775952941713787400,6.637787353515625,3.804517078630626,2.151840179991722,-8.778703959578275,2026-04-11T19:15:41.713-05:00
1775952941723844400,6.64784423828125,3.841817173977196,2.123812647642195,-8.769277959585189,2026-04-11T19:15:41.723-05:00
1775952941733901300,6.6579013671875,3.8638068874672054,2.1005856474421916,-8.76521027175486,2026-04-11T19:15:41.733-05:00
1775952941743957200,6.667957275390625,3.8732752652972935,2.0771438354477283,-8.766616631421446,2026-04-11T19:15:41.743-05:00
1775952941754014200,6.67801416015625,3.8737846761241554,2.050842980760336,-8.772584599915147,2026-04-11T19:15:41.754-05:00
1775952941764070400,6.6880703125,3.8719104066848753,2.0154628936909136,-8.78160669528246,2026-04-11T19:15:41.764-05:00
1775952941774127400,6.69812744140625,3.8735754172876473,1.970674488415569,-8.791034448841213,2026-04-11T19:15:41.774-05:00
1775952941784184300,6.708184326171875,3.891114873370528,1.921616296866536,-8.794145858860015,2026-04-11T19:15:41.784-05:00
1775952941794240300,6.718240234375,3.9234310428246855,1.8755425279557705,-8.789734472158552,2026-04-11T19:15:41.794-05:00
1775952941804297200,6.728297119140625,3.9515658349409697,1.8365125400766729,-8.78537218529582,2026-04-11T19:15:41.804-05:00
1775952941814354200,6.738354248046875,3.9649867497891185,1.7988740065559743,-8.787111137917638,2026-04-11T19:15:41.814-05:00
1775952941824410400,6.748410400390625,3.970830215120315,1.7594022662587463,-8.792461851295828,2026-04-11T19:15:41.824-05:00
1775952941834467300,6.75846728515625,3.976461499005556,1.7179009198300539,-8.798123530319332,2026-04-11T19:15:41.834-05:00
1775952941844524500,6.768524658203125,3.9897424208611247,1.675996253297478,-8.800193906852602,2026-04-11T19:15:41.844-05:00
1775952941854580500,6.77858056640625,4.013927890829741,1.6360538267485796,-8.796711325433849,2026-04-11T19:15:41.854-05:00
1775952941864637400,6.788637451171875,4.044931808641553,1.5961388727284966,-8.789837932533025,2026-04-11T19:15:41.864-05:00
1775952941874693400,6.798693359375,4.084759668900072,1.5572490239724517,-8.778386564192175,2026-04-11T19:15:41.874-05:00
1775952941884750300,6.808750244140625,4.12043157852292,1.5203654004722833,-8.76817555130124,2026-04-11T19:15:41.884-05:00
1775952941894807300,6.818807373046875,4.144166382114589,1.485561213594675,-8.762955186304449,2026-04-11T19:15:41.894-05:00
1775952941904863500,6.828863525390625,4.1592134368598455,1.4520727854907511,-8.761438352000713,2026-04-11T19:15:41.904-05:00
1775952941914920400,6.83892041015625,4.167129909072816,1.418535695939511,-8.763170874881745,2026-04-11T19:15:41.914-05:00
1775952941924977400,6.848977294921875,4.175948883083462,1.3860036917775869,-8.764180344185233,2026-04-11T19:15:41.924-05:00
1775952941935033300,6.859033447265625,4.193239332841337,1.3530426485486329,-8.761073610341548,2026-04-11T19:15:41.935-05:00
1775952941945090300,6.86909033203125,4.212674101151526,1.3214774435922503,-8.756568115615844,2026-04-11T19:15:41.945-05:00
1775952941955147300,6.879147216796875,4.226784751829505,1.2896559257872402,-8.754508844998478,2026-04-11T19:15:41.955-05:00
1775952941965203500,6.889203369140625,4.242393824371695,1.2566926906011997,-8.751755746898054,2026-04-11T19:15:41.965-05:00
1775952941975260400,6.899260498046875,4.2655768392994995,1.225528686856851,-8.7449010586977,2026-04-11T19:15:41.975-05:00
1775952941985317400,6.9093173828125,4.296317430000007,1.1962450169663876,-8.733902110299468,2026-04-11T19:15:41.985-05:00
1775952941995373300,6.919373291015625,4.333082395556569,1.1680889628663658,-8.71953806938231,2026-04-11T19:15:41.995-05:00
1775952942005430300,6.92943017578125,4.373552060849964,1.1390101678982376,-8.703165026730298,2026-04-11T19:15:42.005-05:00
1775952942015486200,6.939486328125,4.418326437599957,1.1095491686794907,-8.684335238575935,2026-04-11T19:15:42.015-05:00
1775952942025543200,6.949543212890625,4.4652714363873,1.0807177726011723,-8.663934840103984,2026-04-11T19:15:42.025-05:00
1775952942035600100,6.95960009765625,4.515237244300544,1.0544391297455877,-8.641247207477688,2026-04-11T19:15:42.035-05:00
1775952942045656300,6.96965625,4.556963047134876,1.0330851568758488,-8.6219030400604,2026-04-11T19:15:42.045-05:00
1775952942055713300,6.97971337890625,4.583217724592983,1.0191188831046223,-8.609639770814775,2026-04-11T19:15:42.055-05:00
1775952942065770500,6.9897705078125,4.604193000343441,1.0096059354804456,-8.599562613436579,2026-04-11T19:15:42.065-05:00
1775952942075826200,6.999826171875,4.621054703295231,0.9991943585161119,-8.591731189158558,2026-04-11T19:15:42.075-05:00
1775952942085883400,7.00988330078125,4.636572298161685,0.9861118818420916,-8.58488117713332,2026-04-11T19:15:42.085-05:00
1775952942095940000,7.019940185546875,4.652124672080576,0.9667218294564633,-8.578671216577291,2026-04-11T19:15:42.095-05:00
1775952942105996300,7.029996337890625,4.676776882778108,0.9418987922366708,-8.568018889659642,2026-04-11T19:15:42.105-05:00
1775952942116053200,7.04005322265625,4.717904135197401,0.9141597945049404,-8.548456695577501,2026-04-11T19:15:42.116-05:00
1775952942126109200,7.050109130859375,4.765190494768321,0.8852541641466319,-8.525238317075372,2026-04-11T19:15:42.126-05:00
1775952942136166100,7.060166259765625,4.810994506826996,0.8570386349443345,-8.502361883878708,2026-04-11T19:15:42.136-05:00
1775952942146223000,7.07022314453125,4.848806643348932,0.8292797634683549,-8.483616266876458,2026-04-11T19:15:42.146-05:00
1775952942156279000,7.080279052734375,4.880869714824855,0.8020844441592693,-8.467830668723582,2026-04-11T19:15:42.156-05:00
1775952942166336000,7.0903359375,4.904362526354193,0.7770284749664366,-8.456586805653572,2026-04-11T19:15:42.166-05:00
1775952942176393000,7.10039306640625,4.91434732927382,0.7517549905654043,-8.453071491008997,2026-04-11T19:15:42.176-05:00
1775952942186449200,7.11044921875,4.901902565981447,0.7296057025995105,-8.462236794239281,2026-04-11T19:15:42.186-05:00
1775952942196506000,7.120506103515625,4.884177524198591,0.7148470363415778,-8.473734339809416,2026-04-11T19:15:42.196-05:00
1775952942206563300,7.130563232421875,4.895484515632688,0.7030085683792829,-8.468201840123534,2026-04-11T19:15:42.206-05:00
1775952942216619000,7.140618896484375,4.902601069639623,0.6916270504042505,-8.465016195824742,2026-04-11T19:15:42.216-05:00
1775952942226676200,7.15067626953125,4.878377313487231,0.6774361010316758,-8.48014712946117,2026-04-11T19:15:42.226-05:00
1775952942236733200,7.160733154296875,4.8479026802465315,0.6620499505251646,-8.498818512183428,2026-04-11T19:15:42.236-05:00
1775952942246789400,7.170789306640625,4.8399309707149865,0.6543256398834287,-8.503957628637552,2026-04-11T19:15:42.246-05:00
1775952942256846300,7.180846435546875,4.855397419916093,0.6533263997130095,-8.4952155192554,2026-04-11T19:15:42.256-05:00
1775952942266902300,7.19090234375,4.8777822702035305,0.6606841420646756,-8.481811263281106,2026-04-11T19:15:42.266-05:00
1775952942276959200,7.200959228515625,4.897862642940878,0.677542191754654,-8.468900343781709,2026-04-11T19:15:42.276-05:00
1775952942287016200,7.21101611328125,4.907842769685387,0.6988781175110489,-8.46138397680223,2026-04-11T19:15:42.287-05:00
1775952942297072000,7.221072021484375,4.911409522256255,0.7239375938352197,-8.457208736944198,2026-04-11T19:15:42.297-05:00
1775952942307129000,7.231129150390625,4.9112803429186345,0.7539031085100024,-8.454661390548944,2026-04-11T19:15:42.307-05:00
1775952942317186000,7.24118603515625,4.908967389801144,0.7885334001254289,-8.452849372690915,2026-04-11T19:15:42.317-05:00
1775952942327242200,7.2512421875,4.904971598163247,0.830101528180018,-8.451189330524207,2026-04-11T19:15:42.327-05:00
1775952942337299200,7.26129931640625,4.893217447483539,0.8814367978155613,-8.4528049490273,2026-04-11T19:15:42.337-05:00
1775952942347356200,7.271356201171875,4.862593468900025,0.9404722665648907,-8.46410317263305,2026-04-11T19:15:42.347-05:00
1775952942357412000,7.281412109375,4.8160526669994,1.0037131511148065,-8.483429804393648,2026-04-11T19:15:42.357-05:00
1775952942367469000,7.291468994140625,4.766291441747546,1.0690431899636983,-8.503529174092412,2026-04-11T19:15:42.367-05:00
1775952942377525200,7.301525146484375,4.725908870215713,1.144982081914693,-8.516172382566332,2026-04-11T19:15:42.377-05:00
1775952942387582200,7.311582275390625,4.6929859670400615,1.2300984059251845,-8.522508599850536,2026-04-11T19:15:42.387-05:00
1775952942397639200,7.32163916015625,4.660176753371954,1.318944271852821,-8.527220430803299,2026-04-11T19:15:42.397-05:00
1775952942407695000,7.331695068359375,4.626951067857444,1.4145925112716853,-8.529983465775848,2026-04-11T19:15:42.407-05:00
1775952942417752000,7.341751953125,4.591875662823021,1.5182538151457905,-8.531119776329398,2026-04-11T19:15:42.417-05:00
1775952942427809300,7.351809326171875,4.553269745574891,1.6265642599999903,-8.531846921560168,2026-04-11T19:15:42.427-05:00
1775952942437865000,7.361864990234375,4.507744842718541,1.7409332742407917,-8.533451434147358,2026-04-11T19:15:42.437-05:00
1775952942447922200,7.371922119140625,4.451179198148846,1.8607523705810307,-8.537857560151815,2026-04-11T19:15:42.447-05:00
1775952942457979100,7.381979248046875,4.381707894776762,1.9867143535904586,-8.545406075835228,2026-04-11T19:15:42.457-05:00
1775952942468035300,7.392035400390625,4.299979167377948,2.1181283183954656,-8.555355807441472,2026-04-11T19:15:42.468-05:00
1775952942478092300,7.40209228515625,4.213967648093402,2.254204137531668,-8.563375447767973,2026-04-11T19:15:42.478-05:00
1775952942488148200,7.412148193359375,4.127743070580065,2.39568853771314,-8.56696207408309,2026-04-11T19:15:42.488-05:00
1775952942498205200,7.422205078125,4.043747275032103,2.541664257964492,-8.564954241392016,2026-04-11T19:15:42.498-05:00
1775952942508262100,7.43226220703125,3.958760422620177,2.687443140469491,-8.560155901199579,2026-04-11T19:15:42.508-05:00
1775952942518318300,7.442318359375,3.8676179701879616,2.830476231397688,-8.555717041969299,2026-04-11T19:15:42.518-05:00
1775952942528375300,7.452375244140625,3.7725314563050865,2.9732103393793103,-8.549759594869613,2026-04-11T19:15:42.528-05:00
1775952942538432300,7.462432373046875,3.679024320568144,3.11919497358948,-8.538489428314566,2026-04-11T19:15:42.538-05:00
1775952942548488200,7.47248828125,3.586693535134196,3.2718200687274335,-8.5206346226722,2026-04-11T19:15:42.548-05:00
1775952942558545200,7.482545166015625,3.4921199392095206,3.4319580237135288,-8.496889005425572,2026-04-11T19:15:42.558-05:00
1775952942568602000,7.49260205078125,3.3882053912267085,3.600074994754791,-8.469351594680548,2026-04-11T19:15:42.568-05:00
1775952942578658000,7.502657958984375,3.2760537607744333,3.7751138740137216,-8.437201137182116,2026-04-11T19:15:42.578-05:00
1775952942588715000,7.512715087890625,3.154555333045125,3.9599779817163943,-8.398674130389093,2026-04-11T19:15:42.588-05:00
1775952942598771200,7.522771240234375,3.030734015326202,4.153010198305547,-8.350901740866899,2026-04-11T19:15:42.598-05:00
1775952942608828200,7.532828125,2.9215868273869154,4.351016988436878,-8.288749528336524,2026-04-11T19:15:42.608-05:00
1775952942618885000,7.542885009765625,2.842863419283926,4.550143722508848,-8.208820836097,2026-04-11T19:15:42.618-05:00
1775952942628941000,7.552941162109375,2.7868957406073807,4.7486961638242,-8.1150167632401,2026-04-11T19:15:42.628-05:00
1775952942638998000,7.562998046875,2.7342247653886673,4.9460132181257,-8.014446849510072,2026-04-11T19:15:42.638-05:00
1775952942649055000,7.573054931640625,2.6671289589762686,5.140240489718318,-7.914211282300949,2026-04-11T19:15:42.649-05:00
1775952942659111200,7.583111083984375,2.575561266869306,5.328739446792007,-7.81929837141931,2026-04-11T19:15:42.659-05:00
1775952942669168400,7.59316845703125,2.4523455138280985,5.5091877838790415,-7.733384759551286,2026-04-11T19:15:42.669-05:00
1775952942679225300,7.603225341796875,2.2956159059807657,5.679742503461242,-7.657743535372615,2026-04-11T19:15:42.679-05:00
1775952942689281300,7.61328125,2.1117676973223687,5.83860678524971,-7.590881829977035,2026-04-11T19:15:42.689-05:00
1775952942699338200,7.623338134765625,1.9135310439579187,5.985611117896437,-7.52869279256761,2026-04-11T19:15:42.699-05:00
1775952942709395200,7.633395263671875,1.7114483826898037,6.123032798683643,-7.466579158481955,2026-04-11T19:15:42.709-05:00
1775952942719451100,7.643451171875,1.5127737762995064,6.254501124024391,-7.400209620517492,2026-04-11T19:15:42.719-05:00
1775952942729508000,7.653508056640625,1.3250339670300484,6.381634635031223,-7.327308050435781,2026-04-11T19:15:42.729-05:00
1775952942739564300,7.663564208984375,1.1510358289957046,6.5095461446732275,-7.243708560729027,2026-04-11T19:15:42.739-05:00
1775952942749621200,7.673621337890625,0.9896461203828454,6.643338529047369,-7.1454206204563375,2026-04-11T19:15:42.749-05:00
1775952942759678200,7.68367822265625,0.8346654020294546,6.7852744723886245,-7.030915704876184,2026-04-11T19:15:42.759-05:00
1775952942769734100,7.693734130859375,0.6825221721243113,6.935804641073942,-6.89921649338901,2026-04-11T19:15:42.769-05:00
1775952942779791000,7.703791015625,0.5299575019367039,7.093284190505742,-6.750913937625288,2026-04-11T19:15:42.779-05:00
1775952942789848000,7.71384814453125,0.3792277920912951,7.252520228216052,-6.589955898427963,2026-04-11T19:15:42.789-05:00
1775952942799904300,7.723904296875,0.23271343491859733,7.407974993821978,-6.421691920131445,2026-04-11T19:15:42.799-05:00
1775952942809961200,7.733961181640625,0.08768121519559062,7.554209511139988,-6.252728853654861,2026-04-11T19:15:42.809-05:00
1775952942820018200,7.74401806640625,-0.060661467082542365,7.6872922859400505,-6.088697398361563,2026-04-11T19:15:42.820-05:00
1775952942830074000,7.75407421875,-0.21169970858758314,7.803692221486568,-5.935312424767017,2026-04-11T19:15:42.830-05:00
1775952942840131000,7.764131103515625,-0.3618678938264027,7.900842097640037,-5.797941012862324,2026-04-11T19:15:42.840-05:00
1775952942850187000,7.77418701171875,-0.5105778613472357,7.977741797447204,-5.680259220811724,2026-04-11T19:15:42.850-05:00
1775952942860244000,7.784243896484375,-0.6580490443207323,8.035744489082694,-5.582487997889518,2026-04-11T19:15:42.860-05:00
1775952942870301200,7.79430126953125,-0.806882272895053,8.079850757312775,-5.4986681434303515,2026-04-11T19:15:42.870-05:00
1775952942880357000,7.804357177734375,-0.9598165070474147,8.117036286368966,-5.418752310672402,2026-04-11T19:15:42.880-05:00
1775952942890414300,7.814414306640625,-1.1187620373785494,8.153643723276257,-5.3326235947489735,2026-04-11T19:15:42.890-05:00
1775952942900471300,7.82447119140625,-1.2861417801864445,8.192175990766286,-5.234928359672427,2026-04-11T19:15:42.900-05:00
1775952942910527200,7.83452734375,-1.4609082722447813,8.232109941747785,-5.1252819900393485,2026-04-11T19:15:42.910-05:00
1775952942920584200,7.844584228515625,-1.6437568023413418,8.271066572129726,-5.00578876465261,2026-04-11T19:15:42.920-05:00
1775952942930641200,7.85464111328125,-1.838351445941627,8.305099190112948,-4.880183486126363,2026-04-11T19:15:42.930-05:00
1775952942940697300,7.864697265625,-2.0459397188887,8.330226617106796,-4.75308855356425,2026-04-11T19:15:42.940-05:00
1775952942950754300,7.87475439453125,-2.263148783748597,8.342829493570328,-4.630953289236128,2026-04-11T19:15:42.950-05:00
1775952942960811300,7.884811279296875,-2.4833421251162884,8.341409689900278,-4.519325682657957,2026-04-11T19:15:42.960-05:00
1775952942970867200,7.8948671875,-2.6987854954779147,8.327741814553738,-4.419915168096125,2026-04-11T19:15:42.970-05:00
1775952942980924200,7.904924072265625,-2.898989795653522,8.30671948479116,-4.331818366970122,2026-04-11T19:15:42.980-05:00
1775952942990980000,7.91497998046875,-3.072569123753905,8.286170033237337,-4.250775283747911,2026-04-11T19:15:42.990-05:00
1775952943001037000,7.925037109375,-3.212222509115934,8.274411790904402,-4.169666441813111,2026-04-11T19:15:43.001-05:00
1775952943011094300,7.93509423828125,-3.3124472626700996,8.276744617766141,-4.0857799518585205,2026-04-11T19:15:43.011-05:00
1775952943021150200,7.945150146484375,-3.364008523081243,8.295667929422855,-4.004464773696661,2026-04-11T19:15:43.021-05:00
1775952943031207200,7.955207275390625,-3.3590774964198467,8.329581889462471,-3.9376442770943045,2026-04-11T19:15:43.031-05:00
1775952943041264000,7.96526416015625,-3.2938276101350783,8.374441606408357,-3.8974104663833975,2026-04-11T19:15:43.041-05:00
1775952943051320000,7.975320068359375,-3.171138511316478,8.42501560934782,-3.890164148516953,2026-04-11T19:15:43.051-05:00
1775952943061377000,7.985376953125,-2.999011720111966,8.476909462714195,-3.9138650498390195,2026-04-11T19:15:43.061-05:00
1775952943071434000,7.99543408203125,-2.7864918359816073,8.527266608032583,-3.9612586691766976,2026-04-11T19:15:43.071-05:00
1775952943081490200,8.005490234375,-2.5442139424473047,8.57473913782537,-4.02134576587081,2026-04-11T19:15:43.081-05:00
1775952943091547100,8.015547119140624,-2.284309499068558,8.618515151187777,-4.083322621834278,2026-04-11T19:15:43.091-05:00
1775952943101603600,8.025603515625,-2.0183204750791193,8.65707839833796,-4.1414688135936855,2026-04-11T19:15:43.101-05:00
1775952943111660500,8.03566064453125,-1.7541981217443943,8.688900939056277,-4.194781593847274,2026-04-11T19:15:43.111-05:00
1775952943121717500,8.045717529296875,-1.4958714490763843,8.712087168854474,-4.246444268806279,2026-04-11T19:15:43.121-05:00
1775952943131773400,8.0557734375,-1.2469674154005943,8.726226168844104,-4.297492318998277,2026-04-11T19:15:43.131-05:00
1775952943141830400,8.065830322265626,-1.0120919801425188,8.731326706853508,-4.34855936615169,2026-04-11T19:15:43.141-05:00
1775952943151887400,8.075887451171875,-0.7977659964382648,8.72977480123639,-4.396022543594241,2026-04-11T19:15:43.151-05:00
1775952943161943600,8.085943603515625,-0.6119503966970369,8.724105523428321,-4.43687740881294,2026-04-11T19:15:43.161-05:00
1775952943172000500,8.09600048828125,-0.46311245541498064,8.714777138590811,-4.47309496961981,2026-04-11T19:15:43.172-05:00
1775952943182057500,8.106057373046875,-0.35821233046092094,8.700733415669202,-4.5099151724949476,2026-04-11T19:15:43.182-05:00
1775952943192113400,8.116113525390626,-0.2992259798166342,8.682205240809918,-4.549741279187798,2026-04-11T19:15:43.192-05:00
1775952943202170600,8.126170654296875,-0.285254573212564,8.661701381963491,-4.589548096658289,2026-04-11T19:15:43.202-05:00
1775952943212226600,8.1362265625,-0.3148418291594833,8.64094442513883,-4.626591879156232,2026-04-11T19:15:43.212-05:00
1775952943222283800,8.14628369140625,-0.38721532024648037,8.620796540123223,-4.658573994350433,2026-04-11T19:15:43.222-05:00
1775952943232340700,8.1563408203125,-0.5070250277038664,8.60069892399013,-4.684155302591622,2026-04-11T19:15:43.232-05:00
1775952943242396700,8.166396728515625,-0.6814732475932687,8.579118960344791,-4.701562072205543,2026-04-11T19:15:43.242-05:00
1775952943252453600,8.17645361328125,-0.9092798404436558,8.553899763414263,-4.708967964547872,2026-04-11T19:15:43.252-05:00
1775952943262510600,8.186510498046875,-1.1743385978456586,8.522233874562382,-4.70774163762331,2026-04-11T19:15:43.262-05:00
1775952943272566500,8.19656640625,-1.460967162825167,8.482891459733247,-4.698566105259955,2026-04-11T19:15:43.272-05:00
1775952943282623500,8.20662353515625,-1.7543695327885447,8.436249535545706,-4.682122919981182,2026-04-11T19:15:43.282-05:00
1775952943292680400,8.216680419921875,-2.039247527773678,8.38268161148727,-4.662885135547817,2026-04-11T19:15:43.292-05:00
1775952943302736600,8.226736572265626,-2.301930642085522,8.32219820895195,-4.6489241224735975,2026-04-11T19:15:43.302-05:00
1775952943312793600,8.236793701171875,-2.531689684177935,8.255641039460897,-4.64815430714488,2026-04-11T19:15:43.312-05:00
1775952943322849500,8.246849609375,-2.716446824374795,8.184570776459575,-4.669487018030882,2026-04-11T19:15:43.322-05:00
1775952943332906500,8.256906494140624,-2.852322152502835,8.111332521769404,-4.716028404453397,2026-04-11T19:15:43.332-05:00
1775952943342963500,8.26696337890625,-2.9446313106268645,8.038796862390637,-4.7830210427522655,2026-04-11T19:15:43.342-05:00
1775952943353019600,8.27701953125,-3.0033970955893396,7.969865949505567,-4.861195584800839,2026-04-11T19:15:43.353-05:00
1775952943363076600,8.28707666015625,-3.0384628560125826,7.905746236294507,-4.943410926672816,2026-04-11T19:15:43.363-05:00
1775952943373133600,8.297133544921875,-3.0550489568933843,7.847539546519517,-5.0252556816667315,2026-04-11T19:15:43.373-05:00
1775952943383189500,8.307189453125,-3.0532997751384974,7.797057313516736,-5.104276611411572,2026-04-11T19:15:43.383-05:00
1775952943393246500,8.31724658203125,-3.026233196775615,7.756282235535979,-5.181928590890765,2026-04-11T19:15:43.393-05:00
1775952943403303400,8.327303466796875,-2.986689414155483,7.7222490330308675,-5.255183212193846,2026-04-11T19:15:43.403-05:00
1775952943413359400,8.337359375,-3.0279861779227852,7.680256395953894,-5.2929538476616145,2026-04-11T19:15:43.413-05:00
1775952943423416300,8.347416259765625,-3.124507693044841,7.6412553419083356,-5.2933039762735365,2026-04-11T19:15:43.423-05:00
1775952943433473500,8.3574736328125,-3.2070316624745723,7.622284099456667,-5.2712534725069995,2026-04-11T19:15:43.433-05:00
1775952943443529700,8.36752978515625,-3.2475551037818193,7.627321509101987,-5.239056837779283,2026-04-11T19:15:43.443-05:00
1775952943453586700,8.377586669921875,-3.2427877432495356,7.654212438637018,-5.202666258493066,2026-04-11T19:15:43.453-05:00
1775952943463642600,8.387642578125,-3.1984766000971194,7.6975179118782275,-5.166077526286244,2026-04-11T19:15:43.463-05:00
1775952943473699600,8.397699462890625,-3.1238959908872843,7.749459696039557,-5.133959217491745,2026-04-11T19:15:43.473-05:00
1775952943483756500,8.407756591796876,-3.026545039203763,7.802079525592923,-5.112530060493945,2026-04-11T19:15:43.483-05:00
1775952943493812700,8.417812744140624,-2.9119816714346407,7.848789838841557,-5.1075686386942865,2026-04-11T19:15:43.493-05:00
1775952943503869700,8.42786962890625,-2.7868688526004552,7.886548783871531,-5.119188933861255,2026-04-11T19:15:43.503-05:00
1775952943513926700,8.4379267578125,-2.660136908131838,7.915683692941069,-5.141595411458611,2026-04-11T19:15:43.513-05:00
1775952943523982600,8.447982666015625,-2.5373326585009695,7.9400085713803765,-5.166101491683722,2026-04-11T19:15:43.523-05:00
1775952943534039600,8.45803955078125,-2.421459669438004,7.963574155884981,-5.185401819959282,2026-04-11T19:15:43.534-05:00
1775952943544096500,8.468096435546874,-2.3132510775230823,7.98825091650188,-5.196833899077773,2026-04-11T19:15:43.544-05:00
1775952943554152400,8.47815234375,-2.2145646394520995,8.012754074117542,-5.202100441303849,2026-04-11T19:15:43.554-05:00
1775952943564209400,8.48820947265625,-2.128184579116106,8.034976427319645,-5.203879725936055,2026-04-11T19:15:43.564-05:00
1775952943574265600,8.498265625,-2.0574952782563862,8.05236770710349,-5.205426955378055,2026-04-11T19:15:43.574-05:00
1775952943584322600,8.508322509765625,-2.004818750079721,8.063220525029301,-5.209180754953622,2026-04-11T19:15:43.584-05:00
1775952943594379500,8.518379638671876,-1.9768407559603451,8.067280029553174,-5.213583958348631,2026-04-11T19:15:43.594-05:00
1775952943604435500,8.528435546875,-1.9834211572639644,8.06626179242134,-5.212659829241037,2026-04-11T19:15:43.604-05:00
1775952943614492400,8.538492431640625,-2.0322334112279115,8.063604555910825,-5.197950335887074,2026-04-11T19:15:43.614-05:00
1775952943624549400,8.54854931640625,-2.120657398481667,8.061835792672634,-5.165270886078477,2026-04-11T19:15:43.624-05:00
1775952943634605600,8.55860546875,-2.2309105018362403,8.061635301664472,-5.118932328751683,2026-04-11T19:15:43.634-05:00
1775952943644662500,8.56866259765625,-2.3326161415979265,8.062657630449532,-5.071767257472873,2026-04-11T19:15:43.644-05:00
1775952943654719700,8.5787197265625,-2.398770575506985,8.065508343705535,-5.036254630064964,2026-04-11T19:15:43.654-05:00
1775952943664775700,8.588775634765625,-2.414444529978931,8.072440188795328,-5.017622994831204,2026-04-11T19:15:43.664-05:00
1775952943674832600,8.59883251953125,-2.3790751104339956,8.085905819568037,-5.012835176032781,2026-04-11T19:15:43.674-05:00
1775952943684888600,8.608888671875,-2.2985569278687237,8.109132381376623,-5.012883691349625,2026-04-11T19:15:43.684-05:00
1775952943694945500,8.618945556640625,-2.181468279405683,8.141867360764742,-5.012144271159172,2026-04-11T19:15:43.694-05:00
1775952943705002500,8.62900244140625,-2.0394700844831766,8.178361400425434,-5.012518365168571,2026-04-11T19:15:43.705-05:00
1775952943715058700,8.63905859375,-1.8801533827520907,8.212779802855849,-5.018532510891556,2026-04-11T19:15:43.715-05:00
1775952943725115600,8.64911572265625,-1.7026700329504907,8.239946626722812,-5.037318459904194,2026-04-11T19:15:43.725-05:00
1775952943735172600,8.659172607421874,-1.4929494241498409,8.258259697526693,-5.0737183915406465,2026-04-11T19:15:43.735-05:00
1775952943745228500,8.669228515625,-1.2423099449835717,8.27143365187645,-5.119610958665609,2026-04-11T19:15:43.745-05:00
1775952943755285500,8.679285400390626,-0.9618260933041572,8.281162434208392,-5.16407086263895,2026-04-11T19:15:43.755-05:00
1775952943765342500,8.689342529296875,-0.6774758485201746,8.282959254497289,-5.206150593477488,2026-04-11T19:15:43.765-05:00
1775952943775398700,8.699398681640625,-0.4128979334376752,8.274054063507913,-5.247849800565839,2026-04-11T19:15:43.775-05:00
1775952943785455600,8.70945556640625,-0.1782701162651181,8.25457019535899,-5.291563854607939,2026-04-11T19:15:43.785-05:00
1775952943795511600,8.719511474609375,0.02703008456068346,8.225203815621137,-5.340006106215715,2026-04-11T19:15:43.795-05:00
1775952943805568500,8.729568603515625,0.1949860540706664,8.187588078454135,-5.394048662048578,2026-04-11T19:15:43.805-05:00
1775952943815625500,8.73962548828125,0.30099541890826076,8.145241221112013,-5.4529661304414265,2026-04-11T19:15:43.815-05:00
1775952943825681400,8.749681396484375,0.29994368136562405,8.103493498706817,-5.514872259256244,2026-04-11T19:15:43.825-05:00
1775952943835738400,8.75973828125,0.15906758580822497,8.071233735615014,-5.567787272363901,2026-04-11T19:15:43.835-05:00
1775952943845795300,8.76979541015625,-0.11207799896048382,8.050832168099284,-5.598385239723324,2026-04-11T19:15:43.845-05:00
1775952943855851500,8.7798515625,-0.48439475128799675,8.03700179566741,-5.598423818168044,2026-04-11T19:15:43.855-05:00
1775952943865908500,8.789908447265624,-0.899725976287201,8.02681825530529,-5.561569128501415,2026-04-11T19:15:43.865-05:00
1775952943875965700,8.799965576171875,-1.2868771087236701,8.020586667439341,-5.494043406239151,2026-04-11T19:15:43.875-05:00
1775952943886021400,8.810021484375,-1.5473818560831247,8.021081172958016,-5.425702860462665,2026-04-11T19:15:43.886-05:00
1775952943896078600,8.82007861328125,-1.5467780449710786,8.042322113907337,-5.394342092037201,2026-04-11T19:15:43.896-05:00
1775952943906134800,8.830134765625,-1.3754688537597655,8.08620100312233,-5.375111321866512,2026-04-11T19:15:43.906-05:00
1775952943916191700,8.840191650390626,-1.1917482900690286,8.144166285356878,-5.3312903003185985,2026-04-11T19:15:43.916-05:00
1775952943926248700,8.850248779296875,-1.0516405850682407,8.213426868587732,-5.253957469791174,2026-04-11T19:15:43.926-05:00
1775952943936304600,8.8603046875,-0.9827356103420257,8.291839895567298,-5.142957347461581,2026-04-11T19:15:43.936-05:00
1775952943946361600,8.870361572265624,-1.0152889495529234,8.368070902332663,-5.011483761423826,2026-04-11T19:15:43.946-05:00
1775952943956418600,8.88041845703125,-1.1536950382675975,8.42736538734436,-4.8804608417630195,2026-04-11T19:15:43.956-05:00
1775952943966474500,8.890474609375,-1.362021050904691,8.456749302738904,-4.774795942981541,2026-04-11T19:15:43.966-05:00
1775952943976531500,8.900531494140624,-1.5931015508592128,8.449509999135136,-4.71574198872745,2026-04-11T19:15:43.976-05:00
1775952943986588400,8.91058837890625,-1.810031068125367,8.411129122814536,-4.706068443714082,2026-04-11T19:15:43.986-05:00
1775952943996644600,8.92064453125,-1.986220286463201,8.358347965219616,-4.728990177357197,2026-04-11T19:15:43.996-05:00
1775952944006701600,8.93070166015625,-2.1096356537297365,8.306692596784234,-4.766413899083435,2026-04-11T19:15:44.006-05:00
1775952944016757500,8.940757568359375,-2.190509810125828,8.267603279933333,-4.797787526990473,2026-04-11T19:15:44.016-05:00
1775952944026814500,8.950814453125,-2.243736665661633,8.247606201565265,-4.80760281856209,2026-04-11T19:15:44.026-05:00
1775952944036871400,8.960871337890625,-2.277861053581536,8.247916582688688,-4.790991583240032,2026-04-11T19:15:44.036-05:00
1775952944046927600,8.970927734375,-2.2928457106150684,8.265701245704292,-4.753043545378745,2026-04-11T19:15:44.046-05:00
1775952944056984600,8.980984619140624,-2.289040619243681,8.29304634874761,-4.70702355248183,2026-04-11T19:15:44.056-05:00
1775952944067041500,8.99104150390625,-2.270409860792756,8.32098591055274,-4.666563531799614,2026-04-11T19:15:44.067-05:00
1775952944077097500,9.001097412109376,-2.2422445274077356,8.34353208888173,-4.639849712397158,2026-04-11T19:15:44.077-05:00
1775952944087154400,9.011154541015625,-2.2100785800792275,8.359849601954222,-4.6258892838448284,2026-04-11T19:15:44.087-05:00
1775952944097211100,9.021211181640625,-2.1785046072945,8.371143149384856,-4.6204415398329495,2026-04-11T19:15:44.097-05:00
1775952944107267000,9.03126708984375,-2.150288274374604,8.379092647084594,-4.6192476538732645,2026-04-11T19:15:44.107-05:00
1775952944117324300,9.04132421875,-2.1284794704094527,8.385124912986159,-4.618403604264557,2026-04-11T19:15:44.117-05:00
1775952944127380200,9.051380126953125,-2.1145824624821543,8.390169921416044,-4.615620987808704,2026-04-11T19:15:44.127-05:00
1775952944137437200,9.061437255859374,-2.109516557394713,8.39502496023178,-4.609108829435706,2026-04-11T19:15:44.137-05:00
1775952944147494100,9.071494140625,-2.114251476962119,8.399605273759365,-4.598583051507175,2026-04-11T19:15:44.147-05:00
1775952944157550000,9.081550048828126,-2.127823782979697,8.404407121083139,-4.58352226049751,2026-04-11T19:15:44.157-05:00
1775952944167607000,9.09160693359375,-2.150954337067902,8.408011867576837,-4.5660836344406,2026-04-11T19:15:44.167-05:00
1775952944177664000,9.1016640625,-2.18747891799733,8.40569248471856,-4.552985667936504,2026-04-11T19:15:44.177-05:00
1775952944187720200,9.11172021484375,-2.248034216725081,8.392173077932,-4.5484266894578935,2026-04-11T19:15:44.187-05:00
1775952944197777200,9.121777099609375,-2.3442196317605672,8.366289279612898,-4.547553413754701,2026-04-11T19:15:44.197-05:00
1775952944207834000,9.131834228515626,-2.474497432142496,8.330669684699178,-4.543920317949355,2026-04-11T19:15:44.207-05:00
1775952944217890000,9.14189013671875,-2.619037420502305,8.290019109880923,-4.5372480005785825,2026-04-11T19:15:44.217-05:00
1775952944227947300,9.151947265625,-2.74636177790612,8.25099233687222,-4.533102863597869,2026-04-11T19:15:44.227-05:00
1775952944238003000,9.1620029296875,-2.8371061709314582,8.221863857543468,-4.530140506660938,2026-04-11T19:15:44.238-05:00
1775952944248060200,9.17206005859375,-2.892381191168725,8.207316276752948,-4.5215582640156144,2026-04-11T19:15:44.248-05:00
1775952944258117400,9.182117431640625,-2.916822097203135,8.207951652047038,-4.504672303405404,2026-04-11T19:15:44.258-05:00
1775952944268173300,9.19217333984375,-2.91037949693501,8.221199256154895,-4.484636938853561,2026-04-11T19:15:44.268-05:00
1775952944278230300,9.202230224609375,-2.8775317048221827,8.242078378054499,-4.467476545216143,2026-04-11T19:15:44.278-05:00
1775952944288287200,9.212287353515626,-2.8289611506596204,8.26661952959299,-4.45313091673851,2026-04-11T19:15:44.288-05:00
1775952944298343200,9.22234326171875,-2.7733447696387765,8.291475738430023,-4.441888514973223,2026-04-11T19:15:44.298-05:00
1775952944308400000,9.232400146484375,-2.7175474790930747,8.31384071497321,-4.434566209261119,2026-04-11T19:15:44.308-05:00
1775952944318457000,9.24245703125,-2.6679011123925447,8.332499238213897,-4.4296907121792435,2026-04-11T19:15:44.318-05:00
1775952944328513300,9.25251318359375,-2.6318691372856495,8.347939968451858,-4.422165285110474,2026-04-11T19:15:44.328-05:00
1775952944338570200,9.2625703125,-2.6146871163383123,8.361314998331666,-4.407062993046641,2026-04-11T19:15:44.338-05:00
1775952944348626200,9.272626220703126,-2.616898070386052,8.371171790957451,-4.386993141703307,2026-04-11T19:15:44.348-05:00
1775952944358683100,9.28268310546875,-2.634680687575042,8.37516056833267,-4.368699652382731,2026-04-11T19:15:44.358-05:00
1775952944368740000,9.292739990234375,-2.6632743293747305,8.371590893152355,-4.358190825589001,2026-04-11T19:15:44.368-05:00
1775952944378796000,9.302796142578124,-2.6998320819213983,8.36205266495645,-4.354006233380734,2026-04-11T19:15:44.378-05:00
1775952944388853200,9.312853271484375,-2.741532458053529,8.347180089995264,-4.356488697846234,2026-04-11T19:15:44.388-05:00
1775952944398910200,9.32291015625,-2.7853075946331023,8.327397531160711,-4.366564686180651,2026-04-11T19:15:44.398-05:00
1775952944408966100,9.332966064453124,-2.831724185632169,8.304861289703846,-4.379610045714676,2026-04-11T19:15:44.408-05:00
1775952944419023000,9.343023193359375,-2.881492132885754,8.28361099640429,-4.38738915528357,2026-04-11T19:15:44.419-05:00
1775952944429080000,9.353080078125,-2.9330022476315496,8.266175877478718,-4.38613944748342,2026-04-11T19:15:44.429-05:00
1775952944439136000,9.363135986328125,-2.9792846908569333,8.255721118959784,-4.374621151386201,2026-04-11T19:15:44.439-05:00
1775952944449193000,9.37319287109375,-3.011904227171838,8.253477723947167,-4.356477884191275,2026-04-11T19:15:44.449-05:00
1775952944459249200,9.383249267578124,-3.027741847772896,8.26184573931992,-4.3295553904742,2026-04-11T19:15:44.459-05:00
1775952944469306400,9.393306396484375,-3.0238445480734106,8.279410622105003,-4.298618108157814,2026-04-11T19:15:44.469-05:00
1775952944479363300,9.40336328125,-3.0030057581841945,8.302576393637061,-4.26843953525424,2026-04-11T19:15:44.479-05:00
1775952944489419300,9.413419189453125,-2.972104716224968,8.327963348349929,-4.240518678149581,2026-04-11T19:15:44.489-05:00
1775952944499476200,9.423476318359375,-2.9386142422944306,8.35112385918498,-4.218251024501026,2026-04-11T19:15:44.499-05:00
1775952944509533200,9.433533203125,-2.9085981664761897,8.370378010231256,-4.200857114368677,2026-04-11T19:15:44.509-05:00
1775952944519589000,9.443589111328125,-2.8840993927747007,8.383903262236714,-4.190765928465128,2026-04-11T19:15:44.519-05:00
1775952944529646300,9.453646240234375,-2.866515513028204,8.390087503829598,-4.190452624732256,2026-04-11T19:15:44.529-05:00
1775952944539703300,9.463703369140624,-2.858207995671034,8.39021434507966,-4.19587231169343,2026-04-11T19:15:44.539-05:00
1775952944549759200,9.47375927734375,-2.8619334459349512,8.386701953044533,-4.200351795195043,2026-04-11T19:15:44.549-05:00
1775952944559816200,9.483816162109376,-2.877278606843948,8.380172259014845,-4.202897972546517,2026-04-11T19:15:44.559-05:00
1775952944569872100,9.4938720703125,-2.9004297653287647,8.370746843543648,-4.205768559546768,2026-04-11T19:15:44.569-05:00
1775952944579929000,9.50392919921875,-2.9273627804398537,8.360916938924788,-4.206661416733264,2026-04-11T19:15:44.579-05:00
1775952944589986000,9.513986083984374,-2.953822625081241,8.353368423241376,-4.2031598383530975,2026-04-11T19:15:44.589-05:00
1775952944600042200,9.524042236328125,-2.974468230485916,8.34821469374001,-4.198839052544534,2026-04-11T19:15:44.600-05:00
1775952944610099200,9.53409912109375,-2.9893925356343387,8.344362109965086,-4.195897153873742,2026-04-11T19:15:44.610-05:00
1775952944620156200,9.54415625,-3.0024197749897836,8.339175062716008,-4.19690662317723,2026-04-11T19:15:44.620-05:00
1775952944630212000,9.554212158203125,-3.0188015854701398,8.330885957798362,-4.201613777954877,2026-04-11T19:15:44.630-05:00
1775952944640269000,9.56426904296875,-3.0391268728792666,8.319558508098124,-4.209398732742667,2026-04-11T19:15:44.640-05:00
1775952944650325000,9.574324951171874,-3.0609587654590604,8.307527294042705,-4.21733654000461,2026-04-11T19:15:44.650-05:00
1775952944660382200,9.58438232421875,-3.082116704300046,8.297862809118628,-4.22094800850004,2026-04-11T19:15:44.660-05:00
1775952944670439200,9.594439208984374,-3.1016996489092707,8.292418572238088,-4.217302345474064,2026-04-11T19:15:44.670-05:00
1775952944680495000,9.6044951171875,-3.1292025728628037,8.296650510719418,-4.1885625732019545,2026-04-11T19:15:44.680-05:00
1775952944690552300,9.61455224609375,-3.162936500160396,8.31855839114487,-4.119200283162296,2026-04-11T19:15:44.690-05:00
1775952944700609300,9.624609375,-3.189076611328125,8.357399286192654,-4.019210507407784,2026-04-11T19:15:44.700-05:00
1775952944710665200,9.634665283203125,-3.186177967277169,8.397686872917413,-3.9366877070218322,2026-04-11T19:15:44.710-05:00
1775952944720722200,9.64472216796875,-3.1389868847742677,8.422973874387145,-3.920542920167744,2026-04-11T19:15:44.720-05:00
1775952944730779100,9.654779052734375,-3.065737816429138,8.43512257734239,-3.9522561552926896,2026-04-11T19:15:44.730-05:00
1775952944740835300,9.66483544921875,-2.9960066930770872,8.448239248546958,-3.9776349266991016,2026-04-11T19:15:44.740-05:00
1775952944750892300,9.674892333984374,-2.9395541534930465,8.468696930164098,-3.9762542859956618,2026-04-11T19:15:44.750-05:00
1775952944760948200,9.6849482421875,-2.8913442493364214,8.494888771519065,-3.955676192869246,2026-04-11T19:15:44.760-05:00
1775952944771005200,9.695005126953125,-2.8463053764313457,8.522887370035052,-3.928018078354001,2026-04-11T19:15:44.771-05:00
1775952944781062100,9.705062255859374,-2.8076167493358253,8.550350546500086,-3.896045900031924,2026-04-11T19:15:44.781-05:00
1775952944791118000,9.7151181640625,-2.7844550694569943,8.576529528373479,-3.854913094654679,2026-04-11T19:15:44.791-05:00
1775952944801175300,9.72517529296875,-2.7832608912363646,8.598314659202098,-3.806946936126053,2026-04-11T19:15:44.801-05:00
1775952944811232300,9.735232177734375,-2.806296314387023,8.609281458896398,-3.7650197655007243,2026-04-11T19:15:44.811-05:00
1775952944821288200,9.7452880859375,-2.8549130457788703,8.603526840892433,-3.7415497503250834,2026-04-11T19:15:44.821-05:00
1775952944831345200,9.75534521484375,-2.929631602154672,8.578851249319314,-3.7404511414334176,2026-04-11T19:15:44.831-05:00
1775952944841402000,9.765402099609375,-3.031210692927241,8.535804134753345,-3.757952019071579,2026-04-11T19:15:44.841-05:00
1775952944851458000,9.7754580078125,-3.1621184617757794,8.47755360583663,-3.7818639327958223,2026-04-11T19:15:44.851-05:00
1775952944861515000,9.785514892578124,-3.319996070614457,8.408543197974563,-3.8005829540520906,2026-04-11T19:15:44.861-05:00
1775952944871571200,9.7955712890625,-3.4910631236329674,8.3353271551162,-3.8085666462823746,2026-04-11T19:15:44.871-05:00
1775952944881628200,9.805628173828126,-3.655221420176327,8.26589121531844,-3.8058886592447756,2026-04-11T19:15:44.881-05:00
1775952944891685000,9.81568505859375,-3.7965555982321497,8.207450716787577,-3.7939819483518598,2026-04-11T19:15:44.891-05:00
1775952944901741000,9.825740966796875,-3.908468159231543,8.165997008892893,-3.7697172756671904,2026-04-11T19:15:44.901-05:00
1775952944911798300,9.83579833984375,-3.9886519952759145,8.144272668340802,-3.7325399299174546,2026-04-11T19:15:44.911-05:00
1775952944921855200,9.845855224609375,-4.0380595847845075,8.142859878933429,-3.6821588192015886,2026-04-11T19:15:44.921-05:00
