time,seconds_elapsed,z,y,x,local_time
1775952935146801400,0.070801513671875,-0.11793595552444458,0.42071259021759033,0.12555339932441711,2026-04-11T19:15:35.146-05:00
1775952935156857300,0.080857421875,-0.2755082845687866,0.29324519634246826,0.10984554141759872,2026-04-11T19:15:35.156-05:00
1775952935166914300,0.090914306640625,-0.3733123242855072,-0.11252547800540924,0.15211176872253418,2026-04-11T19:15:35.166-05:00
1775952935176971300,0.10097119140625,-0.3635510504245758,-0.37144890427589417,0.16209623217582703,2026-04-11T19:15:35.176-05:00
1775952935187027200,0.111027099609375,-0.5475477576255798,-0.669464647769928,0.09655184298753738,2026-04-11T19:15:35.187-05:00
1775952935197084200,0.121084228515625,-0.7305508852005005,-1.0699957609176636,0.0030330740846693516,2026-04-11T19:15:35.197-05:00
1775952935207141400,0.131141357421875,-0.8147808313369751,-1.2229355573654175,0.12669962644577026,2026-04-11T19:15:35.207-05:00
1775952935217197300,0.141197265625,-0.8690112829208374,-0.9820662140846252,0.5218594670295715,2026-04-11T19:15:35.217-05:00
1775952935227254500,0.151254638671875,-0.821890115737915,-0.7617383599281311,0.9873954653739929,2026-04-11T19:15:35.227-05:00
1775952935237311500,0.1613115234375,-0.739854633808136,-0.5708177089691162,1.4010485410690308,2026-04-11T19:15:35.237-05:00
1775952935247367400,0.171367431640625,-0.682171642780304,-0.35775840282440186,1.636759638786316,2026-04-11T19:15:35.247-05:00
1775952935257424400,0.18142431640625,-0.6984289288520813,-0.03239575773477554,1.724713683128357,2026-04-11T19:15:35.257-05:00
1775952935267480300,0.191480224609375,-0.7640824913978577,0.137966126203537,1.6883524656295776,2026-04-11T19:15:35.267-05:00
1775952935277537300,0.201537353515625,-0.8030895590782166,0.02044988051056862,1.354030728340149,2026-04-11T19:15:35.277-05:00
1775952935287594500,0.211594482421875,-0.8689761161804199,0.018002435564994812,0.8130257725715637,2026-04-11T19:15:35.287-05:00
1775952935297650400,0.221650390625,-0.8598199486732483,-0.06149984523653984,0.3743845224380493,2026-04-11T19:15:35.297-05:00
1775952935307707400,0.231707275390625,-0.8070014715194702,-0.06241091340780258,-0.07640448957681656,2026-04-11T19:15:35.307-05:00
1775952935317764400,0.241764404296875,-0.6508528590202332,0.18667614459991455,-0.47186607122421265,2026-04-11T19:15:35.317-05:00
1775952935327820300,0.2518203125,-0.4283686578273773,0.5091378092765808,-0.7749117016792297,2026-04-11T19:15:35.327-05:00
1775952935337877200,0.261877197265625,-0.27559828758239746,0.6424838900566101,-1.0341904163360596,2026-04-11T19:15:35.337-05:00
1775952935347933400,0.271933349609375,-0.14780063927173615,0.7997334003448486,-1.2371728420257568,2026-04-11T19:15:35.347-05:00
1775952935357990400,0.281990478515625,-0.06623148173093796,0.7319778203964233,-1.4319723844528198,2026-04-11T19:15:35.357-05:00
1775952935368047400,0.29204736328125,-0.10584787279367447,-0.1702614724636078,-1.2952436208724976,2026-04-11T19:15:35.368-05:00
1775952935378103300,0.302103271484375,-0.18831345438957214,-0.6107757687568665,-0.9367437362670898,2026-04-11T19:15:35.378-05:00
1775952935388160300,0.31216015625,-0.17117521166801453,-0.6870446801185608,-0.7810476422309875,2026-04-11T19:15:35.388-05:00
1775952935398217200,0.32221728515625,-0.05495619401335716,-0.8341113924980164,-0.6543951630592346,2026-04-11T19:15:35.398-05:00
1775952935408273200,0.332273193359375,0.01587883196771145,-0.9179218411445618,-0.5044516921043396,2026-04-11T19:15:35.408-05:00
1775952935418330400,0.342330322265625,0.024820128455758095,-0.9231762886047363,-0.34165987372398376,2026-04-11T19:15:35.418-05:00
1775952935428387300,0.35238720703125,0.034443460404872894,-0.9081578850746155,-0.20532892644405365,2026-04-11T19:15:35.428-05:00
1775952935438443300,0.362443359375,0.03290575370192528,-1.1490464210510254,-0.1482456624507904,2026-04-11T19:15:35.438-05:00
1775952935448500500,0.37250048828125,0.12467721849679947,-1.4907355308532715,-0.24065521359443665,2026-04-11T19:15:35.448-05:00
1775952935458556200,0.38255615234375,0.24594265222549438,-1.8191142082214355,-0.3730180561542511,2026-04-11T19:15:35.458-05:00
1775952935468613400,0.39261328125,0.267673522233963,-2.046208620071411,-0.43617093563079834,2026-04-11T19:15:35.468-05:00
1775952935478670300,0.40267041015625,0.3158000409603119,-2.375986099243164,-0.389089435338974,2026-04-11T19:15:35.478-05:00
1775952935488726500,0.4127265625,0.2653246223926544,-2.355071783065796,-0.24851074814796448,2026-04-11T19:15:35.488-05:00
1775952935498783500,0.422783447265625,0.015056447125971317,-1.8509196043014526,-0.059415657073259354,2026-04-11T19:15:35.498-05:00
1775952935508840400,0.43284033203125,-0.30614981055259705,-1.1446093320846558,0.07929615676403046,2026-04-11T19:15:35.508-05:00
1775952935518896400,0.442896484375,-0.3762529790401459,-0.6316996812820435,0.10975978523492813,2026-04-11T19:15:35.518-05:00
1775952935528953300,0.452953369140625,-0.08746007084846497,-0.4097004234790802,0.07087843120098114,2026-04-11T19:15:35.528-05:00
1775952935539010300,0.46301025390625,0.3205476403236389,-0.3538297116756439,-0.08037526905536652,2026-04-11T19:15:35.539-05:00
1775952935549066200,0.473066162109375,0.5450825095176697,-0.3015470504760742,-0.3993615210056305,2026-04-11T19:15:35.549-05:00
1775952935559123500,0.48312353515625,0.6284987926483154,0.013802630826830864,-0.6372606158256531,2026-04-11T19:15:35.559-05:00
1775952935569179400,0.493179443359375,0.5827486515045166,0.2860541343688965,-0.7714748978614807,2026-04-11T19:15:35.569-05:00
1775952935579236400,0.503236328125,0.42157918214797974,0.35167786478996277,-0.9084015488624573,2026-04-11T19:15:35.579-05:00
1775952935589293300,0.513293212890625,0.27899327874183655,0.37433817982673645,-1.0067116022109985,2026-04-11T19:15:35.589-05:00
1775952935599349200,0.523349365234375,0.2664490044116974,0.3509306013584137,-0.9038691520690918,2026-04-11T19:15:35.599-05:00
1775952935609406200,0.53340625,0.29402977228164673,0.22707682847976685,-0.5229878425598145,2026-04-11T19:15:35.609-05:00
1775952935619463200,0.543463134765625,0.20147745311260223,-0.29055434465408325,0.03093048557639122,2026-04-11T19:15:35.619-05:00
1775952935629519400,0.553519287109375,0.002653839997947216,-0.8867676258087158,0.6592141389846802,2026-04-11T19:15:35.629-05:00
1775952935639576300,0.563576416015625,-0.22857405245304108,-1.357169508934021,1.2220170497894287,2026-04-11T19:15:35.639-05:00
1775952935649633300,0.57363330078125,-0.4012819230556488,-1.662234902381897,1.534546136856079,2026-04-11T19:15:35.649-05:00
1775952935659689200,0.583689208984375,-0.447329580783844,-1.6639890670776367,1.4602152109146118,2026-04-11T19:15:35.659-05:00
1775952935669746400,0.593746337890625,-0.3614269196987152,-1.2995322942733765,1.067802906036377,2026-04-11T19:15:35.669-05:00
1775952935679802000,0.603802001953125,-0.1997314840555191,-0.68665611743927,0.5766505599021912,2026-04-11T19:15:35.679-05:00
1775952935689859300,0.613859375,-0.04818350821733475,-0.27660390734672546,0.1010214239358902,2026-04-11T19:15:35.689-05:00
1775952935699916300,0.623916259765625,0.04749001935124397,-0.2401534765958786,-0.327415406703949,2026-04-11T19:15:35.699-05:00
1775952935709972500,0.633972412109375,0.10629847645759583,0.00863423477858305,-0.543865978717804,2026-04-11T19:15:35.709-05:00
1775952935720029400,0.644029541015625,0.1292208433151245,0.16291435062885284,-0.5903847217559814,2026-04-11T19:15:35.720-05:00
1775952935730086400,0.65408642578125,0.023570572957396507,0.11741903424263,-0.5545798540115356,2026-04-11T19:15:35.730-05:00
1775952935740142300,0.664142333984375,-0.2728025019168854,-0.02305684983730316,-0.49819833040237427,2026-04-11T19:15:35.740-05:00
1775952935750199300,0.67419921875,-0.5761682391166687,-0.21108746528625488,-0.5094408988952637,2026-04-11T19:15:35.750-05:00
1775952935760256300,0.68425634765625,-0.685607373714447,-0.3046632409095764,-0.5620065927505493,2026-04-11T19:15:35.760-05:00
1775952935770312400,0.6943125,-0.6789191365242004,-0.34239277243614197,-0.5401489734649658,2026-04-11T19:15:35.770-05:00
1775952935780369400,0.704369384765625,-0.6791713237762451,-0.2507656514644623,-0.4675126075744629,2026-04-11T19:15:35.780-05:00
1775952935790425300,0.71442529296875,-0.6761768460273743,0.046779755502939224,-0.47863689064979553,2026-04-11T19:15:35.790-05:00
1775952935800482300,0.724482421875,-0.6236391067504883,0.4092247784137726,-0.6105693578720093,2026-04-11T19:15:35.800-05:00
1775952935810539300,0.734539306640625,-0.5694664120674133,0.638308048248291,-0.7571553587913513,2026-04-11T19:15:35.810-05:00
1775952935820595200,0.74459521484375,-0.5259208083152771,0.7453433871269226,-0.8155254125595093,2026-04-11T19:15:35.820-05:00
1775952935830652400,0.75465234375,-0.4922086298465729,0.825029194355011,-0.7405851483345032,2026-04-11T19:15:35.830-05:00
1775952935840709400,0.76470947265625,-0.4460448622703552,0.8905045986175537,-0.5967875123023987,2026-04-11T19:15:35.840-05:00
1775952935850765300,0.774765380859375,-0.4215754568576813,0.832582950592041,-0.4070492684841156,2026-04-11T19:15:35.850-05:00
1775952935860822300,0.784822265625,-0.41085144877433777,0.5306103229522705,-0.1784091591835022,2026-04-11T19:15:35.860-05:00
1775952935870879200,0.794879150390625,-0.38517484068870544,0.010498447343707085,0.08132494986057281,2026-04-11T19:15:35.870-05:00
1775952935880935200,0.80493505859375,-0.39942729473114014,-0.5537548065185547,0.39714282751083374,2026-04-11T19:15:35.880-05:00
1775952935890992400,0.814992431640625,-0.4814518392086029,-0.9017071723937988,0.7515086531639099,2026-04-11T19:15:35.890-05:00
1775952935901048300,0.82504833984375,-0.718331515789032,-0.9729880094528198,0.959219217300415,2026-04-11T19:15:35.901-05:00
1775952935911105500,0.83510546875,-0.7422717213630676,-1.0671051740646362,0.8268324136734009,2026-04-11T19:15:35.911-05:00
1775952935921162500,0.84516259765625,-0.46200013160705566,-0.9389943480491638,0.5958998799324036,2026-04-11T19:15:35.921-05:00
1775952935931218400,0.855218505859375,-0.21675707399845123,-0.6477577090263367,0.35962021350860596,2026-04-11T19:15:35.931-05:00
1775952935941275400,0.865275390625,-0.13041526079177856,-0.4245731234550476,0.08778524398803711,2026-04-11T19:15:35.941-05:00
1775952935951332400,0.875332275390625,-0.10941597074270248,-0.5428329110145569,-0.18911772966384888,2026-04-11T19:15:35.951-05:00
1775952935961388300,0.88538818359375,-0.08828672021627426,-0.611183226108551,-0.3677156865596771,2026-04-11T19:15:35.961-05:00
1775952935971445200,0.8954453125,-0.1219424158334732,-0.6309763789176941,-0.5165472626686096,2026-04-11T19:15:35.971-05:00
1775952935981501400,0.90550146484375,-0.03797721117734909,-0.646455705165863,-0.5573040246963501,2026-04-11T19:15:35.981-05:00
1775952935991558400,0.915558349609375,0.1524587869644165,-0.7830201983451843,-0.4798472821712494,2026-04-11T19:15:35.991-05:00
1775952936001615400,0.925615478515625,0.2883225977420807,-0.9826153516769409,-0.29701730608940125,2026-04-11T19:15:36.001-05:00
1775952936011671300,0.93567138671875,0.29074713587760925,-1.0702098608016968,-0.011653726920485497,2026-04-11T19:15:36.011-05:00
1775952936021728300,0.945728271484375,0.14426636695861816,-1.0595040321350098,0.3007420003414154,2026-04-11T19:15:36.021-05:00
1775952936031785200,0.95578515625,0.04360819607973099,-1.0117740631103516,0.3571181893348694,2026-04-11T19:15:36.031-05:00
1775952936041841400,0.96584130859375,0.3490586578845978,-1.1030967235565186,0.15595977008342743,2026-04-11T19:15:36.041-05:00
1775952936051898400,0.9758984375,0.43047070503234863,-0.880852222442627,-0.2494385838508606,2026-04-11T19:15:36.051-05:00
1775952936061955300,0.985955322265625,0.27137982845306396,-0.7626187801361084,-0.6886417865753174,2026-04-11T19:15:36.061-05:00
1775952936072011300,0.99601123046875,0.20202606916427612,-0.6960384249687195,-0.9113089442253113,2026-04-11T19:15:36.072-05:00
1775952936082068200,1.006068115234375,0.23938728868961334,-0.5513765811920166,-0.9004960060119629,2026-04-11T19:15:36.082-05:00
1775952936092124700,1.016124755859375,0.17995299398899078,-0.17245618999004364,-0.766375720500946,2026-04-11T19:15:36.092-05:00
1775952936102181600,1.026181640625,0.032043155282735825,0.2556474804878235,-0.6053064465522766,2026-04-11T19:15:36.102-05:00
1775952936112238600,1.036238525390625,-0.12591718137264252,0.5548275113105774,-0.4418109655380249,2026-04-11T19:15:36.112-05:00
1775952936122294800,1.046294677734375,-0.2686713933944702,0.6861996650695801,-0.286237895488739,2026-04-11T19:15:36.122-05:00
1775952936132351700,1.056351806640625,-0.33060163259506226,0.7182375192642212,-0.12507429718971252,2026-04-11T19:15:36.132-05:00
1775952936142409000,1.066408935546875,-0.26493924856185913,0.6027854681015015,0.04568013548851013,2026-04-11T19:15:36.142-05:00
1775952936152464600,1.076464599609375,-0.13189597427845,0.28833165764808655,0.24032525718212128,2026-04-11T19:15:36.152-05:00
1775952936162521900,1.08652197265625,0.0363907627761364,-0.08837486803531647,0.48694223165512085,2026-04-11T19:15:36.162-05:00
1775952936172578800,1.096578857421875,0.1804448813199997,-0.3100625276565552,0.8020746111869812,2026-04-11T19:15:36.172-05:00
1775952936182635000,1.106635009765625,0.20779792964458466,-0.5152537822723389,1.2163554430007935,2026-04-11T19:15:36.182-05:00
1775952936192692000,1.11669189453125,0.16028288006782532,-0.8532099723815918,1.6614958047866821,2026-04-11T19:15:36.192-05:00
1775952936202749000,1.1267490234375,0.06667809933423996,-1.3551872968673706,2.0537872314453125,2026-04-11T19:15:36.202-05:00
1775952936212804900,1.136804931640625,0.08959139883518219,-2.1159608364105225,2.34195876121521,2026-04-11T19:15:36.212-05:00
1775952936222861800,1.14686181640625,0.2287796437740326,-2.8479065895080566,2.5087478160858154,2026-04-11T19:15:36.222-05:00
1775952936232917800,1.156917724609375,0.48117220401763916,-3.6729495525360107,2.5514323711395264,2026-04-11T19:15:36.232-05:00
1775952936242974700,1.166974609375,0.8257653117179871,-4.3246965408325195,2.5428977012634277,2026-04-11T19:15:36.242-05:00
1775952936253031700,1.17703173828125,1.1066086292266846,-4.7367634773254395,2.5375258922576904,2026-04-11T19:15:36.253-05:00
1775952936263087900,1.187087890625,1.24912428855896,-5.12929630279541,2.522305727005005,2026-04-11T19:15:36.263-05:00
1775952936273144800,1.197144775390625,1.404689908027649,-5.582653045654297,2.4807465076446533,2026-04-11T19:15:36.273-05:00
1775952936283201800,1.207201904296875,1.5701375007629395,-5.984945774078369,2.4614572525024414,2026-04-11T19:15:36.283-05:00
1775952936293257700,1.2172578125,1.6838184595108032,-6.2354583740234375,2.467747449874878,2026-04-11T19:15:36.293-05:00
1775952936303314700,1.227314697265625,1.8135567903518677,-6.3623046875,2.4828240871429443,2026-04-11T19:15:36.303-05:00
1775952936313371600,1.23737158203125,2.0107288360595703,-6.382434368133545,2.4567956924438477,2026-04-11T19:15:36.313-05:00
1775952936323427800,1.247427734375,2.2810771465301514,-6.246551990509033,2.390566349029541,2026-04-11T19:15:36.323-05:00
1775952936333484800,1.25748486328125,2.6403274536132812,-5.9976396560668945,2.4047749042510986,2026-04-11T19:15:36.333-05:00
1775952936343540700,1.267540771484375,3.084489583969116,-5.456246376037598,2.1811563968658447,2026-04-11T19:15:36.343-05:00
1775952936353597700,1.27759765625,3.6402721405029297,-5.070868015289307,1.6746313571929932,2026-04-11T19:15:36.353-05:00
1775952936363655000,1.287655029296875,4.174648284912109,-4.635225772857666,1.1116095781326294,2026-04-11T19:15:36.363-05:00
1775952936373710600,1.297710693359375,4.561539173126221,-3.9472713470458984,0.6343897581100464,2026-04-11T19:15:36.373-05:00
1775952936383767800,1.307767822265625,4.7491960525512695,-3.196741819381714,0.23101617395877838,2026-04-11T19:15:36.383-05:00
1775952936393824800,1.31782470703125,4.912040710449219,-2.611966848373413,-0.09747462719678879,2026-04-11T19:15:36.393-05:00
1775952936403881000,1.327880859375,5.146414756774902,-2.1795597076416016,-0.23018419742584229,2026-04-11T19:15:36.403-05:00
1775952936413938000,1.33793798828125,5.422878265380859,-1.8357006311416626,-0.233417809009552,2026-04-11T19:15:36.413-05:00
1775952936423993900,1.347993896484375,5.73370885848999,-1.5730767250061035,-0.20533451437950134,2026-04-11T19:15:36.423-05:00
1775952936434050800,1.35805078125,5.987057209014893,-1.2732996940612793,-0.22901320457458496,2026-04-11T19:15:36.434-05:00
1775952936444107800,1.368107666015625,6.205176830291748,-0.9787508249282837,-0.36631008982658386,2026-04-11T19:15:36.444-05:00
1775952936454164000,1.3781640625,6.428299903869629,-0.6347796320915222,-0.557464063167572,2026-04-11T19:15:36.454-05:00
1775952936464221000,1.388220947265625,6.622355937957764,-0.3076150715351105,-0.8250859379768372,2026-04-11T19:15:36.464-05:00
1775952936474278000,1.39827783203125,6.743147373199463,-0.0004942826926708221,-1.2380266189575195,2026-04-11T19:15:36.474-05:00
1775952936484333800,1.408333740234375,6.757001876831055,0.13212767243385315,-1.8220069408416748,2026-04-11T19:15:36.484-05:00
1775952936494390800,1.418390869140625,6.625598907470703,-0.026224680244922638,-2.4372055530548096,2026-04-11T19:15:36.494-05:00
1775952936504447700,1.42844775390625,6.419170379638672,-0.35038119554519653,-2.7439723014831543,2026-04-11T19:15:36.504-05:00
1775952936514503700,1.438503662109375,6.301387310028076,-0.8893807530403137,-2.6496849060058594,2026-04-11T19:15:36.514-05:00
1775952936524560600,1.448560546875,6.190321445465088,-1.5772675275802612,-2.212128162384033,2026-04-11T19:15:36.524-05:00
1775952936534617600,1.45861767578125,5.989783763885498,-2.30391788482666,-1.3901317119598389,2026-04-11T19:15:36.534-05:00
1775952936544673800,1.468673828125,5.704118251800537,-3.104438304901123,-0.27679458260536194,2026-04-11T19:15:36.544-05:00
1775952936554730800,1.478730712890625,5.1715312004089355,-3.57893705368042,1.043258786201477,2026-04-11T19:15:36.554-05:00
1775952936564786700,1.48878662109375,4.313279151916504,-3.5468127727508545,2.36706280708313,2026-04-11T19:15:36.564-05:00
1775952936574843600,1.49884375,3.4220664501190186,-3.1087207794189453,3.3808839321136475,2026-04-11T19:15:36.574-05:00
1775952936584900900,1.50890087890625,2.8976755142211914,-2.5426831245422363,3.8351285457611084,2026-04-11T19:15:36.584-05:00
1775952936594956800,1.518956787109375,2.5470263957977295,-1.930754542350769,3.835005283355713,2026-04-11T19:15:36.594-05:00
1775952936605014000,1.529013916015625,2.4510674476623535,-1.196906566619873,3.5106735229492188,2026-04-11T19:15:36.605-05:00
1775952936615071000,1.539071044921875,2.2225844860076904,-0.5653179883956909,3.0737807750701904,2026-04-11T19:15:36.615-05:00
1775952936625127000,1.549126953125,1.7516460418701172,-0.22129537165164948,2.734722137451172,2026-04-11T19:15:36.625-05:00
1775952936635183900,1.559183837890625,1.3281985521316528,0.26762744784355164,2.302325487136841,2026-04-11T19:15:36.635-05:00
1775952936645240800,1.56924072265625,0.7687576413154602,0.6729163527488708,1.6700507402420044,2026-04-11T19:15:36.645-05:00
1775952936655296800,1.579296875,0.018433868885040283,1.2002129554748535,1.0287234783172607,2026-04-11T19:15:36.655-05:00
1775952936665353700,1.589353759765625,-0.795448899269104,2.125661849975586,0.43248751759529114,2026-04-11T19:15:36.665-05:00
1775952936675410000,1.599409912109375,-1.5473312139511108,3.1275954246520996,-0.14242398738861084,2026-04-11T19:15:36.675-05:00
1775952936685467000,1.609466796875,-2.098224639892578,3.743557929992676,-0.700016975402832,2026-04-11T19:15:36.685-05:00
1775952936695523800,1.61952392578125,-2.4442591667175293,3.822890520095825,-1.177860975265503,2026-04-11T19:15:36.695-05:00
1775952936705579800,1.629579833984375,-2.5949647426605225,3.3061411380767822,-1.5491183996200562,2026-04-11T19:15:36.705-05:00
1775952936715636700,1.63963671875,-2.590272903442383,2.5689382553100586,-1.8166249990463257,2026-04-11T19:15:36.715-05:00
1775952936725693700,1.649693603515625,-2.3340680599212646,1.7736836671829224,-2.3718202114105225,2026-04-11T19:15:36.725-05:00
1775952936735750000,1.65975,-2.0150017738342285,0.9013569951057434,-3.535184383392334,2026-04-11T19:15:36.735-05:00
1775952936745806800,1.669806884765625,-1.8381563425064087,0.7879207134246826,-3.84987473487854,2026-04-11T19:15:36.745-05:00
1775952936755863800,1.67986376953125,-1.6975624561309814,0.656244695186615,-3.487946033477783,2026-04-11T19:15:36.755-05:00
1775952936765919700,1.689919677734375,-1.6879959106445312,-0.5345078706741333,-2.7935855388641357,2026-04-11T19:15:36.765-05:00
1775952936775976700,1.699976806640625,-2.036219358444214,-1.428065538406372,-1.9224939346313477,2026-04-11T19:15:36.775-05:00
1775952936786032600,1.71003271484375,-2.7626962661743164,-2.279656171798706,-0.49629443883895874,2026-04-11T19:15:36.786-05:00
1775952936796089600,1.720089599609375,-3.161376476287842,-3.756540060043335,0.9038925766944885,2026-04-11T19:15:36.796-05:00
1775952936806146800,1.730146728515625,-3.6035192012786865,-5.013418197631836,2.1550981998443604,2026-04-11T19:15:36.806-05:00
1775952936816202800,1.74020263671875,-3.897038221359253,-6.112788200378418,3.155329465866089,2026-04-11T19:15:36.816-05:00
1775952936826260000,1.750260009765625,-3.627805471420288,-6.651735305786133,3.7038192749023438,2026-04-11T19:15:36.826-05:00
1775952936836317000,1.76031689453125,-3.073709726333618,-6.332629680633545,3.6227128505706787,2026-04-11T19:15:36.836-05:00
1775952936846372900,1.770372802734375,-2.5125479698181152,-5.318202495574951,2.976973533630371,2026-04-11T19:15:36.846-05:00
1775952936856429800,1.780429931640625,-2.084681749343872,-3.863542079925537,2.099719524383545,2026-04-11T19:15:36.856-05:00
1775952936866485800,1.79048583984375,-2.063006639480591,-2.317730665206909,1.488508939743042,2026-04-11T19:15:36.866-05:00
1775952936876543000,1.80054296875,-2.269895315170288,-0.5917202830314636,1.2135087251663208,2026-04-11T19:15:36.876-05:00
1775952936886600000,1.810599853515625,-2.2297699451446533,0.08984626829624176,1.1405119895935059,2026-04-11T19:15:36.886-05:00
1775952936896656000,1.82065576171875,-2.1494436264038086,0.3397221565246582,1.439259648323059,2026-04-11T19:15:36.896-05:00
1775952936906712800,1.830712890625,-2.0923187732696533,0.15789349377155304,1.8646026849746704,2026-04-11T19:15:36.906-05:00
1775952936916769800,1.840769775390625,-1.9265820980072021,-0.24402731657028198,2.2742719650268555,2026-04-11T19:15:36.916-05:00
1775952936926825700,1.85082568359375,-1.382201910018921,-0.4842532277107239,2.4723212718963623,2026-04-11T19:15:36.926-05:00
1775952936936882700,1.860882568359375,-0.5096457004547119,0.17926882207393646,2.099790096282959,2026-04-11T19:15:36.936-05:00
1775952936946939600,1.870939697265625,0.6380662322044373,1.4206331968307495,1.0164707899093628,2026-04-11T19:15:36.946-05:00
1775952936956995800,1.880995849609375,1.5034561157226562,2.6770377159118652,-0.08855436742305756,2026-04-11T19:15:36.956-05:00
1775952936967052800,1.891052734375,1.6230483055114746,3.2836475372314453,-0.740965723991394,2026-04-11T19:15:36.967-05:00
1775952936977109800,1.90110986328125,1.4074864387512207,2.9116783142089844,-0.9272045493125916,2026-04-11T19:15:36.977-05:00
1775952936987165700,1.911165771484375,1.0335935354232788,2.0421788692474365,-0.681203305721283,2026-04-11T19:15:36.987-05:00
1775952936997222700,1.92122265625,1.041694164276123,0.3015851378440857,-0.47084367275238037,2026-04-11T19:15:36.997-05:00
1775952937007278800,1.93127880859375,1.4540393352508545,-1.2561763525009155,-0.3272548317909241,2026-04-11T19:15:37.007-05:00
1775952937017335800,1.941335693359375,2.130201816558838,-1.7656930685043335,-0.10920558124780655,2026-04-11T19:15:37.017-05:00
1775952937027392800,1.951392822265625,2.8898746967315674,-1.7492406368255615,0.012475578114390373,2026-04-11T19:15:37.027-05:00
1775952937037448700,1.96144873046875,2.9865102767944336,-1.4444410800933838,0.04633607342839241,2026-04-11T19:15:37.037-05:00
1775952937047506000,1.971505859375,2.657731533050537,-1.1223011016845703,-0.03477582335472107,2026-04-11T19:15:37.047-05:00
1775952937057563000,1.98156298828125,2.3851661682128906,-1.2222042083740234,-0.24359267950057983,2026-04-11T19:15:37.057-05:00
1775952937067618800,1.991618896484375,2.1739487648010254,-1.2658199071884155,-0.3618921637535095,2026-04-11T19:15:37.067-05:00
1775952937077675800,2.00167578125,1.9423054456710815,-1.0324593782424927,-0.3278774619102478,2026-04-11T19:15:37.077-05:00
1775952937087732700,2.011732666015625,1.7179170846939087,-0.7450352907180786,-0.165949285030365,2026-04-11T19:15:37.087-05:00
1775952937097788400,2.021788330078125,1.5169548988342285,-0.6204278469085693,0.041487254202365875,2026-04-11T19:15:37.097-05:00
1775952937107845400,2.031845458984375,1.391170859336853,-0.6678259968757629,0.2756832540035248,2026-04-11T19:15:37.107-05:00
1775952937117901300,2.0419013671875,1.3394882678985596,-0.6722058057785034,0.5188162922859192,2026-04-11T19:15:37.117-05:00
1775952937127958300,2.051958251953125,1.372413158416748,-0.730207085609436,0.6903331875801086,2026-04-11T19:15:37.127-05:00
1775952937138015200,2.06201513671875,1.5466842651367188,-0.9803761839866638,0.7155849933624268,2026-04-11T19:15:37.138-05:00
1775952937148071400,2.072071533203125,1.843044400215149,-1.3526229858398438,0.548794150352478,2026-04-11T19:15:37.148-05:00
1775952937158128400,2.08212841796875,2.2750604152679443,-1.894071340560913,0.18726523220539093,2026-04-11T19:15:37.158-05:00
1775952937168185600,2.092185546875,2.7060799598693848,-2.8180365562438965,-0.3392893970012665,2026-04-11T19:15:37.168-05:00
1775952937178241300,2.1022412109375,2.815126419067383,-3.2527122497558594,-0.7750589847564697,2026-04-11T19:15:37.178-05:00
1775952937188298500,2.112298583984375,2.676621913909912,-1.4577635526657104,-1.0356889963150024,2026-04-11T19:15:37.188-05:00
1775952937198355500,2.12235546875,2.4540977478027344,0.7793562412261963,-1.083185076713562,2026-04-11T19:15:37.198-05:00
1775952937208411400,2.132411376953125,2.2202017307281494,2.353032350540161,-1.0383217334747314,2026-04-11T19:15:37.208-05:00
1775952937218468400,2.14246826171875,1.9489837884902954,3.0136072635650635,-1.0190452337265015,2026-04-11T19:15:37.218-05:00
1775952937228524500,2.152524658203125,1.628387212753296,2.9216713905334473,-1.0818934440612793,2026-04-11T19:15:37.228-05:00
1775952937238581500,2.16258154296875,1.2455452680587769,2.4825475215911865,-1.1613901853561401,2026-04-11T19:15:37.238-05:00
1775952937248638500,2.172638427734375,0.8942666053771973,1.8746345043182373,-1.183449625968933,2026-04-11T19:15:37.248-05:00
1775952937258694400,2.1826943359375,0.7012555599212646,1.1969729661941528,-1.1137621402740479,2026-04-11T19:15:37.258-05:00
1775952937268751400,2.19275146484375,0.7706996202468872,0.6803436279296875,-0.924036979675293,2026-04-11T19:15:37.268-05:00
1775952937278808300,2.202808349609375,1.0137479305267334,0.43070611357688904,-0.6369865536689758,2026-04-11T19:15:37.278-05:00
1775952937288864500,2.212864501953125,1.3159887790679932,0.40126192569732666,-0.33049243688583374,2026-04-11T19:15:37.288-05:00
1775952937298921500,2.22292138671875,1.681351900100708,0.33835461735725403,-0.05259476974606514,2026-04-11T19:15:37.298-05:00
1775952937308978400,2.232978515625,2.0715670585632324,0.15796460211277008,0.1743054836988449,2026-04-11T19:15:37.308-05:00
1775952937319034400,2.243034423828125,2.4099700450897217,-0.10477328300476074,0.36291828751564026,2026-04-11T19:15:37.319-05:00
1775952937329091300,2.25309130859375,2.668959379196167,-0.37939950823783875,0.5315930247306824,2026-04-11T19:15:37.329-05:00
1775952937339147300,2.263147216796875,2.8270106315612793,-0.5692301988601685,0.6633007526397705,2026-04-11T19:15:37.339-05:00
1775952937349204500,2.27320458984375,2.883819341659546,-0.720360279083252,0.7719497084617615,2026-04-11T19:15:37.349-05:00
1775952937359261400,2.283261474609375,2.889070749282837,-0.907301664352417,0.8760412335395813,2026-04-11T19:15:37.359-05:00
1775952937369317400,2.2933173828125,2.8402886390686035,-1.1301512718200684,0.9877675175666809,2026-04-11T19:15:37.369-05:00
1775952937379374300,2.303374267578125,2.732851028442383,-1.3406521081924438,1.1167118549346924,2026-04-11T19:15:37.379-05:00
1775952937389431600,2.313431640625,2.612591028213501,-1.5000829696655273,1.2707715034484863,2026-04-11T19:15:37.389-05:00
1775952937399487200,2.3234873046875,2.5991830825805664,-1.6892832517623901,1.4424968957901,2026-04-11T19:15:37.399-05:00
1775952937409544400,2.33354443359375,2.7343013286590576,-1.9544507265090942,1.6007003784179688,2026-04-11T19:15:37.409-05:00
1775952937419601400,2.343601318359375,2.999661922454834,-2.253770112991333,1.775123119354248,2026-04-11T19:15:37.419-05:00
1775952937429657600,2.35365771484375,3.2788243293762207,-2.4584908485412598,1.9545905590057373,2026-04-11T19:15:37.429-05:00
1775952937439714600,2.363714599609375,3.495354413986206,-2.5355865955352783,2.1443135738372803,2026-04-11T19:15:37.439-05:00
1775952937449771500,2.373771484375,3.5725514888763428,-2.520636796951294,2.336904764175415,2026-04-11T19:15:37.449-05:00
1775952937459827500,2.383827392578125,3.5163114070892334,-2.4693362712860107,2.515397548675537,2026-04-11T19:15:37.459-05:00
1775952937469884400,2.393884521484375,3.4252288341522217,-2.4410650730133057,2.643960952758789,2026-04-11T19:15:37.469-05:00
1775952937479940400,2.4039404296875,3.2177953720092773,-2.4381797313690186,2.718207597732544,2026-04-11T19:15:37.479-05:00
1775952937489997300,2.413997314453125,2.7752225399017334,-2.608725070953369,2.7766647338867188,2026-04-11T19:15:37.489-05:00
1775952937500054500,2.424054443359375,1.9040539264678955,-3.345073938369751,2.7339072227478027,2026-04-11T19:15:37.500-05:00
1775952937510110500,2.4341103515625,0.2540493309497833,-5.204036712646484,2.5177853107452393,2026-04-11T19:15:37.510-05:00
1775952937520167400,2.44416748046875,-2.277057409286499,-7.817866325378418,1.7747083902359009,2026-04-11T19:15:37.520-05:00
1775952937530224400,2.454224365234375,-4.994668960571289,-10.265785217285156,0.40334880352020264,2026-04-11T19:15:37.530-05:00
1775952937540280300,2.4642802734375,-6.931803226470947,-10.661532402038574,-1.3394216299057007,2026-04-11T19:15:37.540-05:00
1775952937550337300,2.474337158203125,-7.679806709289551,-8.12370777130127,-3.0425517559051514,2026-04-11T19:15:37.550-05:00
1775952937560394200,2.484394287109375,-7.028666973114014,-3.612971067428589,-3.77602481842041,2026-04-11T19:15:37.560-05:00
1775952937570450400,2.494450439453125,-5.276473045349121,4.545148849487305,-1.8122278451919556,2026-04-11T19:15:37.570-05:00
1775952937580507400,2.50450732421875,-3.6873302459716797,10.146322250366211,-0.006681338418275118,2026-04-11T19:15:37.580-05:00
1775952937590564400,2.514564453125,-2.638475179672241,12.429417610168457,0.710868775844574,2026-04-11T19:15:37.590-05:00
1775952937600620300,2.524620361328125,-2.018109083175659,12.983792304992676,0.870764970779419,2026-04-11T19:15:37.600-05:00
1775952937610677500,2.534677490234375,-1.6547024250030518,12.88770580291748,0.8974791765213013,2026-04-11T19:15:37.610-05:00
1775952937620733400,2.5447333984375,-1.4158564805984497,12.38819408416748,0.8314354419708252,2026-04-11T19:15:37.620-05:00
1775952937630790400,2.554790283203125,-1.271020770072937,11.414637565612793,0.6629880666732788,2026-04-11T19:15:37.630-05:00
1775952937640847600,2.56484765625,-1.1480375528335571,4.365377426147461,0.07221055030822754,2026-04-11T19:15:37.640-05:00
1775952937650903600,2.574903564453125,-0.8673532009124756,-4.424373626708984,-0.6448010802268982,2026-04-11T19:15:37.650-05:00
1775952937660960500,2.58496044921875,-0.5498793721199036,-5.532627582550049,-0.9049021601676941,2026-04-11T19:15:37.660-05:00
1775952937671017500,2.595017578125,-0.18848629295825958,-5.539488792419434,-1.0841020345687866,2026-04-11T19:15:37.671-05:00
1775952937681073400,2.605073486328125,0.2078530639410019,-5.265059947967529,-1.1917052268981934,2026-04-11T19:15:37.681-05:00
1775952937691130400,2.61513037109375,0.584588885307312,-4.169885158538818,-0.7701246738433838,2026-04-11T19:15:37.691-05:00
1775952937701187300,2.625187255859375,0.8314287662506104,-2.1970107555389404,0.10801567882299423,2026-04-11T19:15:37.701-05:00
1775952937711243500,2.635243408203125,0.9101803302764893,-0.7982175350189209,0.4790736436843872,2026-04-11T19:15:37.711-05:00
1775952937721300500,2.645300537109375,0.8319501876831055,-0.15588334202766418,0.35658955574035645,2026-04-11T19:15:37.721-05:00
1775952937731356400,2.6553564453125,0.7093753218650818,0.10810063779354095,0.07278845459222794,2026-04-11T19:15:37.731-05:00
1775952937741413400,2.665413330078125,0.545133113861084,0.1761673092842102,-0.18370965123176575,2026-04-11T19:15:37.741-05:00
1775952937751470300,2.67547021484375,0.35008662939071655,0.16829873621463776,-0.3830115497112274,2026-04-11T19:15:37.751-05:00
1775952937761526300,2.6855263671875,0.16235029697418213,0.11219045519828796,-0.5352162718772888,2026-04-11T19:15:37.761-05:00
1775952937771583500,2.69558349609375,-0.02424488589167595,0.05134627968072891,-0.6465923190116882,2026-04-11T19:15:37.771-05:00
1775952937781640400,2.705640380859375,-0.19073905050754547,0.006200105417519808,-0.7228053212165833,2026-04-11T19:15:37.781-05:00
1775952937791696400,2.7156962890625,-0.35182780027389526,0.0205119326710701,-0.7595902681350708,2026-04-11T19:15:37.791-05:00
1775952937801753300,2.72575341796875,-0.5131903290748596,0.13317270576953888,-0.7666534781455994,2026-04-11T19:15:37.801-05:00
1775952937811810300,2.735810302734375,-0.6777699589729309,0.34967491030693054,-0.7498710751533508,2026-04-11T19:15:37.811-05:00
1775952937821866200,2.7458662109375,-0.8470322489738464,0.6334357857704163,-0.7223462462425232,2026-04-11T19:15:37.821-05:00
1775952937831923500,2.75592333984375,-1.021976351737976,0.9150640368461609,-0.6818895936012268,2026-04-11T19:15:37.831-05:00
1775952937841979400,2.7659794921875,-1.18980872631073,1.1745941638946533,-0.6471662521362305,2026-04-11T19:15:37.841-05:00
1775952937852036600,2.77603662109375,-1.290668249130249,1.3308933973312378,-0.5998905897140503,2026-04-11T19:15:37.852-05:00
1775952937862093600,2.786093505859375,-1.257498860359192,1.2788795232772827,-0.532734215259552,2026-04-11T19:15:37.862-05:00
1775952937872149500,2.7961494140625,-1.0840131044387817,1.1106529235839844,-0.5163323283195496,2026-04-11T19:15:37.872-05:00
1775952937882206500,2.80620654296875,-0.8098028302192688,0.8640722036361694,-0.5317171812057495,2026-04-11T19:15:37.882-05:00
1775952937892263400,2.816263427734375,-0.4942755103111267,0.5931405425071716,-0.5673941969871521,2026-04-11T19:15:37.892-05:00
1775952937902319400,2.8263193359375,-0.15356212854385376,0.32213491201400757,-0.6297435760498047,2026-04-11T19:15:37.902-05:00
1775952937912376600,2.83637646484375,0.08753890544176102,0.0974850133061409,-0.6705876588821411,2026-04-11T19:15:37.912-05:00
1775952937922433500,2.84643359375,0.09274271875619888,-0.028422852978110313,-0.6805710792541504,2026-04-11T19:15:37.922-05:00
1775952937932489500,2.856489501953125,-0.048596031963825226,-0.06332038342952728,-0.6471912860870361,2026-04-11T19:15:37.932-05:00
1775952937942546400,2.86654638671875,-0.21844179928302765,-0.03551032394170761,-0.5664679408073425,2026-04-11T19:15:37.942-05:00
1775952937952602400,2.876602294921875,-0.3536568582057953,0.08412978798151016,-0.45224788784980774,2026-04-11T19:15:37.952-05:00
1775952937962659300,2.886659423828125,-0.4087219834327698,0.2938563823699951,-0.31204843521118164,2026-04-11T19:15:37.962-05:00
1775952937972716300,2.89671630859375,-0.4070785641670227,0.5752332210540771,-0.15111307799816132,2026-04-11T19:15:37.972-05:00
1775952937982772500,2.9067724609375,-0.37867727875709534,0.9027860164642334,0.028386633843183517,2026-04-11T19:15:37.982-05:00
1775952937992829400,2.916829345703125,-0.3581259250640869,1.247848629951477,0.2080613225698471,2026-04-11T19:15:37.992-05:00
1775952938002886400,2.926886474609375,-0.3641316294670105,1.5842136144638062,0.39073872566223145,2026-04-11T19:15:38.002-05:00
1775952938012942300,2.9369423828125,-0.39110225439071655,1.881662368774414,0.5591373443603516,2026-04-11T19:15:38.012-05:00
1775952938022999300,2.946999267578125,-0.4255843162536621,2.1057074069976807,0.7068977355957031,2026-04-11T19:15:38.022-05:00
1775952938033056300,2.95705615234375,-0.4417206943035126,2.2188773155212402,0.8113490343093872,2026-04-11T19:15:38.033-05:00
1775952938043112400,2.967112548828125,-0.41683265566825867,2.227121591567993,0.8792200088500977,2026-04-11T19:15:38.043-05:00
1775952938053169700,2.977169677734375,-0.3735802471637726,2.161754608154297,0.9231552481651306,2026-04-11T19:15:38.053-05:00
1775952938063226600,2.9872265625,-0.3201526999473572,2.0880203247070312,0.9666622281074524,2026-04-11T19:15:38.063-05:00
1775952938073282600,2.997282470703125,-0.29008907079696655,2.1932291984558105,1.066361665725708,2026-04-11T19:15:38.073-05:00
1775952938083339500,3.007339599609375,-0.265023410320282,2.749906539916992,1.312547206878662,2026-04-11T19:15:38.083-05:00
1775952938093395700,3.017395751953125,-0.21645374596118927,3.4087021350860596,1.6205785274505615,2026-04-11T19:15:38.093-05:00
1775952938103452700,3.02745263671875,-0.10564866662025452,1.7989990711212158,1.297921895980835,2026-04-11T19:15:38.103-05:00
1775952938113509600,3.037509521484375,0.04283028841018677,-2.756429672241211,-0.24441933631896973,2026-04-11T19:15:38.113-05:00
1775952938123565800,3.04756591796875,0.15421061217784882,-2.8492867946624756,-0.6835490465164185,2026-04-11T19:15:38.123-05:00
1775952938133622800,3.057622802734375,0.18180282413959503,-2.2845115661621094,-0.9471068978309631,2026-04-11T19:15:38.133-05:00
1775952938143679700,3.0676796875,0.1919952780008316,-1.8743714094161987,-1.1558947563171387,2026-04-11T19:15:38.143-05:00
1775952938153735700,3.077735595703125,0.20448842644691467,-1.5193935632705688,-1.2950313091278076,2026-04-11T19:15:38.153-05:00
1775952938163792600,3.087792724609375,0.20327003300189972,-1.140045166015625,-1.3389846086502075,2026-04-11T19:15:38.163-05:00
1775952938173849600,3.097849609375,0.18578797578811646,-0.8013038635253906,-1.3204424381256104,2026-04-11T19:15:38.173-05:00
1775952938183905500,3.107905517578125,0.16367575526237488,-0.5428441166877747,-1.2753428220748901,2026-04-11T19:15:38.183-05:00
1775952938193962800,3.117962646484375,0.1624043583869934,-0.39765122532844543,-1.2163794040679932,2026-04-11T19:15:38.193-05:00
1775952938204018700,3.128018798828125,0.17738384008407593,-0.3543551564216614,-1.1534276008605957,2026-04-11T19:15:38.204-05:00
1775952938214075600,3.13807568359375,0.19183069467544556,-0.3656107485294342,-1.0734893083572388,2026-04-11T19:15:38.214-05:00
1775952938224132900,3.1481328125,0.20810233056545258,-0.40077537298202515,-0.9728828072547913,2026-04-11T19:15:38.224-05:00
1775952938234188500,3.1581884765625,0.24759754538536072,-0.38251781463623047,-0.8243266344070435,2026-04-11T19:15:38.234-05:00
1775952938244245800,3.168245849609375,0.2679654061794281,-0.25368818640708923,-0.643549919128418,2026-04-11T19:15:38.244-05:00
1775952938254302700,3.178302734375,0.27273300290107727,-0.009165801107883453,-0.4485255777835846,2026-04-11T19:15:38.254-05:00
1775952938264359000,3.18835888671875,0.2721862494945526,0.2636289894580841,-0.26099005341529846,2026-04-11T19:15:38.264-05:00
1775952938274415900,3.198415771484375,0.2724813222885132,0.48678058385849,-0.09733054786920547,2026-04-11T19:15:38.274-05:00
1775952938284472800,3.208472900390625,0.2997765839099884,0.5927799940109253,0.029161347076296806,2026-04-11T19:15:38.284-05:00
1775952938294528800,3.21852880859375,0.3370344936847687,0.615674614906311,0.14614681899547577,2026-04-11T19:15:38.294-05:00
1775952938304585700,3.228585693359375,0.38420864939689636,0.6461364030838013,0.26994040608406067,2026-04-11T19:15:38.304-05:00
1775952938314641700,3.2386416015625,0.45443886518478394,0.7001383900642395,0.4046529531478882,2026-04-11T19:15:38.314-05:00
1775952938324698600,3.24869873046875,0.5203824639320374,0.6817335486412048,0.5150151252746582,2026-04-11T19:15:38.324-05:00
1775952938334755600,3.258755615234375,0.5360139012336731,0.45619362592697144,0.5804380774497986,2026-04-11T19:15:38.334-05:00
1775952938344811800,3.268811767578125,0.5246201157569885,0.08656871318817139,0.6099357604980469,2026-04-11T19:15:38.344-05:00
1775952938354868700,3.27886865234375,0.5227545499801636,-0.274399071931839,0.6328474879264832,2026-04-11T19:15:38.354-05:00
1775952938364925700,3.28892578125,0.5336697697639465,-0.5771030187606812,0.6622317433357239,2026-04-11T19:15:38.364-05:00
1775952938374981600,3.298981689453125,0.5810407400131226,-0.7442328929901123,0.6796061992645264,2026-04-11T19:15:38.374-05:00
1775952938385038600,3.30903857421875,0.6440567374229431,-0.8488391637802124,0.6687673926353455,2026-04-11T19:15:38.385-05:00
1775952938395095600,3.319095458984375,0.6870905160903931,-1.06315279006958,0.5833702087402344,2026-04-11T19:15:38.395-05:00
1775952938405151700,3.32915185546875,0.6673905849456787,-1.4221969842910767,0.4478398263454437,2026-04-11T19:15:38.405-05:00
1775952938415208700,3.339208740234375,0.6023122072219849,-1.7774450778961182,0.30621957778930664,2026-04-11T19:15:38.415-05:00
1775952938425264600,3.3492646484375,0.5147653222084045,-2.0431251525878906,0.18265822529792786,2026-04-11T19:15:38.425-05:00
1775952938435321600,3.359321533203125,0.40220576524734497,-2.1390295028686523,0.11244744807481766,2026-04-11T19:15:38.435-05:00
1775952938445378800,3.36937890625,0.27910780906677246,-2.005068778991699,0.12762613594532013,2026-04-11T19:15:38.445-05:00
1775952938455434500,3.3794345703125,0.12335016578435898,-1.551066279411316,0.26607802510261536,2026-04-11T19:15:38.455-05:00
1775952938465491700,3.38949169921875,-0.10476529598236084,-0.8088914752006531,0.5036373138427734,2026-04-11T19:15:38.465-05:00
1775952938475548700,3.399548583984375,-0.35207176208496094,-0.015127553604543209,0.7720413208007812,2026-04-11T19:15:38.475-05:00
1775952938485604900,3.40960498046875,-0.4096682071685791,0.4106064438819885,1.0350431203842163,2026-04-11T19:15:38.485-05:00
1775952938495661800,3.419661865234375,-0.21965299546718597,0.36117231845855713,1.2403336763381958,2026-04-11T19:15:38.495-05:00
1775952938505718800,3.42971875,0.07295037060976028,-0.024998294189572334,1.4025753736495972,2026-04-11T19:15:38.505-05:00
1775952938515774700,3.439774658203125,0.2973161041736603,-0.49134495854377747,1.5436389446258545,2026-04-11T19:15:38.515-05:00
1775952938525831700,3.449831787109375,0.407584011554718,-0.8728685975074768,1.6386901140213013,2026-04-11T19:15:38.525-05:00
1775952938535888600,3.459888671875,0.372351735830307,-1.1793031692504883,1.6112196445465088,2026-04-11T19:15:38.535-05:00
1775952938545944800,3.46994482421875,0.21011248230934143,-1.3231226205825806,1.4272953271865845,2026-04-11T19:15:38.545-05:00
1775952938556001800,3.480001708984375,0.024464063346385956,-1.1540476083755493,1.172775149345398,2026-04-11T19:15:38.556-05:00
1775952938566057700,3.4900576171875,-0.15259167551994324,-0.6722244620323181,0.9797966480255127,2026-04-11T19:15:38.566-05:00
1775952938576114700,3.50011474609375,-0.29558372497558594,-0.018338261172175407,0.8594542741775513,2026-04-11T19:15:38.576-05:00
1775952938586171600,3.510171630859375,-0.3855671286582947,0.6239669322967529,0.807097852230072,2026-04-11T19:15:38.586-05:00
1775952938596227600,3.5202275390625,-0.4591159224510193,1.0517622232437134,0.8267940878868103,2026-04-11T19:15:38.596-05:00
1775952938606284500,3.530284423828125,-0.5174367427825928,1.1058909893035889,0.8660203218460083,2026-04-11T19:15:38.606-05:00
1775952938616341800,3.540341796875,-0.5549535155296326,0.8271946310997009,0.8599967360496521,2026-04-11T19:15:38.616-05:00
1775952938626397700,3.550397705078125,-0.5623056888580322,0.39303651452064514,0.7969637513160706,2026-04-11T19:15:38.626-05:00
1775952938636454700,3.56045458984375,-0.5162902474403381,0.12345349788665771,0.6803956031799316,2026-04-11T19:15:38.636-05:00
1775952938646510600,3.570510498046875,-0.4768941104412079,0.07572964578866959,0.5360554456710815,2026-04-11T19:15:38.646-05:00
1775952938656567600,3.580567626953125,-0.4589388072490692,0.177491694688797,0.2844327986240387,2026-04-11T19:15:38.656-05:00
1775952938666624500,3.59062451171875,-0.46119025349617004,0.4390314221382141,-0.019572103396058083,2026-04-11T19:15:38.666-05:00
1775952938676680700,3.6006806640625,-0.37052080035209656,-0.0165542084723711,-0.2029925286769867,2026-04-11T19:15:38.676-05:00
1775952938686738000,3.610738037109375,-0.000550475378986448,-3.237781286239624,0.20840327441692352,2026-04-11T19:15:38.686-05:00
1775952938696795000,3.620794921875,0.5383495092391968,-4.830459117889404,0.3698877692222595,2026-04-11T19:15:38.696-05:00
1775952938706850800,3.630850830078125,1.0730429887771606,-3.880967617034912,0.16618017852306366,2026-04-11T19:15:38.706-05:00
1775952938716907800,3.64090771484375,1.413495421409607,-2.2330241203308105,0.22217607498168945,2026-04-11T19:15:38.716-05:00
1775952938726964700,3.65096484375,1.2474864721298218,-0.5102244019508362,0.814057469367981,2026-04-11T19:15:38.726-05:00
1775952938737020700,3.661020751953125,0.8265381455421448,0.9427270889282227,1.2835607528686523,2026-04-11T19:15:38.737-05:00
1775952938747077600,3.67107763671875,0.5163357853889465,1.6348134279251099,1.3645293712615967,2026-04-11T19:15:38.747-05:00
1775952938757134800,3.681134765625,0.29912546277046204,1.5209392309188843,1.1851156949996948,2026-04-11T19:15:38.757-05:00
1775952938767190800,3.691190673828125,0.13092286884784698,1.117935061454773,0.8209604024887085,2026-04-11T19:15:38.767-05:00
1775952938777247700,3.701247802734375,0.0057223341427743435,0.7836742997169495,0.3349471092224121,2026-04-11T19:15:38.777-05:00
1775952938787304700,3.7113046875,-0.06600698083639145,0.5539393424987793,-0.19687257707118988,2026-04-11T19:15:38.787-05:00
1775952938797360600,3.721360595703125,-0.08410368859767914,0.42314326763153076,-0.6966089010238647,2026-04-11T19:15:38.797-05:00
1775952938807417600,3.73141748046875,-0.05501265078783035,0.39566531777381897,-1.114774227142334,2026-04-11T19:15:38.807-05:00
1775952938817473800,3.741473876953125,-0.047210920602083206,0.435041218996048,-1.367771029472351,2026-04-11T19:15:38.817-05:00
1775952938827530800,3.75153076171875,-0.09613212198019028,0.515477180480957,-1.3937664031982422,2026-04-11T19:15:38.827-05:00
1775952938837587700,3.761587646484375,-0.15529212355613708,0.6206552982330322,-1.1901754140853882,2026-04-11T19:15:38.837-05:00
1775952938847643600,3.7716435546875,-0.1857360452413559,0.7707526087760925,-0.8543596267700195,2026-04-11T19:15:38.847-05:00
1775952938857700600,3.78170068359375,-0.15372112393379211,0.9948885440826416,-0.5841137766838074,2026-04-11T19:15:38.857-05:00
1775952938867757600,3.791757568359375,-0.05691308528184891,1.1005369424819946,-0.4413566291332245,2026-04-11T19:15:38.867-05:00
1775952938877813500,3.8018134765625,0.0671505406498909,0.9656310677528381,-0.3887687921524048,2026-04-11T19:15:38.877-05:00
1775952938887870700,3.81187060546875,0.16222698986530304,0.6039716601371765,-0.3928828239440918,2026-04-11T19:15:38.887-05:00
1775952938897928000,3.821927978515625,0.2550615966320038,0.2554437518119812,-0.4319194555282593,2026-04-11T19:15:38.897-05:00
1775952938907984000,3.83198388671875,0.3263680040836334,0.04418930038809776,-0.47861799597740173,2026-04-11T19:15:38.907-05:00
1775952938918040800,3.842040771484375,0.34426364302635193,-0.08654474467039108,-0.48115357756614685,2026-04-11T19:15:38.918-05:00
1775952938928096800,3.8520966796875,0.3300836384296417,-0.1445968598127365,-0.4248277246952057,2026-04-11T19:15:38.928-05:00
1775952938938153700,3.86215380859375,0.31540510058403015,-0.06884031742811203,-0.37206730246543884,2026-04-11T19:15:38.938-05:00
1775952938948210700,3.872210693359375,0.2884485721588135,0.08646857738494873,-0.31732097268104553,2026-04-11T19:15:38.948-05:00
1775952938958267000,3.882266845703125,0.2327197939157486,0.2019384503364563,-0.2439897656440735,2026-04-11T19:15:38.958-05:00
1775952938968323800,3.89232373046875,0.14737267792224884,0.2713177800178528,-0.18549023568630219,2026-04-11T19:15:38.968-05:00
1775952938978380800,3.902380859375,0.07874088734388351,0.2826990783214569,-0.1478336751461029,2026-04-11T19:15:38.978-05:00
1775952938988436700,3.912436767578125,0.03645308315753937,0.2095566838979721,-0.10789397358894348,2026-04-11T19:15:38.988-05:00
1775952938998493700,3.92249365234375,0.02196308970451355,0.12008912116289139,-0.050280481576919556,2026-04-11T19:15:38.998-05:00
1775952939008550700,3.932550537109375,0.05577032268047333,0.04206010326743126,0.031849008053541183,2026-04-11T19:15:39.008-05:00
1775952939018606600,3.942606689453125,0.12222657352685928,-0.002029062481597066,0.12180313467979431,2026-04-11T19:15:39.018-05:00
1775952939028663800,3.952663818359375,0.1567573845386505,-0.062176287174224854,0.2266797423362732,2026-04-11T19:15:39.028-05:00
1775952939038719700,3.9627197265625,0.13976162672042847,-0.13349467515945435,0.33556655049324036,2026-04-11T19:15:39.038-05:00
1775952939048776700,3.972776611328125,0.06895855814218521,-0.1569209098815918,0.440454363822937,2026-04-11T19:15:39.048-05:00
1775952939058833700,3.982833740234375,-0.02671736478805542,-0.16594982147216797,0.5735956430435181,2026-04-11T19:15:39.058-05:00
1775952939068889600,3.9928896484375,-0.0748758390545845,-0.16084986925125122,0.7026734352111816,2026-04-11T19:15:39.068-05:00
1775952939078946600,4.002946533203125,-0.06108492612838745,-0.21642151474952698,0.8306550979614258,2026-04-11T19:15:39.078-05:00
1775952939089003500,4.01300341796875,-0.0003299656673334539,-0.39422187209129333,0.9580905437469482,2026-04-11T19:15:39.089-05:00
1775952939099060200,4.023060302734375,0.07443694770336151,-0.5419996380805969,1.0001543760299683,2026-04-11T19:15:39.099-05:00
1775952939109117200,4.0331171875,0.08759110420942307,-0.6444719433784485,1.0149471759796143,2026-04-11T19:15:39.109-05:00
1775952939119174100,4.043174072265625,0.0626697689294815,-0.7027294039726257,1.031992793083191,2026-04-11T19:15:39.119-05:00
1775952939129230000,4.05322998046875,0.06962514668703079,-0.5978293418884277,0.9913209676742554,2026-04-11T19:15:39.129-05:00
1775952939139287000,4.063287109375,0.09348121285438538,-0.4301084876060486,0.9145835638046265,2026-04-11T19:15:39.139-05:00
1775952939149344000,4.073343994140625,0.13734933733940125,-0.33799800276756287,0.8217114210128784,2026-04-11T19:15:39.149-05:00
1775952939159400000,4.08339990234375,0.16947771608829498,-0.32724523544311523,0.6970483064651489,2026-04-11T19:15:39.159-05:00
1775952939169457000,4.093456787109375,0.18523430824279785,-0.3473246693611145,0.554179847240448,2026-04-11T19:15:39.169-05:00
1775952939179513000,4.10351318359375,0.18264038860797882,-0.2575465738773346,0.37984293699264526,2026-04-11T19:15:39.179-05:00
1775952939189570000,4.113570068359375,0.14399658143520355,-0.1652960181236267,0.23441356420516968,2026-04-11T19:15:39.189-05:00
1775952939199627000,4.123626953125,0.0906984806060791,-0.07099960744380951,0.12769830226898193,2026-04-11T19:15:39.199-05:00
1775952939209683000,4.133682861328125,0.0341276116669178,0.0848805382847786,-0.005329784471541643,2026-04-11T19:15:39.209-05:00
1775952939219740000,4.143739990234375,-0.03825018182396889,0.1789604276418686,-0.11829282343387604,2026-04-11T19:15:39.219-05:00
1775952939229796900,4.153796875,-0.11863850057125092,0.25402161478996277,-0.22553272545337677,2026-04-11T19:15:39.229-05:00
1775952939239853000,4.16385302734375,-0.1909683495759964,0.32896217703819275,-0.32057294249534607,2026-04-11T19:15:39.239-05:00
1775952939249910000,4.173909912109375,-0.20552492141723633,0.34329718351364136,-0.3691388964653015,2026-04-11T19:15:39.249-05:00
1775952939259967200,4.18396728515625,-0.15097087621688843,0.3234819173812866,-0.37099191546440125,2026-04-11T19:15:39.259-05:00
1775952939270023200,4.194023193359375,-0.039205193519592285,0.2337552309036255,-0.3177468180656433,2026-04-11T19:15:39.270-05:00
1775952939280080100,4.204080078125,0.12246466428041458,0.1524510532617569,-0.27007994055747986,2026-04-11T19:15:39.280-05:00
1775952939290137000,4.21413720703125,0.278734415769577,0.08209940046072006,-0.24256470799446106,2026-04-11T19:15:39.290-05:00
1775952939300193000,4.224193115234375,0.3416856825351715,-0.007770305033773184,-0.2430448681116104,2026-04-11T19:15:39.300-05:00
1775952939310250000,4.23425,0.3240680992603302,-0.046112366020679474,-0.2932094931602478,2026-04-11T19:15:39.310-05:00
1775952939320306200,4.24430615234375,0.2531486451625824,-0.08297663927078247,-0.2994370460510254,2026-04-11T19:15:39.320-05:00
1775952939330363100,4.254363037109375,0.17310094833374023,-0.08176810294389725,-0.2851409316062927,2026-04-11T19:15:39.330-05:00
1775952939340420000,4.264420166015625,0.07589449733495712,-0.0038107172586023808,-0.2850993871688843,2026-04-11T19:15:39.340-05:00
1775952939350476000,4.27447607421875,-0.0674823746085167,0.12599095702171326,-0.2983696460723877,2026-04-11T19:15:39.350-05:00
1775952939360533000,4.284532958984375,-0.20528417825698853,0.22540968656539917,-0.28164392709732056,2026-04-11T19:15:39.360-05:00
1775952939370590000,4.29458984375,-0.2586858868598938,0.25602245330810547,-0.20399653911590576,2026-04-11T19:15:39.370-05:00
1775952939380646100,4.304646240234375,-0.1904570311307907,0.2720283269882202,-0.15493792295455933,2026-04-11T19:15:39.380-05:00
1775952939390703000,4.314703125,-0.05585234612226486,0.33399635553359985,-0.19635619223117828,2026-04-11T19:15:39.390-05:00
1775952939400760000,4.324760009765625,0.03764910623431206,0.28913646936416626,-0.2631261646747589,2026-04-11T19:15:39.400-05:00
1775952939410816000,4.33481591796875,0.07058762013912201,0.1541813164949417,-0.34409746527671814,2026-04-11T19:15:39.410-05:00
1775952939420873000,4.344873046875,0.07326063513755798,0.09283673018217087,-0.43762049078941345,2026-04-11T19:15:39.420-05:00
1775952939430929000,4.354928955078125,0.05353726074099541,0.11617614328861237,-0.47771623730659485,2026-04-11T19:15:39.430-05:00
1775952939440985900,4.36498583984375,0.022519158199429512,0.19282297790050507,-0.4557507634162903,2026-04-11T19:15:39.440-05:00
1775952939451042800,4.375042724609375,-0.03189348429441452,0.31331396102905273,-0.39048147201538086,2026-04-11T19:15:39.451-05:00
1775952939461099000,4.38509912109375,-0.08547655493021011,0.4579941928386688,-0.2861931324005127,2026-04-11T19:15:39.461-05:00
1775952939471156000,4.395156005859375,-0.12195146828889847,0.5975712537765503,-0.15997448563575745,2026-04-11T19:15:39.471-05:00
1775952939481213200,4.405213134765625,-0.12723171710968018,0.6407245993614197,-0.030365096405148506,2026-04-11T19:15:39.481-05:00
1775952939491269000,4.41526904296875,-0.09504209458827972,0.535351574420929,0.08468931913375854,2026-04-11T19:15:39.491-05:00
1775952939501326000,4.425326171875,-0.05621054023504257,0.2847102880477905,0.19558973610401154,2026-04-11T19:15:39.501-05:00
1775952939511383000,4.435383056640625,0.025729864835739136,-0.026568228378891945,0.31355020403862,2026-04-11T19:15:39.511-05:00
1775952939521439200,4.445439208984375,0.1321527063846588,-0.29131412506103516,0.4286560118198395,2026-04-11T19:15:39.521-05:00
1775952939531496200,4.45549609375,0.22854875028133392,-0.4822329580783844,0.5448633432388306,2026-04-11T19:15:39.531-05:00
1775952939541552000,4.46555224609375,0.27441585063934326,-0.5899509191513062,0.6486083269119263,2026-04-11T19:15:39.541-05:00
1775952939551609000,4.475609130859375,0.27644702792167664,-0.626653254032135,0.7643828988075256,2026-04-11T19:15:39.551-05:00
1775952939561666000,4.485666015625,0.24071727693080902,-0.5294026136398315,0.8153398036956787,2026-04-11T19:15:39.561-05:00
1775952939571722000,4.495721923828125,0.1540910303592682,-0.34464019536972046,0.7762006521224976,2026-04-11T19:15:39.571-05:00
1775952939581779000,4.505779052734375,0.05831736698746681,-0.21581324934959412,0.7013573050498962,2026-04-11T19:15:39.581-05:00
1775952939591836000,4.5158359375,-0.004201669245958328,-0.14679104089736938,0.5725449919700623,2026-04-11T19:15:39.591-05:00
1775952939601892000,4.52589208984375,-0.044010601937770844,-0.11460620909929276,0.3927760422229767,2026-04-11T19:15:39.601-05:00
1775952939611949000,4.535948974609375,-0.04042705148458481,-0.12876462936401367,0.22692076861858368,2026-04-11T19:15:39.611-05:00
1775952939622006000,4.546006103515625,-0.000931307440623641,-0.09173711389303207,0.07792755216360092,2026-04-11T19:15:39.622-05:00
1775952939632062000,4.55606201171875,0.03958442807197571,-0.053889065980911255,-0.007666175253689289,2026-04-11T19:15:39.632-05:00
1775952939642119000,4.566118896484375,0.08465363830327988,-0.0657622367143631,-0.042573027312755585,2026-04-11T19:15:39.642-05:00
1775952939652176000,4.57617578125,0.11674019694328308,0.04632435366511345,-0.13199424743652344,2026-04-11T19:15:39.652-05:00
1775952939662232000,4.586232177734375,0.11058856546878815,0.12924399971961975,-0.21794751286506653,2026-04-11T19:15:39.662-05:00
1775952939672289000,4.5962890625,0.0757104754447937,0.14850105345249176,-0.27886518836021423,2026-04-11T19:15:39.672-05:00
1775952939682346200,4.60634619140625,0.014059626497328281,0.26522526144981384,-0.36793461441993713,2026-04-11T19:15:39.682-05:00
1775952939692402000,4.61640185546875,-0.03485065698623657,0.4154486060142517,-0.4591292440891266,2026-04-11T19:15:39.692-05:00
1775952939702459100,4.626459228515625,-0.0704701691865921,0.49659618735313416,-0.5309986472129822,2026-04-11T19:15:39.702-05:00
1775952939712514800,4.636514892578125,-0.10405263304710388,0.5128329396247864,-0.6059426665306091,2026-04-11T19:15:39.712-05:00
1775952939722572000,4.646572021484375,-0.1188824474811554,0.5048394799232483,-0.6680648922920227,2026-04-11T19:15:39.722-05:00
1775952939732629000,4.65662890625,-0.10007919371128082,0.5031984448432922,-0.7102860808372498,2026-04-11T19:15:39.732-05:00
1775952939742685200,4.666685302734375,-0.07868096232414246,0.5235564112663269,-0.7021770477294922,2026-04-11T19:15:39.742-05:00
1775952939752742100,4.6767421875,0.007314638234674931,0.5821750164031982,-0.6361194849014282,2026-04-11T19:15:39.752-05:00
1775952939762799000,4.686799072265625,0.10467500984668732,0.6214816570281982,-0.561427116394043,2026-04-11T19:15:39.762-05:00
1775952939772855000,4.69685498046875,0.08455776423215866,0.582713782787323,-0.5220176577568054,2026-04-11T19:15:39.772-05:00
1775952939782912000,4.706912109375,-0.028657210990786552,0.430294394493103,-0.5249029397964478,2026-04-11T19:15:39.782-05:00
1775952939792969000,4.716968994140625,-0.12063347548246384,0.2125958800315857,-0.5059963464736938,2026-04-11T19:15:39.792-05:00
1775952939803025200,4.727025146484375,-0.13181449472904205,0.1112104132771492,-0.45642638206481934,2026-04-11T19:15:39.803-05:00
1775952939813082000,4.73708203125,-0.15086914598941803,0.17461174726486206,-0.4098120331764221,2026-04-11T19:15:39.813-05:00
1775952939823138000,4.747137939453125,-0.25787442922592163,0.2997843325138092,-0.2647102177143097,2026-04-11T19:15:39.823-05:00
1775952939833195000,4.757195068359375,-0.33289647102355957,0.4884740710258484,-0.056594036519527435,2026-04-11T19:15:39.833-05:00
1775952939843252000,4.767251953125,-0.3112385869026184,0.7658726572990417,0.09799899905920029,2026-04-11T19:15:39.843-05:00
1775952939853308000,4.777307861328125,-0.2519289255142212,0.9852124452590942,0.16888409852981567,2026-04-11T19:15:39.853-05:00
1775952939863364900,4.78736474609375,-0.18878483772277832,1.0365856885910034,0.18368461728096008,2026-04-11T19:15:39.863-05:00
1775952939873422000,4.797422119140625,-0.12137090414762497,0.8966959118843079,0.15532247722148895,2026-04-11T19:15:39.873-05:00
1775952939883478000,4.80747802734375,-0.024326378479599953,0.6471825242042542,0.0967387929558754,2026-04-11T19:15:39.883-05:00
1775952939893535000,4.817534912109375,0.13242807984352112,0.40635523200035095,-0.0014255901332944632,2026-04-11T19:15:39.893-05:00
1775952939903592200,4.82759228515625,0.27283766865730286,0.2199864238500595,-0.1277363896369934,2026-04-11T19:15:39.903-05:00
1775952939913647900,4.83764794921875,0.3144250512123108,0.07735071331262589,-0.23897290229797363,2026-04-11T19:15:39.913-05:00
1775952939923705000,4.847705078125,0.2774731516838074,-0.04152107611298561,-0.317325234413147,2026-04-11T19:15:39.923-05:00
1775952939933762000,4.857761962890625,0.22988060116767883,-0.12633077800273895,-0.340936541557312,2026-04-11T19:15:39.933-05:00
1775952939943818200,4.867818359375,0.15822266042232513,-0.14140665531158447,-0.30623263120651245,2026-04-11T19:15:39.943-05:00
1775952939953875200,4.877875244140625,0.0907091274857521,-0.11164610087871552,-0.22785340249538422,2026-04-11T19:15:39.953-05:00
1775952939963931100,4.88793115234375,0.05002748221158981,-0.06181782856583595,-0.12800003588199615,2026-04-11T19:15:39.963-05:00
1775952939973988000,4.897988037109375,0.004480502102524042,0.03206605836749077,-0.04547933489084244,2026-04-11T19:15:39.973-05:00
1775952939984045000,4.908045166015625,-0.024716798216104507,0.15069390833377838,0.021102089434862137,2026-04-11T19:15:39.984-05:00
1775952939994101000,4.91810107421875,-0.05685103312134743,0.3165273368358612,0.04069682955741882,2026-04-11T19:15:39.994-05:00
1775952940004158000,4.928157958984375,-0.04975104331970215,0.5281906127929688,0.03371668606996536,2026-04-11T19:15:40.004-05:00
1775952940014215200,4.938215087890625,-0.005857090000063181,0.7567971348762512,0.007484281435608864,2026-04-11T19:15:40.014-05:00
1775952940024271000,4.94827099609375,0.06255818903446198,1.0275026559829712,-0.020129237323999405,2026-04-11T19:15:40.024-05:00
1775952940034328000,4.958328125,0.10718157887458801,1.3405500650405884,-0.06138959154486656,2026-04-11T19:15:40.034-05:00
1775952940044385000,4.968385009765625,0.11148951202630997,1.6586833000183105,-0.11115794628858566,2026-04-11T19:15:40.044-05:00
1775952940054441000,4.97844091796875,0.09533291310071945,1.9504344463348389,-0.17428497970104218,2026-04-11T19:15:40.054-05:00
1775952940064498000,4.988497802734375,0.07989589869976044,2.1601696014404297,-0.23367081582546234,2026-04-11T19:15:40.064-05:00
1775952940074555000,4.998554931640625,0.08116915822029114,2.253223180770874,-0.291995644569397,2026-04-11T19:15:40.074-05:00
1775952940084611000,5.008611083984375,0.11445228010416031,2.2068028450012207,-0.3418135344982147,2026-04-11T19:15:40.084-05:00
1775952940094672000,5.018671875,0.18060839176177979,2.0414044857025146,-0.3889831602573395,2026-04-11T19:15:40.094-05:00
1775952940104727800,5.028727783203125,0.27797648310661316,1.8081375360488892,-0.436385840177536,2026-04-11T19:15:40.104-05:00
1775952940114784800,5.03878466796875,0.399435818195343,1.519014835357666,-0.4845972955226898,2026-04-11T19:15:40.114-05:00
1775952940124841700,5.048841796875,0.5234544277191162,1.2354004383087158,-0.53377765417099,2026-04-11T19:15:40.124-05:00
1775952940134897700,5.058897705078125,0.6444261074066162,0.9686739444732666,-0.5746044516563416,2026-04-11T19:15:40.134-05:00
1775952940144954600,5.06895458984375,0.7519765496253967,0.7464853525161743,-0.5906758308410645,2026-04-11T19:15:40.144-05:00
1775952940155011800,5.07901171875,0.821449875831604,0.573748767375946,-0.5719085335731506,2026-04-11T19:15:40.155-05:00
1775952940165067800,5.08906787109375,0.8401692509651184,0.4427585303783417,-0.504798173904419,2026-04-11T19:15:40.165-05:00
1775952940175125000,5.099125,0.8320644497871399,0.3178426921367645,-0.3642248213291168,2026-04-11T19:15:40.175-05:00
1775952940185182000,5.109181884765625,0.7987807989120483,0.2166673243045807,-0.15146702527999878,2026-04-11T19:15:40.185-05:00
1775952940195238000,5.11923779296875,0.7453098893165588,0.15845835208892822,0.10467314720153809,2026-04-11T19:15:40.195-05:00
1775952940205294800,5.129294921875,0.7156862020492554,0.12197250872850418,0.3948762118816376,2026-04-11T19:15:40.205-05:00
1775952940215351800,5.139351806640625,0.7228453159332275,0.1291571855545044,0.6961159706115723,2026-04-11T19:15:40.215-05:00
1775952940225408000,5.149407958984375,0.7456116080284119,0.17139998078346252,0.9964931011199951,2026-04-11T19:15:40.225-05:00
1775952940235465000,5.15946484375,0.7720450758934021,0.21387474238872528,1.3128396272659302,2026-04-11T19:15:40.235-05:00
1775952940245521000,5.16952099609375,0.790209174156189,0.23707246780395508,1.6265349388122559,2026-04-11T19:15:40.245-05:00
1775952940255577900,5.179577880859375,0.7806676030158997,0.1935308426618576,1.9346905946731567,2026-04-11T19:15:40.255-05:00
1775952940265634800,5.189634765625,0.7555001974105835,0.08828964829444885,2.253688097000122,2026-04-11T19:15:40.265-05:00
1775952940275690800,5.199690673828125,0.7127135396003723,-0.0597674585878849,2.617467164993286,2026-04-11T19:15:40.275-05:00
1775952940285747700,5.209747802734375,0.6615904569625854,-0.26229527592658997,3.0543272495269775,2026-04-11T19:15:40.285-05:00
1775952940295804700,5.2198046875,0.6173151135444641,-0.4445095360279083,3.7285778522491455,2026-04-11T19:15:40.295-05:00
1775952940305860900,5.22986083984375,0.5713819861412048,-2.101151704788208,4.890749454498291,2026-04-11T19:15:40.305-05:00
1775952940315917800,5.239917724609375,0.0910596027970314,-5.791127681732178,5.062880039215088,2026-04-11T19:15:40.315-05:00
1775952940325974800,5.249974853515625,-0.8347193598747253,-8.02338695526123,3.8035056591033936,2026-04-11T19:15:40.325-05:00
1775952940336030700,5.26003076171875,-1.4744924306869507,-7.242596626281738,1.9072837829589844,2026-04-11T19:15:40.336-05:00
1775952940346087700,5.270087646484375,-1.4570708274841309,-4.575096130371094,-0.14358831942081451,2026-04-11T19:15:40.346-05:00
1775952940356145000,5.280144775390625,-0.9813538193702698,-1.5925101041793823,-2.1069936752319336,2026-04-11T19:15:40.356-05:00
1775952940366200800,5.290200927734375,-0.4480552673339844,0.8544107675552368,-3.6916987895965576,2026-04-11T19:15:40.366-05:00
1775952940376258000,5.300258056640625,-0.2210085391998291,2.285040855407715,-4.789970874786377,2026-04-11T19:15:40.376-05:00
1775952940386313700,5.310313720703125,-0.26011812686920166,2.9688918590545654,-5.48862886428833,2026-04-11T19:15:40.386-05:00
1775952940396371000,5.320370849609375,-0.5404520630836487,3.2460873126983643,-5.894291400909424,2026-04-11T19:15:40.396-05:00
1775952940406428000,5.330427978515625,-0.9991698265075684,3.2227323055267334,-6.051234245300293,2026-04-11T19:15:40.406-05:00
1775952940416483800,5.34048388671875,-1.5020326375961304,2.9600610733032227,-5.985049724578857,2026-04-11T19:15:40.416-05:00
1775952940426540800,5.350540771484375,-1.9819936752319336,2.628113269805908,-5.7653961181640625,2026-04-11T19:15:40.426-05:00
1775952940436597800,5.36059765625,-2.3352718353271484,2.3153858184814453,-5.415205001831055,2026-04-11T19:15:40.436-05:00
1775952940446654000,5.370654052734375,-2.4948770999908447,1.9759196043014526,-4.975155353546143,2026-04-11T19:15:40.446-05:00
1775952940456711000,5.3807109375,-2.407763957977295,1.4319113492965698,-4.33292818069458,2026-04-11T19:15:40.456-05:00
1775952940466768000,5.390767822265625,-2.039398431777954,0.19612742960453033,-3.1982438564300537,2026-04-11T19:15:40.466-05:00
1775952940476823800,5.40082373046875,-1.60402250289917,-1.5093028545379639,-1.7678531408309937,2026-04-11T19:15:40.476-05:00
1775952940486880800,5.410880859375,-1.3361515998840332,-2.5574405193328857,-0.926281750202179,2026-04-11T19:15:40.486-05:00
1775952940496937700,5.420937744140625,-1.0806928873062134,-3.0591866970062256,-0.48456934094429016,2026-04-11T19:15:40.496-05:00
1775952940506994000,5.430993896484375,-0.8188480138778687,-3.2884154319763184,-0.2419005185365677,2026-04-11T19:15:40.506-05:00
1775952940517051000,5.44105078125,-0.6325468420982361,-3.376063346862793,-0.1445302814245224,2026-04-11T19:15:40.517-05:00
1775952940527106800,5.45110693359375,-0.6148328185081482,-3.9983551502227783,-0.6277145147323608,2026-04-11T19:15:40.527-05:00
1775952940537163800,5.461163818359375,-0.8793760538101196,-5.465138912200928,-2.020052194595337,2026-04-11T19:15:40.537-05:00
1775952940547220700,5.471220703125,-0.9227861166000366,-4.704943656921387,-2.750765562057495,2026-04-11T19:15:40.547-05:00
1775952940557276700,5.481276611328125,-0.8661867380142212,-1.9528677463531494,-2.805032730102539,2026-04-11T19:15:40.557-05:00
1775952940567333600,5.491333740234375,-0.8964647650718689,0.29912784695625305,-2.7653980255126953,2026-04-11T19:15:40.567-05:00
1775952940577390800,5.501390869140625,-1.052836298942566,1.4498555660247803,-2.7704379558563232,2026-04-11T19:15:40.577-05:00
1775952940587446800,5.51144677734375,-1.2196571826934814,1.6172617673873901,-2.8415026664733887,2026-04-11T19:15:40.587-05:00
1775952940597504000,5.52150390625,-1.4119797945022583,1.1713941097259521,-3.0086464881896973,2026-04-11T19:15:40.597-05:00
1775952940607561000,5.53156103515625,-1.65311598777771,0.5079748034477234,-3.0904006958007812,2026-04-11T19:15:40.607-05:00
1775952940617617000,5.541616943359375,-1.9285142421722412,0.16656820476055145,-3.0542428493499756,2026-04-11T19:15:40.617-05:00
1775952940627673900,5.551673828125,-2.2480664253234863,0.5713284611701965,-2.929217576980591,2026-04-11T19:15:40.627-05:00
1775952940637730800,5.561730712890625,-2.575814962387085,0.999724805355072,-2.758504629135132,2026-04-11T19:15:40.637-05:00
1775952940647787000,5.571787109375,-2.834742307662964,0.8650671243667603,-2.6094589233398438,2026-04-11T19:15:40.647-05:00
1775952940657844000,5.581843994140625,-3.0100395679473877,0.26254719495773315,-2.570787191390991,2026-04-11T19:15:40.657-05:00
1775952940667900000,5.59189990234375,-3.055828094482422,-0.27112019062042236,-2.4540998935699463,2026-04-11T19:15:40.667-05:00
1775952940677956900,5.601956787109375,-2.7521636486053467,-0.8672011494636536,-2.140723466873169,2026-04-11T19:15:40.677-05:00
1775952940688013800,5.612013916015625,-2.304753303527832,-1.6458172798156738,-1.612695336341858,2026-04-11T19:15:40.688-05:00
1775952940698069800,5.62206982421875,-2.0315964221954346,-2.2817931175231934,-1.0894116163253784,2026-04-11T19:15:40.698-05:00
1775952940708126700,5.632126708984375,-1.7661879062652588,-2.516768455505371,-0.8350335955619812,2026-04-11T19:15:40.708-05:00
1775952940718183700,5.64218359375,-1.501592755317688,-2.384983539581299,-0.8057737350463867,2026-04-11T19:15:40.718-05:00
1775952940728239900,5.652239990234375,-1.3068344593048096,-1.9763736724853516,-0.9141345620155334,2026-04-11T19:15:40.728-05:00
1775952940738296800,5.662296875,-1.2092623710632324,-1.4311656951904297,-1.0868115425109863,2026-04-11T19:15:40.738-05:00
1775952940748353800,5.672353759765625,-1.1519737243652344,-0.8999178409576416,-1.241579532623291,2026-04-11T19:15:40.748-05:00
1775952940758409700,5.68240966796875,-1.1073415279388428,-0.5436187982559204,-1.2537368535995483,2026-04-11T19:15:40.758-05:00
1775952940768466700,5.692466796875,-1.0603770017623901,-0.4470302164554596,-1.120380163192749,2026-04-11T19:15:40.768-05:00
1775952940778523600,5.702523681640625,-0.9957255721092224,-0.5844908952713013,-0.9378902316093445,2026-04-11T19:15:40.778-05:00
1775952940788579800,5.712579833984375,-0.9171460866928101,-0.7563127279281616,-0.7516777515411377,2026-04-11T19:15:40.788-05:00
1775952940798636800,5.72263671875,-0.841317355632782,-0.8001382350921631,-0.5580970644950867,2026-04-11T19:15:40.798-05:00
1775952940808694000,5.732694091796875,-0.7695286273956299,-0.6844307780265808,-0.3338562548160553,2026-04-11T19:15:40.808-05:00
1775952940818750000,5.74275,-0.6664078831672668,-0.4515072703361511,-0.14977671205997467,2026-04-11T19:15:40.818-05:00
1775952940828807000,5.752806884765625,-0.5398549437522888,-0.15200337767601013,0.00023968449386302382,2026-04-11T19:15:40.828-05:00
1775952940838862800,5.76286279296875,-0.4219086170196533,0.13411866128444672,0.1546926349401474,2026-04-11T19:15:40.838-05:00
1775952940848919800,5.772919921875,-0.2909082770347595,0.32019132375717163,0.2993946969509125,2026-04-11T19:15:40.848-05:00
1775952940858976800,5.782976806640625,-0.1622685343027115,0.39054858684539795,0.4293007552623749,2026-04-11T19:15:40.858-05:00
1775952940869033000,5.793032958984375,-0.04896035045385361,0.4173343777656555,0.564262866973877,2026-04-11T19:15:40.869-05:00
1775952940879090000,5.80308984375,0.0716845691204071,0.49181419610977173,0.7043541669845581,2026-04-11T19:15:40.879-05:00
1775952940889147000,5.81314697265625,0.21705055236816406,0.5823196172714233,0.8442977070808411,2026-04-11T19:15:40.889-05:00
1775952940899202800,5.823202880859375,0.37062013149261475,0.6922208070755005,0.9965106844902039,2026-04-11T19:15:40.899-05:00
1775952940909259800,5.833259765625,0.5342729687690735,0.864171028137207,1.14137601852417,2026-04-11T19:15:40.909-05:00
1775952940919316700,5.843316650390625,0.7062162756919861,1.0000039339065552,1.2267377376556396,2026-04-11T19:15:40.919-05:00
1775952940929373000,5.853373046875,0.8695876002311707,0.9342755079269409,1.287520408630371,2026-04-11T19:15:40.929-05:00
1775952940939430000,5.863429931640625,1.0293176174163818,0.7844950556755066,1.3392794132232666,2026-04-11T19:15:40.939-05:00
1775952940949485800,5.87348583984375,1.1957364082336426,0.6937771439552307,1.319577932357788,2026-04-11T19:15:40.949-05:00
1775952940959542800,5.883542724609375,1.298507571220398,0.7058966755867004,1.2483497858047485,2026-04-11T19:15:40.959-05:00
1775952940969599700,5.893599853515625,1.3657430410385132,0.8332008123397827,1.1955978870391846,2026-04-11T19:15:40.969-05:00
1775952940979655700,5.90365576171875,1.4237935543060303,1.0346447229385376,1.1649566888809204,2026-04-11T19:15:40.979-05:00
1775952940989712600,5.913712646484375,1.4658241271972656,1.1770274639129639,1.1553168296813965,2026-04-11T19:15:40.989-05:00
1775952940999769900,5.923769775390625,1.4792791604995728,1.231126070022583,1.1428860425949097,2026-04-11T19:15:40.999-05:00
1775952941009825800,5.93382568359375,1.4456501007080078,1.4786810874938965,1.195396900177002,2026-04-11T19:15:41.009-05:00
1775952941019882800,5.9438828125,1.3516371250152588,2.022123098373413,1.3568248748779297,2026-04-11T19:15:41.019-05:00
1775952941029940000,5.95393994140625,1.2103824615478516,2.519526720046997,1.519990086555481,2026-04-11T19:15:41.029-05:00
1775952941039995600,5.96399560546875,1.0351682901382446,2.5977509021759033,1.6113189458847046,2026-04-11T19:15:41.039-05:00
1775952941050052900,5.974052978515625,0.8191715478897095,2.149407386779785,1.5520063638687134,2026-04-11T19:15:41.050-05:00
1775952941060109800,5.98410986328125,0.6190941333770752,1.4150078296661377,1.2718455791473389,2026-04-11T19:15:41.060-05:00
1775952941070166000,5.994166015625,0.40872758626937866,0.895405113697052,0.8056309819221497,2026-04-11T19:15:41.070-05:00
1775952941080223000,6.004222900390625,0.13644838333129883,1.4574865102767944,0.344340056180954,2026-04-11T19:15:41.080-05:00
1775952941090280000,6.014280029296875,-0.18427583575248718,2.799509048461914,0.07466118782758713,2026-04-11T19:15:41.090-05:00
1775952941100332300,6.024332275390625,-0.4889630377292633,3.5766680240631104,-0.026256637647747993,2026-04-11T19:15:41.100-05:00
1775952941110389200,6.03438916015625,-0.7323336005210876,3.2131218910217285,-0.04452192783355713,2026-04-11T19:15:41.110-05:00
1775952941120445200,6.044445068359375,-0.9243161082267761,2.339977979660034,-0.1252969354391098,2026-04-11T19:15:41.120-05:00
1775952941130502400,6.05450244140625,-0.9470821022987366,1.9310530424118042,-0.3434617519378662,2026-04-11T19:15:41.130-05:00
1775952941140559400,6.064559326171875,-0.7732839584350586,2.213073492050171,-0.6669186353683472,2026-04-11T19:15:41.140-05:00
1775952941150615300,6.074615234375,-0.5123623609542847,2.5730485916137695,-0.9508020281791687,2026-04-11T19:15:41.150-05:00
1775952941160672300,6.08467236328125,-0.3478056490421295,2.5797996520996094,-1.0587042570114136,2026-04-11T19:15:41.160-05:00
1775952941170729500,6.0947294921875,-0.2440592646598816,2.4618847370147705,-0.9518294930458069,2026-04-11T19:15:41.170-05:00
1775952941180785200,6.10478515625,-0.11975036561489105,2.3160712718963623,-0.6402231454849243,2026-04-11T19:15:41.180-05:00
1775952941190842400,6.11484228515625,0.03889040648937225,1.884452223777771,-0.20036451518535614,2026-04-11T19:15:41.190-05:00
1775952941200899300,6.1248994140625,0.08991657197475433,1.0114177465438843,0.3131565749645233,2026-04-11T19:15:41.200-05:00
1775952941210955500,6.13495556640625,-0.018073009327054024,-0.31273049116134644,0.758159339427948,2026-04-11T19:15:41.210-05:00
1775952941221012500,6.145012451171875,-0.3288266360759735,-1.3522149324417114,1.1930445432662964,2026-04-11T19:15:41.221-05:00
1775952941231068400,6.155068359375,-0.8979401588439941,-1.4573347568511963,1.5813679695129395,2026-04-11T19:15:41.231-05:00
1775952941241125400,6.16512548828125,-1.6790636777877808,0.19144479930400848,1.709533929824829,2026-04-11T19:15:41.241-05:00
1775952941251182300,6.175182373046875,-2.547513246536255,1.4066784381866455,1.595655083656311,2026-04-11T19:15:41.251-05:00
1775952941261238300,6.18523828125,-3.499685287475586,0.5505816340446472,1.3454118967056274,2026-04-11T19:15:41.261-05:00
1775952941271295500,6.19529541015625,-4.129367351531982,-0.5031946897506714,0.5191907286643982,2026-04-11T19:15:41.271-05:00
1775952941281352400,6.2053525390625,-3.760901689529419,-0.7327240109443665,-1.0211387872695923,2026-04-11T19:15:41.281-05:00
1775952941291408400,6.215408447265625,-2.6427245140075684,-0.25200241804122925,-2.259965181350708,2026-04-11T19:15:41.291-05:00
1775952941301465300,6.22546533203125,-2.089923620223999,-0.322776198387146,-2.629715919494629,2026-04-11T19:15:41.301-05:00
1775952941311522300,6.235522216796875,-1.6965627670288086,-1.281025767326355,-2.4853692054748535,2026-04-11T19:15:41.311-05:00
1775952941321578200,6.245578125,-1.1579986810684204,-2.3097774982452393,-2.0993001461029053,2026-04-11T19:15:41.321-05:00
1775952941331635200,6.25563525390625,-0.6149915456771851,-3.0112619400024414,-1.6196714639663696,2026-04-11T19:15:41.331-05:00
1775952941341692200,6.265692138671875,-0.1573009341955185,-3.638996124267578,-1.0910496711730957,2026-04-11T19:15:41.341-05:00
1775952941351748400,6.275748291015625,0.21679942309856415,-3.9964470863342285,-0.612906813621521,2026-04-11T19:15:41.351-05:00
1775952941361805300,6.285805419921875,0.5207188129425049,-3.9049344062805176,-0.26033836603164673,2026-04-11T19:15:41.361-05:00
1775952941371861200,6.295861328125,0.6973758935928345,-3.3065855503082275,0.060990117490291595,2026-04-11T19:15:41.371-05:00
1775952941381918200,6.305918212890625,0.6624706387519836,-2.0654845237731934,0.4363959729671478,2026-04-11T19:15:41.381-05:00
1775952941391975400,6.315975341796875,0.4469772279262543,-0.272459477186203,0.7742410898208618,2026-04-11T19:15:41.391-05:00
1775952941402031400,6.32603125,0.05344511568546295,2.502084493637085,0.7494348287582397,2026-04-11T19:15:41.402-05:00
1775952941412088300,6.33608837890625,-0.48971325159072876,4.1695146560668945,-0.3097352087497711,2026-04-11T19:15:41.412-05:00
1775952941422145500,6.3461455078125,-1.1050784587860107,2.642008066177368,-1.133177399635315,2026-04-11T19:15:41.422-05:00
1775952941432201500,6.356201416015625,-1.5586227178573608,-0.9335806965827942,-1.229777216911316,2026-04-11T19:15:41.432-05:00
1775952941442258400,6.366258544921875,-1.6309150457382202,-3.254218816757202,-1.3168548345565796,2026-04-11T19:15:41.442-05:00
1775952941452315400,6.3763154296875,-1.3949403762817383,-2.8226077556610107,-1.2755721807479858,2026-04-11T19:15:41.452-05:00
1775952941462371300,6.386371337890625,-1.0533156394958496,-1.6242635250091553,-0.7053605914115906,2026-04-11T19:15:41.462-05:00
1775952941472428300,6.39642822265625,-0.7552725076675415,-1.2190159559249878,-0.3574894368648529,2026-04-11T19:15:41.472-05:00
1775952941482485200,6.4064853515625,-0.552750825881958,-0.5900752544403076,-0.6088449358940125,2026-04-11T19:15:41.482-05:00
1775952941492541400,6.41654150390625,-0.46140941977500916,0.12870365381240845,-0.9696923494338989,2026-04-11T19:15:41.492-05:00
1775952941502598400,6.426598388671875,-0.5233843922615051,0.5973036289215088,-0.8443991541862488,2026-04-11T19:15:41.502-05:00
1775952941512654300,6.436654296875,-0.725801408290863,0.7770166397094727,-0.5702749490737915,2026-04-11T19:15:41.512-05:00
1775952941522711300,6.446711181640625,-0.9784001111984253,0.48670440912246704,-0.4652598202228546,2026-04-11T19:15:41.522-05:00
1775952941532768300,6.456768310546875,-1.0748469829559326,-0.022469889372587204,-0.40904876589775085,2026-04-11T19:15:41.532-05:00
1775952941542824200,6.46682421875,-0.9684678316116333,-0.24414102733135223,-0.350868284702301,2026-04-11T19:15:41.542-05:00
1775952941552881400,6.47688134765625,-0.8146838545799255,-0.39666879177093506,-0.30941057205200195,2026-04-11T19:15:41.552-05:00
1775952941562938400,6.4869384765625,-0.7248783707618713,-0.29863303899765015,-0.31294992566108704,2026-04-11T19:15:41.562-05:00
1775952941572994300,6.496994384765625,-0.7008143067359924,-0.22658893465995789,-0.23899607360363007,2026-04-11T19:15:41.572-05:00
1775952941583051300,6.50705126953125,-0.6809921264648438,-0.07039453834295273,-0.16047409176826477,2026-04-11T19:15:41.583-05:00
1775952941593108200,6.517108154296875,-0.6807668209075928,0.04959258809685707,-0.1079230010509491,2026-04-11T19:15:41.593-05:00
1775952941603164200,6.5271640625,-0.6760690212249756,0.007565774489194155,-0.11411219090223312,2026-04-11T19:15:41.603-05:00
1775952941613221000,6.53722119140625,-0.6812542080879211,0.07541752606630325,-0.15253201127052307,2026-04-11T19:15:41.613-05:00
1775952941623277300,6.54727734375,-0.679844856262207,-0.14426077902317047,-0.11418649554252625,2026-04-11T19:15:41.623-05:00
1775952941633334500,6.55733447265625,-0.5987736582756042,-0.30359742045402527,-0.13984312117099762,2026-04-11T19:15:41.633-05:00
1775952941643391500,6.5673916015625,-0.5098574161529541,-0.3466269373893738,-0.15980324149131775,2026-04-11T19:15:41.643-05:00
1775952941653447400,6.577447509765625,-0.4011998772621155,-0.23707672953605652,-0.25833940505981445,2026-04-11T19:15:41.653-05:00
1775952941663504400,6.58750439453125,-0.3809438943862915,-0.1212124451994896,-0.3135853409767151,2026-04-11T19:15:41.663-05:00
1775952941673561300,6.597561279296875,-0.38693174719810486,-0.34870100021362305,-0.25627413392066956,2026-04-11T19:15:41.673-05:00
1775952941683617300,6.6076171875,-0.379376620054245,-0.7028641104698181,-0.23331181704998016,2026-04-11T19:15:41.683-05:00
1775952941693674500,6.617674560546875,-0.36507678031921387,-0.803583562374115,-0.2082163244485855,2026-04-11T19:15:41.693-05:00
1775952941703731500,6.6277314453125,-0.2851121723651886,-0.6744570136070251,-0.23501038551330566,2026-04-11T19:15:41.703-05:00
1775952941713787400,6.637787353515625,-0.21265900135040283,-0.4435044825077057,-0.324312299489975,2026-04-11T19:15:41.713-05:00
1775952941723844400,6.64784423828125,-0.15183107554912567,-0.2510649859905243,-0.29450806975364685,2026-04-11T19:15:41.723-05:00
1775952941733901300,6.6579013671875,-0.12581226229667664,-0.09792336821556091,-0.30865663290023804,2026-04-11T19:15:41.733-05:00
1775952941743957200,6.667957275390625,-0.14885525405406952,0.027359984815120697,-0.282959520816803,2026-04-11T19:15:41.743-05:00
1775952941754014200,6.67801416015625,-0.21209947764873505,0.09906160086393356,-0.2836016118526459,2026-04-11T19:15:41.754-05:00
1775952941764070400,6.6880703125,-0.34631454944610596,0.090024434030056,-0.2738720178604126,2026-04-11T19:15:41.764-05:00
1775952941774127400,6.69812744140625,-0.43675893545150757,-0.022249113768339157,-0.23012055456638336,2026-04-11T19:15:41.774-05:00
1775952941784184300,6.708184326171875,-0.45872870087623596,-0.26251018047332764,-0.2291562259197235,2026-04-11T19:15:41.784-05:00
1775952941794240300,6.718240234375,-0.40473097562789917,-0.3353383243083954,-0.1622602790594101,2026-04-11T19:15:41.794-05:00
1775952941804297200,6.728297119140625,-0.3442476689815521,-0.2016873061656952,-0.17648261785507202,2026-04-11T19:15:41.804-05:00
1775952941814354200,6.738354248046875,-0.3413272202014923,-0.030552849173545837,-0.1977362483739853,2026-04-11T19:15:41.814-05:00
1775952941824410400,6.748410400390625,-0.3511817157268524,-0.002028263406828046,-0.23996253311634064,2026-04-11T19:15:41.824-05:00
1775952941834467300,6.75846728515625,-0.37217196822166443,-0.03201812133193016,-0.2353760302066803,2026-04-11T19:15:41.834-05:00
1775952941844524500,6.768524658203125,-0.376913458108902,-0.1811426281929016,-0.19654741883277893,2026-04-11T19:15:41.844-05:00
1775952941854580500,6.77858056640625,-0.33137738704681396,-0.2603681981563568,-0.2492561638355255,2026-04-11T19:15:41.854-05:00
1775952941864637400,6.788637451171875,-0.3255983293056488,-0.3517007827758789,-0.2770878076553345,2026-04-11T19:15:41.864-05:00
1775952941874693400,6.798693359375,-0.3038720190525055,-0.4122706353664398,-0.26438185572624207,2026-04-11T19:15:41.874-05:00
1775952941884750300,6.808750244140625,-0.2718040943145752,-0.2783264219760895,-0.29283612966537476,2026-04-11T19:15:41.884-05:00
1775952941894807300,6.818807373046875,-0.21679143607616425,-0.1378398835659027,-0.34173816442489624,2026-04-11T19:15:41.894-05:00
1775952941904863500,6.828863525390625,-0.20316269993782043,-0.06555770337581635,-0.3851764500141144,2026-04-11T19:15:41.904-05:00
1775952941914920400,6.83892041015625,-0.20575635135173798,0.006520750001072884,-0.3577834367752075,2026-04-11T19:15:41.914-05:00
1775952941924977400,6.848977294921875,-0.1986587643623352,-0.09779100865125656,-0.35973474383354187,2026-04-11T19:15:41.924-05:00
1775952941935033300,6.859033447265625,-0.1793290078639984,-0.15270885825157166,-0.4066756069660187,2026-04-11T19:15:41.935-05:00
1775952941945090300,6.86909033203125,-0.15064623951911926,-0.12787407636642456,-0.41388851404190063,2026-04-11T19:15:41.945-05:00
1775952941955147300,6.879147216796875,-0.16016677021980286,-0.06876761466264725,-0.4472845494747162,2026-04-11T19:15:41.955-05:00
1775952941965203500,6.889203369140625,-0.1467963606119156,-0.14910133183002472,-0.4532926380634308,2026-04-11T19:15:41.965-05:00
1775952941975260400,6.899260498046875,-0.10566943883895874,-0.23450997471809387,-0.4820510745048523,2026-04-11T19:15:41.975-05:00
1775952941985317400,6.9093173828125,-0.08879564702510834,-0.3211878836154938,-0.48449423909187317,2026-04-11T19:15:41.985-05:00
1775952941995373300,6.919373291015625,-0.08118140697479248,-0.3635641038417816,-0.4838782548904419,2026-04-11T19:15:41.995-05:00
1775952942005430300,6.92943017578125,-0.09305111318826675,-0.4184294641017914,-0.4989408254623413,2026-04-11T19:15:42.005-05:00
1775952942015486200,6.939486328125,-0.07403668016195297,-0.45775529742240906,-0.5066373944282532,2026-04-11T19:15:42.015-05:00
1775952942025543200,6.949543212890625,-0.07375731319189072,-0.4868902862071991,-0.4967855215072632,2026-04-11T19:15:42.025-05:00
1775952942035600100,6.95960009765625,-0.015430621802806854,-0.5032759308815002,-0.494851291179657,2026-04-11T19:15:42.035-05:00
1775952942045656300,6.96965625,0.05831044539809227,-0.29925382137298584,-0.5115165710449219,2026-04-11T19:15:42.045-05:00
1775952942055713300,6.97971337890625,0.12065744400024414,-0.203942209482193,-0.4510047435760498,2026-04-11T19:15:42.055-05:00
1775952942065770500,6.9897705078125,0.13865216076374054,-0.155952587723732,-0.46590885519981384,2026-04-11T19:15:42.065-05:00
1775952942075826200,6.999826171875,0.11278806626796722,-0.13033324480056763,-0.4547291696071625,2026-04-11T19:15:42.075-05:00
1775952942085883400,7.00988330078125,0.058759186416864395,-0.1250990629196167,-0.45036450028419495,2026-04-11T19:15:42.085-05:00
1775952942095940000,7.019940185546875,-0.040236104279756546,-0.1348869800567627,-0.4053288400173187,2026-04-11T19:15:42.095-05:00
1775952942105996300,7.029996337890625,-0.11108497530221939,-0.3460647463798523,-0.3694552779197693,2026-04-11T19:15:42.105-05:00
1775952942116053200,7.04005322265625,-0.15614646673202515,-0.4948182702064514,-0.32219722867012024,2026-04-11T19:15:42.116-05:00
1775952942126109200,7.050109130859375,-0.18034100532531738,-0.5240871906280518,-0.2833845615386963,2026-04-11T19:15:42.126-05:00
1775952942136166100,7.060166259765625,-0.18770411610603333,-0.4603292644023895,-0.2391265630722046,2026-04-11T19:15:42.136-05:00
1775952942146223000,7.07022314453125,-0.1882988065481186,-0.37546417117118835,-0.2495504468679428,2026-04-11T19:15:42.146-05:00
1775952942156279000,7.080279052734375,-0.17734496295452118,-0.3122047781944275,-0.2141415923833847,2026-04-11T19:15:42.156-05:00
1775952942166336000,7.0903359375,-0.18233944475650787,-0.18745431303977966,-0.1970648616552353,2026-04-11T19:15:42.166-05:00
1775952942176393000,7.10039306640625,-0.18128004670143127,0.025616679340600967,-0.18465985357761383,2026-04-11T19:15:42.176-05:00
1775952942186449200,7.11044921875,-0.16350556910037994,0.2812119722366333,-0.10166963934898376,2026-04-11T19:15:42.186-05:00
1775952942196506000,7.120506103515625,-0.1507658064365387,0.061234328895807266,0.016954481601715088,2026-04-11T19:15:42.196-05:00
1775952942206563300,7.130563232421875,-0.10884285718202591,-0.2279985398054123,-0.04914890229701996,2026-04-11T19:15:42.206-05:00
1775952942216619000,7.140618896484375,-0.16867557168006897,0.11923664808273315,0.05006316676735878,2026-04-11T19:15:42.216-05:00
1775952942226676200,7.15067626953125,-0.22136381268501282,0.4083036184310913,0.04451926425099373,2026-04-11T19:15:42.226-05:00
1775952942236733200,7.160733154296875,-0.17982596158981323,0.263006329536438,0.06363943219184875,2026-04-11T19:15:42.236-05:00
1775952942246789400,7.170789306640625,-0.09536539763212204,-0.08199047297239304,0.09069980680942535,2026-04-11T19:15:42.246-05:00
1775952942256846300,7.180846435546875,-0.07356849312782288,-0.25292494893074036,0.16587817668914795,2026-04-11T19:15:42.256-05:00
1775952942266902300,7.19090234375,-0.00012596751912496984,-0.28773751854896545,0.2665885388851166,2026-04-11T19:15:42.266-05:00
1775952942276959200,7.200959228515625,0.0788777694106102,-0.19143787026405334,0.2558583915233612,2026-04-11T19:15:42.276-05:00
1775952942287016200,7.21101611328125,0.12345482409000397,-0.08558627218008041,0.25873249769210815,2026-04-11T19:15:42.287-05:00
1775952942297072000,7.221072021484375,0.18008242547512054,-0.02593679167330265,0.22941294312477112,2026-04-11T19:15:42.297-05:00
1775952942307129000,7.231129150390625,0.250156044960022,-0.0024378576781600714,0.2346615046262741,2026-04-11T19:15:42.307-05:00
1775952942317186000,7.24118603515625,0.30148768424987793,0.019534552469849586,0.23084627091884613,2026-04-11T19:15:42.317-05:00
1775952942327242200,7.2512421875,0.4014366567134857,0.04589825123548508,0.25497210025787354,2026-04-11T19:15:42.327-05:00
1775952942337299200,7.26129931640625,0.4744535982608795,0.21033379435539246,0.310484379529953,2026-04-11T19:15:42.337-05:00
1775952942347356200,7.271356201171875,0.5337603092193604,0.461863249540329,0.34935879707336426,2026-04-11T19:15:42.347-05:00
1775952942357412000,7.281412109375,0.5226637125015259,0.5507004261016846,0.37039270997047424,2026-04-11T19:15:42.357-05:00
1775952942367469000,7.291468994140625,0.5735689997673035,0.502771258354187,0.4307553768157959,2026-04-11T19:15:42.367-05:00
1775952942377525200,7.301525146484375,0.6802133917808533,0.3477206826210022,0.4958299994468689,2026-04-11T19:15:42.377-05:00
1775952942387582200,7.311582275390625,0.7296699285507202,0.3026144504547119,0.5291022062301636,2026-04-11T19:15:42.387-05:00
1775952942397639200,7.32163916015625,0.7529581785202026,0.30410236120224,0.5597176551818848,2026-04-11T19:15:42.397-05:00
1775952942407695000,7.331695068359375,0.8384507298469543,0.3031010329723358,0.6186360716819763,2026-04-11T19:15:42.407-05:00
1775952942417752000,7.341751953125,0.8834834694862366,0.3105427026748657,0.6483303308486938,2026-04-11T19:15:42.417-05:00
1775952942427809300,7.351809326171875,0.9341831207275391,0.360922247171402,0.6781579852104187,2026-04-11T19:15:42.427-05:00
1775952942437865000,7.361864990234375,0.9926368594169617,0.4505125880241394,0.7011724710464478,2026-04-11T19:15:42.437-05:00
1775952942447922200,7.371922119140625,1.039086937904358,0.5732874870300293,0.7428877353668213,2026-04-11T19:15:42.447-05:00
1775952942457979100,7.381979248046875,1.1063586473464966,0.721987247467041,0.7681877613067627,2026-04-11T19:15:42.457-05:00
1775952942468035300,7.392035400390625,1.1475856304168701,0.8024280071258545,0.8080469965934753,2026-04-11T19:15:42.468-05:00
1775952942478092300,7.40209228515625,1.1796290874481201,0.7725297808647156,0.8654727339744568,2026-04-11T19:15:42.478-05:00
1775952942488148200,7.412148193359375,1.2217568159103394,0.7391627430915833,0.9491580724716187,2026-04-11T19:15:42.488-05:00
1775952942498205200,7.422205078125,1.2221235036849976,0.6694297194480896,1.020194172859192,2026-04-11T19:15:42.498-05:00
1775952942508262100,7.43226220703125,1.200796365737915,0.7041006088256836,1.023844599723816,2026-04-11T19:15:42.508-05:00
1775952942518318300,7.442318359375,1.1802189350128174,0.7602917551994324,1.0415785312652588,2026-04-11T19:15:42.518-05:00
1775952942528375300,7.452375244140625,1.2143197059631348,0.7456968426704407,1.030719518661499,2026-04-11T19:15:42.528-05:00
1775952942538432300,7.462432373046875,1.2933974266052246,0.7093747854232788,1.027066707611084,2026-04-11T19:15:42.538-05:00
1775952942548488200,7.47248828125,1.3884563446044922,0.6885507106781006,1.026006817817688,2026-04-11T19:15:42.548-05:00
1775952942558545200,7.482545166015625,1.4978113174438477,0.7389028072357178,1.042763113975525,2026-04-11T19:15:42.558-05:00
1775952942568602000,7.49260205078125,1.594772219657898,0.8403700590133667,1.0383870601654053,2026-04-11T19:15:42.568-05:00
1775952942578658000,7.502657958984375,1.720732569694519,0.9255502223968506,1.0159634351730347,2026-04-11T19:15:42.578-05:00
1775952942588715000,7.512715087890625,1.871086597442627,1.0131537914276123,0.9940248727798462,2026-04-11T19:15:42.588-05:00
1775952942598771200,7.522771240234375,1.9825116395950317,0.9653457999229431,0.9697424173355103,2026-04-11T19:15:42.598-05:00
1775952942608828200,7.532828125,2.0607433319091797,0.6514624357223511,0.9353530406951904,2026-04-11T19:15:42.608-05:00
1775952942618885000,7.542885009765625,2.0928986072540283,0.2811509668827057,0.9109598398208618,2026-04-11T19:15:42.618-05:00
1775952942628941000,7.552941162109375,2.1062042713165283,0.07220335304737091,0.9411704540252686,2026-04-11T19:15:42.628-05:00
1775952942638998000,7.562998046875,2.096583843231201,0.11130122095346451,0.9885222315788269,2026-04-11T19:15:42.638-05:00
1775952942649055000,7.573054931640625,2.0590169429779053,0.30543768405914307,1.0412616729736328,2026-04-11T19:15:42.649-05:00
1775952942659111200,7.583111083984375,1.9953513145446777,0.63068687915802,1.0705369710922241,2026-04-11T19:15:42.659-05:00
1775952942669168400,7.59316845703125,1.9134361743927002,1.0291165113449097,1.096538782119751,2026-04-11T19:15:42.669-05:00
1775952942679225300,7.603225341796875,1.7946555614471436,1.3874813318252563,1.150126576423645,2026-04-11T19:15:42.679-05:00
1775952942689281300,7.61328125,1.6775552034378052,1.6501715183258057,1.1652776002883911,2026-04-11T19:15:42.689-05:00
1775952942699338200,7.623338134765625,1.5737961530685425,1.7441353797912598,1.1536762714385986,2026-04-11T19:15:42.699-05:00
1775952942709395200,7.633395263671875,1.51542067527771,1.7440181970596313,1.1709916591644287,2026-04-11T19:15:42.709-05:00
1775952942719451100,7.643451171875,1.4793287515640259,1.5753381252288818,1.2238646745681763,2026-04-11T19:15:42.719-05:00
1775952942729508000,7.653508056640625,1.4893062114715576,1.3731352090835571,1.262194275856018,2026-04-11T19:15:42.729-05:00
1775952942739564300,7.663564208984375,1.5877283811569214,1.182698369026184,1.2277745008468628,2026-04-11T19:15:42.739-05:00
1775952942749621200,7.673621337890625,1.7439806461334229,1.0552432537078857,1.2286304235458374,2026-04-11T19:15:42.749-05:00
1775952942759678200,7.68367822265625,1.9168285131454468,0.9455103278160095,1.2595734596252441,2026-04-11T19:15:42.759-05:00
1775952942769734100,7.693734130859375,2.0969033241271973,0.8771309852600098,1.3172659873962402,2026-04-11T19:15:42.769-05:00
1775952942779791000,7.703791015625,2.2440288066864014,0.8644453287124634,1.321529746055603,2026-04-11T19:15:42.779-05:00
1775952942789848000,7.71384814453125,2.31463360786438,0.8194477558135986,1.2990281581878662,2026-04-11T19:15:42.789-05:00
1775952942799904300,7.723904296875,2.3036105632781982,0.7786025404930115,1.2732080221176147,2026-04-11T19:15:42.799-05:00
1775952942809961200,7.733961181640625,2.2097761631011963,0.7912701368331909,1.2738591432571411,2026-04-11T19:15:42.809-05:00
1775952942820018200,7.74401806640625,2.0626397132873535,0.7998969554901123,1.3132747411727905,2026-04-11T19:15:42.820-05:00
1775952942830074000,7.75407421875,1.8438951969146729,0.7053110599517822,1.393537163734436,2026-04-11T19:15:42.830-05:00
1775952942840131000,7.764131103515625,1.5862250328063965,0.5358152389526367,1.4906513690948486,2026-04-11T19:15:42.840-05:00
1775952942850187000,7.77418701171875,1.310551643371582,0.3699895143508911,1.5864474773406982,2026-04-11T19:15:42.850-05:00
1775952942860244000,7.784243896484375,1.0832431316375732,0.26983892917633057,1.63548743724823,2026-04-11T19:15:42.860-05:00
1775952942870301200,7.79430126953125,0.9451340436935425,0.3479350805282593,1.6287280321121216,2026-04-11T19:15:42.870-05:00
1775952942880357000,7.804357177734375,0.9338467717170715,0.5399460792541504,1.5436052083969116,2026-04-11T19:15:42.880-05:00
1775952942890414300,7.814414306640625,0.9929527044296265,0.8921248912811279,1.4101653099060059,2026-04-11T19:15:42.890-05:00
1775952942900471300,7.82447119140625,1.0632244348526,1.2563039064407349,1.2791637182235718,2026-04-11T19:15:42.900-05:00
1775952942910527200,7.83452734375,1.1056952476501465,1.6086105108261108,1.1564630270004272,2026-04-11T19:15:42.910-05:00
1775952942920584200,7.844584228515625,1.0771948099136353,2.03995943069458,1.0295718908309937,2026-04-11T19:15:42.920-05:00
1775952942930641200,7.85464111328125,0.9568881392478943,2.5747885704040527,0.9004291296005249,2026-04-11T19:15:42.930-05:00
1775952942940697300,7.864697265625,0.7442699074745178,3.0964765548706055,0.7856828570365906,2026-04-11T19:15:42.940-05:00
1775952942950754300,7.87475439453125,0.4624786972999573,3.472313642501831,0.6984456777572632,2026-04-11T19:15:42.950-05:00
1775952942960811300,7.884811279296875,0.15423457324504852,3.705401659011841,0.6141656637191772,2026-04-11T19:15:42.960-05:00
1775952942970867200,7.8948671875,-0.11081519722938538,3.789867877960205,0.4964696764945984,2026-04-11T19:15:42.970-05:00
1775952942980924200,7.904924072265625,-0.30475643277168274,3.7287182807922363,0.3201620280742645,2026-04-11T19:15:42.980-05:00
1775952942990980000,7.91497998046875,-0.360249787569046,3.5570340156555176,0.06594652682542801,2026-04-11T19:15:42.990-05:00
1775952943001037000,7.925037109375,-0.2964223325252533,3.3194894790649414,-0.21415597200393677,2026-04-11T19:15:43.001-05:00
1775952943011094300,7.93509423828125,-0.13290025293827057,2.86867618560791,-0.47524455189704895,2026-04-11T19:15:43.011-05:00
1775952943021150200,7.945150146484375,0.05754958093166351,2.1222727298736572,-0.7265952825546265,2026-04-11T19:15:43.021-05:00
1775952943031207200,7.955207275390625,0.22382749617099762,1.0854616165161133,-0.9288445115089417,2026-04-11T19:15:43.031-05:00
1775952943041264000,7.96526416015625,0.3303651213645935,-0.11053423583507538,-1.0742933750152588,2026-04-11T19:15:43.041-05:00
1775952943051320000,7.975320068359375,0.383073091506958,-1.294258713722229,-1.1600260734558105,2026-04-11T19:15:43.051-05:00
1775952943061377000,7.985376953125,0.3921874761581421,-2.3381242752075195,-1.1931824684143066,2026-04-11T19:15:43.061-05:00
1775952943071434000,7.99543408203125,0.41805875301361084,-3.265211343765259,-1.156089186668396,2026-04-11T19:15:43.071-05:00
1775952943081490200,8.005490234375,0.4786318242549896,-4.037184238433838,-1.0417723655700684,2026-04-11T19:15:43.081-05:00
1775952943091547100,8.015547119140624,0.5437272191047668,-4.694014072418213,-0.8309065103530884,2026-04-11T19:15:43.091-05:00
1775952943101603600,8.025603515625,0.5864195227622986,-5.220640659332275,-0.5527443885803223,2026-04-11T19:15:43.101-05:00
1775952943111660500,8.03566064453125,0.5433580875396729,-5.63611364364624,-0.2717873156070709,2026-04-11T19:15:43.111-05:00
1775952943121717500,8.045717529296875,0.42672497034072876,-5.884698390960693,-0.03112116828560829,2026-04-11T19:15:43.121-05:00
1775952943131773400,8.0557734375,0.270099937915802,-5.986950874328613,0.1853853017091751,2026-04-11T19:15:43.131-05:00
1775952943141830400,8.065830322265626,0.12549640238285065,-5.988619327545166,0.4127199351787567,2026-04-11T19:15:43.141-05:00
1775952943151887400,8.075887451171875,0.027689417824149132,-5.855048179626465,0.6546584963798523,2026-04-11T19:15:43.151-05:00
1775952943161943600,8.085943603515625,-0.03531990572810173,-5.575891971588135,0.9122527837753296,2026-04-11T19:15:43.161-05:00
1775952943172000500,8.09600048828125,-0.1343093365430832,-5.154400825500488,1.1905086040496826,2026-04-11T19:15:43.172-05:00
1775952943182057500,8.106057373046875,-0.24595357477664948,-4.652806758880615,1.4802312850952148,2026-04-11T19:15:43.182-05:00
1775952943192113400,8.116113525390626,-0.3245578408241272,-4.09367561340332,1.7322148084640503,2026-04-11T19:15:43.192-05:00
1775952943202170600,8.126170654296875,-0.3379199802875519,-3.2549164295196533,1.823771357536316,2026-04-11T19:15:43.202-05:00
1775952943212226600,8.1362265625,-0.3253770172595978,-2.151656150817871,1.7411246299743652,2026-04-11T19:15:43.212-05:00
1775952943222283800,8.14628369140625,-0.30130764842033386,-0.6446764469146729,1.4456628561019897,2026-04-11T19:15:43.222-05:00
1775952943232340700,8.1563408203125,-0.3223431706428528,1.189031958580017,1.0433080196380615,2026-04-11T19:15:43.232-05:00
1775952943242396700,8.166396728515625,-0.388345330953598,3.101374864578247,0.6553938388824463,2026-04-11T19:15:43.242-05:00
1775952943252453600,8.17645361328125,-0.5172703266143799,4.596334934234619,0.3800993859767914,2026-04-11T19:15:43.252-05:00
1775952943262510600,8.186510498046875,-0.6769055128097534,5.346325874328613,0.29633045196533203,2026-04-11T19:15:43.262-05:00
1775952943272566500,8.19656640625,-0.7897071242332458,5.499356269836426,0.39602750539779663,2026-04-11T19:15:43.272-05:00
1775952943282623500,8.20662353515625,-0.8353116512298584,5.1039323806762695,0.6081498861312866,2026-04-11T19:15:43.282-05:00
1775952943292680400,8.216680419921875,-0.8400464653968811,4.334747791290283,0.8682413697242737,2026-04-11T19:15:43.292-05:00
1775952943302736600,8.226736572265626,-0.8191260099411011,3.3300817012786865,1.103405475616455,2026-04-11T19:15:43.302-05:00
1775952943312793600,8.236793701171875,-0.7605031728744507,2.13785457611084,1.3248933553695679,2026-04-11T19:15:43.312-05:00
1775952943322849500,8.246849609375,-0.688148558139801,0.8220272660255432,1.4769654273986816,2026-04-11T19:15:43.322-05:00
1775952943332906500,8.256906494140624,-0.5887173414230347,-0.3567591905593872,1.5867910385131836,2026-04-11T19:15:43.332-05:00
1775952943342963500,8.26696337890625,-0.44319313764572144,-1.294534683227539,1.6799994707107544,2026-04-11T19:15:43.342-05:00
1775952943353019600,8.27701953125,-0.2776164412498474,-1.9476664066314697,1.761291742324829,2026-04-11T19:15:43.353-05:00
1775952943363076600,8.28707666015625,-0.11716444045305252,-2.3989415168762207,1.8213387727737427,2026-04-11T19:15:43.363-05:00
1775952943373133600,8.297133544921875,0.04463164880871773,-2.73492169380188,1.8539677858352661,2026-04-11T19:15:43.373-05:00
1775952943383189500,8.307189453125,0.20740458369255066,-3.051072835922241,1.8452638387680054,2026-04-11T19:15:43.383-05:00
1775952943393246500,8.31724658203125,0.35965991020202637,-3.4968888759613037,1.775281310081482,2026-04-11T19:15:43.393-05:00
1775952943403303400,8.327303466796875,0.43976619839668274,-3.1531291007995605,1.9943585395812988,2026-04-11T19:15:43.403-05:00
1775952943413359400,8.337359375,0.41566991806030273,-1.5613445043563843,2.196678638458252,2026-04-11T19:15:43.413-05:00
1775952943423416300,8.347416259765625,0.4765058159828186,-0.7320348024368286,1.7882434129714966,2026-04-11T19:15:43.423-05:00
1775952943433473500,8.3574736328125,0.568827748298645,-0.45530787110328674,1.1473028659820557,2026-04-11T19:15:43.433-05:00
1775952943443529700,8.36752978515625,0.5926913022994995,-0.3122897148132324,0.4465053081512451,2026-04-11T19:15:43.443-05:00
1775952943453586700,8.377586669921875,0.5536413788795471,-0.16238544881343842,-0.22557586431503296,2026-04-11T19:15:43.453-05:00
1775952943463642600,8.387642578125,0.4520907700061798,0.017727065831422806,-0.7978926301002502,2026-04-11T19:15:43.463-05:00
1775952943473699600,8.397699462890625,0.30070576071739197,0.14670155942440033,-1.2112466096878052,2026-04-11T19:15:43.473-05:00
1775952943483756500,8.407756591796876,0.1261797696352005,0.13065548241138458,-1.4436777830123901,2026-04-11T19:15:43.483-05:00
1775952943493812700,8.417812744140624,-0.05716129019856453,0.0181137565523386,-1.5481163263320923,2026-04-11T19:15:43.493-05:00
1775952943503869700,8.42786962890625,-0.19231005012989044,-0.10535918176174164,-1.531838297843933,2026-04-11T19:15:43.503-05:00
1775952943513926700,8.4379267578125,-0.260127991437912,-0.1617279201745987,-1.4686726331710815,2026-04-11T19:15:43.513-05:00
1775952943523982600,8.447982666015625,-0.24591895937919617,-0.12354643642902374,-1.4119256734848022,2026-04-11T19:15:43.523-05:00
1775952943534039600,8.45803955078125,-0.17163459956645966,-0.046672698110342026,-1.3655451536178589,2026-04-11T19:15:43.534-05:00
1775952943544096500,8.468096435546874,-0.11338061839342117,0.03977164626121521,-1.3165438175201416,2026-04-11T19:15:43.544-05:00
1775952943554152400,8.47815234375,-0.07553044706583023,0.16122138500213623,-1.2528654336929321,2026-04-11T19:15:43.554-05:00
1775952943564209400,8.48820947265625,-0.09749166667461395,0.3145081400871277,-1.1780871152877808,2026-04-11T19:15:43.564-05:00
1775952943574265600,8.498265625,-0.1553371250629425,0.49696797132492065,-1.0849782228469849,2026-04-11T19:15:43.574-05:00
1775952943584322600,8.508322509765625,-0.23652225732803345,0.7100120782852173,-0.9731363654136658,2026-04-11T19:15:43.584-05:00
1775952943594379500,8.518379638671876,-0.30070844292640686,1.0647608041763306,-0.8410904407501221,2026-04-11T19:15:43.594-05:00
1775952943604435500,8.528435546875,-0.3134692311286926,1.5966631174087524,-0.6949859857559204,2026-04-11T19:15:43.604-05:00
1775952943614492400,8.538492431640625,-0.26907965540885925,2.2275710105895996,-0.5656386613845825,2026-04-11T19:15:43.614-05:00
1775952943624549400,8.54854931640625,-0.20673240721225739,2.7368829250335693,-0.46463850140571594,2026-04-11T19:15:43.624-05:00
1775952943634605600,8.55860546875,-0.17876788973808289,2.8550760746002197,-0.42550042271614075,2026-04-11T19:15:43.634-05:00
1775952943644662500,8.56866259765625,-0.17296671867370605,2.4460296630859375,-0.4520108699798584,2026-04-11T19:15:43.644-05:00
1775952943654719700,8.5787197265625,-0.1748274713754654,1.7155598402023315,-0.538336992263794,2026-04-11T19:15:43.654-05:00
1775952943664775700,8.588775634765625,-0.13781937956809998,0.8915874361991882,-0.6905542016029358,2026-04-11T19:15:43.664-05:00
1775952943674832600,8.59883251953125,-0.06286738067865372,0.24862925708293915,-0.8754271268844604,2026-04-11T19:15:43.674-05:00
1775952943684888600,8.608888671875,0.04248008131980896,-0.14473667740821838,-1.1459859609603882,2026-04-11T19:15:43.684-05:00
1775952943694945500,8.618945556640625,0.07402548938989639,-0.21807268261909485,-1.464526653289795,2026-04-11T19:15:43.694-05:00
1775952943705002500,8.62900244140625,-0.012860937044024467,-0.06293608993291855,-1.8048231601715088,2026-04-11T19:15:43.705-05:00
1775952943715058700,8.63905859375,-0.12742187082767487,-0.006733536254614592,-2.008591651916504,2026-04-11T19:15:43.715-05:00
1775952943725115600,8.64911572265625,-0.23935718834400177,-0.4424991309642792,-2.0279345512390137,2026-04-11T19:15:43.725-05:00
1775952943735172600,8.659172607421874,-0.28838491439819336,-1.3055870532989502,-1.965973973274231,2026-04-11T19:15:43.735-05:00
1775952943745228500,8.669228515625,-0.22304560244083405,-2.1869566440582275,-1.8843982219696045,2026-04-11T19:15:43.745-05:00
1775952943755285500,8.679285400390626,-0.19158753752708435,-2.7919681072235107,-1.7130136489868164,2026-04-11T19:15:43.755-05:00
1775952943765342500,8.689342529296875,-0.2451985776424408,-3.0637924671173096,-1.4047825336456299,2026-04-11T19:15:43.765-05:00
1775952943775398700,8.699398681640625,-0.3477103114128113,-3.1919565200805664,-0.9791535139083862,2026-04-11T19:15:43.775-05:00
1775952943785455600,8.70945556640625,-0.474453330039978,-3.4071848392486572,-0.45787063241004944,2026-04-11T19:15:43.785-05:00
1775952943795511600,8.719511474609375,-0.6345532536506653,-3.791367292404175,0.16969183087348938,2026-04-11T19:15:43.795-05:00
1775952943805568500,8.729568603515625,-0.7838165163993835,-4.066982746124268,0.9425265192985535,2026-04-11T19:15:43.805-05:00
1775952943815625500,8.73962548828125,-0.8867335915565491,-3.7206673622131348,1.7353898286819458,2026-04-11T19:15:43.815-05:00
1775952943825681400,8.749681396484375,-0.8294156789779663,-2.3527185916900635,2.459953784942627,2026-04-11T19:15:43.825-05:00
1775952943835738400,8.75973828125,-0.5465685129165649,-0.5781392455101013,2.9907755851745605,2026-04-11T19:15:43.835-05:00
1775952943845795300,8.76979541015625,-0.21941012144088745,1.1655449867248535,3.2694833278656006,2026-04-11T19:15:43.845-05:00
1775952943855851500,8.7798515625,0.07661355286836624,2.3708958625793457,3.3854660987854004,2026-04-11T19:15:43.855-05:00
1775952943865908500,8.789908447265624,0.39000821113586426,2.6507139205932617,3.3084588050842285,2026-04-11T19:15:43.865-05:00
1775952943875965700,8.799965576171875,0.650337278842926,1.776542067527771,3.1273040771484375,2026-04-11T19:15:43.875-05:00
1775952943886021400,8.810021484375,0.9168043732643127,-1.3038032054901123,2.691498279571533,2026-04-11T19:15:43.886-05:00
1775952943896078600,8.82007861328125,1.212904691696167,-5.381710529327393,2.033332586288452,2026-04-11T19:15:43.896-05:00
1775952943906134800,8.830134765625,1.3280318975448608,-5.750510215759277,1.437196969985962,2026-04-11T19:15:43.906-05:00
1775952943916191700,8.840191650390626,1.410800576210022,-4.653317928314209,1.0009504556655884,2026-04-11T19:15:43.916-05:00
1775952943926248700,8.850248779296875,1.5829682350158691,-3.3903698921203613,0.8419677019119263,2026-04-11T19:15:43.926-05:00
1775952943936304600,8.8603046875,1.769696593284607,-2.2693190574645996,1.1358249187469482,2026-04-11T19:15:43.936-05:00
1775952943946361600,8.870361572265624,1.7767665386199951,-1.3856579065322876,1.8899774551391602,2026-04-11T19:15:43.946-05:00
1775952943956418600,8.88041845703125,1.5528956651687622,-0.7219443321228027,2.5780673027038574,2026-04-11T19:15:43.956-05:00
1775952943966474500,8.890474609375,1.0561600923538208,-0.33583447337150574,2.874405860900879,2026-04-11T19:15:43.966-05:00
1775952943976531500,8.900531494140624,0.42264020442962646,-0.24118278920650482,2.8402624130249023,2026-04-11T19:15:43.976-05:00
1775952943986588400,8.91058837890625,0.0006886934279464185,-0.5475810766220093,2.685811996459961,2026-04-11T19:15:43.986-05:00
1775952943996644600,8.92064453125,-0.09915614128112793,-1.2923282384872437,2.512007713317871,2026-04-11T19:15:43.996-05:00
1775952944006701600,8.93070166015625,-0.018079135566949844,-1.7161012887954712,2.175163745880127,2026-04-11T19:15:44.006-05:00
1775952944016757500,8.940757568359375,0.13254259526729584,-1.5244886875152588,1.6655467748641968,2026-04-11T19:15:44.016-05:00
1775952944026814500,8.950814453125,0.29910174012184143,-0.9412567019462585,1.0713835954666138,2026-04-11T19:15:44.026-05:00
1775952944036871400,8.960871337890625,0.43425530195236206,-0.2828732430934906,0.46753737330436707,2026-04-11T19:15:44.036-05:00
1775952944046927600,8.970927734375,0.4567691385746002,0.28824323415756226,-0.0995660051703453,2026-04-11T19:15:44.046-05:00
1775952944056984600,8.980984619140624,0.3369665741920471,0.7513906359672546,-0.5697335004806519,2026-04-11T19:15:44.056-05:00
1775952944067041500,8.99104150390625,0.11506134271621704,1.093729853630066,-0.9006009101867676,2026-04-11T19:15:44.067-05:00
1775952944077097500,9.001097412109376,-0.12298744171857834,1.3110276460647583,-1.0991361141204834,2026-04-11T19:15:44.077-05:00
1775952944087154400,9.011154541015625,-0.27349039912223816,1.4458866119384766,-1.1828986406326294,2026-04-11T19:15:44.087-05:00
1775952944097211100,9.021211181640625,-0.35235220193862915,1.467233657836914,-1.1676433086395264,2026-04-11T19:15:44.097-05:00
1775952944107267000,9.03126708984375,-0.3531721830368042,1.3942575454711914,-1.068739891052246,2026-04-11T19:15:44.107-05:00
1775952944117324300,9.04132421875,-0.3053037226200104,1.277066707611084,-0.916340708732605,2026-04-11T19:15:44.117-05:00
1775952944127380200,9.051380126953125,-0.22181788086891174,1.0932992696762085,-0.7139546275138855,2026-04-11T19:15:44.127-05:00
1775952944137437200,9.061437255859374,-0.11821692436933517,0.8680059313774109,-0.4723997712135315,2026-04-11T19:15:44.137-05:00
1775952944147494100,9.071494140625,0.005407548509538174,0.5842498540878296,-0.20927971601486206,2026-04-11T19:15:44.147-05:00
1775952944157550000,9.081550048828126,0.1558055728673935,0.19116249680519104,0.11447784304618835,2026-04-11T19:15:44.157-05:00
1775952944167607000,9.09160693359375,0.29700878262519836,-0.3876635730266571,0.5536693334579468,2026-04-11T19:15:44.167-05:00
1775952944177664000,9.1016640625,0.38209012150764465,-1.0707260370254517,1.1269572973251343,2026-04-11T19:15:44.177-05:00
1775952944187720200,9.11172021484375,0.39050596952438354,-1.3955222368240356,1.6706888675689697,2026-04-11T19:15:44.187-05:00
1775952944197777200,9.121777099609375,0.34878674149513245,-1.1890242099761963,2.0181796550750732,2026-04-11T19:15:44.197-05:00
1775952944207834000,9.131834228515626,0.3138410151004791,-0.8096531629562378,2.1490354537963867,2026-04-11T19:15:44.207-05:00
1775952944217890000,9.14189013671875,0.31248360872268677,-0.7499411106109619,2.11340594291687,2026-04-11T19:15:44.217-05:00
1775952944227947300,9.151947265625,0.348635733127594,-0.9630629420280457,1.8607370853424072,2026-04-11T19:15:44.227-05:00
1775952944238003000,9.1620029296875,0.37485775351524353,-0.9246718883514404,1.3803619146347046,2026-04-11T19:15:44.238-05:00
1775952944248060200,9.17206005859375,0.331558495759964,-0.4881395697593689,0.7492148280143738,2026-04-11T19:15:44.248-05:00
1775952944258117400,9.182117431640625,0.21887269616127014,0.07572165876626968,0.07336822152137756,2026-04-11T19:15:44.258-05:00
1775952944268173300,9.19217333984375,0.06306711584329605,0.47264423966407776,-0.5163105130195618,2026-04-11T19:15:44.268-05:00
1775952944278230300,9.202230224609375,-0.08413165807723999,0.7860255837440491,-0.937404990196228,2026-04-11T19:15:44.278-05:00
1775952944288287200,9.212287353515626,-0.1935950368642807,1.0261611938476562,-1.1930264234542847,2026-04-11T19:15:44.288-05:00
1775952944298343200,9.22234326171875,-0.268157422542572,1.1406878232955933,-1.289115071296692,2026-04-11T19:15:44.298-05:00
1775952944308400000,9.232400146484375,-0.29751718044281006,1.1037026643753052,-1.2307742834091187,2026-04-11T19:15:44.308-05:00
1775952944318457000,9.24245703125,-0.2485879808664322,0.9657266736030579,-1.0375773906707764,2026-04-11T19:15:44.318-05:00
1775952944328513300,9.25251318359375,-0.14446716010570526,0.8860312700271606,-0.7893942594528198,2026-04-11T19:15:44.328-05:00
1775952944338570200,9.2625703125,-0.04097699373960495,0.8355582356452942,-0.5236600041389465,2026-04-11T19:15:44.338-05:00
1775952944348626200,9.272626220703126,0.028082234784960747,0.7023613452911377,-0.23547697067260742,2026-04-11T19:15:44.348-05:00
1775952944358683100,9.28268310546875,0.034259434789419174,0.45789647102355957,0.04832412302494049,2026-04-11T19:15:44.358-05:00
1775952944368740000,9.292739990234375,0.02973286248743534,0.1594567745923996,0.31081727147102356,2026-04-11T19:15:44.368-05:00
1775952944378796000,9.302796142578124,0.04338236153125763,-0.0837356448173523,0.5209987163543701,2026-04-11T19:15:44.378-05:00
1775952944388853200,9.312853271484375,0.04254293441772461,-0.35272103548049927,0.6996155977249146,2026-04-11T19:15:44.388-05:00
1775952944398910200,9.32291015625,0.042203377932310104,-0.5940401554107666,0.8484929800033569,2026-04-11T19:15:44.398-05:00
1775952944408966100,9.332966064453124,0.10115804523229599,-0.6844515800476074,0.9435721039772034,2026-04-11T19:15:44.408-05:00
1775952944419023000,9.343023193359375,0.16259770095348358,-0.6123638153076172,0.9398676156997681,2026-04-11T19:15:44.419-05:00
1775952944429080000,9.353080078125,0.2338830679655075,-0.3941774070262909,0.824951171875,2026-04-11T19:15:44.429-05:00
1775952944439136000,9.363135986328125,0.25276196002960205,-0.20863071084022522,0.599915087223053,2026-04-11T19:15:44.439-05:00
1775952944449193000,9.37319287109375,0.251872181892395,0.04717230424284935,0.2768672704696655,2026-04-11T19:15:44.449-05:00
1775952944459249200,9.383249267578124,0.26908019185066223,0.2810378074645996,-0.0691031739115715,2026-04-11T19:15:44.459-05:00
1775952944469306400,9.393306396484375,0.21361401677131653,0.4367277920246124,-0.38363873958587646,2026-04-11T19:15:44.469-05:00
1775952944479363300,9.40336328125,0.1558913290500641,0.5474058389663696,-0.6047660708427429,2026-04-11T19:15:44.479-05:00
1775952944489419300,9.413419189453125,0.10182996094226837,0.5666477084159851,-0.6886100769042969,2026-04-11T19:15:44.489-05:00
1775952944499476200,9.423476318359375,0.031004788354039192,0.5760257840156555,-0.675005316734314,2026-04-11T19:15:44.499-05:00
1775952944509533200,9.433533203125,-0.014994129538536072,0.5543321967124939,-0.6028776168823242,2026-04-11T19:15:44.509-05:00
1775952944519589000,9.443589111328125,-0.09122046083211899,0.44560331106185913,-0.4722101390361786,2026-04-11T19:15:44.519-05:00
1775952944529646300,9.453646240234375,-0.1424921602010727,0.27559563517570496,-0.29364094138145447,2026-04-11T19:15:44.529-05:00
1775952944539703300,9.463703369140624,-0.11707495898008347,0.14415451884269714,-0.10139905661344528,2026-04-11T19:15:44.539-05:00
1775952944549759200,9.47375927734375,-0.06985738128423691,0.10095217823982239,0.07089787721633911,2026-04-11T19:15:44.549-05:00
1775952944559816200,9.483816162109376,-0.04089976102113724,0.04066513851284981,0.2205776423215866,2026-04-11T19:15:44.559-05:00
1775952944569872100,9.4938720703125,-0.022086126729846,-0.03290282189846039,0.3249565064907074,2026-04-11T19:15:44.569-05:00
1775952944579929000,9.50392919921875,0.0366581454873085,-0.038841936737298965,0.3529375493526459,2026-04-11T19:15:44.579-05:00
1775952944589986000,9.513986083984374,0.08309488743543625,-0.08344349265098572,0.3322597146034241,2026-04-11T19:15:44.589-05:00
1775952944600042200,9.524042236328125,0.1158006340265274,-0.18308965861797333,0.30223602056503296,2026-04-11T19:15:44.600-05:00
1775952944610099200,9.53409912109375,0.10324782878160477,-0.23939713835716248,0.2790484130382538,2026-04-11T19:15:44.610-05:00
1775952944620156200,9.54415625,0.04665086045861244,-0.23248730599880219,0.2836410403251648,2026-04-11T19:15:44.620-05:00
1775952944630212000,9.554212158203125,-0.0202203169465065,-0.14600886404514313,0.3024354875087738,2026-04-11T19:15:44.630-05:00
1775952944640269000,9.56426904296875,-0.047136884182691574,-0.16393300890922546,0.3422233760356903,2026-04-11T19:15:44.640-05:00
1775952944650325000,9.574324951171874,-0.025480059906840324,-0.12013812363147736,0.3304825723171234,2026-04-11T19:15:44.650-05:00
1775952944660382200,9.58438232421875,0.003975833300501108,-0.0658157616853714,0.2686293423175812,2026-04-11T19:15:44.660-05:00
1775952944670439200,9.594439208984374,0.10649874806404114,0.09394087642431259,0.21518954634666443,2026-04-11T19:15:44.670-05:00
1775952944680495000,9.6044951171875,0.5025622248649597,0.1905137598514557,0.30263763666152954,2026-04-11T19:15:44.680-05:00
1775952944690552300,9.61455224609375,1.0410211086273193,0.10248509794473648,0.34279516339302063,2026-04-11T19:15:44.690-05:00
1775952944700609300,9.624609375,1.1662988662719727,0.16353006660938263,0.12408573180437088,2026-04-11T19:15:44.700-05:00
1775952944710665200,9.634665283203125,0.6331151723861694,0.0031244205310940742,-0.3020285665988922,2026-04-11T19:15:44.710-05:00
1775952944720722200,9.64472216796875,-0.18613845109939575,-0.07081717997789383,-0.7455463409423828,2026-04-11T19:15:44.720-05:00
