time,seconds_elapsed,z,y,x,local_time
1775952935156857300,0.080857421875,-0.2747771143913269,0.28714630007743835,0.11001801490783691,2026-04-11T19:15:35.156-05:00
1775952935166914300,0.090914306640625,-0.3725811541080475,-0.11862437427043915,0.15228423476219177,2026-04-11T19:15:35.166-05:00
1775952935176971300,0.10097119140625,-0.3628184199333191,-0.3775482475757599,0.16226886212825775,2026-04-11T19:15:35.176-05:00
1775952935187027200,0.111027099609375,-0.5468151569366455,-0.6755639910697937,0.0967244803905487,2026-04-11T19:15:35.187-05:00
1775952935197084200,0.121084228515625,-0.7298165559768677,-1.0760955810546875,0.003205899614840746,2026-04-11T19:15:35.197-05:00
1775952935207141400,0.131141357421875,-0.8140465021133423,-1.2290353775024414,0.1268724501132965,2026-04-11T19:15:35.207-05:00
1775952935217197300,0.141197265625,-0.8682774305343628,-0.9881659150123596,0.5220322608947754,2026-04-11T19:15:35.217-05:00
1775952935227254500,0.151254638671875,-0.8211562633514404,-0.7678380608558655,0.9875682592391968,2026-04-11T19:15:35.227-05:00
1775952935237311500,0.1613115234375,-0.7391217350959778,-0.5769171118736267,1.4012211561203003,2026-04-11T19:15:35.237-05:00
1775952935247367400,0.171367431640625,-0.6814387440681458,-0.36385780572891235,1.6369322538375854,2026-04-11T19:15:35.247-05:00
1775952935257424400,0.18142431640625,-0.6976955533027649,-0.038495320826768875,1.724886417388916,2026-04-11T19:15:35.257-05:00
1775952935267480300,0.191480224609375,-0.7633491158485413,0.13186655938625336,1.6885251998901367,2026-04-11T19:15:35.267-05:00
1775952935277537300,0.201537353515625,-0.8023545145988464,0.01434980146586895,1.3542035818099976,2026-04-11T19:15:35.277-05:00
1775952935287594500,0.211594482421875,-0.8682410717010498,0.011902356520295143,0.8131986856460571,2026-04-11T19:15:35.287-05:00
1775952935297650400,0.221650390625,-0.85908442735672,-0.0676000714302063,0.3745574951171875,2026-04-11T19:15:35.297-05:00
1775952935307707400,0.231707275390625,-0.8062659502029419,-0.06851114332675934,-0.07623153179883957,2026-04-11T19:15:35.307-05:00
1775952935317764400,0.241764404296875,-0.6501197218894958,0.1805766522884369,-0.47169336676597595,2026-04-11T19:15:35.317-05:00
1775952935327820300,0.2518203125,-0.4276355504989624,0.5030383467674255,-0.7747390270233154,2026-04-11T19:15:35.327-05:00
1775952935337877200,0.261877197265625,-0.27486348152160645,0.6363838911056519,-1.034017562866211,2026-04-11T19:15:35.337-05:00
1775952935347933400,0.271933349609375,-0.14706581830978394,0.7936334013938904,-1.2369999885559082,2026-04-11T19:15:35.347-05:00
1775952935357990400,0.281990478515625,-0.06549861282110214,0.7258784174919128,-1.4317997694015503,2026-04-11T19:15:35.357-05:00
1775952935368047400,0.29204736328125,-0.10511500388383865,-0.17636089026927948,-1.295071005821228,2026-04-11T19:15:35.368-05:00
1775952935378103300,0.302103271484375,-0.18757839500904083,-0.6168758273124695,-0.9365708231925964,2026-04-11T19:15:35.378-05:00
1775952935388160300,0.31216015625,-0.17044015228748322,-0.6931447386741638,-0.7808747291564941,2026-04-11T19:15:35.388-05:00
1775952935398217200,0.32221728515625,-0.054224297404289246,-0.840210497379303,-0.6542226076126099,2026-04-11T19:15:35.398-05:00
1775952935408273200,0.332273193359375,0.016610730439424515,-0.9240209460258484,-0.5042791366577148,2026-04-11T19:15:35.408-05:00
1775952935418330400,0.342330322265625,0.025554457679390907,-0.929276168346405,-0.3414870500564575,2026-04-11T19:15:35.418-05:00
1775952935428387300,0.35238720703125,0.03517778962850571,-0.9142577648162842,-0.2051561027765274,2026-04-11T19:15:35.428-05:00
1775952935438443300,0.362443359375,0.03363838046789169,-1.1551457643508911,-0.14807303249835968,2026-04-11T19:15:35.438-05:00
1775952935448500500,0.37250048828125,0.12540984153747559,-1.4968348741531372,-0.24048258364200592,2026-04-11T19:15:35.448-05:00
1775952935458556200,0.38255615234375,0.2466784417629242,-1.8252145051956177,-0.3728450536727905,2026-04-11T19:15:35.458-05:00
1775952935468613400,0.39261328125,0.2684093117713928,-2.052309036254883,-0.43599793314933777,2026-04-11T19:15:35.468-05:00
1775952935478670300,0.40267041015625,0.3165336549282074,-2.3820858001708984,-0.3889167010784149,2026-04-11T19:15:35.478-05:00
1775952935488726500,0.4127265625,0.2660582363605499,-2.3611714839935303,-0.2483379989862442,2026-04-11T19:15:35.488-05:00
1775952935498783500,0.422783447265625,0.015791019424796104,-1.8570195436477661,-0.05924280360341072,2026-04-11T19:15:35.498-05:00
1775952935508840400,0.43284033203125,-0.30541524291038513,-1.1507092714309692,0.07946901023387909,2026-04-11T19:15:35.508-05:00
1775952935518896400,0.442896484375,-0.37551963329315186,-0.6377992630004883,0.10993250459432602,2026-04-11T19:15:35.518-05:00
1775952935528953300,0.452953369140625,-0.08672671765089035,-0.41579997539520264,0.07105115056037903,2026-04-11T19:15:35.528-05:00
1775952935539010300,0.46301025390625,0.32128074765205383,-0.3599292039871216,-0.08020257949829102,2026-04-11T19:15:35.539-05:00
1775952935549066200,0.473066162109375,0.545815646648407,-0.3076465427875519,-0.3991888165473938,2026-04-11T19:15:35.549-05:00
1775952935559123500,0.48312353515625,0.6292331218719482,0.0077027734369039536,-0.6370877623558044,2026-04-11T19:15:35.559-05:00
1775952935569179400,0.493179443359375,0.5834829807281494,0.27995428442955017,-0.7713020443916321,2026-04-11T19:15:35.569-05:00
1775952935579236400,0.503236328125,0.42231398820877075,0.3455778658390045,-0.9082286953926086,2026-04-11T19:15:35.579-05:00
1775952935589293300,0.513293212890625,0.27972808480262756,0.3682381808757782,-1.00653874874115,2026-04-11T19:15:35.589-05:00
1775952935599349200,0.523349365234375,0.267181396484375,0.34483134746551514,-0.9036965370178223,2026-04-11T19:15:35.599-05:00
1775952935609406200,0.53340625,0.29476216435432434,0.2209775596857071,-0.5228152275085449,2026-04-11T19:15:35.609-05:00
1775952935619463200,0.543463134765625,0.20221008360385895,-0.296653687953949,0.031103121116757393,2026-04-11T19:15:35.619-05:00
1775952935629519400,0.553519287109375,0.003386466996744275,-0.8928669691085815,0.6593867540359497,2026-04-11T19:15:35.629-05:00
1775952935639576300,0.563576416015625,-0.22783948481082916,-1.3632694482803345,1.2221899032592773,2026-04-11T19:15:35.639-05:00
1775952935649633300,0.57363330078125,-0.4005473554134369,-1.6683348417282104,1.5347189903259277,2026-04-11T19:15:35.649-05:00
1775952935659689200,0.583689208984375,-0.4465964734554291,-1.670088529586792,1.460387945175171,2026-04-11T19:15:35.659-05:00
1775952935669746400,0.593746337890625,-0.3606938123703003,-1.3056317567825317,1.067975640296936,2026-04-11T19:15:35.669-05:00
1775952935679802000,0.603802001953125,-0.1989971548318863,-0.6927559971809387,0.5768234133720398,2026-04-11T19:15:35.679-05:00
1775952935689859300,0.613859375,-0.047449178993701935,-0.2827037572860718,0.10119424760341644,2026-04-11T19:15:35.689-05:00
1775952935699916300,0.623916259765625,0.04822313413023949,-0.24625296890735626,-0.3272427022457123,2026-04-11T19:15:35.699-05:00
1775952935709972500,0.633972412109375,0.10703159123659134,0.0025347457267344,-0.5436933040618896,2026-04-11T19:15:35.709-05:00
1775952935720029400,0.644029541015625,0.12995371222496033,0.15681493282318115,-0.5902120471000671,2026-04-11T19:15:35.720-05:00
1775952935730086400,0.65408642578125,0.024303443729877472,0.11131961643695831,-0.5544071793556213,2026-04-11T19:15:35.730-05:00
1775952935740142300,0.664142333984375,-0.27206501364707947,-0.029157666489481926,-0.49802514910697937,2026-04-11T19:15:35.740-05:00
1775952935750199300,0.67419921875,-0.5754307508468628,-0.2171882838010788,-0.5092677474021912,2026-04-11T19:15:35.750-05:00
1775952935760256300,0.68425634765625,-0.6848730444908142,-0.31076309084892273,-0.5618337392807007,2026-04-11T19:15:35.760-05:00
1775952935770312400,0.6943125,-0.6781848073005676,-0.3484926223754883,-0.5399761199951172,2026-04-11T19:15:35.770-05:00
1775952935780369400,0.704369384765625,-0.6784377098083496,-0.2568652927875519,-0.4673398733139038,2026-04-11T19:15:35.780-05:00
1775952935790425300,0.71442529296875,-0.6754432320594788,0.04068011790513992,-0.47846415638923645,2026-04-11T19:15:35.790-05:00
1775952935800482300,0.724482421875,-0.6229050159454346,0.40312498807907104,-0.6103965640068054,2026-04-11T19:15:35.800-05:00
1775952935810539300,0.734539306640625,-0.5687323212623596,0.6322082877159119,-0.7569825649261475,2026-04-11T19:15:35.810-05:00
1775952935820595200,0.74459521484375,-0.5251876711845398,0.7392439246177673,-0.815352737903595,2026-04-11T19:15:35.820-05:00
1775952935830652400,0.75465234375,-0.49147552251815796,0.8189297318458557,-0.7404124736785889,2026-04-11T19:15:35.830-05:00
1775952935840709400,0.76470947265625,-0.4453105330467224,0.884404718875885,-0.59661465883255,2026-04-11T19:15:35.840-05:00
1775952935850765300,0.774765380859375,-0.42084112763404846,0.8264830708503723,-0.40687644481658936,2026-04-11T19:15:35.850-05:00
1775952935860822300,0.784822265625,-0.41011834144592285,0.5245108604431152,-0.1782364696264267,2026-04-11T19:15:35.860-05:00
1775952935870879200,0.794879150390625,-0.3844417333602905,0.004398958291858435,0.08149763941764832,2026-04-11T19:15:35.870-05:00
1775952935880935200,0.80493505859375,-0.3986961245536804,-0.559853732585907,0.39731529355049133,2026-04-11T19:15:35.880-05:00
1775952935890992400,0.814992431640625,-0.4807206690311432,-0.9078060984611511,0.7516811490058899,2026-04-11T19:15:35.890-05:00
1775952935901048300,0.82504833984375,-0.7175945043563843,-0.9790886640548706,0.9593923687934875,2026-04-11T19:15:35.901-05:00
1775952935911105500,0.83510546875,-0.7415347099304199,-1.073205828666687,0.8270055651664734,2026-04-11T19:15:35.911-05:00
1775952935921162500,0.84516259765625,-0.46126702427864075,-0.9450938105583191,0.5960725545883179,2026-04-11T19:15:35.921-05:00
1775952935931218400,0.855218505859375,-0.21602396667003632,-0.6538571715354919,0.35979291796684265,2026-04-11T19:15:35.931-05:00
1775952935941275400,0.865275390625,-0.12967996299266815,-0.4306732714176178,0.08795817941427231,2026-04-11T19:15:35.941-05:00
1775952935951332400,0.875332275390625,-0.10868067294359207,-0.5489330887794495,-0.18894480168819427,2026-04-11T19:15:35.951-05:00
1775952935961388300,0.88538818359375,-0.08755142241716385,-0.6172834038734436,-0.36754274368286133,2026-04-11T19:15:35.961-05:00
1775952935971445200,0.8954453125,-0.12120711803436279,-0.6370765566825867,-0.5163743495941162,2026-04-11T19:15:35.971-05:00
1775952935981501400,0.90550146484375,-0.03724361211061478,-0.6525553464889526,-0.557131290435791,2026-04-11T19:15:35.981-05:00
1775952935991558400,0.915558349609375,0.15319238603115082,-0.7891198396682739,-0.4796745479106903,2026-04-11T19:15:35.991-05:00
1775952936001615400,0.925615478515625,0.2890574038028717,-0.9887153506278992,-0.2968444228172302,2026-04-11T19:15:36.001-05:00
1775952936011671300,0.93567138671875,0.29148194193840027,-1.0763099193572998,-0.011480847373604774,2026-04-11T19:15:36.011-05:00
1775952936021728300,0.945728271484375,0.14500118792057037,-1.0656040906906128,0.3009148836135864,2026-04-11T19:15:36.021-05:00
1775952936031785200,0.95578515625,0.0443430095911026,-1.0178741216659546,0.3572910726070404,2026-04-11T19:15:36.031-05:00
1775952936041841400,0.96584130859375,0.3497917652130127,-1.1091961860656738,0.15613245964050293,2026-04-11T19:15:36.041-05:00
1775952936051898400,0.9758984375,0.43120381236076355,-0.8869516849517822,-0.2492658942937851,2026-04-11T19:15:36.051-05:00
1775952936061955300,0.985955322265625,0.2721136808395386,-0.7687184810638428,-0.6884689927101135,2026-04-11T19:15:36.061-05:00
1775952936072011300,0.99601123046875,0.20275990664958954,-0.7021381258964539,-0.9111361503601074,2026-04-11T19:15:36.072-05:00
1775952936082068200,1.006068115234375,0.24012283980846405,-0.557476818561554,-0.9003230333328247,2026-04-11T19:15:36.082-05:00
1775952936092124700,1.016124755859375,0.1806885451078415,-0.1785564124584198,-0.7662027478218079,2026-04-11T19:15:36.092-05:00
1775952936102181600,1.026181640625,0.03277529776096344,0.2495482861995697,-0.6051338911056519,2026-04-11T19:15:36.102-05:00
1775952936112238600,1.036238525390625,-0.1251850426197052,0.5487282872200012,-0.44163838028907776,2026-04-11T19:15:36.112-05:00
1775952936122294800,1.046294677734375,-0.2679387629032135,0.6801003217697144,-0.2860652506351471,2026-04-11T19:15:36.122-05:00
1775952936132351700,1.056351806640625,-0.32986900210380554,0.7121381759643555,-0.1249016597867012,2026-04-11T19:15:36.132-05:00
1775952936142409000,1.066408935546875,-0.2642044425010681,0.5966854691505432,0.045853015035390854,2026-04-11T19:15:36.142-05:00
1775952936152464600,1.076464599609375,-0.1311611533164978,0.2822316586971283,0.2404981404542923,2026-04-11T19:15:36.152-05:00
1775952936162521900,1.08652197265625,0.03712533414363861,-0.09447479993104935,0.4871150851249695,2026-04-11T19:15:36.162-05:00
1775952936172578800,1.096578857421875,0.1811794489622116,-0.31616246700286865,0.8022474646568298,2026-04-11T19:15:36.172-05:00
1775952936182635000,1.106635009765625,0.20853079855442047,-0.5213531851768494,1.216528058052063,2026-04-11T19:15:36.182-05:00
1775952936192692000,1.11669189453125,0.16101574897766113,-0.8593093752861023,1.6616684198379517,2026-04-11T19:15:36.192-05:00
1775952936202749000,1.1267490234375,0.06741023808717728,-1.3612865209579468,2.053959846496582,2026-04-11T19:15:36.202-05:00
1775952936212804900,1.136804931640625,0.0903235375881195,-2.1220600605010986,2.3421313762664795,2026-04-11T19:15:36.212-05:00
1775952936222861800,1.14686181640625,0.2295122742652893,-2.854005813598633,2.508920431137085,2026-04-11T19:15:36.222-05:00
1775952936232917800,1.156917724609375,0.4819048345088959,-3.679048776626587,2.551604986190796,2026-04-11T19:15:36.232-05:00
1775952936242974700,1.166974609375,0.8264982104301453,-4.330795764923096,2.5430703163146973,2026-04-11T19:15:36.242-05:00
1775952936253031700,1.17703173828125,1.1073415279388428,-4.742862701416016,2.53769850730896,2026-04-11T19:15:36.253-05:00
1775952936263087900,1.187087890625,1.2498595714569092,-5.135396480560303,2.5224785804748535,2026-04-11T19:15:36.263-05:00
1775952936273144800,1.197144775390625,1.4054251909255981,-5.5887532234191895,2.480919361114502,2026-04-11T19:15:36.273-05:00
1775952936283201800,1.207201904296875,1.570871114730835,-5.9910454750061035,2.46163010597229,2026-04-11T19:15:36.283-05:00
1775952936293257700,1.2172578125,1.6845520734786987,-6.241558074951172,2.4679203033447266,2026-04-11T19:15:36.293-05:00
1775952936303314700,1.227314697265625,1.814292550086975,-6.368404865264893,2.482997179031372,2026-04-11T19:15:36.303-05:00
1775952936313371600,1.23737158203125,2.0114645957946777,-6.3885345458984375,2.4569687843322754,2026-04-11T19:15:36.313-05:00
1775952936323427800,1.247427734375,2.2818121910095215,-6.252652168273926,2.3907392024993896,2026-04-11T19:15:36.323-05:00
1775952936333484800,1.25748486328125,2.6410624980926514,-6.003739833831787,2.4049477577209473,2026-04-11T19:15:36.333-05:00
1775952936343540700,1.267540771484375,3.085224151611328,-5.462346076965332,2.1813292503356934,2026-04-11T19:15:36.343-05:00
1775952936353597700,1.27759765625,3.6410067081451416,-5.076967716217041,1.6748042106628418,2026-04-11T19:15:36.353-05:00
1775952936363655000,1.287655029296875,4.175381660461426,-4.6413254737854,1.1117823123931885,2026-04-11T19:15:36.363-05:00
1775952936373710600,1.297710693359375,4.562272548675537,-3.953371047973633,0.6345624923706055,2026-04-11T19:15:36.373-05:00
1775952936383767800,1.307767822265625,4.749928951263428,-3.202841281890869,0.23118886351585388,2026-04-11T19:15:36.383-05:00
1775952936393824800,1.31782470703125,4.912773609161377,-2.6180663108825684,-0.09730193763971329,2026-04-11T19:15:36.393-05:00
1775952936403881000,1.327880859375,5.147148609161377,-2.185659408569336,-0.23001140356063843,2026-04-11T19:15:36.403-05:00
1775952936413938000,1.33793798828125,5.423612117767334,-1.8418004512786865,-0.23324501514434814,2026-04-11T19:15:36.413-05:00
1775952936423993900,1.347993896484375,5.734443664550781,-1.5791767835617065,-0.20516163110733032,2026-04-11T19:15:36.423-05:00
1775952936434050800,1.35805078125,5.987792015075684,-1.2793997526168823,-0.22884032130241394,2026-04-11T19:15:36.434-05:00
1775952936444107800,1.368107666015625,6.205909729003906,-0.9848502278327942,-0.36613741517066956,2026-04-11T19:15:36.444-05:00
1775952936454164000,1.3781640625,6.429032802581787,-0.6408790349960327,-0.5572913885116577,2026-04-11T19:15:36.454-05:00
1775952936464221000,1.388220947265625,6.623094081878662,-0.3137161135673523,-0.8249126672744751,2026-04-11T19:15:36.464-05:00
1775952936474278000,1.39827783203125,6.743885517120361,-0.006595320999622345,-1.2378534078598022,2026-04-11T19:15:36.474-05:00
1775952936484333800,1.408333740234375,6.757737636566162,0.12602737545967102,-1.8218339681625366,2026-04-11T19:15:36.484-05:00
1775952936494390800,1.418390869140625,6.6263346672058105,-0.032324980944395065,-2.437032461166382,2026-04-11T19:15:36.494-05:00
1775952936504447700,1.42844775390625,6.419902801513672,-0.35648053884506226,-2.7437996864318848,2026-04-11T19:15:36.504-05:00
1775952936514503700,1.438503662109375,6.302119731903076,-0.8954800963401794,-2.64951229095459,2026-04-11T19:15:36.514-05:00
1775952936524560600,1.448560546875,6.191055774688721,-1.5833673477172852,-2.2119553089141846,2026-04-11T19:15:36.524-05:00
1775952936534617600,1.45861767578125,5.990518093109131,-2.3100178241729736,-1.3899588584899902,2026-04-11T19:15:36.534-05:00
1775952936544673800,1.468673828125,5.704851150512695,-3.1105377674102783,-0.27662187814712524,2026-04-11T19:15:36.544-05:00
1775952936554730800,1.478730712890625,5.172264099121094,-3.585036516189575,1.0434315204620361,2026-04-11T19:15:36.554-05:00
1775952936564786700,1.48878662109375,4.314011573791504,-3.5529119968414307,2.3672354221343994,2026-04-11T19:15:36.564-05:00
1775952936574843600,1.49884375,3.4227991104125977,-3.1148200035095215,3.381056547164917,2026-04-11T19:15:36.574-05:00
1775952936584900900,1.50890087890625,2.8984103202819824,-2.54878306388855,3.835301399230957,2026-04-11T19:15:36.584-05:00
1775952936594956800,1.518956787109375,2.5477612018585205,-1.936854600906372,3.8351781368255615,2026-04-11T19:15:36.594-05:00
1775952936605014000,1.529013916015625,2.45180344581604,-1.2030069828033447,3.5108466148376465,2026-04-11T19:15:36.605-05:00
1775952936615071000,1.539071044921875,2.223320484161377,-0.5714183449745178,3.073953866958618,2026-04-11T19:15:36.615-05:00
1775952936625127000,1.549126953125,1.7523813247680664,-0.22739551961421967,2.7348949909210205,2026-04-11T19:15:36.625-05:00
1775952936635183900,1.559183837890625,1.328933835029602,0.26152729988098145,2.3024983406066895,2026-04-11T19:15:36.635-05:00
1775952936645240800,1.56924072265625,0.7694912552833557,0.6668167114257812,1.6702234745025635,2026-04-11T19:15:36.645-05:00
1775952936655296800,1.579296875,0.019167467951774597,1.1941133737564087,1.0288962125778198,2026-04-11T19:15:36.655-05:00
1775952936665353700,1.589353759765625,-0.7947162985801697,2.1195626258850098,0.43266016244888306,2026-04-11T19:15:36.665-05:00
1775952936675410000,1.599409912109375,-1.5465985536575317,3.1214962005615234,-0.14225135743618011,2026-04-11T19:15:36.675-05:00
1775952936685467000,1.609466796875,-2.0974905490875244,3.7374582290649414,-0.6998441815376282,2026-04-11T19:15:36.685-05:00
1775952936695523800,1.61952392578125,-2.4435250759124756,3.816790819168091,-1.1776881217956543,2026-04-11T19:15:36.695-05:00
1775952936705579800,1.629579833984375,-2.594228982925415,3.3000407218933105,-1.548945426940918,2026-04-11T19:15:36.705-05:00
1775952936715636700,1.63963671875,-2.5895371437072754,2.562837839126587,-1.8164520263671875,2026-04-11T19:15:36.715-05:00
1775952936725693700,1.649693603515625,-2.3333323001861572,1.7675833702087402,-2.3716471195220947,2026-04-11T19:15:36.725-05:00
1775952936735750000,1.65975,-2.014266014099121,0.8952566981315613,-3.5350112915039062,2026-04-11T19:15:36.735-05:00
1775952936745806800,1.669806884765625,-1.837422251701355,0.7818209528923035,-3.8497018814086914,2026-04-11T19:15:36.745-05:00
1775952936755863800,1.67986376953125,-1.6968283653259277,0.6501449346542358,-3.4877731800079346,2026-04-11T19:15:36.755-05:00
1775952936765919700,1.689919677734375,-1.687260627746582,-0.5406080484390259,-2.793412685394287,2026-04-11T19:15:36.765-05:00
1775952936775976700,1.699976806640625,-2.0354840755462646,-1.4341657161712646,-1.9223209619522095,2026-04-11T19:15:36.775-05:00
1775952936786032600,1.71003271484375,-2.7619595527648926,-2.285756826400757,-0.496121346950531,2026-04-11T19:15:36.786-05:00
1775952936796089600,1.720089599609375,-3.160639762878418,-3.7626407146453857,0.9040656685829163,2026-04-11T19:15:36.796-05:00
1775952936806146800,1.730146728515625,-3.6027870178222656,-5.019517421722412,2.15527081489563,2026-04-11T19:15:36.806-05:00
1775952936816202800,1.74020263671875,-3.896306037902832,-6.118887424468994,3.1555020809173584,2026-04-11T19:15:36.816-05:00
1775952936826260000,1.750260009765625,-3.6270716190338135,-6.657835006713867,3.7039921283721924,2026-04-11T19:15:36.826-05:00
1775952936836317000,1.76031689453125,-3.0729758739471436,-6.338729381561279,3.6228857040405273,2026-04-11T19:15:36.836-05:00
1775952936846372900,1.770372802734375,-2.5118162631988525,-5.324301719665527,2.9771461486816406,2026-04-11T19:15:36.846-05:00
1775952936856429800,1.780429931640625,-2.0839500427246094,-3.869641065597534,2.0998921394348145,2026-04-11T19:15:36.856-05:00
1775952936866485800,1.79048583984375,-2.0622751712799072,-2.3238296508789062,1.488681435585022,2026-04-11T19:15:36.866-05:00
1775952936876543000,1.80054296875,-2.2691638469696045,-0.5978192687034607,1.2136812210083008,2026-04-11T19:15:36.876-05:00
1775952936886600000,1.810599853515625,-2.2290356159210205,0.08374641090631485,1.1406848430633545,2026-04-11T19:15:36.886-05:00
1775952936896656000,1.82065576171875,-2.148709297180176,0.3336223065853119,1.4394325017929077,2026-04-11T19:15:36.896-05:00
1775952936906712800,1.830712890625,-2.091585874557495,0.15179407596588135,1.86477530002594,2026-04-11T19:15:36.906-05:00
1775952936916769800,1.840769775390625,-1.925849199295044,-0.2501267194747925,2.274444580078125,2026-04-11T19:15:36.916-05:00
1775952936926825700,1.85082568359375,-1.3814680576324463,-0.49035292863845825,2.472494125366211,2026-04-11T19:15:36.926-05:00
1775952936936882700,1.860882568359375,-0.5089118480682373,0.1731691062450409,2.0999629497528076,2026-04-11T19:15:36.936-05:00
1775952936946939600,1.870939697265625,0.6388005614280701,1.4145333766937256,1.0166436433792114,2026-04-11T19:15:36.946-05:00
1775952936956995800,1.880995849609375,1.504190444946289,2.6709377765655518,-0.08838154375553131,2026-04-11T19:15:36.956-05:00
1775952936967052800,1.891052734375,1.6237831115722656,3.277547597885132,-0.7407928705215454,2026-04-11T19:15:36.967-05:00
1775952936977109800,1.90110986328125,1.4082212448120117,2.905578374862671,-0.9270316958427429,2026-04-11T19:15:36.977-05:00
1775952936987165700,1.911165771484375,1.0343271493911743,2.036079168319702,-0.6810305714607239,2026-04-11T19:15:36.987-05:00
1775952936997222700,1.92122265625,1.0424277782440186,0.2954854965209961,-0.4706709384918213,2026-04-11T19:15:36.997-05:00
1775952937007278800,1.93127880859375,1.454772710800171,-1.2622759342193604,-0.3270821273326874,2026-04-11T19:15:37.007-05:00
1775952937017335800,1.941335693359375,2.1309351921081543,-1.7717926502227783,-0.10903286188840866,2026-04-11T19:15:37.017-05:00
1775952937027392800,1.951392822265625,2.890608549118042,-1.755340337753296,0.01264834962785244,2026-04-11T19:15:37.027-05:00
1775952937037448700,1.96144873046875,2.987244129180908,-1.4505407810211182,0.04650884494185448,2026-04-11T19:15:37.037-05:00
1775952937047506000,1.971505859375,2.65846586227417,-1.1284009218215942,-0.034602999687194824,2026-04-11T19:15:37.047-05:00
1775952937057563000,1.98156298828125,2.3859004974365234,-1.2283040285110474,-0.2434198558330536,2026-04-11T19:15:37.057-05:00
1775952937067618800,1.991618896484375,2.1746835708618164,-1.2719199657440186,-0.3617192804813385,2026-04-11T19:15:37.067-05:00
1775952937077675800,2.00167578125,1.9430402517318726,-1.0385594367980957,-0.3277045786380768,2026-04-11T19:15:37.077-05:00
1775952937087732700,2.011732666015625,1.7186528444290161,-0.7511355876922607,-0.1657762974500656,2026-04-11T19:15:37.087-05:00
1775952937097788400,2.021788330078125,1.517690658569336,-0.6265281438827515,0.04166024178266525,2026-04-11T19:15:37.097-05:00
1775952937107845400,2.031845458984375,1.3919063806533813,-0.6739262342453003,0.27585622668266296,2026-04-11T19:15:37.107-05:00
1775952937117901300,2.0419013671875,1.340223789215088,-0.6783060431480408,0.5189892649650574,2026-04-11T19:15:37.117-05:00
1775952937127958300,2.051958251953125,1.3731482028961182,-0.7363071441650391,0.690506100654602,2026-04-11T19:15:37.127-05:00
1775952937138015200,2.06201513671875,1.5474193096160889,-0.9864762425422668,0.7157579064369202,2026-04-11T19:15:37.138-05:00
1775952937148071400,2.072071533203125,1.8437772989273071,-1.358722448348999,0.5489668250083923,2026-04-11T19:15:37.148-05:00
1775952937158128400,2.08212841796875,2.2757933139801025,-1.9001708030700684,0.18743789196014404,2026-04-11T19:15:37.158-05:00
1775952937168185600,2.092185546875,2.7068169116973877,-2.8241372108459473,-0.33911627531051636,2026-04-11T19:15:37.168-05:00
1775952937178241300,2.1022412109375,2.8158633708953857,-3.25881290435791,-0.7748858332633972,2026-04-11T19:15:37.178-05:00
1775952937188298500,2.112298583984375,2.6773557662963867,-1.4638632535934448,-1.0355162620544434,2026-04-11T19:15:37.188-05:00
1775952937198355500,2.12235546875,2.454831600189209,0.7732565402984619,-1.083012342453003,2026-04-11T19:15:37.198-05:00
1775952937208411400,2.132411376953125,2.2209370136260986,2.3469321727752686,-1.0381487607955933,2026-04-11T19:15:37.208-05:00
1775952937218468400,2.14246826171875,1.9497190713882446,3.007507085800171,-1.0188722610473633,2026-04-11T19:15:37.218-05:00
1775952937228524500,2.152524658203125,1.6291215419769287,2.915571451187134,-1.0817205905914307,2026-04-11T19:15:37.228-05:00
1775952937238581500,2.16258154296875,1.2462795972824097,2.476447582244873,-1.1612173318862915,2026-04-11T19:15:37.238-05:00
1775952937248638500,2.172638427734375,0.8949980139732361,1.8685355186462402,-1.1832771301269531,2026-04-11T19:15:37.248-05:00
1775952937258694400,2.1826943359375,0.7019869685173035,1.1908739805221558,-1.1135896444320679,2026-04-11T19:15:37.258-05:00
1775952937268751400,2.19275146484375,0.7714317440986633,0.6742444038391113,-0.9238644242286682,2026-04-11T19:15:37.268-05:00
1775952937278808300,2.202808349609375,1.0144801139831543,0.42460691928863525,-0.6368139982223511,2026-04-11T19:15:37.278-05:00
1775952937288864500,2.212864501953125,1.316720962524414,0.3951627314090729,-0.3303198516368866,2026-04-11T19:15:37.288-05:00
1775952937298921500,2.22292138671875,1.682084083557129,0.33225542306900024,-0.052422188222408295,2026-04-11T19:15:37.298-05:00
1775952937308978400,2.232978515625,2.0723037719726562,0.15186400711536407,0.17447857558727264,2026-04-11T19:15:37.308-05:00
1775952937319034400,2.243034423828125,2.4107067584991455,-0.11087387800216675,0.363091379404068,2026-04-11T19:15:37.319-05:00
1775952937329091300,2.25309130859375,2.6696932315826416,-0.3854992091655731,0.5317658185958862,2026-04-11T19:15:37.329-05:00
1775952937339147300,2.263147216796875,2.827744483947754,-0.5753298997879028,0.6634735465049744,2026-04-11T19:15:37.339-05:00
1775952937349204500,2.27320458984375,2.884552240371704,-0.7264596819877625,0.7721223831176758,2026-04-11T19:15:37.349-05:00
1775952937359261400,2.283261474609375,2.889803647994995,-0.9134010672569275,0.8762139081954956,2026-04-11T19:15:37.359-05:00
1775952937369317400,2.2933173828125,2.8410212993621826,-1.136250615119934,0.9879401326179504,2026-04-11T19:15:37.369-05:00
1775952937379374300,2.303374267578125,2.733583688735962,-1.3467514514923096,1.116884469985962,2026-04-11T19:15:37.379-05:00
1775952937389431600,2.313431640625,2.6133248805999756,-1.5061826705932617,1.2709442377090454,2026-04-11T19:15:37.389-05:00
1775952937399487200,2.3234873046875,2.599916934967041,-1.6953829526901245,1.4426696300506592,2026-04-11T19:15:37.399-05:00
1775952937409544400,2.33354443359375,2.7350330352783203,-1.9605498313903809,1.6008728742599487,2026-04-11T19:15:37.409-05:00
1775952937419601400,2.343601318359375,3.0003936290740967,-2.25986909866333,1.775295615196228,2026-04-11T19:15:37.419-05:00
1775952937429657600,2.35365771484375,3.279557943344116,-2.464590549468994,1.9547632932662964,2026-04-11T19:15:37.429-05:00
1775952937439714600,2.363714599609375,3.4960880279541016,-2.5416862964630127,2.144486427307129,2026-04-11T19:15:37.439-05:00
1775952937449771500,2.373771484375,3.573287010192871,-2.5267369747161865,2.3370776176452637,2026-04-11T19:15:37.449-05:00
1775952937459827500,2.383827392578125,3.5170469284057617,-2.4754364490509033,2.5155704021453857,2026-04-11T19:15:37.459-05:00
1775952937469884400,2.393884521484375,3.4259610176086426,-2.447164297103882,2.6441335678100586,2026-04-11T19:15:37.469-05:00
1775952937479940400,2.4039404296875,3.2185275554656982,-2.4442789554595947,2.7183802127838135,2026-04-11T19:15:37.479-05:00
1775952937489997300,2.413997314453125,2.7759552001953125,-2.6148242950439453,2.7768373489379883,2026-04-11T19:15:37.489-05:00
1775952937500054500,2.424054443359375,1.9047865867614746,-3.351173162460327,2.7340798377990723,2026-04-11T19:15:37.500-05:00
1775952937510110500,2.4341103515625,0.25478148460388184,-5.2101359367370605,2.517957925796509,2026-04-11T19:15:37.510-05:00
1775952937520167400,2.44416748046875,-2.276325225830078,-7.823965549468994,1.7748810052871704,2026-04-11T19:15:37.520-05:00
1775952937530224400,2.454224365234375,-4.993932723999023,-10.271885871887207,0.4035218358039856,2026-04-11T19:15:37.530-05:00
1775952937540280300,2.4642802734375,-6.931066989898682,-10.667633056640625,-1.339248538017273,2026-04-11T19:15:37.540-05:00
1775952937550337300,2.474337158203125,-7.679073810577393,-8.129807472229004,-3.042379140853882,2026-04-11T19:15:37.550-05:00
1775952937560394200,2.484394287109375,-7.0279340744018555,-3.619070529937744,-3.7758522033691406,2026-04-11T19:15:37.560-05:00
1775952937570450400,2.494450439453125,-5.2757391929626465,4.53904914855957,-1.812054991722107,2026-04-11T19:15:37.570-05:00
1775952937580507400,2.50450732421875,-3.686596155166626,10.140222549438477,-0.006508539896458387,2026-04-11T19:15:37.580-05:00
1775952937590564400,2.514564453125,-2.6377410888671875,12.423317909240723,0.7110415697097778,2026-04-11T19:15:37.590-05:00
1775952937600620300,2.524620361328125,-2.0173749923706055,12.977692604064941,0.8709377646446228,2026-04-11T19:15:37.600-05:00
1775952937610677500,2.534677490234375,-1.6539671421051025,12.881606101989746,0.8976520895957947,2026-04-11T19:15:37.610-05:00
1775952937620733400,2.5447333984375,-1.4151211977005005,12.382094383239746,0.8316083550453186,2026-04-11T19:15:37.620-05:00
1775952937630790400,2.554790283203125,-1.2702850103378296,11.408536911010742,0.663161039352417,2026-04-11T19:15:37.630-05:00
1775952937640847600,2.56484765625,-1.1473017930984497,4.359277248382568,0.07238353788852692,2026-04-11T19:15:37.640-05:00
1775952937650903600,2.574903564453125,-0.866619348526001,-4.430473327636719,-0.6446282863616943,2026-04-11T19:15:37.650-05:00
1775952937660960500,2.58496044921875,-0.549145519733429,-5.538727283477783,-0.9047293663024902,2026-04-11T19:15:37.660-05:00
1775952937671017500,2.595017578125,-0.18774977326393127,-5.545589447021484,-1.0839289426803589,2026-04-11T19:15:37.671-05:00
1775952937681073400,2.605073486328125,0.2085895836353302,-5.27116060256958,-1.1915321350097656,2026-04-11T19:15:37.681-05:00
1775952937691130400,2.61513037109375,0.585320770740509,-4.1759843826293945,-0.769952118396759,2026-04-11T19:15:37.691-05:00
1775952937701187300,2.625187255859375,0.8321606516838074,-2.2031099796295166,0.10818823426961899,2026-04-11T19:15:37.701-05:00
1775952937711243500,2.635243408203125,0.9109156131744385,-0.8043177127838135,0.479246586561203,2026-04-11T19:15:37.711-05:00
1775952937721300500,2.645300537109375,0.8326854705810547,-0.16198348999023438,0.35676249861717224,2026-04-11T19:15:37.721-05:00
1775952937731356400,2.6553564453125,0.7101086974143982,0.10200107842683792,0.07296117395162582,2026-04-11T19:15:37.731-05:00
1775952937741413400,2.665413330078125,0.5458664894104004,0.17006774246692657,-0.18353693187236786,2026-04-11T19:15:37.741-05:00
1775952937751470300,2.67547021484375,0.35081997513771057,0.16219916939735413,-0.3828388452529907,2026-04-11T19:15:37.751-05:00
1775952937761526300,2.6855263671875,0.16308365762233734,0.10609089583158493,-0.5350435376167297,2026-04-11T19:15:37.761-05:00
1775952937771583500,2.69558349609375,-0.02350812591612339,0.045245684683322906,-0.6464192271232605,2026-04-11T19:15:37.771-05:00
1775952937781640400,2.705640380859375,-0.19000229239463806,0.00009951042011380196,-0.7226322293281555,2026-04-11T19:15:37.781-05:00
1775952937791696400,2.7156962890625,-0.35109275579452515,0.01441185362637043,-0.7594173550605774,2026-04-11T19:15:37.791-05:00
1775952937801753300,2.72575341796875,-0.5124552845954895,0.12707263231277466,-0.766480565071106,2026-04-11T19:15:37.801-05:00
1775952937811810300,2.735810302734375,-0.6770363450050354,0.34357526898384094,-0.7496983408927917,2026-04-11T19:15:37.811-05:00
1775952937821866200,2.7458662109375,-0.8462986350059509,0.6273361444473267,-0.7221735119819641,2026-04-11T19:15:37.821-05:00
1775952937831923500,2.75592333984375,-1.021241545677185,0.9089640378952026,-0.6817167401313782,2026-04-11T19:15:37.831-05:00
1775952937841979400,2.7659794921875,-1.189073920249939,1.1684941053390503,-0.6469933986663818,2026-04-11T19:15:37.841-05:00
1775952937852036600,2.77603662109375,-1.2899315357208252,1.3247928619384766,-0.5997174978256226,2026-04-11T19:15:37.852-05:00
1775952937862093600,2.786093505859375,-1.256762146949768,1.2727789878845215,-0.5325611233711243,2026-04-11T19:15:37.862-05:00
1775952937872149500,2.7961494140625,-1.0832785367965698,1.104552984237671,-0.5161594748497009,2026-04-11T19:15:37.872-05:00
1775952937882206500,2.80620654296875,-0.8090682625770569,0.857972264289856,-0.5315443277359009,2026-04-11T19:15:37.882-05:00
1775952937892263400,2.816263427734375,-0.4935407042503357,0.5870405435562134,-0.5672213435173035,2026-04-11T19:15:37.892-05:00
1775952937902319400,2.8263193359375,-0.15282730758190155,0.3160349130630493,-0.629570722579956,2026-04-11T19:15:37.902-05:00
1775952937912376600,2.83637646484375,0.08827469497919083,0.09138471633195877,-0.6704146862030029,2026-04-11T19:15:37.912-05:00
1775952937922433500,2.84643359375,0.09347850829362869,-0.03452315181493759,-0.6803981065750122,2026-04-11T19:15:37.922-05:00
1775952937932489500,2.856489501953125,-0.047860000282526016,-0.06942075490951538,-0.6470182538032532,2026-04-11T19:15:37.932-05:00
1775952937942546400,2.86654638671875,-0.21770577132701874,-0.04161069914698601,-0.5662949085235596,2026-04-11T19:15:37.942-05:00
1775952937952602400,2.876602294921875,-0.3529193699359894,0.07802896946668625,-0.45207470655441284,2026-04-11T19:15:37.952-05:00
1775952937962659300,2.886659423828125,-0.40798449516296387,0.2877555787563324,-0.31187525391578674,2026-04-11T19:15:37.962-05:00
1775952937972716300,2.89671630859375,-0.4063447117805481,0.5691335201263428,-0.15094031393527985,2026-04-11T19:15:37.972-05:00
1775952937982772500,2.9067724609375,-0.3779434263706207,0.896686315536499,0.028559405356645584,2026-04-11T19:15:37.982-05:00
1775952937992829400,2.916829345703125,-0.3573908805847168,1.241748571395874,0.20823423564434052,2026-04-11T19:15:37.992-05:00
1775952938002886400,2.926886474609375,-0.3633965849876404,1.5781135559082031,0.39091163873672485,2026-04-11T19:15:38.002-05:00
1775952938012942300,2.9369423828125,-0.39036646485328674,1.875562071800232,0.5593103170394897,2026-04-11T19:15:38.012-05:00
1775952938022999300,2.946999267578125,-0.4248485267162323,2.099606990814209,0.7070707082748413,2026-04-11T19:15:38.022-05:00
1775952938033056300,2.95705615234375,-0.44098222255706787,2.2127761840820312,0.8115223050117493,2026-04-11T19:15:38.033-05:00
1775952938043112400,2.967112548828125,-0.41609418392181396,2.221020460128784,0.8793932795524597,2026-04-11T19:15:38.043-05:00
1775952938053169700,2.977169677734375,-0.3728429973125458,2.155653953552246,0.9233283996582031,2026-04-11T19:15:38.053-05:00
1775952938063226600,2.9872265625,-0.31941545009613037,2.0819196701049805,0.9668353796005249,2026-04-11T19:15:38.063-05:00
1775952938073282600,2.997282470703125,-0.28935304284095764,2.187128782272339,1.0665346384048462,2026-04-11T19:15:38.073-05:00
1775952938083339500,3.007339599609375,-0.26428738236427307,2.7438061237335205,1.3127201795578003,2026-04-11T19:15:38.083-05:00
1775952938093395700,3.017395751953125,-0.21571868658065796,3.402601957321167,1.6207513809204102,2026-04-11T19:15:38.093-05:00
1775952938103452700,3.02745263671875,-0.1049136072397232,1.7928990125656128,1.2980947494506836,2026-04-11T19:15:38.103-05:00
1775952938113509600,3.037509521484375,0.04356607794761658,-2.7625300884246826,-0.24424634873867035,2026-04-11T19:15:38.113-05:00
1775952938123565800,3.04756591796875,0.15494640171527863,-2.8553872108459473,-0.6833760738372803,2026-04-11T19:15:38.123-05:00
1775952938133622800,3.057622802734375,0.18253739178180695,-2.290611505508423,-0.9469340443611145,2026-04-11T19:15:38.133-05:00
1775952938143679700,3.0676796875,0.19272984564304352,-1.8804713487625122,-1.15572190284729,2026-04-11T19:15:38.143-05:00
1775952938153735700,3.077735595703125,0.2052195966243744,-1.5254924297332764,-1.2948588132858276,2026-04-11T19:15:38.153-05:00
1775952938163792600,3.087792724609375,0.20400120317935944,-1.1461440324783325,-1.3388121128082275,2026-04-11T19:15:38.163-05:00
1775952938173849600,3.097849609375,0.18652084469795227,-0.8074032664299011,-1.3202698230743408,2026-04-11T19:15:38.173-05:00
1775952938183905500,3.107905517578125,0.1644086241722107,-0.5489435195922852,-1.2751702070236206,2026-04-11T19:15:38.183-05:00
1775952938193962800,3.117962646484375,0.16314257681369781,-0.40375226736068726,-1.2162061929702759,2026-04-11T19:15:38.193-05:00
1775952938204018700,3.128018798828125,0.17812205851078033,-0.3604561984539032,-1.1532543897628784,2026-04-11T19:15:38.204-05:00
1775952938214075600,3.13807568359375,0.19256526231765747,-0.3717106878757477,-1.0733164548873901,2026-04-11T19:15:38.214-05:00
1775952938224132900,3.1481328125,0.2088368982076645,-0.4068753123283386,-0.9727099537849426,2026-04-11T19:15:38.224-05:00
1775952938234188500,3.1581884765625,0.24833260476589203,-0.3886179029941559,-0.82415372133255,2026-04-11T19:15:38.234-05:00
1775952938244245800,3.168245849609375,0.2687004506587982,-0.25978827476501465,-0.6433770060539246,2026-04-11T19:15:38.244-05:00
1775952938254302700,3.178302734375,0.2734692692756653,-0.01526624895632267,-0.44835254549980164,2026-04-11T19:15:38.254-05:00
1775952938264359000,3.18835888671875,0.2729225158691406,0.25752854347229004,-0.2608170211315155,2026-04-11T19:15:38.264-05:00
1775952938274415900,3.198415771484375,0.2732178270816803,0.48068004846572876,-0.09715747833251953,2026-04-11T19:15:38.274-05:00
1775952938284472800,3.208472900390625,0.3005130887031555,0.5866794586181641,0.02933441661298275,2026-04-11T19:15:38.284-05:00
1775952938294528800,3.21852880859375,0.3377681076526642,0.6095749735832214,0.14631956815719604,2026-04-11T19:15:38.294-05:00
1775952938304585700,3.228585693359375,0.38494226336479187,0.6400367617607117,0.27011314034461975,2026-04-11T19:15:38.304-05:00
1775952938314641700,3.2386416015625,0.45517513155937195,0.694037914276123,0.40482598543167114,2026-04-11T19:15:38.314-05:00
1775952938324698600,3.24869873046875,0.5211187601089478,0.6756330728530884,0.5151881575584412,2026-04-11T19:15:38.324-05:00
1775952938334755600,3.258755615234375,0.5367487072944641,0.4500936269760132,0.5806109309196472,2026-04-11T19:15:38.334-05:00
1775952938344811800,3.268811767578125,0.5253549218177795,0.08046870678663254,0.6101086139678955,2026-04-11T19:15:38.344-05:00
1775952938354868700,3.27886865234375,0.52348792552948,-0.2804986238479614,0.6330202221870422,2026-04-11T19:15:38.354-05:00
1775952938364925700,3.28892578125,0.5344031453132629,-0.583202600479126,0.662404477596283,2026-04-11T19:15:38.364-05:00
1775952938374981600,3.298981689453125,0.5817777514457703,-0.7503335475921631,0.6797793507575989,2026-04-11T19:15:38.374-05:00
1775952938385038600,3.30903857421875,0.6447937488555908,-0.8549398183822632,0.668940544128418,2026-04-11T19:15:38.385-05:00
1775952938395095600,3.319095458984375,0.6878291964530945,-1.069253921508789,0.5835435390472412,2026-04-11T19:15:38.395-05:00
1775952938405151700,3.32915185546875,0.6681292653083801,-1.4282981157302856,0.4480131268501282,2026-04-11T19:15:38.405-05:00
1775952938415208700,3.339208740234375,0.6030492186546326,-1.783545732498169,0.30639269948005676,2026-04-11T19:15:38.415-05:00
1775952938425264600,3.3492646484375,0.5155023336410522,-2.0492258071899414,0.18283134698867798,2026-04-11T19:15:38.425-05:00
1775952938435321600,3.359321533203125,0.4029417932033539,-2.145129919052124,0.11262046545743942,2026-04-11T19:15:38.435-05:00
1775952938445378800,3.36937890625,0.27984383702278137,-2.011169195175171,0.1277991533279419,2026-04-11T19:15:38.445-05:00
1775952938455434500,3.3794345703125,0.12408279627561569,-1.5571656227111816,0.2662506699562073,2026-04-11T19:15:38.455-05:00
1775952938465491700,3.38949169921875,-0.10403266549110413,-0.8149908185005188,0.503809928894043,2026-04-11T19:15:38.465-05:00
1775952938475548700,3.399548583984375,-0.3513374328613281,-0.021227411925792694,0.7722141742706299,2026-04-11T19:15:38.475-05:00
1775952938485604900,3.40960498046875,-0.4089338779449463,0.4045065939426422,1.035215973854065,2026-04-11T19:15:38.485-05:00
1775952938495661800,3.419661865234375,-0.21891404688358307,0.3550710678100586,1.2405070066452026,2026-04-11T19:15:38.495-05:00
1775952938505718800,3.42971875,0.07368931919336319,-0.031099554151296616,1.402748703956604,2026-04-11T19:15:38.505-05:00
1775952938515774700,3.439774658203125,0.2980492115020752,-0.4974444508552551,1.5438116788864136,2026-04-11T19:15:38.515-05:00
1775952938525831700,3.449831787109375,0.40831711888313293,-0.8789680600166321,1.6388628482818604,2026-04-11T19:15:38.525-05:00
1775952938535888600,3.459888671875,0.3730870485305786,-1.1854033470153809,1.611392617225647,2026-04-11T19:15:38.535-05:00
1775952938545944800,3.46994482421875,0.21084778010845184,-1.3292227983474731,1.4274682998657227,2026-04-11T19:15:38.545-05:00
1775952938556001800,3.480001708984375,0.02519766241312027,-1.1601471900939941,1.172947883605957,2026-04-11T19:15:38.556-05:00
1775952938566057700,3.4900576171875,-0.15185807645320892,-0.6783241033554077,0.9799693822860718,2026-04-11T19:15:38.566-05:00
1775952938576114700,3.50011474609375,-0.294847697019577,-0.024438634514808655,0.8596273064613342,2026-04-11T19:15:38.576-05:00
1775952938586171600,3.510171630859375,-0.38483110070228577,0.617866575717926,0.807270884513855,2026-04-11T19:15:38.586-05:00
1775952938596227600,3.5202275390625,-0.4583796560764313,1.0456618070602417,0.8269671201705933,2026-04-11T19:15:38.596-05:00
1775952938606284500,3.530284423828125,-0.5167004466056824,1.0997905731201172,0.8661933541297913,2026-04-11T19:15:38.606-05:00
1775952938616341800,3.540341796875,-0.5542172193527222,0.8210941553115845,0.8601697683334351,2026-04-11T19:15:38.616-05:00
1775952938626397700,3.550397705078125,-0.5615693926811218,0.3869360685348511,0.7971367835998535,2026-04-11T19:15:38.626-05:00
1775952938636454700,3.56045458984375,-0.5155559182167053,0.1173536404967308,0.6805684566497803,2026-04-11T19:15:38.636-05:00
1775952938646510600,3.570510498046875,-0.4761597812175751,0.06962978839874268,0.5362282991409302,2026-04-11T19:15:38.646-05:00
1775952938656567600,3.580567626953125,-0.4582013189792633,0.17139087617397308,0.2846059799194336,2026-04-11T19:15:38.656-05:00
1775952938666624500,3.59062451171875,-0.46045276522636414,0.4329306185245514,-0.019398927688598633,2026-04-11T19:15:38.666-05:00
1775952938676680700,3.6006806640625,-0.36978694796562195,-0.022653918713331223,-0.20281976461410522,2026-04-11T19:15:38.676-05:00
1775952938686738000,3.610738037109375,0.00018336717039346695,-3.2438809871673584,0.208576038479805,2026-04-11T19:15:38.686-05:00
1775952938696795000,3.620794921875,0.539084792137146,-4.836559295654297,0.3700607120990753,2026-04-11T19:15:38.696-05:00
1775952938706850800,3.630850830078125,1.0737782716751099,-3.8870677947998047,0.16635310649871826,2026-04-11T19:15:38.706-05:00
1775952938716907800,3.64090771484375,1.4142307043075562,-2.239124298095703,0.22234900295734406,2026-04-11T19:15:38.716-05:00
1775952938726964700,3.65096484375,1.248221755027771,-0.5163245797157288,0.8142303824424744,2026-04-11T19:15:38.726-05:00
1775952938737020700,3.661020751953125,0.8272727131843567,0.9366271495819092,1.283733606338501,2026-04-11T19:15:38.737-05:00
1775952938747077600,3.67107763671875,0.5170703530311584,1.6287134885787964,1.3647022247314453,2026-04-11T19:15:38.747-05:00
1775952938757134800,3.681134765625,0.29986026883125305,1.5148391723632812,1.1852885484695435,2026-04-11T19:15:38.757-05:00
1775952938767190800,3.691190673828125,0.1316576898097992,1.11183500289917,0.8211332559585571,2026-04-11T19:15:38.767-05:00
1775952938777247700,3.701247802734375,0.00645860843360424,0.777573823928833,0.33512014150619507,2026-04-11T19:15:38.777-05:00
1775952938787304700,3.7113046875,-0.06527070701122284,0.5478388667106628,-0.19669952988624573,2026-04-11T19:15:38.787-05:00
1775952938797360600,3.721360595703125,-0.08336716890335083,0.41704273223876953,-0.696435809135437,2026-04-11T19:15:38.797-05:00
1775952938807417600,3.73141748046875,-0.05427613481879234,0.38956478238105774,-1.1146011352539062,2026-04-11T19:15:38.807-05:00
1775952938817473800,3.741473876953125,-0.046474888920784,0.4289408326148987,-1.367598056793213,2026-04-11T19:15:38.817-05:00
1775952938827530800,3.75153076171875,-0.09539609402418137,0.5093768239021301,-1.393593430519104,2026-04-11T19:15:38.827-05:00
1775952938837587700,3.761587646484375,-0.15455828607082367,0.6145555973052979,-1.190002679824829,2026-04-11T19:15:38.837-05:00
1775952938847643600,3.7716435546875,-0.18500220775604248,0.7646529078483582,-0.8541868329048157,2026-04-11T19:15:38.847-05:00
1775952938857700600,3.78170068359375,-0.1529853343963623,0.9887882471084595,-0.5839408040046692,2026-04-11T19:15:38.857-05:00
1775952938867757600,3.791757568359375,-0.0561772957444191,1.0944366455078125,-0.4411836266517639,2026-04-11T19:15:38.867-05:00
1775952938877813500,3.8018134765625,0.0678882747888565,0.9595301747322083,-0.3885955810546875,2026-04-11T19:15:38.877-05:00
1775952938887870700,3.81187060546875,0.16296471655368805,0.5978707671165466,-0.3927096128463745,2026-04-11T19:15:38.887-05:00
1775952938897928000,3.821927978515625,0.2557990849018097,0.2493429332971573,-0.4317462742328644,2026-04-11T19:15:38.897-05:00
1775952938907984000,3.83198388671875,0.32710549235343933,0.03808848559856415,-0.47844481468200684,2026-04-11T19:15:38.907-05:00
1775952938918040800,3.842040771484375,0.34499698877334595,-0.09264430403709412,-0.48098087310791016,2026-04-11T19:15:38.918-05:00
1775952938928096800,3.8520966796875,0.33081698417663574,-0.15069642663002014,-0.424655020236969,2026-04-11T19:15:38.928-05:00
1775952938938153700,3.86215380859375,0.31613966822624207,-0.07494024932384491,-0.3718944489955902,2026-04-11T19:15:38.938-05:00
1775952938948210700,3.872210693359375,0.2891831398010254,0.08036864548921585,-0.3171481192111969,2026-04-11T19:15:38.948-05:00
1775952938958267000,3.882266845703125,0.2334587424993515,0.19583718478679657,-0.24381642043590546,2026-04-11T19:15:38.958-05:00
1775952938968323800,3.89232373046875,0.14811162650585175,0.26521652936935425,-0.18531689047813416,2026-04-11T19:15:38.968-05:00
1775952938978380800,3.902380859375,0.07947594672441483,0.2765989899635315,-0.1476607620716095,2026-04-11T19:15:38.978-05:00
1775952938988436700,3.912436767578125,0.03718814253807068,0.20345661044120789,-0.10772106796503067,2026-04-11T19:15:38.988-05:00
1775952938998493700,3.92249365234375,0.022701309993863106,0.11398808658123016,-0.05010722577571869,2026-04-11T19:15:38.998-05:00
1775952939008550700,3.932550537109375,0.056508541107177734,0.035959064960479736,0.03202226385474205,2026-04-11T19:15:39.008-05:00
1775952939018606600,3.942606689453125,0.1229606568813324,-0.008128846995532513,0.12197593599557877,2026-04-11T19:15:39.018-05:00
1775952939028663800,3.952663818359375,0.15749147534370422,-0.0682760700583458,0.22685253620147705,2026-04-11T19:15:39.028-05:00
1775952939038719700,3.9627197265625,0.14049376547336578,-0.13959386944770813,0.3357391357421875,2026-04-11T19:15:39.038-05:00
1775952939048776700,3.972776611328125,0.06969069689512253,-0.16302010416984558,0.44062694907188416,2026-04-11T19:15:39.048-05:00
1775952939058833700,3.982833740234375,-0.025980116799473763,-0.1720505654811859,0.5737687945365906,2026-04-11T19:15:39.058-05:00
1775952939068889600,3.9928896484375,-0.0741385892033577,-0.16695061326026917,0.7028465867042542,2026-04-11T19:15:39.068-05:00
1775952939078946600,4.002946533203125,-0.06034816429018974,-0.22252210974693298,0.8308281898498535,2026-04-11T19:15:39.078-05:00
1775952939089003500,4.01300341796875,0.0004067947738803923,-0.40032246708869934,0.958263635635376,2026-04-11T19:15:39.089-05:00
1775952939099060200,4.023060302734375,0.07517468184232712,-0.5481005311012268,1.0003275871276855,2026-04-11T19:15:39.099-05:00
1775952939109117200,4.0331171875,0.08832883834838867,-0.6505728363990784,1.0151203870773315,2026-04-11T19:15:39.109-05:00
1775952939119174100,4.043174072265625,0.06340385228395462,-0.7088291645050049,1.0321656465530396,2026-04-11T19:15:39.119-05:00
1775952939129230000,4.05322998046875,0.0703592300415039,-0.6039291024208069,0.9914937615394592,2026-04-11T19:15:39.129-05:00
1775952939139287000,4.063287109375,0.09421700239181519,-0.4362087845802307,0.9147565364837646,2026-04-11T19:15:39.139-05:00
1775952939149344000,4.073343994140625,0.13808512687683105,-0.344098299741745,0.8218843936920166,2026-04-11T19:15:39.149-05:00
1775952939159400000,4.08339990234375,0.1702144742012024,-0.33334583044052124,0.6972213983535767,2026-04-11T19:15:39.159-05:00
1775952939169457000,4.093456787109375,0.18597106635570526,-0.3534252643585205,0.5543529391288757,2026-04-11T19:15:39.169-05:00
1775952939179513000,4.10351318359375,0.18337617814540863,-0.2636468708515167,0.38001593947410583,2026-04-11T19:15:39.179-05:00
1775952939189570000,4.113570068359375,0.14473237097263336,-0.17139631509780884,0.23458655178546906,2026-04-11T19:15:39.189-05:00
1775952939199627000,4.123626953125,0.09143305569887161,-0.07709953933954239,0.12787115573883057,2026-04-11T19:15:39.199-05:00
1775952939209683000,4.133682861328125,0.03486218303442001,0.07878060638904572,-0.005156931933015585,2026-04-11T19:15:39.209-05:00
1775952939219740000,4.143739990234375,-0.03751755505800247,0.17286108434200287,-0.11812018603086472,2026-04-11T19:15:39.219-05:00
1775952939229796900,4.153796875,-0.1179058700799942,0.24792227149009705,-0.22536009550094604,2026-04-11T19:15:39.229-05:00
1775952939239853000,4.16385302734375,-0.1902323216199875,0.32286179065704346,-0.3203999400138855,2026-04-11T19:15:39.239-05:00
1775952939249910000,4.173909912109375,-0.20478889346122742,0.33719679713249207,-0.36896589398384094,2026-04-11T19:15:39.249-05:00
1775952939259967200,4.18396728515625,-0.15023387968540192,0.31738126277923584,-0.3708187937736511,2026-04-11T19:15:39.259-05:00
1775952939270023200,4.194023193359375,-0.03846818953752518,0.2276545614004135,-0.3175736963748932,2026-04-11T19:15:39.270-05:00
1775952939280080100,4.204080078125,0.12320166826248169,0.14635038375854492,-0.26990681886672974,2026-04-11T19:15:39.280-05:00
1775952939290137000,4.21413720703125,0.27947142720222473,0.07599873095750809,-0.24239158630371094,2026-04-11T19:15:39.290-05:00
1775952939300193000,4.224193115234375,0.3424168527126312,-0.013869205489754677,-0.24287240207195282,2026-04-11T19:15:39.300-05:00
1775952939310250000,4.23425,0.3247992694377899,-0.05221126601099968,-0.2930370271205902,2026-04-11T19:15:39.310-05:00
1775952939320306200,4.24430615234375,0.2538846731185913,-0.08907701075077057,-0.2992640435695648,2026-04-11T19:15:39.320-05:00
1775952939330363100,4.254363037109375,0.17383697628974915,-0.08786847442388535,-0.28496792912483215,2026-04-11T19:15:39.330-05:00
1775952939340420000,4.264420166015625,0.07662736624479294,-0.009910132735967636,-0.28492671251296997,2026-04-11T19:15:39.340-05:00
1775952939350476000,4.27447607421875,-0.06674950569868088,0.11989153921604156,-0.2981969714164734,2026-04-11T19:15:39.350-05:00
1775952939360533000,4.284532958984375,-0.2045488804578781,0.21930953860282898,-0.28147098422050476,2026-04-11T19:15:39.360-05:00
1775952939370590000,4.29458984375,-0.2579505741596222,0.24992230534553528,-0.20382361114025116,2026-04-11T19:15:39.370-05:00
1775952939380646100,4.304646240234375,-0.1897210031747818,0.2659279406070709,-0.15476490557193756,2026-04-11T19:15:39.380-05:00
1775952939390703000,4.314703125,-0.05511631444096565,0.32789596915245056,-0.19618317484855652,2026-04-11T19:15:39.390-05:00
1775952939400760000,4.324760009765625,0.03838440775871277,0.28303632140159607,-0.2629532217979431,2026-04-11T19:15:39.400-05:00
1775952939410816000,4.33481591796875,0.07132291793823242,0.14808116853237152,-0.34392452239990234,2026-04-11T19:15:39.410-05:00
1775952939420873000,4.344873046875,0.0739939883351326,0.08673717081546783,-0.43744778633117676,2026-04-11T19:15:39.420-05:00
1775952939430929000,4.354928955078125,0.05427061766386032,0.11007658392190933,-0.47754353284835815,2026-04-11T19:15:39.430-05:00
1775952939440985900,4.36498583984375,0.02325543202459812,0.186722531914711,-0.4555777311325073,2026-04-11T19:15:39.440-05:00
1775952939451042800,4.375042724609375,-0.03115721046924591,0.30721351504325867,-0.3903084397315979,2026-04-11T19:15:39.451-05:00
1775952939461099000,4.38509912109375,-0.0847397968173027,0.4518935978412628,-0.28602004051208496,2026-04-11T19:15:39.461-05:00
1775952939471156000,4.395156005859375,-0.12121471017599106,0.5914706587791443,-0.1598013937473297,2026-04-11T19:15:39.471-05:00
1775952939481213200,4.405213134765625,-0.12649568915367126,0.6346242427825928,-0.03019208088517189,2026-04-11T19:15:39.481-05:00
1775952939491269000,4.41526904296875,-0.09430606663227081,0.529251217842102,0.08486233651638031,2026-04-11T19:15:39.491-05:00
1775952939501326000,4.425326171875,-0.05546940118074417,0.2786083519458771,0.19576331973075867,2026-04-11T19:15:39.501-05:00
1775952939511383000,4.435383056640625,0.026471003890037537,-0.03267015144228935,0.31372377276420593,2026-04-11T19:15:39.511-05:00
1775952939521439200,4.445439208984375,0.13288873434066772,-0.29741451144218445,0.42882901430130005,2026-04-11T19:15:39.521-05:00
1775952939531496200,4.45549609375,0.22928477823734283,-0.4883333444595337,0.5450363755226135,2026-04-11T19:15:39.531-05:00
1775952939541552000,4.46555224609375,0.2751506567001343,-0.5960509181022644,0.6487811803817749,2026-04-11T19:15:39.541-05:00
1775952939551609000,4.475609130859375,0.27718183398246765,-0.6327532529830933,0.7645557522773743,2026-04-11T19:15:39.551-05:00
1775952939561666000,4.485666015625,0.24145500361919403,-0.5355035066604614,0.815513014793396,2026-04-11T19:15:39.561-05:00
1775952939571722000,4.495721923828125,0.1548287570476532,-0.35074108839035034,0.7763738632202148,2026-04-11T19:15:39.571-05:00
1775952939581779000,4.505779052734375,0.05905266851186752,-0.2219133973121643,0.7015302181243896,2026-04-11T19:15:39.581-05:00
1775952939591836000,4.5158359375,-0.003466367721557617,-0.15289118885993958,0.5727179050445557,2026-04-11T19:15:39.591-05:00
1775952939601892000,4.52589208984375,-0.04327286779880524,-0.12070710211992264,0.39294925332069397,2026-04-11T19:15:39.601-05:00
1775952939611949000,4.535948974609375,-0.0396893173456192,-0.13486552238464355,0.22709396481513977,2026-04-11T19:15:39.611-05:00
1775952939622006000,4.546006103515625,-0.0001933307503350079,-0.09783808141946793,0.07810078561306,2026-04-11T19:15:39.622-05:00
1775952939632062000,4.55606201171875,0.040322404354810715,-0.05999002978205681,-0.007492944598197937,2026-04-11T19:15:39.632-05:00
1775952939642119000,4.566118896484375,0.08538796752691269,-0.07186209410429001,-0.04240020364522934,2026-04-11T19:15:39.642-05:00
1775952939652176000,4.57617578125,0.1174745261669159,0.04022449627518654,-0.1318214237689972,2026-04-11T19:15:39.652-05:00
1775952939662232000,4.586232177734375,0.11132629960775375,0.12314310669898987,-0.21777431666851044,2026-04-11T19:15:39.662-05:00
1775952939672289000,4.5962890625,0.07644820958375931,0.14240016043186188,-0.27869197726249695,2026-04-11T19:15:39.672-05:00
1775952939682346200,4.60634619140625,0.01479322649538517,0.25912562012672424,-0.36776188015937805,2026-04-11T19:15:39.682-05:00
1775952939692402000,4.61640185546875,-0.03411705791950226,0.4093489646911621,-0.4589565098285675,2026-04-11T19:15:39.692-05:00
1775952939702459100,4.626459228515625,-0.0697329193353653,0.4904954433441162,-0.5308254957199097,2026-04-11T19:15:39.702-05:00
1775952939712514800,4.636514892578125,-0.10331538319587708,0.5067322254180908,-0.6057695150375366,2026-04-11T19:15:39.712-05:00
1775952939722572000,4.646572021484375,-0.11814617365598679,0.4987390339374542,-0.6678918600082397,2026-04-11T19:15:39.722-05:00
1775952939732629000,4.65662890625,-0.09934291988611221,0.49709799885749817,-0.7101130485534668,2026-04-11T19:15:39.732-05:00
1775952939742685200,4.666685302734375,-0.07794371247291565,0.5174556970596313,-0.7020038962364197,2026-04-11T19:15:39.742-05:00
1775952939752742100,4.6767421875,0.008051885291934013,0.5760743021965027,-0.6359463334083557,2026-04-11T19:15:39.752-05:00
1775952939762799000,4.686799072265625,0.10541322827339172,0.6153806447982788,-0.5612538456916809,2026-04-11T19:15:39.762-05:00
1775952939772855000,4.69685498046875,0.08529598265886307,0.5766127705574036,-0.5218443870544434,2026-04-11T19:15:39.772-05:00
1775952939782912000,4.706912109375,-0.027921179309487343,0.42419400811195374,-0.5247299075126648,2026-04-11T19:15:39.782-05:00
1775952939792969000,4.716968994140625,-0.11989744752645493,0.2064955085515976,-0.5058233141899109,2026-04-11T19:15:39.792-05:00
1775952939803025200,4.727025146484375,-0.13107943534851074,0.10511033236980438,-0.4562534689903259,2026-04-11T19:15:39.803-05:00
1775952939813082000,4.73708203125,-0.15013408660888672,0.16851167380809784,-0.4096391201019287,2026-04-11T19:15:39.813-05:00
1775952939823138000,4.747137939453125,-0.2571422755718231,0.2936851382255554,-0.26453763246536255,2026-04-11T19:15:39.823-05:00
1775952939833195000,4.757195068359375,-0.33216431736946106,0.4823748767375946,-0.05642145499587059,2026-04-11T19:15:39.833-05:00
1775952939843252000,4.767251953125,-0.3104998767375946,0.759771466255188,0.09817230701446533,2026-04-11T19:15:39.843-05:00
1775952939853308000,4.777307861328125,-0.2511902153491974,0.9791112542152405,0.16905741393566132,2026-04-11T19:15:39.853-05:00
1775952939863364900,4.78736474609375,-0.1880490481853485,1.0304853916168213,0.18385760486125946,2026-04-11T19:15:39.863-05:00
1775952939873422000,4.797422119140625,-0.12063511461019516,0.8905956149101257,0.15549546480178833,2026-04-11T19:15:39.873-05:00
1775952939883478000,4.80747802734375,-0.023588888347148895,0.641081690788269,0.0969119668006897,2026-04-11T19:15:39.883-05:00
1775952939893535000,4.817534912109375,0.13316556811332703,0.40025442838668823,-0.0012524134945124388,2026-04-11T19:15:39.893-05:00
1775952939903592200,4.82759228515625,0.27357563376426697,0.21388545632362366,-0.12756316363811493,2026-04-11T19:15:39.903-05:00
1775952939913647900,4.83764794921875,0.3151630163192749,0.07124974578619003,-0.23879967629909515,2026-04-11T19:15:39.913-05:00
1775952939923705000,4.847705078125,0.2782091796398163,-0.04762145131826401,-0.3171522319316864,2026-04-11T19:15:39.923-05:00
1775952939933762000,4.857761962890625,0.23061662912368774,-0.13243114948272705,-0.34076353907585144,2026-04-11T19:15:39.933-05:00
1775952939943818200,4.867818359375,0.15895795822143555,-0.14750680327415466,-0.30605968832969666,2026-04-11T19:15:39.943-05:00
1775952939953875200,4.877875244140625,0.09144442528486252,-0.1177462562918663,-0.22768047451972961,2026-04-11T19:15:39.953-05:00
1775952939963931100,4.88793115234375,0.05076448619365692,-0.06791849434375763,-0.12782691419124603,2026-04-11T19:15:39.963-05:00
1775952939973988000,4.897988037109375,0.005217505618929863,0.025965388864278793,-0.045306213200092316,2026-04-11T19:15:39.973-05:00
1775952939984045000,4.908045166015625,-0.023980766534805298,0.14459353685379028,0.021275104954838753,2026-04-11T19:15:39.984-05:00
1775952939994101000,4.91810107421875,-0.05611500144004822,0.3104269504547119,0.04086984321475029,2026-04-11T19:15:39.994-05:00
1775952940004158000,4.928157958984375,-0.04901476949453354,0.5220901370048523,0.03388972952961922,2026-04-11T19:15:40.004-05:00
1775952940014215200,4.938215087890625,-0.005120815709233284,0.7506966590881348,0.007657323032617569,2026-04-11T19:15:40.014-05:00
1775952940024271000,4.94827099609375,0.06329421699047089,1.0214022397994995,-0.01995622180402279,2026-04-11T19:15:40.024-05:00
1775952940034328000,4.958328125,0.10791760683059692,1.3344496488571167,-0.061216577887535095,2026-04-11T19:15:40.034-05:00
1775952940044385000,4.968385009765625,0.11222311109304428,1.6525837182998657,-0.11098520457744598,2026-04-11T19:15:40.044-05:00
1775952940054441000,4.97844091796875,0.09606651216745377,1.944334864616394,-0.1741122305393219,2026-04-11T19:15:40.054-05:00
1775952940064498000,4.988497802734375,0.08063071221113205,2.154069662094116,-0.23349793255329132,2026-04-11T19:15:40.064-05:00
1775952940074555000,4.998554931640625,0.08190397173166275,2.2471232414245605,-0.29182276129722595,2026-04-11T19:15:40.074-05:00
1775952940084611000,5.008611083984375,0.11518491059541702,2.2007036209106445,-0.3416408896446228,2026-04-11T19:15:40.084-05:00
1775952940094672000,5.018671875,0.1813410222530365,2.0353052616119385,-0.38881051540374756,2026-04-11T19:15:40.094-05:00
1775952940104727800,5.028727783203125,0.2787110507488251,1.8020375967025757,-0.4362129867076874,2026-04-11T19:15:40.104-05:00
1775952940114784800,5.03878466796875,0.40017038583755493,1.5129148960113525,-0.4844244420528412,2026-04-11T19:15:40.114-05:00
1775952940124841700,5.048841796875,0.5241897106170654,1.2293002605438232,-0.5336047410964966,2026-04-11T19:15:40.124-05:00
1775952940134897700,5.058897705078125,0.6451613903045654,0.962573766708374,-0.5744315385818481,2026-04-11T19:15:40.134-05:00
1775952940144954600,5.06895458984375,0.7527130842208862,0.7403848171234131,-0.5905027389526367,2026-04-11T19:15:40.144-05:00
1775952940155011800,5.07901171875,0.8221864104270935,0.5676482319831848,-0.5717354416847229,2026-04-11T19:15:40.155-05:00
1775952940165067800,5.08906787109375,0.8409042954444885,0.43665844202041626,-0.5046252608299255,2026-04-11T19:15:40.165-05:00
1775952940175125000,5.099125,0.83279949426651,0.3117426037788391,-0.3640519082546234,2026-04-11T19:15:40.175-05:00
1775952940185182000,5.109181884765625,0.7995173335075378,0.21056680381298065,-0.15129396319389343,2026-04-11T19:15:40.185-05:00
1775952940195238000,5.11923779296875,0.7460464239120483,0.15235783159732819,0.10484621673822403,2026-04-11T19:15:40.195-05:00
1775952940205294800,5.129294921875,0.7164232134819031,0.1158718392252922,0.3950493335723877,2026-04-11T19:15:40.205-05:00
1775952940215351800,5.139351806640625,0.7235823273658752,0.12305651605129242,0.6962891221046448,2026-04-11T19:15:40.215-05:00
1775952940225408000,5.149407958984375,0.7463473677635193,0.1652996838092804,0.9966660737991333,2026-04-11T19:15:40.225-05:00
1775952940235465000,5.15946484375,0.7727808356285095,0.20777444541454315,1.3130125999450684,2026-04-11T19:15:40.235-05:00
1775952940245521000,5.16952099609375,0.7909457087516785,0.23097194731235504,1.6267080307006836,2026-04-11T19:15:40.245-05:00
1775952940255577900,5.179577880859375,0.7814041376113892,0.18743032217025757,1.9348636865615845,2026-04-11T19:15:40.255-05:00
1775952940265634800,5.189634765625,0.7562357187271118,0.08218942582607269,2.2538609504699707,2026-04-11T19:15:40.265-05:00
1775952940275690800,5.199690673828125,0.7134490609169006,-0.06586768478155136,2.6176400184631348,2026-04-11T19:15:40.275-05:00
1775952940285747700,5.209747802734375,0.6623252630233765,-0.2683952748775482,3.054500102996826,2026-04-11T19:15:40.285-05:00
1775952940295804700,5.2198046875,0.6180499196052551,-0.4506095349788666,3.728750705718994,2026-04-11T19:15:40.295-05:00
1775952940305860900,5.22986083984375,0.572117269039154,-2.1072518825531006,4.890922546386719,2026-04-11T19:15:40.305-05:00
1775952940315917800,5.239917724609375,0.09179490059614182,-5.79722785949707,5.063053131103516,2026-04-11T19:15:40.315-05:00
1775952940325974800,5.249974853515625,-0.8339874744415283,-8.029485702514648,3.803678274154663,2026-04-11T19:15:40.325-05:00
1775952940336030700,5.26003076171875,-1.4737604856491089,-7.2486958503723145,1.9074562788009644,2026-04-11T19:15:40.336-05:00
1775952940346087700,5.270087646484375,-1.456333875656128,-4.5811967849731445,-0.1434151977300644,2026-04-11T19:15:40.346-05:00
1775952940356145000,5.280144775390625,-0.9806168079376221,-1.598610758781433,-2.106820583343506,2026-04-11T19:15:40.356-05:00
1775952940366200800,5.290200927734375,-0.44731900095939636,0.8483102917671204,-3.69152569770813,2026-04-11T19:15:40.366-05:00
1775952940376258000,5.300258056640625,-0.2202722579240799,2.278940439224243,-4.789797782897949,2026-04-11T19:15:40.376-05:00
1775952940386313700,5.310313720703125,-0.25938451290130615,2.962792158126831,-5.4884562492370605,2026-04-11T19:15:40.386-05:00
1775952940396371000,5.320370849609375,-0.5397184491157532,3.23998761177063,-5.894118785858154,2026-04-11T19:15:40.396-05:00
1775952940406428000,5.330427978515625,-0.9984354972839355,3.21663236618042,-6.051061630249023,2026-04-11T19:15:40.406-05:00
1775952940416483800,5.34048388671875,-1.5012983083724976,2.953961133956909,-5.984877109527588,2026-04-11T19:15:40.416-05:00
1775952940426540800,5.350540771484375,-1.981257438659668,2.6220128536224365,-5.765223026275635,2026-04-11T19:15:40.426-05:00
1775952940436597800,5.36059765625,-2.334535598754883,2.3092854022979736,-5.415031909942627,2026-04-11T19:15:40.436-05:00
1775952940446654000,5.370654052734375,-2.4941396713256836,1.9698188304901123,-4.974982261657715,2026-04-11T19:15:40.446-05:00
1775952940456711000,5.3807109375,-2.407026529312134,1.4258105754852295,-4.332755088806152,2026-04-11T19:15:40.456-05:00
1775952940466768000,5.390767822265625,-2.038660764694214,0.19002653658390045,-3.198070764541626,2026-04-11T19:15:40.466-05:00
1775952940476823800,5.40082373046875,-1.6032847166061401,-1.5154037475585938,-1.7676799297332764,2026-04-11T19:15:40.476-05:00
1775952940486880800,5.410880859375,-1.3354160785675049,-2.5635406970977783,-0.9261087775230408,2026-04-11T19:15:40.486-05:00
1775952940496937700,5.420937744140625,-1.079957365989685,-3.065286874771118,-0.484396368265152,2026-04-11T19:15:40.496-05:00
1775952940506994000,5.430993896484375,-0.8181134462356567,-3.294515371322632,-0.24172766506671906,2026-04-11T19:15:40.506-05:00
1775952940517051000,5.44105078125,-0.6318122744560242,-3.3821632862091064,-0.14435742795467377,2026-04-11T19:15:40.517-05:00
1775952940527106800,5.45110693359375,-0.6140960454940796,-4.00445556640625,-0.6275414228439331,2026-04-11T19:15:40.527-05:00
1775952940537163800,5.461163818359375,-0.878639280796051,-5.4712395668029785,-2.019879102706909,2026-04-11T19:15:40.537-05:00
1775952940547220700,5.471220703125,-0.922049343585968,-4.7110443115234375,-2.7505924701690674,2026-04-11T19:15:40.547-05:00
1775952940557276700,5.481276611328125,-0.8654499650001526,-1.9589684009552002,-2.8048596382141113,2026-04-11T19:15:40.557-05:00
1775952940567333600,5.491333740234375,-0.8957333564758301,0.293028861284256,-2.765225410461426,2026-04-11T19:15:40.567-05:00
1775952940577390800,5.501390869140625,-1.0521048307418823,1.4437565803527832,-2.7702653408050537,2026-04-11T19:15:40.577-05:00
1775952940587446800,5.51144677734375,-1.2189199924468994,1.6111609935760498,-2.841329574584961,2026-04-11T19:15:40.587-05:00
1775952940597504000,5.52150390625,-1.4112426042556763,1.1652933359146118,-3.0084733963012695,2026-04-11T19:15:40.597-05:00
1775952940607561000,5.53156103515625,-1.6523818969726562,0.5018750429153442,-3.0902278423309326,2026-04-11T19:15:40.607-05:00
1775952940617617000,5.541616943359375,-1.9277801513671875,0.16046841442584991,-3.054069995880127,2026-04-11T19:15:40.617-05:00
1775952940627673900,5.551673828125,-2.247328996658325,0.5652276277542114,-2.929044485092163,2026-04-11T19:15:40.627-05:00
1775952940637730800,5.561730712890625,-2.575077533721924,0.9936239719390869,-2.758331537246704,2026-04-11T19:15:40.637-05:00
1775952940647787000,5.571787109375,-2.8340070247650146,0.8589669466018677,-2.609286069869995,2026-04-11T19:15:40.647-05:00
1775952940657844000,5.581843994140625,-3.0093042850494385,0.25644704699516296,-2.5706143379211426,2026-04-11T19:15:40.657-05:00
1775952940667900000,5.59189990234375,-3.05509352684021,-0.27722012996673584,-2.4539270401000977,2026-04-11T19:15:40.667-05:00
1775952940677956900,5.601956787109375,-2.7514290809631348,-0.873301088809967,-2.1405506134033203,2026-04-11T19:15:40.677-05:00
1775952940688013800,5.612013916015625,-2.304020404815674,-1.651916742324829,-1.6125227212905884,2026-04-11T19:15:40.688-05:00
1775952940698069800,5.62206982421875,-2.0308635234832764,-2.2878925800323486,-1.0892390012741089,2026-04-11T19:15:40.698-05:00
1775952940708126700,5.632126708984375,-1.7654496431350708,-2.52286958694458,-0.8348603248596191,2026-04-11T19:15:40.708-05:00
1775952940718183700,5.64218359375,-1.5008544921875,-2.391084671020508,-0.8056004643440247,2026-04-11T19:15:40.718-05:00
1775952940728239900,5.652239990234375,-1.3060979843139648,-1.9824742078781128,-0.9139614701271057,2026-04-11T19:15:40.728-05:00
1775952940738296800,5.662296875,-1.2085258960723877,-1.437266230583191,-1.0866384506225586,2026-04-11T19:15:40.738-05:00
1775952940748353800,5.672353759765625,-1.1512370109558105,-0.9060184359550476,-1.2414064407348633,2026-04-11T19:15:40.748-05:00
1775952940758409700,5.68240966796875,-1.106604814529419,-0.5497193932533264,-1.2535637617111206,2026-04-11T19:15:40.758-05:00
1775952940768466700,5.692466796875,-1.0596402883529663,-0.4531308114528656,-1.1202070713043213,2026-04-11T19:15:40.768-05:00
1775952940778523600,5.702523681640625,-0.9949887990951538,-0.5905914902687073,-0.9377171397209167,2026-04-11T19:15:40.778-05:00
1775952940788579800,5.712579833984375,-0.9164090752601624,-0.7624133825302124,-0.7515046000480652,2026-04-11T19:15:40.788-05:00
1775952940798636800,5.72263671875,-0.8405803442001343,-0.8062388896942139,-0.5579239130020142,2026-04-11T19:15:40.798-05:00
1775952940808694000,5.732694091796875,-0.7687933444976807,-0.6905309557914734,-0.3336833119392395,2026-04-11T19:15:40.808-05:00
1775952940818750000,5.74275,-0.6656726002693176,-0.4576074182987213,-0.14960378408432007,2026-04-11T19:15:40.818-05:00
1775952940828807000,5.752806884765625,-0.5391169786453247,-0.15810434520244598,0.00041291501838713884,2026-04-11T19:15:40.828-05:00
1775952940838862800,5.76286279296875,-0.4211706519126892,0.12801769375801086,0.15486586093902588,2026-04-11T19:15:40.838-05:00
1775952940848919800,5.772919921875,-0.2901741862297058,0.3140915334224701,0.29956749081611633,2026-04-11T19:15:40.848-05:00
1775952940858976800,5.782976806640625,-0.16153444349765778,0.3844487965106964,0.42947354912757874,2026-04-11T19:15:40.858-05:00
1775952940869033000,5.793032958984375,-0.04822675138711929,0.4112347364425659,0.564435601234436,2026-04-11T19:15:40.869-05:00
1775952940879090000,5.80308984375,0.07241816818714142,0.48571455478668213,0.7045269012451172,2026-04-11T19:15:40.879-05:00
1775952940889147000,5.81314697265625,0.21778537333011627,0.5762196183204651,0.8444705605506897,2026-04-11T19:15:40.889-05:00
1775952940899202800,5.823202880859375,0.37135493755340576,0.6861208081245422,0.9966835379600525,2026-04-11T19:15:40.899-05:00
1775952940909259800,5.833259765625,0.535009503364563,0.8580704927444458,1.1415491104125977,2026-04-11T19:15:40.909-05:00
1775952940919316700,5.843316650390625,0.7069528102874756,0.993903398513794,1.2269108295440674,2026-04-11T19:15:40.919-05:00
1775952940929373000,5.853373046875,0.8703233599662781,0.9281752109527588,1.2876933813095093,2026-04-11T19:15:40.929-05:00
1775952940939430000,5.863429931640625,1.0300533771514893,0.7783947587013245,1.3394523859024048,2026-04-11T19:15:40.939-05:00
1775952940949485800,5.87348583984375,1.1964712142944336,0.6876771450042725,1.3197507858276367,2026-04-11T19:15:40.949-05:00
1775952940959542800,5.883542724609375,1.299242377281189,0.6997966766357422,1.2485226392745972,2026-04-11T19:15:40.959-05:00
1775952940969599700,5.893599853515625,1.3664768934249878,0.8271011114120483,1.1957706212997437,2026-04-11T19:15:40.969-05:00
1775952940979655700,5.90365576171875,1.4245274066925049,1.0285450220108032,1.1651294231414795,2026-04-11T19:15:40.979-05:00
1775952940989712600,5.913712646484375,1.466559648513794,1.1709272861480713,1.1554898023605347,2026-04-11T19:15:40.989-05:00
1775952940999769900,5.923769775390625,1.480014681816101,1.2250258922576904,1.1430590152740479,2026-04-11T19:15:40.999-05:00
1775952941009825800,5.93382568359375,1.4463860988616943,1.4725806713104248,1.1955698728561401,2026-04-11T19:15:41.009-05:00
1775952941019882800,5.9438828125,1.3523731231689453,2.0160226821899414,1.3569978475570679,2026-04-11T19:15:41.019-05:00
1775952941029940000,5.95393994140625,1.2111172676086426,2.5134267807006836,1.5201629400253296,2026-04-11T19:15:41.029-05:00
1775952941039995600,5.96399560546875,1.0359030961990356,2.59165096282959,1.6114917993545532,2026-04-11T19:15:41.039-05:00
1775952941050052900,5.974052978515625,0.8199078440666199,2.1433069705963135,1.5521794557571411,2026-04-11T19:15:41.050-05:00
1775952941060109800,5.98410986328125,0.6198304295539856,1.408907413482666,1.2720186710357666,2026-04-11T19:15:41.060-05:00
1775952941070166000,5.994166015625,0.4094621539115906,0.8893051743507385,0.8058038353919983,2026-04-11T19:15:41.070-05:00
1775952941080223000,6.004222900390625,0.13718295097351074,1.451386570930481,0.3445129096508026,2026-04-11T19:15:41.080-05:00
1775952941090280000,6.014280029296875,-0.18354126811027527,2.7934091091156006,0.07483404129743576,2026-04-11T19:15:41.090-05:00
1775952941100332300,6.024332275390625,-0.4882284700870514,3.570568084716797,-0.02608378417789936,2026-04-11T19:15:41.100-05:00
1775952941110389200,6.03438916015625,-0.7315973043441772,3.207021474838257,-0.044348884373903275,2026-04-11T19:15:41.110-05:00
1775952941120445200,6.044445068359375,-0.9235798120498657,2.3338775634765625,-0.12512388825416565,2026-04-11T19:15:41.120-05:00
1775952941130502400,6.05450244140625,-0.9463463425636292,1.924952745437622,-0.34328874945640564,2026-04-11T19:15:41.130-05:00
1775952941140559400,6.064559326171875,-0.7725481986999512,2.206973075866699,-0.666745662689209,2026-04-11T19:15:41.140-05:00
1775952941150615300,6.074615234375,-0.5116268396377563,2.566948413848877,-0.9506290555000305,2026-04-11T19:15:41.150-05:00
1775952941160672300,6.08467236328125,-0.3470700979232788,2.573699474334717,-1.0585312843322754,2026-04-11T19:15:41.160-05:00
1775952941170729500,6.0947294921875,-0.24332420527935028,2.455784559249878,-0.9516565799713135,2026-04-11T19:15:41.170-05:00
1775952941180785200,6.10478515625,-0.11901530623435974,2.3099710941314697,-0.6400502324104309,2026-04-11T19:15:41.180-05:00
1775952941190842400,6.11484228515625,0.039624735713005066,1.878352403640747,-0.2001916915178299,2026-04-11T19:15:41.190-05:00
1775952941200899300,6.1248994140625,0.09065090119838715,1.0053179264068604,0.31332939863204956,2026-04-11T19:15:41.200-05:00
1775952941210955500,6.13495556640625,-0.01733941026031971,-0.31883013248443604,0.7583320736885071,2026-04-11T19:15:41.210-05:00
1775952941221012500,6.145012451171875,-0.328093022108078,-1.3583145141601562,1.1932172775268555,2026-04-11T19:15:41.221-05:00
1775952941231068400,6.155068359375,-0.8972055912017822,-1.4634346961975098,1.581540822982788,2026-04-11T19:15:41.231-05:00
1775952941241125400,6.16512548828125,-1.6783291101455688,0.1853448748588562,1.7097067832946777,2026-04-11T19:15:41.241-05:00
1775952941251182300,6.175182373046875,-2.546778440475464,1.4005783796310425,1.5958279371261597,2026-04-11T19:15:41.251-05:00
1775952941261238300,6.18523828125,-3.498950481414795,0.544481635093689,1.345584750175476,2026-04-11T19:15:41.261-05:00
1775952941271295500,6.19529541015625,-4.128632068634033,-0.509294867515564,0.5193636417388916,2026-04-11T19:15:41.271-05:00
1775952941281352400,6.2053525390625,-3.7601664066314697,-0.738824188709259,-1.020965814590454,2026-04-11T19:15:41.281-05:00
1775952941291408400,6.215408447265625,-2.6419880390167236,-0.2581029534339905,-2.2597920894622803,2026-04-11T19:15:41.291-05:00
1775952941301465300,6.22546533203125,-2.0891871452331543,-0.3288767337799072,-2.629542827606201,2026-04-11T19:15:41.301-05:00
1775952941311522300,6.235522216796875,-1.6958242654800415,-1.287126898765564,-2.4851958751678467,2026-04-11T19:15:41.311-05:00
1775952941321578200,6.245578125,-1.1572601795196533,-2.3158786296844482,-2.0991268157958984,2026-04-11T19:15:41.321-05:00
1775952941331635200,6.25563525390625,-0.6142569780349731,-3.017361879348755,-1.619498610496521,2026-04-11T19:15:41.331-05:00
1775952941341692200,6.265692138671875,-0.15656636655330658,-3.6450960636138916,-1.090876817703247,2026-04-11T19:15:41.341-05:00
1775952941351748400,6.275748291015625,0.21753497421741486,-4.002547264099121,-0.6127338409423828,2026-04-11T19:15:41.351-05:00
1775952941361805300,6.285805419921875,0.5214543342590332,-3.91103458404541,-0.26016539335250854,2026-04-11T19:15:41.361-05:00
1775952941371861200,6.295861328125,0.6981121897697449,-3.312685966491699,0.06116316094994545,2026-04-11T19:15:41.371-05:00
1775952941381918200,6.305918212890625,0.663206934928894,-2.071584939956665,0.4365690052509308,2026-04-11T19:15:41.381-05:00
1775952941391975400,6.315975341796875,0.4477176368236542,-0.27856117486953735,0.774414598941803,2026-04-11T19:15:41.391-05:00
1775952941402031400,6.32603125,0.054185524582862854,2.4959828853607178,0.7496083378791809,2026-04-11T19:15:41.402-05:00
1775952941412088300,6.33608837890625,-0.48897844552993774,4.163414478302002,-0.3095623254776001,2026-04-11T19:15:41.412-05:00
1775952941422145500,6.3461455078125,-1.1043436527252197,2.6359081268310547,-1.1330045461654663,2026-04-11T19:15:41.422-05:00
1775952941432201500,6.356201416015625,-1.5578888654708862,-0.9396803975105286,-1.2296044826507568,2026-04-11T19:15:41.432-05:00
1775952941442258400,6.366258544921875,-1.6301811933517456,-3.2603185176849365,-1.3166821002960205,2026-04-11T19:15:41.442-05:00
1775952941452315400,6.3763154296875,-1.3942021131515503,-2.8287088871002197,-1.2753989696502686,2026-04-11T19:15:41.452-05:00
1775952941462371300,6.386371337890625,-1.0525773763656616,-1.6303645372390747,-0.7051873207092285,2026-04-11T19:15:41.462-05:00
1775952941472428300,6.39642822265625,-0.7545379400253296,-1.2251158952713013,-0.3573165833950043,2026-04-11T19:15:41.472-05:00
1775952941482485200,6.4064853515625,-0.5520162582397461,-0.5961751937866211,-0.6086720824241638,2026-04-11T19:15:41.482-05:00
1775952941492541400,6.41654150390625,-0.46067240834236145,0.12260298430919647,-0.9695191979408264,2026-04-11T19:15:41.492-05:00
1775952941502598400,6.426598388671875,-0.5226473808288574,0.591202974319458,-0.8442260026931763,2026-04-11T19:15:41.502-05:00
1775952941512654300,6.436654296875,-0.7250682711601257,0.7709171772003174,-0.5701022744178772,2026-04-11T19:15:41.512-05:00
1775952941522711300,6.446711181640625,-0.977666974067688,0.4806049168109894,-0.4650871157646179,2026-04-11T19:15:41.522-05:00
1775952941532768300,6.456768310546875,-1.074112892150879,-0.028569674119353294,-0.408875972032547,2026-04-11T19:15:41.532-05:00
1775952941542824200,6.46682421875,-0.9677337408065796,-0.2502408027648926,-0.35069549083709717,2026-04-11T19:15:41.542-05:00
1775952941552881400,6.47688134765625,-0.8139475584030151,-0.4027692377567291,-0.309237539768219,2026-04-11T19:15:41.552-05:00
1775952941562938400,6.4869384765625,-0.7241420745849609,-0.3047334849834442,-0.3127768933773041,2026-04-11T19:15:41.562-05:00
1775952941572994300,6.496994384765625,-0.7000792622566223,-0.2326890081167221,-0.23882316052913666,2026-04-11T19:15:41.572-05:00
1775952941583051300,6.50705126953125,-0.6802570819854736,-0.07649461925029755,-0.16030117869377136,2026-04-11T19:15:41.583-05:00
1775952941593108200,6.517108154296875,-0.6800312995910645,0.04349236190319061,-0.1077500432729721,2026-04-11T19:15:41.593-05:00
1775952941603164200,6.5271640625,-0.6753334999084473,0.0014655482955276966,-0.11393923312425613,2026-04-11T19:15:41.603-05:00
1775952941613221000,6.53722119140625,-0.6805179119110107,0.06931708008050919,-0.15235896408557892,2026-04-11T19:15:41.613-05:00
1775952941623277300,6.54727734375,-0.6791085600852966,-0.15036122500896454,-0.11401345580816269,2026-04-11T19:15:41.623-05:00
1775952941633334500,6.55733447265625,-0.5980366468429565,-0.30969807505607605,-0.1396699994802475,2026-04-11T19:15:41.633-05:00
1775952941643391500,6.5673916015625,-0.5091204047203064,-0.35272759199142456,-0.15963011980056763,2026-04-11T19:15:41.643-05:00
1775952941653447400,6.577447509765625,-0.4004616439342499,-0.24317777156829834,-0.2581661343574524,2026-04-11T19:15:41.653-05:00
1775952941663504400,6.58750439453125,-0.3802056610584259,-0.12731347978115082,-0.313412070274353,2026-04-11T19:15:41.663-05:00
1775952941673561300,6.597561279296875,-0.38619351387023926,-0.35480204224586487,-0.2561008632183075,2026-04-11T19:15:41.673-05:00
1775952941683617300,6.6076171875,-0.3786383867263794,-0.7089651226997375,-0.2331385612487793,2026-04-11T19:15:41.683-05:00
1775952941693674500,6.617674560546875,-0.36434000730514526,-0.809684157371521,-0.20804323256015778,2026-04-11T19:15:41.693-05:00
1775952941703731500,6.6277314453125,-0.28437539935112,-0.6805576086044312,-0.23483729362487793,2026-04-11T19:15:41.703-05:00
1775952941713787400,6.637787353515625,-0.21192443370819092,-0.44960442185401917,-0.32413944602012634,2026-04-11T19:15:41.713-05:00
1775952941723844400,6.64784423828125,-0.15109650790691376,-0.25716492533683777,-0.2943352162837982,2026-04-11T19:15:41.723-05:00
1775952941733901300,6.6579013671875,-0.12507842481136322,-0.10402307659387589,-0.30848386883735657,2026-04-11T19:15:41.733-05:00
1775952941743957200,6.667957275390625,-0.1481214165687561,0.021260274574160576,-0.2827867567539215,2026-04-11T19:15:41.743-05:00
1775952941754014200,6.67801416015625,-0.21136295795440674,0.09296108037233353,-0.2834285497665405,2026-04-11T19:15:41.754-05:00
1775952941764070400,6.6880703125,-0.34557804465293884,0.08392391353845596,-0.27369895577430725,2026-04-11T19:15:41.764-05:00
1775952941774127400,6.69812744140625,-0.43602290749549866,-0.028349488973617554,-0.2299475371837616,2026-04-11T19:15:41.774-05:00
1775952941784184300,6.708184326171875,-0.45799267292022705,-0.26861056685447693,-0.22898320853710175,2026-04-11T19:15:41.784-05:00
1775952941794240300,6.718240234375,-0.40399447083473206,-0.3414388597011566,-0.16208721697330475,2026-04-11T19:15:41.794-05:00
1775952941804297200,6.728297119140625,-0.343511164188385,-0.20778782665729523,-0.17630955576896667,2026-04-11T19:15:41.804-05:00
1775952941814354200,6.738354248046875,-0.3405936062335968,-0.03665248677134514,-0.19756349921226501,2026-04-11T19:15:41.814-05:00
1775952941824410400,6.748410400390625,-0.3504481017589569,-0.008127899840474129,-0.23978978395462036,2026-04-11T19:15:41.824-05:00
1775952941834467300,6.75846728515625,-0.3714390993118286,-0.038117535412311554,-0.23520337045192719,2026-04-11T19:15:41.834-05:00
1775952941844524500,6.768524658203125,-0.37618058919906616,-0.1872420459985733,-0.19637475907802582,2026-04-11T19:15:41.844-05:00
1775952941854580500,6.77858056640625,-0.33063843846321106,-0.26646944880485535,-0.24908281862735748,2026-04-11T19:15:41.854-05:00
1775952941864637400,6.788637451171875,-0.3248593807220459,-0.35780203342437744,-0.27691447734832764,2026-04-11T19:15:41.864-05:00
1775952941874693400,6.798693359375,-0.3031376898288727,-0.41837048530578613,-0.2642090320587158,2026-04-11T19:15:41.874-05:00
1775952941884750300,6.808750244140625,-0.2710697650909424,-0.2844262719154358,-0.2926633059978485,2026-04-11T19:15:41.884-05:00
1775952941894807300,6.818807373046875,-0.21605637669563293,-0.14393995702266693,-0.34156525135040283,2026-04-11T19:15:41.894-05:00
1775952941904863500,6.828863525390625,-0.20242764055728912,-0.07165778428316116,-0.38500353693962097,2026-04-11T19:15:41.904-05:00
1775952941914920400,6.83892041015625,-0.20501910150051117,0.0004200069233775139,-0.357610285282135,2026-04-11T19:15:41.914-05:00
1775952941924977400,6.848977294921875,-0.1979215145111084,-0.1038917526602745,-0.35956159234046936,2026-04-11T19:15:41.924-05:00
1775952941935033300,6.859033447265625,-0.178590789437294,-0.15880990028381348,-0.4065023362636566,2026-04-11T19:15:41.935-05:00
1775952941945090300,6.86909033203125,-0.14990802109241486,-0.13397511839866638,-0.4137152433395386,2026-04-11T19:15:41.945-05:00
1775952941955147300,6.879147216796875,-0.15943194925785065,-0.0748676210641861,-0.44711166620254517,2026-04-11T19:15:41.955-05:00
1775952941965203500,6.889203369140625,-0.14606153964996338,-0.15520133078098297,-0.45311975479125977,2026-04-11T19:15:41.965-05:00
1775952941975260400,6.899260498046875,-0.10493389517068863,-0.24061019718647003,-0.4818781018257141,2026-04-11T19:15:41.975-05:00
1775952941985317400,6.9093173828125,-0.08806010335683823,-0.32728812098503113,-0.484321266412735,2026-04-11T19:15:41.985-05:00
1775952941995373300,6.919373291015625,-0.08044707775115967,-0.36966395378112793,-0.48370543122291565,2026-04-11T19:15:41.995-05:00
1775952942005430300,6.92943017578125,-0.09231678396463394,-0.4245293140411377,-0.49876800179481506,2026-04-11T19:15:42.005-05:00
1775952942015486200,6.939486328125,-0.07330186665058136,-0.4638552963733673,-0.5064645409584045,2026-04-11T19:15:42.015-05:00
1775952942025543200,6.949543212890625,-0.0730224996805191,-0.49299028515815735,-0.49661263823509216,2026-04-11T19:15:42.025-05:00
1775952942035600100,6.95960009765625,-0.014695563353598118,-0.5093759894371033,-0.4946783781051636,2026-04-11T19:15:42.035-05:00
1775952942045656300,6.96965625,0.05904550477862358,-0.30535390973091125,-0.5113436579704285,2026-04-11T19:15:42.045-05:00
1775952942055713300,6.97971337890625,0.12139347195625305,-0.2100425809621811,-0.45083174109458923,2026-04-11T19:15:42.055-05:00
1775952942065770500,6.9897705078125,0.13938818871974945,-0.1620529592037201,-0.46573585271835327,2026-04-11T19:15:42.065-05:00
1775952942075826200,6.999826171875,0.11352191120386124,-0.1364329606294632,-0.454556405544281,2026-04-11T19:15:42.075-05:00
1775952942085883400,7.00988330078125,0.05949302762746811,-0.13119877874851227,-0.4501917362213135,2026-04-11T19:15:42.085-05:00
1775952942095940000,7.019940185546875,-0.039500802755355835,-0.14098712801933289,-0.40515589714050293,2026-04-11T19:15:42.095-05:00
1775952942105996300,7.029996337890625,-0.11034967750310898,-0.3521648943424225,-0.3692823350429535,2026-04-11T19:15:42.105-05:00
1775952942116053200,7.04005322265625,-0.15541067719459534,-0.5009185671806335,-0.32202422618865967,2026-04-11T19:15:42.116-05:00
1775952942126109200,7.050109130859375,-0.17960521578788757,-0.5301874876022339,-0.2832115590572357,2026-04-11T19:15:42.126-05:00
1775952942136166100,7.060166259765625,-0.1869697868824005,-0.46642911434173584,-0.23895373940467834,2026-04-11T19:15:42.136-05:00
1775952942146223000,7.07022314453125,-0.18756447732448578,-0.38156402111053467,-0.24937762320041656,2026-04-11T19:15:42.146-05:00
1775952942156279000,7.080279052734375,-0.17661014199256897,-0.31830477714538574,-0.21396870911121368,2026-04-11T19:15:42.156-05:00
1775952942166336000,7.0903359375,-0.18160462379455566,-0.19355431199073792,-0.19689197838306427,2026-04-11T19:15:42.166-05:00
1775952942176393000,7.10039306640625,-0.18054376542568207,0.01951623149216175,-0.18448680639266968,2026-04-11T19:15:42.176-05:00
1775952942186449200,7.11044921875,-0.16276928782463074,0.27511152625083923,-0.10149659961462021,2026-04-11T19:15:42.186-05:00
1775952942196506000,7.120506103515625,-0.15003196895122528,0.055134616792201996,0.017127253115177155,2026-04-11T19:15:42.196-05:00
1775952942206563300,7.130563232421875,-0.1081090122461319,-0.23409825563430786,-0.04897613078355789,2026-04-11T19:15:42.206-05:00
1775952942216619000,7.140618896484375,-0.16794002056121826,0.113136425614357,0.05023612827062607,2026-04-11T19:15:42.216-05:00
1775952942226676200,7.15067626953125,-0.2206282615661621,0.40220338106155396,0.04469222575426102,2026-04-11T19:15:42.226-05:00
1775952942236733200,7.160733154296875,-0.17908968031406403,0.2569058835506439,0.06381247192621231,2026-04-11T19:15:42.236-05:00
1775952942246789400,7.170789306640625,-0.09462912380695343,-0.0880909189581871,0.09087284654378891,2026-04-11T19:15:42.246-05:00
1775952942256846300,7.180846435546875,-0.07283148914575577,-0.25902560353279114,0.16605129837989807,2026-04-11T19:15:42.256-05:00
1775952942266902300,7.19090234375,0.0006110362010076642,-0.29383817315101624,0.2667616605758667,2026-04-11T19:15:42.266-05:00
1775952942276959200,7.200959228515625,0.0796164721250534,-0.1975390613079071,0.25603169202804565,2026-04-11T19:15:42.276-05:00
1775952942287016200,7.21101611328125,0.12419352680444717,-0.09168745577335358,0.2589057981967926,2026-04-11T19:15:42.287-05:00
1775952942297072000,7.221072021484375,0.18082113564014435,-0.03203797712922096,0.22958625853061676,2026-04-11T19:15:42.297-05:00
1775952942307129000,7.231129150390625,0.2508947551250458,-0.008539044298231602,0.23483482003211975,2026-04-11T19:15:42.307-05:00
1775952942317186000,7.24118603515625,0.30222493410110474,0.013433809392154217,0.23101942241191864,2026-04-11T19:15:42.317-05:00
1775952942327242200,7.2512421875,0.4021739065647125,0.03979750722646713,0.25514525175094604,2026-04-11T19:15:42.327-05:00
1775952942337299200,7.26129931640625,0.47518670558929443,0.2042343020439148,0.3106570839881897,2026-04-11T19:15:42.337-05:00
1775952942347356200,7.271356201171875,0.5344934463500977,0.4557637572288513,0.34953150153160095,2026-04-11T19:15:42.347-05:00
1775952942357412000,7.281412109375,0.5233992338180542,0.5446001887321472,0.3705656826496124,2026-04-11T19:15:42.357-05:00
1775952942367469000,7.291468994140625,0.5743045210838318,0.49667102098464966,0.4309283494949341,2026-04-11T19:15:42.367-05:00
1775952942377525200,7.301525146484375,0.6809470057487488,0.3416210412979126,0.496002733707428,2026-04-11T19:15:42.377-05:00
1775952942387582200,7.311582275390625,0.7304035425186157,0.2965148091316223,0.5292749404907227,2026-04-11T19:15:42.387-05:00
1775952942397639200,7.32163916015625,0.7536951899528503,0.2980017066001892,0.5598908066749573,2026-04-11T19:15:42.397-05:00
1775952942407695000,7.331695068359375,0.839187741279602,0.29700037837028503,0.6188092231750488,2026-04-11T19:15:42.407-05:00
1775952942417752000,7.341751953125,0.8842202425003052,0.3044421076774597,0.6485034227371216,2026-04-11T19:15:42.417-05:00
1775952942427809300,7.351809326171875,0.9349198937416077,0.35482165217399597,0.6783310770988464,2026-04-11T19:15:42.427-05:00
1775952942437865000,7.361864990234375,0.9933738708496094,0.4444119334220886,0.7013456225395203,2026-04-11T19:15:42.437-05:00
1775952942447922200,7.371922119140625,1.0398238897323608,0.5671868324279785,0.7430608868598938,2026-04-11T19:15:42.447-05:00
1775952942457979100,7.381979248046875,1.1070958375930786,0.7158865332603455,0.7683609127998352,2026-04-11T19:15:42.457-05:00
1775952942468035300,7.392035400390625,1.1483228206634521,0.7963272929191589,0.8082201480865479,2026-04-11T19:15:42.468-05:00
1775952942478092300,7.40209228515625,1.1803650856018066,0.7664294242858887,0.8656457662582397,2026-04-11T19:15:42.478-05:00
1775952942488148200,7.412148193359375,1.2224928140640259,0.7330623865127563,0.9493311047554016,2026-04-11T19:15:42.488-05:00
1775952942498205200,7.422205078125,1.2228612899780273,0.6633288264274597,1.0203673839569092,2026-04-11T19:15:42.498-05:00
1775952942508262100,7.43226220703125,1.2015341520309448,0.6979997158050537,1.0240178108215332,2026-04-11T19:15:42.508-05:00
1775952942518318300,7.442318359375,1.180952787399292,0.754192054271698,1.0417512655258179,2026-04-11T19:15:42.518-05:00
1775952942528375300,7.452375244140625,1.2150535583496094,0.7395971417427063,1.030892252922058,2026-04-11T19:15:42.528-05:00
1775952942538432300,7.462432373046875,1.2941285371780396,0.7032758593559265,1.027239203453064,2026-04-11T19:15:42.538-05:00
1775952942548488200,7.47248828125,1.3891874551773071,0.6824517846107483,1.026179313659668,2026-04-11T19:15:42.548-05:00
1775952942558545200,7.482545166015625,1.4985458850860596,0.7328028678894043,1.0429359674453735,2026-04-11T19:15:42.558-05:00
1775952942568602000,7.49260205078125,1.5955067873001099,0.8342701196670532,1.038559913635254,2026-04-11T19:15:42.568-05:00
1775952942578658000,7.502657958984375,1.7214661836624146,0.919450581073761,1.0161361694335938,2026-04-11T19:15:42.578-05:00
1775952942588715000,7.512715087890625,1.8718202114105225,1.0070542097091675,0.9941976070404053,2026-04-11T19:15:42.588-05:00
1775952942598771200,7.522771240234375,1.9832473993301392,0.959245502948761,0.9699153900146484,2026-04-11T19:15:42.598-05:00
1775952942608828200,7.532828125,2.061479091644287,0.645362138748169,0.9355260133743286,2026-04-11T19:15:42.608-05:00
1775952942618885000,7.542885009765625,2.0936334133148193,0.27505096793174744,0.9111326932907104,2026-04-11T19:15:42.618-05:00
1775952942628941000,7.552941162109375,2.1069390773773193,0.06610334664583206,0.9413433074951172,2026-04-11T19:15:42.628-05:00
1775952942638998000,7.562998046875,2.097318172454834,0.1052013635635376,0.9886950850486755,2026-04-11T19:15:42.638-05:00
1775952942649055000,7.573054931640625,2.059751272201538,0.29933783411979675,1.0414345264434814,2026-04-11T19:15:42.649-05:00
1775952942659111200,7.583111083984375,1.9960880279541016,0.624586284160614,1.0707100629806519,2026-04-11T19:15:42.659-05:00
1775952942669168400,7.59316845703125,1.914172887802124,1.0230159759521484,1.0967118740081787,2026-04-11T19:15:42.669-05:00
1775952942679225300,7.603225341796875,1.7953910827636719,1.3813811540603638,1.1502995491027832,2026-04-11T19:15:42.679-05:00
1775952942689281300,7.61328125,1.6782907247543335,1.644071340560913,1.1654505729675293,2026-04-11T19:15:42.689-05:00
1775952942699338200,7.623338134765625,1.5745333433151245,1.7380346059799194,1.1538493633270264,2026-04-11T19:15:42.699-05:00
1775952942709395200,7.633395263671875,1.516157865524292,1.737917423248291,1.1711647510528564,2026-04-11T19:15:42.709-05:00
1775952942719451100,7.643451171875,1.4800645112991333,1.5692378282546997,1.2240376472473145,2026-04-11T19:15:42.719-05:00
1775952942729508000,7.653508056640625,1.490041971206665,1.367034912109375,1.2623672485351562,2026-04-11T19:15:42.729-05:00
1775952942739564300,7.663564208984375,1.588461995124817,1.1765987873077393,1.2279472351074219,2026-04-11T19:15:42.739-05:00
1775952942749621200,7.673621337890625,1.7447142601013184,1.049143671989441,1.2288031578063965,2026-04-11T19:15:42.749-05:00
1775952942759678200,7.68367822265625,1.9175604581832886,0.9394112229347229,1.2597459554672241,2026-04-11T19:15:42.759-05:00
1775952942769734100,7.693734130859375,2.097635269165039,0.8710318803787231,1.3174384832382202,2026-04-11T19:15:42.769-05:00
1775952942779791000,7.703791015625,2.2447617053985596,0.8583459258079529,1.3217023611068726,2026-04-11T19:15:42.779-05:00
1775952942789848000,7.71384814453125,2.315366506576538,0.8133483529090881,1.2992007732391357,2026-04-11T19:15:42.789-05:00
1775952942799904300,7.723904296875,2.3043482303619385,0.7725016474723816,1.273381233215332,2026-04-11T19:15:42.799-05:00
1775952942809961200,7.733961181640625,2.2105138301849365,0.785169243812561,1.2740323543548584,2026-04-11T19:15:42.809-05:00
1775952942820018200,7.74401806640625,2.063375234603882,0.793796718120575,1.3134477138519287,2026-04-11T19:15:42.820-05:00
1775952942830074000,7.75407421875,1.8446307182312012,0.6992108225822449,1.3937101364135742,2026-04-11T19:15:42.830-05:00
1775952942840131000,7.764131103515625,1.5869569778442383,0.5297161340713501,1.4908238649368286,2026-04-11T19:15:42.840-05:00
1775952942850187000,7.77418701171875,1.3112835884094238,0.3638903796672821,1.5866199731826782,2026-04-11T19:15:42.850-05:00
1775952942860244000,7.784243896484375,1.0839757919311523,0.26373958587646484,1.6356600522994995,2026-04-11T19:15:42.860-05:00
1775952942870301200,7.79430126953125,0.9458666443824768,0.34183573722839355,1.6289006471633911,2026-04-11T19:15:42.870-05:00
1775952942880357000,7.804357177734375,0.9345799088478088,0.5338466167449951,1.5437779426574707,2026-04-11T19:15:42.880-05:00
1775952942890414300,7.814414306640625,0.9936858415603638,0.8860254287719727,1.410338044166565,2026-04-11T19:15:42.890-05:00
1775952942900471300,7.82447119140625,1.0639609098434448,1.2502033710479736,1.2793368101119995,2026-04-11T19:15:42.900-05:00
1775952942910527200,7.83452734375,1.1064317226409912,1.6025099754333496,1.156636118888855,2026-04-11T19:15:42.910-05:00
1775952942920584200,7.844584228515625,1.077928900718689,2.0338597297668457,1.0297447443008423,2026-04-11T19:15:42.920-05:00
1775952942930641200,7.85464111328125,0.957622230052948,2.5686888694763184,0.9006019234657288,2026-04-11T19:15:42.930-05:00
1775952942940697300,7.864697265625,0.745002806186676,3.09037709236145,0.7858555316925049,2026-04-11T19:15:42.940-05:00
1775952942950754300,7.87475439453125,0.4632115662097931,3.466214179992676,0.6986183524131775,2026-04-11T19:15:42.950-05:00
1775952942960811300,7.884811279296875,0.15496671199798584,3.6993024349212646,0.614338219165802,2026-04-11T19:15:42.960-05:00
1775952942970867200,7.8948671875,-0.11008305847644806,3.783768653869629,0.49664226174354553,2026-04-11T19:15:42.970-05:00
1775952942980924200,7.904924072265625,-0.304023802280426,3.72261905670166,0.32033467292785645,2026-04-11T19:15:42.980-05:00
1775952942990980000,7.91497998046875,-0.3595171570777893,3.5509347915649414,0.06611916422843933,2026-04-11T19:15:42.990-05:00
1775952943001037000,7.925037109375,-0.2956875264644623,3.313389539718628,-0.21398308873176575,2026-04-11T19:15:43.001-05:00
1775952943011094300,7.93509423828125,-0.13216543197631836,2.8625762462615967,-0.47507166862487793,2026-04-11T19:15:43.011-05:00
1775952943021150200,7.945150146484375,0.058283668011426926,2.116173028945923,-0.7264224886894226,2026-04-11T19:15:43.021-05:00
1775952943031207200,7.955207275390625,0.22456158697605133,1.0793617963790894,-0.9286717176437378,2026-04-11T19:15:43.031-05:00
1775952943041264000,7.96526416015625,0.3310979902744293,-0.11663365364074707,-1.0741207599639893,2026-04-11T19:15:43.041-05:00
1775952943051320000,7.975320068359375,0.3838059604167938,-1.3003581762313843,-1.159853458404541,2026-04-11T19:15:43.051-05:00
1775952943061377000,7.985376953125,0.392920583486557,-2.344223737716675,-1.1930097341537476,2026-04-11T19:15:43.061-05:00
1775952943071434000,7.99543408203125,0.41879186034202576,-3.271310806274414,-1.155916452407837,2026-04-11T19:15:43.071-05:00
1775952943081490200,8.005490234375,0.47936663031578064,-4.0432844161987305,-1.0415995121002197,2026-04-11T19:15:43.081-05:00
1775952943091547100,8.015547119140624,0.5444620251655579,-4.7001142501831055,-0.8307336568832397,2026-04-11T19:15:43.091-05:00
1775952943101603600,8.025603515625,0.5871521234512329,-5.226739883422852,-0.5525717735290527,2026-04-11T19:15:43.101-05:00
1775952943111660500,8.03566064453125,0.5440906882286072,-5.642212867736816,-0.271614670753479,2026-04-11T19:15:43.111-05:00
1775952943121717500,8.045717529296875,0.4274595379829407,-5.890798091888428,-0.03094831481575966,2026-04-11T19:15:43.121-05:00
1775952943131773400,8.0557734375,0.2708345055580139,-5.993050575256348,0.18555815517902374,2026-04-11T19:15:43.131-05:00
1775952943141830400,8.065830322265626,0.12622806429862976,-5.994718551635742,0.4128924608230591,2026-04-11T19:15:43.141-05:00
1775952943151887400,8.075887451171875,0.02842107228934765,-5.861147403717041,0.654831051826477,2026-04-11T19:15:43.151-05:00
1775952943161943600,8.085943603515625,-0.03458557650446892,-5.581991672515869,0.9124256372451782,2026-04-11T19:15:43.161-05:00
1775952943172000500,8.09600048828125,-0.13357500731945038,-5.160500526428223,1.1906814575195312,2026-04-11T19:15:43.172-05:00
1775952943182057500,8.106057373046875,-0.24522167444229126,-4.658905982971191,1.4804037809371948,2026-04-11T19:15:43.182-05:00
1775952943192113400,8.116113525390626,-0.3238259553909302,-4.0997748374938965,1.7323873043060303,2026-04-11T19:15:43.192-05:00
1775952943202170600,8.126170654296875,-0.33718588948249817,-3.2610161304473877,1.8239442110061646,2026-04-11T19:15:43.202-05:00
1775952943212226600,8.1362265625,-0.32464292645454407,-2.1577558517456055,1.7412974834442139,2026-04-11T19:15:43.212-05:00
1775952943222283800,8.14628369140625,-0.30057284235954285,-0.6507764458656311,1.4458357095718384,2026-04-11T19:15:43.222-05:00
1775952943232340700,8.1563408203125,-0.32160836458206177,1.182931900024414,1.0434808731079102,2026-04-11T19:15:43.232-05:00
1775952943242396700,8.166396728515625,-0.387610524892807,3.0952749252319336,0.6555666923522949,2026-04-11T19:15:43.242-05:00
1775952943252453600,8.17645361328125,-0.5165355205535889,4.590234756469727,0.3802722692489624,2026-04-11T19:15:43.252-05:00
1775952943262510600,8.186510498046875,-0.6761726140975952,5.340226650238037,0.29650312662124634,2026-04-11T19:15:43.262-05:00
1775952943272566500,8.19656640625,-0.7889742255210876,5.49325704574585,0.39620018005371094,2026-04-11T19:15:43.272-05:00
1775952943282623500,8.20662353515625,-0.8345777988433838,5.097832679748535,0.6083226799964905,2026-04-11T19:15:43.282-05:00
1775952943292680400,8.216680419921875,-0.8393126130104065,4.328648090362549,0.8684141635894775,2026-04-11T19:15:43.292-05:00
1775952943302736600,8.226736572265626,-0.8183934092521667,3.3239824771881104,1.1035780906677246,2026-04-11T19:15:43.302-05:00
1775952943312793600,8.236793701171875,-0.7597705721855164,2.1317553520202637,1.3250659704208374,2026-04-11T19:15:43.312-05:00
1775952943322849500,8.246849609375,-0.6874149441719055,0.8159276247024536,1.4771381616592407,2026-04-11T19:15:43.322-05:00
1775952943332906500,8.256906494140624,-0.5879837274551392,-0.3628588318824768,1.5869637727737427,2026-04-11T19:15:43.332-05:00
1775952943342963500,8.26696337890625,-0.4424612522125244,-1.3006337881088257,1.6801719665527344,2026-04-11T19:15:43.342-05:00
1775952943353019600,8.27701953125,-0.2768845558166504,-1.9537655115127563,1.761464238166809,2026-04-11T19:15:43.353-05:00
1775952943363076600,8.28707666015625,-0.11642962694168091,-2.405041456222534,1.8215116262435913,2026-04-11T19:15:43.363-05:00
1775952943373133600,8.297133544921875,0.04536646232008934,-2.7410216331481934,1.8541406393051147,2026-04-11T19:15:43.373-05:00
1775952943383189500,8.307189453125,0.20814061164855957,-3.057173252105713,1.8454368114471436,2026-04-11T19:15:43.383-05:00
1775952943393246500,8.31724658203125,0.3603959381580353,-3.5029892921447754,1.7754542827606201,2026-04-11T19:15:43.393-05:00
1775952943403303400,8.327303466796875,0.44049981236457825,-3.159228801727295,1.994531273841858,2026-04-11T19:15:43.403-05:00
1775952943413359400,8.337359375,0.41640353202819824,-1.567444086074829,2.1968514919281006,2026-04-11T19:15:43.413-05:00
1775952943423416300,8.347416259765625,0.4772396683692932,-0.738134503364563,1.7884161472320557,2026-04-11T19:15:43.423-05:00
1775952943433473500,8.3574736328125,0.5695616006851196,-0.4614075720310211,1.1474756002426147,2026-04-11T19:15:43.433-05:00
1775952943443529700,8.36752978515625,0.5934242010116577,-0.3183891177177429,0.4466779828071594,2026-04-11T19:15:43.443-05:00
1775952943453586700,8.377586669921875,0.5543742775917053,-0.1684848666191101,-0.22540320456027985,2026-04-11T19:15:43.453-05:00
1775952943463642600,8.387642578125,0.4528263211250305,0.011626839637756348,-0.7977196574211121,2026-04-11T19:15:43.463-05:00
1775952943473699600,8.397699462890625,0.3014413118362427,0.14060133695602417,-1.211073637008667,2026-04-11T19:15:43.473-05:00
1775952943483756500,8.407756591796876,0.12691263854503632,0.12455606460571289,-1.4435051679611206,2026-04-11T19:15:43.483-05:00
1775952943493812700,8.417812744140624,-0.056428421288728714,0.012014340609312057,-1.5479437112808228,2026-04-11T19:15:43.493-05:00
1775952943503869700,8.42786962890625,-0.19157864153385162,-0.11145815253257751,-1.5316658020019531,2026-04-11T19:15:43.503-05:00
1775952943513926700,8.4379267578125,-0.25939658284187317,-0.16782689094543457,-1.4685001373291016,2026-04-11T19:15:43.513-05:00
1775952943523982600,8.447982666015625,-0.24518463015556335,-0.12964630126953125,-1.4117528200149536,2026-04-11T19:15:43.523-05:00
1775952943534039600,8.45803955078125,-0.17090027034282684,-0.052772555500268936,-1.3653723001480103,2026-04-11T19:15:43.534-05:00
1775952943544096500,8.468096435546874,-0.11264555901288986,0.03367156535387039,-1.316370964050293,2026-04-11T19:15:43.544-05:00
1775952943554152400,8.47815234375,-0.07479538768529892,0.155121311545372,-1.2526925802230835,2026-04-11T19:15:43.554-05:00
1775952943564209400,8.48820947265625,-0.09675903618335724,0.30840879678726196,-1.1779145002365112,2026-04-11T19:15:43.564-05:00
1775952943574265600,8.498265625,-0.1546044945716858,0.49086862802505493,-1.0848056077957153,2026-04-11T19:15:43.574-05:00
1775952943584322600,8.508322509765625,-0.23578962683677673,0.7039127349853516,-0.9729637503623962,2026-04-11T19:15:43.584-05:00
1775952943594379500,8.518379638671876,-0.29997581243515015,1.0586614608764648,-0.8409178256988525,2026-04-11T19:15:43.594-05:00
1775952943604435500,8.528435546875,-0.312735378742218,1.590563416481018,-0.6948131918907166,2026-04-11T19:15:43.604-05:00
1775952943614492400,8.538492431640625,-0.26834580302238464,2.2214713096618652,-0.5654658675193787,2026-04-11T19:15:43.614-05:00
1775952943624549400,8.54854931640625,-0.20600003004074097,2.730783700942993,-0.4644658863544464,2026-04-11T19:15:43.624-05:00
1775952943634605600,8.55860546875,-0.17803551256656647,2.8489768505096436,-0.4253278076648712,2026-04-11T19:15:43.634-05:00
1775952943644662500,8.56866259765625,-0.17223238945007324,2.439929723739624,-0.45183804631233215,2026-04-11T19:15:43.644-05:00
1775952943654719700,8.5787197265625,-0.17409314215183258,1.7094600200653076,-0.5381641387939453,2026-04-11T19:15:43.654-05:00
1775952943664775700,8.588775634765625,-0.13708820939064026,0.8854885101318359,-0.6903817057609558,2026-04-11T19:15:43.664-05:00
1775952943674832600,8.59883251953125,-0.062136210501194,0.24253036081790924,-0.8752546310424805,2026-04-11T19:15:43.674-05:00
1775952943684888600,8.608888671875,0.04321611300110817,-0.15083704888820648,-1.14581298828125,2026-04-11T19:15:43.684-05:00
1775952943694945500,8.618945556640625,0.0747615173459053,-0.22417305409908295,-1.4643536806106567,2026-04-11T19:15:43.694-05:00
1775952943705002500,8.62900244140625,-0.012129039503633976,-0.06903520971536636,-1.8046506643295288,2026-04-11T19:15:43.705-05:00
1775952943715058700,8.63905859375,-0.12668997049331665,-0.012832656502723694,-2.0084190368652344,2026-04-11T19:15:43.715-05:00
1775952943725115600,8.64911572265625,-0.23862698674201965,-0.4485977292060852,-2.0277621746063232,2026-04-11T19:15:43.725-05:00
1775952943735172600,8.659172607421874,-0.28765472769737244,-1.3116856813430786,-1.9658015966415405,2026-04-11T19:15:43.735-05:00
1775952943745228500,8.669228515625,-0.22231273353099823,-2.193056106567383,-1.884225606918335,2026-04-11T19:15:43.745-05:00
1775952943755285500,8.679285400390626,-0.19085466861724854,-2.798067569732666,-1.7128410339355469,2026-04-11T19:15:43.755-05:00
1775952943765342500,8.689342529296875,-0.24446693062782288,-3.0698914527893066,-1.40461003780365,2026-04-11T19:15:43.765-05:00
1775952943775398700,8.699398681640625,-0.34697866439819336,-3.1980555057525635,-0.9789809584617615,2026-04-11T19:15:43.775-05:00
1775952943785455600,8.70945556640625,-0.4737197160720825,-3.4132845401763916,-0.45769789814949036,2026-04-11T19:15:43.785-05:00
1775952943795511600,8.719511474609375,-0.6338196396827698,-3.797466993331909,0.16986458003520966,2026-04-11T19:15:43.795-05:00
1775952943805568500,8.729568603515625,-0.7830826640129089,-4.073082447052002,0.9426993131637573,2026-04-11T19:15:43.805-05:00
1775952943815625500,8.73962548828125,-0.8859997391700745,-3.726767063140869,1.7355625629425049,2026-04-11T19:15:43.815-05:00
1775952943825681400,8.749681396484375,-0.828683078289032,-2.3588178157806396,2.4601263999938965,2026-04-11T19:15:43.825-05:00
1775952943835738400,8.75973828125,-0.5458359122276306,-0.584238588809967,2.99094820022583,2026-04-11T19:15:43.835-05:00
1775952943845795300,8.76979541015625,-0.21868090331554413,1.1594467163085938,3.269655466079712,2026-04-11T19:15:43.845-05:00
1775952943855851500,8.7798515625,0.07734277844429016,2.364797592163086,3.3856382369995117,2026-04-11T19:15:43.855-05:00
1775952943865908500,8.789908447265624,0.3907430171966553,2.6446139812469482,3.308631658554077,2026-04-11T19:15:43.865-05:00
1775952943875965700,8.799965576171875,0.651072084903717,1.770442008972168,3.127476930618286,2026-04-11T19:15:43.875-05:00
1775952943886021400,8.810021484375,0.9175387024879456,-1.3099030256271362,2.691671133041382,2026-04-11T19:15:43.886-05:00
1775952943896078600,8.82007861328125,1.2136390209197998,-5.387810230255127,2.033505439758301,2026-04-11T19:15:43.896-05:00
1775952943906134800,8.830134765625,1.3287655115127563,-5.756609916687012,1.437369704246521,2026-04-11T19:15:43.906-05:00
1775952943916191700,8.840191650390626,1.4115341901779175,-4.659417629241943,1.0011231899261475,2026-04-11T19:15:43.916-05:00
1775952943926248700,8.850248779296875,1.5837016105651855,-3.3964693546295166,0.8421404361724854,2026-04-11T19:15:43.926-05:00
1775952943936304600,8.8603046875,1.7704299688339233,-2.275418519973755,1.1359976530075073,2026-04-11T19:15:43.936-05:00
1775952943946361600,8.870361572265624,1.7774982452392578,-1.3917570114135742,1.8901499509811401,2026-04-11T19:15:43.946-05:00
1775952943956418600,8.88041845703125,1.553627371788025,-0.7280433773994446,2.578239917755127,2026-04-11T19:15:43.956-05:00
1775952943966474500,8.890474609375,1.056892991065979,-0.34193387627601624,2.8745784759521484,2026-04-11T19:15:43.966-05:00
1775952943976531500,8.900531494140624,0.4233730733394623,-0.2472822070121765,2.840435028076172,2026-04-11T19:15:43.976-05:00
1775952943986588400,8.91058837890625,0.0014215637929737568,-0.5536804795265198,2.6859846115112305,2026-04-11T19:15:43.986-05:00
1775952943996644600,8.92064453125,-0.09842327237129211,-1.298427700996399,2.5121803283691406,2026-04-11T19:15:43.996-05:00
1775952944006701600,8.93070166015625,-0.01734626479446888,-1.7222007513046265,2.1753363609313965,2026-04-11T19:15:44.006-05:00
1775952944016757500,8.940757568359375,0.13327546417713165,-1.530588150024414,1.6657193899154663,2026-04-11T19:15:44.016-05:00
1775952944026814500,8.950814453125,0.29983437061309814,-0.9473560452461243,1.0715562105178833,2026-04-11T19:15:44.026-05:00
1775952944036871400,8.960871337890625,0.4349879324436188,-0.2889725863933563,0.467710018157959,2026-04-11T19:15:44.036-05:00
1775952944046927600,8.970927734375,0.45750200748443604,0.28214383125305176,-0.0993933454155922,2026-04-11T19:15:44.046-05:00
1775952944056984600,8.980984619140624,0.33769944310188293,0.7452912330627441,-0.5695608258247375,2026-04-11T19:15:44.056-05:00
1775952944067041500,8.99104150390625,0.11579105257987976,1.087631344795227,-0.9004285931587219,2026-04-11T19:15:44.067-05:00
1775952944077097500,9.001097412109376,-0.12225773185491562,1.3049291372299194,-1.0989638566970825,2026-04-11T19:15:44.077-05:00
1775952944087154400,9.011154541015625,-0.27275678515434265,1.4397870302200317,-1.1827259063720703,2026-04-11T19:15:44.087-05:00
1775952944097211100,9.021211181640625,-0.35161858797073364,1.4611340761184692,-1.1674705743789673,2026-04-11T19:15:44.097-05:00
1775952944107267000,9.03126708984375,-0.3524405360221863,1.3881584405899048,-1.0685673952102661,2026-04-11T19:15:44.107-05:00
1775952944117324300,9.04132421875,-0.30457207560539246,1.2709676027297974,-0.9161681532859802,2026-04-11T19:15:44.117-05:00
1775952944127380200,9.051380126953125,-0.22108404338359833,1.0871995687484741,-0.7137818336486816,2026-04-11T19:15:44.127-05:00
1775952944137437200,9.061437255859374,-0.11748307943344116,0.8619062304496765,-0.47222700715065,2026-04-11T19:15:44.137-05:00
1775952944147494100,9.071494140625,0.006140175741165876,0.5781505107879639,-0.20910708606243134,2026-04-11T19:15:44.147-05:00
1775952944157550000,9.081550048828126,0.1565382033586502,0.18506315350532532,0.11465048044919968,2026-04-11T19:15:44.157-05:00
1775952944167607000,9.09160693359375,0.297738254070282,-0.3937619626522064,0.5538415908813477,2026-04-11T19:15:44.167-05:00
1775952944177664000,9.1016640625,0.38281959295272827,-1.076824426651001,1.1271295547485352,2026-04-11T19:15:44.177-05:00
1775952944187720200,9.11172021484375,0.39123982191085815,-1.40162193775177,1.6708616018295288,2026-04-11T19:15:44.187-05:00
1775952944197777200,9.121777099609375,0.34952059388160706,-1.1951239109039307,2.018352508544922,2026-04-11T19:15:44.197-05:00
1775952944207834000,9.131834228515626,0.31457364559173584,-0.8157525062561035,2.1492080688476562,2026-04-11T19:15:44.207-05:00
1775952944217890000,9.14189013671875,0.3132162392139435,-0.7560404539108276,2.1135785579681396,2026-04-11T19:15:44.217-05:00
1775952944227947300,9.151947265625,0.349367618560791,-0.9691620469093323,1.8609095811843872,2026-04-11T19:15:44.227-05:00
1775952944238003000,9.1620029296875,0.37558963894844055,-0.930770993232727,1.3805344104766846,2026-04-11T19:15:44.238-05:00
1775952944248060200,9.17206005859375,0.3322921097278595,-0.4942392110824585,0.7493875622749329,2026-04-11T19:15:44.248-05:00
1775952944258117400,9.182117431640625,0.21960629522800446,0.06962202489376068,0.07354096323251724,2026-04-11T19:15:44.258-05:00
1775952944268173300,9.19217333984375,0.06380241364240646,0.46654409170150757,-0.5161375999450684,2026-04-11T19:15:44.268-05:00
1775952944278230300,9.202230224609375,-0.08339636027812958,0.7799254059791565,-0.9372320771217346,2026-04-11T19:15:44.278-05:00
1775952944288287200,9.212287353515626,-0.19286313652992249,1.0200620889663696,-1.1928539276123047,2026-04-11T19:15:44.288-05:00
1775952944298343200,9.22234326171875,-0.267425537109375,1.1345887184143066,-1.288942575454712,2026-04-11T19:15:44.298-05:00
1775952944308400000,9.232400146484375,-0.29678356647491455,1.0976030826568604,-1.2306015491485596,2026-04-11T19:15:44.308-05:00
1775952944318457000,9.24245703125,-0.24785438179969788,0.9596270322799683,-1.0374046564102173,2026-04-11T19:15:44.318-05:00
1775952944328513300,9.25251318359375,-0.14373525977134705,0.879932165145874,-0.7892217040061951,2026-04-11T19:15:44.328-05:00
1775952944338570200,9.2625703125,-0.04024509713053703,0.8294591307640076,-0.5234874486923218,2026-04-11T19:15:44.338-05:00
1775952944348626200,9.272626220703126,0.028817294165492058,0.6962612867355347,-0.235304057598114,2026-04-11T19:15:44.348-05:00
1775952944358683100,9.28268310546875,0.034994494169950485,0.45179638266563416,0.0484970286488533,2026-04-11T19:15:44.358-05:00
1775952944368740000,9.292739990234375,0.030466461554169655,0.15335713326931,0.31099000573158264,2026-04-11T19:15:44.368-05:00
1775952944378796000,9.302796142578124,0.04411596059799194,-0.0898352786898613,0.5211714506149292,2026-04-11T19:15:44.378-05:00
1775952944388853200,9.312853271484375,0.04327604919672012,-0.35882052779197693,0.6997882723808289,2026-04-11T19:15:44.388-05:00
1775952944398910200,9.32291015625,0.04293649271130562,-0.6001396179199219,0.8486656546592712,2026-04-11T19:15:44.398-05:00
1775952944408966100,9.332966064453124,0.1018896996974945,-0.6905506253242493,0.9437446594238281,2026-04-11T19:15:44.408-05:00
1775952944419023000,9.343023193359375,0.1633293628692627,-0.618462860584259,0.9400401711463928,2026-04-11T19:15:44.419-05:00
1775952944429080000,9.353080078125,0.23461496829986572,-0.4002765417098999,0.8251237273216248,2026-04-11T19:15:44.429-05:00
1775952944439136000,9.363135986328125,0.2534938454627991,-0.21472983062267303,0.6000876426696777,2026-04-11T19:15:44.439-05:00
1775952944449193000,9.37319287109375,0.25260382890701294,0.041073255240917206,0.2770397961139679,2026-04-11T19:15:44.449-05:00
1775952944459249200,9.383249267578124,0.26981183886528015,0.27493876218795776,-0.06893064826726913,2026-04-11T19:15:44.459-05:00
1775952944469306400,9.393306396484375,0.21434591710567474,0.4306286573410034,-0.3834661841392517,2026-04-11T19:15:44.469-05:00
1775952944479363300,9.40336328125,0.1566232293844223,0.541306734085083,-0.6045935153961182,2026-04-11T19:15:44.479-05:00
1775952944489419300,9.413419189453125,0.10255991667509079,0.5605491995811462,-0.6884377598762512,2026-04-11T19:15:44.489-05:00
1775952944499476200,9.423476318359375,0.03173474222421646,0.5699272751808167,-0.6748329997062683,2026-04-11T19:15:44.499-05:00
1775952944509533200,9.433533203125,-0.014262961223721504,0.5482332706451416,-0.6027051210403442,2026-04-11T19:15:44.509-05:00
1775952944519589000,9.443589111328125,-0.09048929065465927,0.4395044147968292,-0.472037672996521,2026-04-11T19:15:44.519-05:00
1775952944529646300,9.453646240234375,-0.14176367223262787,0.2694975435733795,-0.29346877336502075,2026-04-11T19:15:44.529-05:00
1775952944539703300,9.463703369140624,-0.11634646356105804,0.1380564272403717,-0.10122688114643097,2026-04-11T19:15:44.539-05:00
1775952944549759200,9.47375927734375,-0.06912572681903839,0.09485313296318054,0.07107040286064148,2026-04-11T19:15:44.549-05:00
1775952944559816200,9.483816162109376,-0.04016810655593872,0.034566089510917664,0.22075016796588898,2026-04-11T19:15:44.559-05:00
1775952944569872100,9.4938720703125,-0.02135593071579933,-0.039001427590847015,0.3251288831233978,2026-04-11T19:15:44.569-05:00
1775952944579929000,9.50392919921875,0.03738833963871002,-0.04494054242968559,0.3531099259853363,2026-04-11T19:15:44.579-05:00
1775952944589986000,9.513986083984374,0.08382751792669296,-0.08954283595085144,0.332432359457016,2026-04-11T19:15:44.589-05:00
1775952944600042200,9.524042236328125,0.11653326451778412,-0.18918900191783905,0.3024086654186249,2026-04-11T19:15:44.600-05:00
1775952944610099200,9.53409912109375,0.10397729277610779,-0.2454955279827118,0.27922070026397705,2026-04-11T19:15:44.610-05:00
1775952944620156200,9.54415625,0.04738032817840576,-0.2385856956243515,0.28381332755088806,2026-04-11T19:15:44.620-05:00
1775952944630212000,9.554212158203125,-0.01948987878859043,-0.15210753679275513,0.3026078939437866,2026-04-11T19:15:44.630-05:00
1775952944640269000,9.56426904296875,-0.046406444162130356,-0.17003168165683746,0.3423957824707031,2026-04-11T19:15:44.640-05:00
1775952944650325000,9.574324951171874,-0.024749377742409706,-0.12623687088489532,0.33065497875213623,2026-04-11T19:15:44.650-05:00
1775952944660382200,9.58438232421875,0.0047065154649317265,-0.07191451638936996,0.268801748752594,2026-04-11T19:15:44.660-05:00
1775952944670439200,9.594439208984374,0.10723088681697845,0.08784168213605881,0.21536213159561157,2026-04-11T19:15:44.670-05:00
1775952944680495000,9.6044951171875,0.5032943487167358,0.1844145655632019,0.3028102219104767,2026-04-11T19:15:44.680-05:00
1775952944690552300,9.61455224609375,1.0417537689208984,0.09638575464487076,0.34296780824661255,2026-04-11T19:15:44.690-05:00
1775952944700609300,9.624609375,1.1670315265655518,0.1574307233095169,0.1242583692073822,2026-04-11T19:15:44.700-05:00
1775952944710665200,9.634665283203125,0.6338463425636292,-0.0029744794592261314,-0.3018561005592346,2026-04-11T19:15:44.710-05:00
1775952944720722200,9.64472216796875,-0.18540728092193604,-0.07691608369350433,-0.7453738451004028,2026-04-11T19:15:44.720-05:00
1775952944730779100,9.654779052734375,-0.5472062826156616,0.31140249967575073,-1.0378546714782715,2026-04-11T19:15:44.730-05:00
