time,seconds_elapsed,z,y,x,local_time
1775952935150708200,0.074708251953125,28.724258422851562,-8.271835327148438,75.06547546386719,2026-04-11T19:15:35.150-05:00
1775952935161143300,0.085143310546875,29.051422119140625,-8.439971923828125,75.07752990722656,2026-04-11T19:15:35.161-05:00
1775952935171577300,0.095577392578125,28.500442504882812,-8.813232421875,75.11180114746094,2026-04-11T19:15:35.171-05:00
1775952935182012400,0.106012451171875,28.91741943359375,-8.734115600585938,74.96646118164062,2026-04-11T19:15:35.182-05:00
1775952935192445400,0.116445556640625,29.041168212890625,-9.088150024414062,74.65145874023438,2026-04-11T19:15:35.192-05:00
1775952935202879200,0.126879150390625,29.132644653320312,-9.08172607421875,74.50592041015625,2026-04-11T19:15:35.202-05:00
1775952935213312500,0.1373125,29.762008666992188,-9.3028564453125,74.07672119140625,2026-04-11T19:15:35.213-05:00
1775952935223746300,0.147746337890625,29.823287963867188,-9.794845581054688,73.75053405761719,2026-04-11T19:15:35.223-05:00
1775952935234179300,0.158179443359375,30.120391845703125,-10.42425537109375,73.77937316894531,2026-04-11T19:15:35.234-05:00
1775952935244613000,0.168613037109375,30.371627807617188,-11.400741577148438,73.70779418945312,2026-04-11T19:15:35.244-05:00
1775952935255047400,0.17904736328125,30.484359741210938,-12.068618774414062,73.77943420410156,2026-04-11T19:15:35.255-05:00
1775952935265481200,0.189481201171875,31.295822143554688,-12.85162353515625,73.80091857910156,2026-04-11T19:15:35.265-05:00
1775952935275916300,0.199916259765625,31.53594970703125,-13.659210205078125,74.04550170898438,2026-04-11T19:15:35.275-05:00
1775952935286350300,0.210350341796875,31.578826904296875,-14.52227783203125,74.48434448242188,2026-04-11T19:15:35.286-05:00
1775952935296784400,0.220784423828125,31.8563232421875,-14.711990356445312,74.49697875976562,2026-04-11T19:15:35.296-05:00
1775952935307218400,0.231218505859375,31.795135498046875,-14.76171875,74.59721374511719,2026-04-11T19:15:35.307-05:00
1775952935317653200,0.2416533203125,31.688812255859375,-14.751754760742188,74.88246154785156,2026-04-11T19:15:35.317-05:00
1775952935328087300,0.25208740234375,31.864395141601562,-14.65118408203125,74.89985656738281,2026-04-11T19:15:35.328-05:00
1775952935338521300,0.262521240234375,31.018722534179688,-14.395339965820312,75.47709655761719,2026-04-11T19:15:35.338-05:00
1775952935348955400,0.272955322265625,31.007431030273438,-13.78033447265625,75.77931213378906,2026-04-11T19:15:35.348-05:00
1775952935359389400,0.283389404296875,30.700408935546875,-13.275192260742188,75.93185424804688,2026-04-11T19:15:35.359-05:00
1775952935369824300,0.29382421875,30.028121948242188,-12.932296752929688,76.17098999023438,2026-04-11T19:15:35.369-05:00
1775952935380257500,0.304257568359375,30.022216796875,-12.429550170898438,75.94277954101562,2026-04-11T19:15:35.380-05:00
1775952935390692400,0.3146923828125,29.931625366210938,-12.0906982421875,75.44914245605469,2026-04-11T19:15:35.390-05:00
1775952935401127400,0.32512744140625,29.8626708984375,-11.771133422851562,75.177490234375,2026-04-11T19:15:35.401-05:00
1775952935411560400,0.335560546875,30.190841674804688,-11.697723388671875,74.71830749511719,2026-04-11T19:15:35.411-05:00
1775952935421994200,0.345994140625,30.239761352539062,-11.553070068359375,74.32363891601562,2026-04-11T19:15:35.421-05:00
1775952935432429300,0.35642919921875,30.551467895507812,-11.476242065429688,74.14059448242188,2026-04-11T19:15:35.432-05:00
1775952935442864000,0.366864013671875,30.652908325195312,-11.261444091796875,73.62443542480469,2026-04-11T19:15:35.442-05:00
1775952935453298400,0.37729833984375,30.768173217773438,-11.291885375976562,73.04985046386719,2026-04-11T19:15:35.453-05:00
1775952935463732200,0.387732177734375,31.35009765625,-11.046844482421875,72.16780090332031,2026-04-11T19:15:35.463-05:00
1775952935474166500,0.39816650390625,31.417816162109375,-10.902435302734375,71.22308349609375,2026-04-11T19:15:35.474-05:00
1775952935484601300,0.408601318359375,31.979019165039062,-10.598617553710938,70.0643310546875,2026-04-11T19:15:35.484-05:00
1775952935495035100,0.41903515625,32.722900390625,-10.306533813476562,69.12838745117188,2026-04-11T19:15:35.495-05:00
1775952935505470200,0.42947021484375,32.90850830078125,-10.654953002929688,68.4935302734375,2026-04-11T19:15:35.505-05:00
1775952935515905500,0.439905517578125,33.35511779785156,-10.68115234375,68.14918518066406,2026-04-11T19:15:35.515-05:00
1775952935526340400,0.45034033203125,33.53221130371094,-10.916275024414062,67.96697998046875,2026-04-11T19:15:35.526-05:00
1775952935536775400,0.460775390625,33.5091552734375,-10.82940673828125,67.72648620605469,2026-04-11T19:15:35.536-05:00
1775952935547210200,0.471210205078125,33.78437805175781,-10.516983032226562,67.60203552246094,2026-04-11T19:15:35.547-05:00
1775952935557644500,0.48164453125,33.815185546875,-10.268783569335938,67.46923828125,2026-04-11T19:15:35.557-05:00
1775952935568078300,0.492078369140625,33.130645751953125,-9.701980590820312,67.404296875,2026-04-11T19:15:35.568-05:00
1775952935578512100,0.50251220703125,33.62257385253906,-9.303192138671875,67.43614196777344,2026-04-11T19:15:35.578-05:00
1775952935588946400,0.512946533203125,32.67366027832031,-8.830551147460938,67.4061279296875,2026-04-11T19:15:35.588-05:00
1775952935599381200,0.52338134765625,32.98872375488281,-8.373611450195312,67.35635375976562,2026-04-11T19:15:35.599-05:00
1775952935609815300,0.533815185546875,32.2557373046875,-8.370361328125,67.68635559082031,2026-04-11T19:15:35.609-05:00
1775952935620249300,0.544249267578125,32.1729736328125,-7.9475555419921875,67.61466979980469,2026-04-11T19:15:35.620-05:00
1775952935630683100,0.55468310546875,32.82244873046875,-8.392242431640625,67.08348083496094,2026-04-11T19:15:35.630-05:00
1775952935641118500,0.565118408203125,33.303680419921875,-8.792190551757812,66.8756103515625,2026-04-11T19:15:35.641-05:00
1775952935651553500,0.575553466796875,33.74598693847656,-9.44598388671875,66.19454956054688,2026-04-11T19:15:35.651-05:00
1775952935661988400,0.58598828125,34.965728759765625,-10.158187866210938,65.58247375488281,2026-04-11T19:15:35.661-05:00
1775952935672423400,0.59642333984375,35.34919738769531,-10.830902099609375,65.16114807128906,2026-04-11T19:15:35.672-05:00
1775952935682858200,0.606858154296875,35.41709899902344,-10.944503784179688,64.95907592773438,2026-04-11T19:15:35.682-05:00
1775952935693292500,0.61729248046875,35.901580810546875,-11.19122314453125,64.79472351074219,2026-04-11T19:15:35.693-05:00
1775952935703727400,0.627727294921875,35.5419921875,-11.198944091796875,64.81939697265625,2026-04-11T19:15:35.703-05:00
1775952935714162400,0.638162353515625,35.552764892578125,-10.605194091796875,64.65447998046875,2026-04-11T19:15:35.714-05:00
1775952935724597200,0.64859716796875,35.46112060546875,-10.3914794921875,64.71095275878906,2026-04-11T19:15:35.724-05:00
1775952935735032300,0.6590322265625,35.46258544921875,-10.258560180664062,64.81272888183594,2026-04-11T19:15:35.735-05:00
1775952935745467100,0.669467041015625,35.820343017578125,-10.158920288085938,64.95867919921875,2026-04-11T19:15:35.745-05:00
1775952935755902500,0.67990234375,34.89617919921875,-10.301177978515625,64.95835876464844,2026-04-11T19:15:35.755-05:00
1775952935766338300,0.69033837890625,35.54557800292969,-10.24658203125,65.00955200195312,2026-04-11T19:15:35.766-05:00
1775952935776772400,0.7007724609375,35.43858337402344,-10.173690795898438,64.91770935058594,2026-04-11T19:15:35.776-05:00
1775952935787208400,0.71120849609375,35.50941467285156,-10.25640869140625,65.03692626953125,2026-04-11T19:15:35.787-05:00
1775952935797643300,0.721643310546875,35.366668701171875,-10.1397705078125,65.13236999511719,2026-04-11T19:15:35.797-05:00
1775952935808078300,0.732078369140625,34.927764892578125,-10.244552612304688,65.62290954589844,2026-04-11T19:15:35.808-05:00
1775952935818513400,0.742513427734375,34.40251159667969,-9.85186767578125,65.79862976074219,2026-04-11T19:15:35.818-05:00
1775952935828947500,0.752947509765625,34.65361022949219,-9.708450317382812,66.25794982910156,2026-04-11T19:15:35.828-05:00
1775952935839382300,0.76338232421875,33.811004638671875,-9.652740478515625,66.6956787109375,2026-04-11T19:15:35.839-05:00
1775952935849818400,0.773818359375,33.594940185546875,-9.677047729492188,67.13467407226562,2026-04-11T19:15:35.849-05:00
1775952935860253400,0.78425341796875,33.319580078125,-9.547653198242188,67.32826232910156,2026-04-11T19:15:35.860-05:00
1775952935870689500,0.794689453125,33.08100891113281,-9.813568115234375,67.63116455078125,2026-04-11T19:15:35.870-05:00
1775952935881124400,0.805124267578125,33.48268127441406,-9.825119018554688,67.37985229492188,2026-04-11T19:15:35.881-05:00
1775952935891559400,0.815559326171875,33.7691650390625,-10.21966552734375,67.16055297851562,2026-04-11T19:15:35.891-05:00
1775952935901994200,0.825994140625,33.918548583984375,-11.018569946289062,66.84785461425781,2026-04-11T19:15:35.901-05:00
1775952935912429300,0.83642919921875,34.89459228515625,-11.310577392578125,66.67451477050781,2026-04-11T19:15:35.912-05:00
1775952935922864000,0.846864013671875,35.031005859375,-11.840469360351562,66.45492553710938,2026-04-11T19:15:35.922-05:00
1775952935933299500,0.857299560546875,35.36872863769531,-11.999496459960938,66.10800170898438,2026-04-11T19:15:35.933-05:00
1775952935943734300,0.867734375,35.44659423828125,-12.063446044921875,66.16070556640625,2026-04-11T19:15:35.943-05:00
1775952935954168300,0.878168212890625,35.371429443359375,-11.999359130859375,65.98611450195312,2026-04-11T19:15:35.954-05:00
1775952935964603100,0.88860302734375,36.056427001953125,-11.876785278320312,65.77615356445312,2026-04-11T19:15:35.964-05:00
1775952935975038500,0.89903857421875,35.951263427734375,-11.818954467773438,65.5318603515625,2026-04-11T19:15:35.975-05:00
1775952935985473500,0.9094736328125,35.81732177734375,-11.71063232421875,65.31039428710938,2026-04-11T19:15:35.985-05:00
1775952935995908400,0.919908447265625,36.038055419921875,-11.495620727539062,65.18824768066406,2026-04-11T19:15:35.995-05:00
1775952936006343400,0.930343505859375,36.1474609375,-11.210647583007812,64.69105529785156,2026-04-11T19:15:36.006-05:00
1775952936016778200,0.9407783203125,36.811737060546875,-11.134323120117188,64.03904724121094,2026-04-11T19:15:36.016-05:00
1775952936027213300,0.95121337890625,37.12928771972656,-11.255157470703125,63.894683837890625,2026-04-11T19:15:36.027-05:00
1775952936037648100,0.961648193359375,37.29371643066406,-11.532821655273438,63.52287292480469,2026-04-11T19:15:36.037-05:00
1775952936048083500,0.97208349609375,37.83454895019531,-11.11328125,62.91590881347656,2026-04-11T19:15:36.048-05:00
1775952936058518300,0.982518310546875,38.20588684082031,-10.905746459960938,62.624114990234375,2026-04-11T19:15:36.058-05:00
1775952936068954400,0.992954345703125,37.928741455078125,-10.679901123046875,62.17976379394531,2026-04-11T19:15:36.068-05:00
1775952936079388400,1.003388427734375,38.50379943847656,-10.170181274414062,61.91502380371094,2026-04-11T19:15:36.079-05:00
1775952936089823200,1.0138232421875,37.969024658203125,-9.723678588867188,61.614501953125,2026-04-11T19:15:36.089-05:00
1775952936100259800,1.024259765625,38.06178283691406,-9.468032836914062,61.72235107421875,2026-04-11T19:15:36.100-05:00
1775952936110694700,1.034694580078125,37.73065185546875,-9.4771728515625,61.998687744140625,2026-04-11T19:15:36.110-05:00
1775952936121129700,1.045129638671875,37.2762451171875,-9.31744384765625,62.333282470703125,2026-04-11T19:15:36.121-05:00
1775952936131565800,1.05556591796875,37.29728698730469,-9.13275146484375,62.525177001953125,2026-04-11T19:15:36.131-05:00
1775952936142000600,1.066000732421875,37.09619140625,-9.249862670898438,62.69737243652344,2026-04-11T19:15:36.142-05:00
1775952936152435700,1.076435791015625,36.81532287597656,-9.443069458007812,63.0234375,2026-04-11T19:15:36.152-05:00
1775952936162870800,1.086870849609375,37.15138244628906,-9.50445556640625,62.89739990234375,2026-04-11T19:15:36.162-05:00
1775952936173305900,1.097305908203125,37.15789794921875,-9.669403076171875,62.68408203125,2026-04-11T19:15:36.173-05:00
1775952936183741000,1.107740966796875,37.60406494140625,-9.978790283203125,62.51872253417969,2026-04-11T19:15:36.183-05:00
1775952936194175700,1.11817578125,38.54344177246094,-10.599197387695312,62.175262451171875,2026-04-11T19:15:36.194-05:00
1775952936204611800,1.12861181640625,38.80085754394531,-11.3106689453125,61.9295654296875,2026-04-11T19:15:36.204-05:00
1775952936215046700,1.139046630859375,40.12774658203125,-12.013702392578125,61.23295593261719,2026-04-11T19:15:36.215-05:00
1775952936225481700,1.149481689453125,41.577728271484375,-12.9029541015625,60.32763671875,2026-04-11T19:15:36.225-05:00
1775952936235916800,1.159916748046875,43.018341064453125,-13.478469848632812,58.93443298339844,2026-04-11T19:15:36.235-05:00
1775952936246352000,1.170351806640625,45.4931640625,-13.8697509765625,57.65519714355469,2026-04-11T19:15:36.246-05:00
1775952936256787700,1.18078759765625,47.690032958984375,-14.213363647460938,56.18902587890625,2026-04-11T19:15:36.256-05:00
1775952936267222800,1.191222900390625,50.35821533203125,-14.42144775390625,54.69239807128906,2026-04-11T19:15:36.267-05:00
1775952936277659000,1.201658935546875,53.395782470703125,-14.432083129882812,53.42442321777344,2026-04-11T19:15:36.277-05:00
1775952936288094000,1.212093994140625,56.19476318359375,-14.323135375976562,51.90837097167969,2026-04-11T19:15:36.288-05:00
1775952936298529800,1.22252978515625,59.8680419921875,-14.005935668945312,50.71966552734375,2026-04-11T19:15:36.298-05:00
1775952936308965600,1.232965576171875,63.26953125,-13.407699584960938,49.65107727050781,2026-04-11T19:15:36.308-05:00
1775952936319401000,1.24340087890625,66.58924865722656,-12.802108764648438,48.52107238769531,2026-04-11T19:15:36.319-05:00
1775952936329835800,1.253835693359375,70.35716247558594,-11.753631591796875,48.07635498046875,2026-04-11T19:15:36.329-05:00
1775952936340271900,1.26427197265625,73.27656555175781,-10.652557373046875,47.50645446777344,2026-04-11T19:15:36.340-05:00
1775952936350707700,1.274707763671875,76.16557312011719,-9.09527587890625,47.40093994140625,2026-04-11T19:15:36.350-05:00
1775952936361143800,1.285143798828125,78.86825561523438,-7.3592071533203125,47.16064453125,2026-04-11T19:15:36.361-05:00
1775952936371579600,1.29557958984375,81.07168579101562,-5.0587310791015625,46.58073425292969,2026-04-11T19:15:36.371-05:00
1775952936382014700,1.3060146484375,82.85330200195312,-2.6760406494140625,46.837493896484375,2026-04-11T19:15:36.382-05:00
1775952936392450800,1.316450927734375,84.55072021484375,-0.52496337890625,46.574554443359375,2026-04-11T19:15:36.392-05:00
1775952936402885600,1.3268857421875,85.34193420410156,2.0005950927734375,46.455780029296875,2026-04-11T19:15:36.402-05:00
1775952936413320700,1.33732080078125,86.49888610839844,4.5710296630859375,46.720489501953125,2026-04-11T19:15:36.413-05:00
1775952936423755800,1.347755859375,87.36402893066406,7.059722900390625,46.62596130371094,2026-04-11T19:15:36.423-05:00
1775952936434190800,1.35819091796875,88.07652282714844,9.887130737304688,47.1053466796875,2026-04-11T19:15:36.434-05:00
1775952936444627000,1.368626953125,88.71737670898438,12.747085571289062,47.775421142578125,2026-04-11T19:15:36.444-05:00
1775952936455062800,1.379062744140625,88.99752807617188,15.675750732421875,48.01312255859375,2026-04-11T19:15:36.455-05:00
1775952936465498600,1.38949853515625,89.45463562011719,18.45947265625,49.286102294921875,2026-04-11T19:15:36.465-05:00
1775952936475934000,1.399933837890625,89.8526611328125,21.409774780273438,49.992950439453125,2026-04-11T19:15:36.475-05:00
1775952936486369800,1.410369873046875,90.39271545410156,24.283782958984375,50.82179260253906,2026-04-11T19:15:36.486-05:00
1775952936496804900,1.420804931640625,90.77481079101562,26.317169189453125,52.58857727050781,2026-04-11T19:15:36.496-05:00
1775952936507240700,1.43124072265625,91.67401123046875,28.265213012695312,53.944732666015625,2026-04-11T19:15:36.507-05:00
1775952936517675800,1.44167578125,92.58514404296875,30.415130615234375,55.50799560546875,2026-04-11T19:15:36.517-05:00
1775952936528110800,1.45211083984375,94.27853393554688,31.975479125976562,57.77616882324219,2026-04-11T19:15:36.528-05:00
1775952936538547000,1.462546875,95.10823059082031,33.94374084472656,59.72200012207031,2026-04-11T19:15:36.538-05:00
1775952936548982800,1.472982666015625,96.1363525390625,35.69708251953125,62.37896728515625,2026-04-11T19:15:36.548-05:00
1775952936559418600,1.483418701171875,96.97816467285156,37.20814514160156,64.78053283691406,2026-04-11T19:15:36.559-05:00
1775952936569854700,1.493854736328125,96.93928527832031,39.2164306640625,66.96511840820312,2026-04-11T19:15:36.569-05:00
1775952936580289800,1.504289794921875,96.54322814941406,40.82716369628906,69.07102966308594,2026-04-11T19:15:36.580-05:00
1775952936590724900,1.514724853515625,95.70968627929688,42.414764404296875,70.6817626953125,2026-04-11T19:15:36.590-05:00
1775952936601160000,1.525159912109375,94.77430725097656,43.978363037109375,72.07672119140625,2026-04-11T19:15:36.601-05:00
1775952936611593700,1.53559375,93.44517517089844,45.28785705566406,73.32594299316406,2026-04-11T19:15:36.611-05:00
1775952936622028800,1.54602880859375,92.52384948730469,46.50920104980469,74.07429504394531,2026-04-11T19:15:36.622-05:00
1775952936632462800,1.556462890625,91.24470520019531,47.08088684082031,74.96517944335938,2026-04-11T19:15:36.632-05:00
1775952936642896600,1.566896728515625,90.39303588867188,47.71684265136719,75.27589416503906,2026-04-11T19:15:36.642-05:00
1775952936653331000,1.5773310546875,89.68350219726562,48.099365234375,75.41265869140625,2026-04-11T19:15:36.653-05:00
1775952936663765800,1.587765869140625,89.34318542480469,47.96247863769531,74.93992614746094,2026-04-11T19:15:36.663-05:00
1775952936674200800,1.598200927734375,88.43136596679688,47.732147216796875,73.89775085449219,2026-04-11T19:15:36.674-05:00
1775952936684635600,1.6086357421875,87.99932861328125,47.45362854003906,72.40776062011719,2026-04-11T19:15:36.684-05:00
1775952936695070700,1.61907080078125,87.90962219238281,46.47319030761719,70.92384338378906,2026-04-11T19:15:36.695-05:00
1775952936705505800,1.629505859375,87.52461242675781,46.05415344238281,69.12606811523438,2026-04-11T19:15:36.705-05:00
1775952936715940900,1.63994091796875,87.39961242675781,44.9154052734375,67.83828735351562,2026-04-11T19:15:36.715-05:00
1775952936726376000,1.6503759765625,87.72688293457031,44.03852844238281,66.56666564941406,2026-04-11T19:15:36.726-05:00
1775952936736811800,1.660811767578125,88.68373107910156,43.17115783691406,65.35643005371094,2026-04-11T19:15:36.736-05:00
1775952936747246800,1.671246826171875,89.71746826171875,41.59156799316406,64.706787109375,2026-04-11T19:15:36.747-05:00
1775952936757683000,1.681682861328125,91.17535400390625,40.38201904296875,63.70402526855469,2026-04-11T19:15:36.757-05:00
1775952936768117800,1.69211767578125,92.36212158203125,39.35273742675781,63.29258728027344,2026-04-11T19:15:36.768-05:00
1775952936778552800,1.702552734375,93.35310363769531,38.127532958984375,62.921051025390625,2026-04-11T19:15:36.778-05:00
1775952936788987600,1.712987548828125,93.96905517578125,37.289581298828125,62.22453308105469,2026-04-11T19:15:36.788-05:00
1775952936799422700,1.723422607421875,95.13238525390625,36.336578369140625,62.22349548339844,2026-04-11T19:15:36.799-05:00
1775952936809857800,1.73385791015625,96.06582641601562,35.81684875488281,62.570343017578125,2026-04-11T19:15:36.809-05:00
1775952936820292900,1.74429296875,96.58737182617188,36.01609802246094,62.65325927734375,2026-04-11T19:15:36.820-05:00
1775952936830728700,1.754728759765625,97.50056457519531,35.52081298828125,63.683319091796875,2026-04-11T19:15:36.830-05:00
1775952936841163800,1.765163818359375,98.20277404785156,35.592132568359375,64.57228088378906,2026-04-11T19:15:36.841-05:00
1775952936851598800,1.775598876953125,98.90921020507812,35.608154296875,65.02337646484375,2026-04-11T19:15:36.851-05:00
1775952936862035000,1.786034912109375,99.22903442382812,35.35844421386719,65.50907897949219,2026-04-11T19:15:36.862-05:00
1775952936872469800,1.7964697265625,99.15669250488281,35.52545166015625,65.19178771972656,2026-04-11T19:15:36.872-05:00
1775952936882904800,1.80690478515625,99.02702331542969,35.06129455566406,64.61027526855469,2026-04-11T19:15:36.882-05:00
1775952936893339600,1.817339599609375,98.51875305175781,34.59947204589844,63.939239501953125,2026-04-11T19:15:36.893-05:00
1775952936903774700,1.827774658203125,97.85133361816406,34.860260009765625,63.02374267578125,2026-04-11T19:15:36.903-05:00
1775952936914209800,1.838209716796875,97.496826171875,34.30064392089844,62.631561279296875,2026-04-11T19:15:36.914-05:00
1775952936924643800,1.848643798828125,96.72480773925781,34.64115905761719,62.04248046875,2026-04-11T19:15:36.924-05:00
1775952936935079000,1.859078857421875,95.96852111816406,34.946044921875,61.73744201660156,2026-04-11T19:15:36.935-05:00
1775952936945513700,1.869513671875,95.30894470214844,35.15458679199219,61.82354736328125,2026-04-11T19:15:36.945-05:00
1775952936955949800,1.87994970703125,94.47711181640625,35.96372985839844,61.33282470703125,2026-04-11T19:15:36.955-05:00
1775952936966386000,1.890385986328125,93.90635681152344,36.21826171875,61.19309997558594,2026-04-11T19:15:36.966-05:00
1775952936976821800,1.90082177734375,93.12445068359375,36.47624206542969,61.12010192871094,2026-04-11T19:15:36.976-05:00
1775952936987256800,1.9112568359375,92.35272216796875,36.618621826171875,60.71818542480469,2026-04-11T19:15:36.987-05:00
1775952936997693000,1.92169287109375,92.67094421386719,36.74676513671875,61.03749084472656,2026-04-11T19:15:36.997-05:00
1775952937008127700,1.932127685546875,92.9512939453125,37.227569580078125,61.519775390625,2026-04-11T19:15:37.008-05:00
1775952937018563800,1.942563720703125,93.35090637207031,38.03343200683594,62.41499328613281,2026-04-11T19:15:37.018-05:00
1775952937029000000,1.953,94.08355712890625,38.8004150390625,63.98963928222656,2026-04-11T19:15:37.029-05:00
1775952937039436800,1.963436767578125,94.2755126953125,39.63514709472656,65.34010314941406,2026-04-11T19:15:37.039-05:00
1775952937049872600,1.97387255859375,94.86726379394531,40.43687438964844,66.423583984375,2026-04-11T19:15:37.049-05:00
1775952937060308700,1.984308837890625,95.15296936035156,40.947021484375,67.54296875,2026-04-11T19:15:37.060-05:00
1775952937070743800,1.994743896484375,95.83110046386719,41.554718017578125,68.43545532226562,2026-04-11T19:15:37.070-05:00
1775952937081180000,2.005179931640625,96.08409118652344,41.57136535644531,69.72358703613281,2026-04-11T19:15:37.081-05:00
1775952937091615700,2.01561572265625,96.37615966796875,42.047027587890625,70.65524291992188,2026-04-11T19:15:37.091-05:00
1775952937102051300,2.02605126953125,96.49465942382812,42.67295837402344,71.25735473632812,2026-04-11T19:15:37.102-05:00
1775952937112486400,2.036486328125,96.52972412109375,42.77435302734375,72.21018981933594,2026-04-11T19:15:37.112-05:00
1775952937122922500,2.046922607421875,96.34774780273438,43.41986083984375,72.72727966308594,2026-04-11T19:15:37.122-05:00
1775952937133357300,2.057357421875,96.19580078125,43.53779602050781,73.56524658203125,2026-04-11T19:15:37.133-05:00
1775952937143793400,2.06779345703125,96.08627319335938,44.19319152832031,74.49382019042969,2026-04-11T19:15:37.143-05:00
1775952937154230500,2.07823046875,96.16490173339844,44.68153381347656,75.37379455566406,2026-04-11T19:15:37.154-05:00
1775952937164666400,2.088666259765625,96.77783203125,44.97096252441406,76.97889709472656,2026-04-11T19:15:37.164-05:00
1775952937175102500,2.0991025390625,97.10220336914062,45.28961181640625,78.823974609375,2026-04-11T19:15:37.175-05:00
1775952937185539600,2.10953955078125,98.29170227050781,45.647979736328125,80.65151977539062,2026-04-11T19:15:37.185-05:00
1775952937195974400,2.119974365234375,98.50765991210938,45.415130615234375,81.97944641113281,2026-04-11T19:15:37.195-05:00
1775952937206409500,2.130409423828125,98.77220153808594,45.52667236328125,82.39598083496094,2026-04-11T19:15:37.206-05:00
1775952937216845300,2.14084521484375,98.89422607421875,45.35810852050781,82.52525329589844,2026-04-11T19:15:37.216-05:00
1775952937227280400,2.1512802734375,99.03884887695312,45.23970031738281,82.52728271484375,2026-04-11T19:15:37.227-05:00
1775952937237716500,2.161716552734375,99.40863037109375,45.20341491699219,82.20326232910156,2026-04-11T19:15:37.237-05:00
1775952937248151300,2.1721513671875,99.45497131347656,44.742584228515625,82.19491577148438,2026-04-11T19:15:37.248-05:00
1775952937258586400,2.18258642578125,99.72344970703125,44.581146240234375,81.9927978515625,2026-04-11T19:15:37.258-05:00
1775952937269022500,2.1930224609375,99.87954711914062,44.38148498535156,82.01899719238281,2026-04-11T19:15:37.269-05:00
1775952937279458300,2.203458251953125,100.33552551269531,44.20845031738281,82.60345458984375,2026-04-11T19:15:37.279-05:00
1775952937289894400,2.213894287109375,100.61576843261719,44.31996154785156,82.76210021972656,2026-04-11T19:15:37.289-05:00
1775952937300329500,2.22432958984375,100.25187683105469,44.14179992675781,83.32687377929688,2026-04-11T19:15:37.300-05:00
1775952937310764300,2.234764404296875,100.44087219238281,44.21534729003906,84.08642578125,2026-04-11T19:15:37.310-05:00
1775952937321199400,2.245199462890625,100.11720275878906,45.20013427734375,84.79316711425781,2026-04-11T19:15:37.321-05:00
1775952937331634400,2.255634521484375,100.04545593261719,45.027984619140625,86.23988342285156,2026-04-11T19:15:37.331-05:00
1775952937342068500,2.266068359375,100.01480102539062,45.733367919921875,87.38638305664062,2026-04-11T19:15:37.342-05:00
1775952937352504300,2.27650439453125,99.4197998046875,46.123016357421875,88.82350158691406,2026-04-11T19:15:37.352-05:00
1775952937362939400,2.286939453125,99.07847595214844,46.14805603027344,90.20481872558594,2026-04-11T19:15:37.362-05:00
1775952937373374500,2.29737451171875,98.84638977050781,46.79692077636719,91.77914428710938,2026-04-11T19:15:37.373-05:00
1775952937383809300,2.307809326171875,98.13198852539062,47.03021240234375,93.51658630371094,2026-04-11T19:15:37.383-05:00
1775952937394244600,2.31824462890625,97.639892578125,47.269500732421875,94.72987365722656,2026-04-11T19:15:37.394-05:00
1775952937404679400,2.328679443359375,96.92164611816406,47.972137451171875,96.34950256347656,2026-04-11T19:15:37.404-05:00
1775952937415115500,2.339115478515625,96.10003662109375,47.79878234863281,98.12814331054688,2026-04-11T19:15:37.415-05:00
1775952937425549300,2.34954931640625,95.00852966308594,48.2681884765625,99.89697265625,2026-04-11T19:15:37.425-05:00
1775952937435985400,2.3599853515625,94.03514099121094,48.47529602050781,102.07539367675781,2026-04-11T19:15:37.435-05:00
1775952937446421500,2.37042138671875,92.86172485351562,48.55903625488281,104.12223815917969,2026-04-11T19:15:37.446-05:00
1775952937456856300,2.380856201171875,90.88018798828125,48.70997619628906,106.34724426269531,2026-04-11T19:15:37.456-05:00
1775952937467292400,2.39129248046875,90.15238952636719,48.62359619140625,108.26936340332031,2026-04-11T19:15:37.467-05:00
1775952937477728500,2.401728515625,88.07992553710938,48.426239013671875,110.30149841308594,2026-04-11T19:15:37.477-05:00
1775952937488164400,2.412164306640625,86.44805908203125,48.53509521484375,112.03025817871094,2026-04-11T19:15:37.488-05:00
1775952937498599400,2.422599365234375,84.32342529296875,48.1312255859375,113.55262756347656,2026-04-11T19:15:37.498-05:00
1775952937509034500,2.433034423828125,82.13945007324219,48.24223327636719,114.37876892089844,2026-04-11T19:15:37.509-05:00
1775952937519470600,2.443470703125,79.35362243652344,49.30955505371094,114.34091186523438,2026-04-11T19:15:37.519-05:00
1775952937529905400,2.453905517578125,77.21072387695312,50.038330078125,113.57742309570312,2026-04-11T19:15:37.529-05:00
1775952937540340500,2.464340576171875,74.94680786132812,51.72770690917969,110.90687561035156,2026-04-11T19:15:37.540-05:00
1775952937550775300,2.474775390625,74.38259887695312,52.81275939941406,107.61540222167969,2026-04-11T19:15:37.550-05:00
1775952937561210400,2.48521044921875,75.67042541503906,53.556915283203125,104.28488159179688,2026-04-11T19:15:37.561-05:00
1775952937571645200,2.495645263671875,77.12966918945312,54.46778869628906,101.14619445800781,2026-04-11T19:15:37.571-05:00
1775952937582080500,2.50608056640625,78.20079040527344,54.24102783203125,98.8751220703125,2026-04-11T19:15:37.582-05:00
1775952937592515600,2.516515625,78.41069030761719,54.48297119140625,96.59916687011719,2026-04-11T19:15:37.592-05:00
1775952937602950400,2.526950439453125,78.43241882324219,54.82484436035156,94.56919860839844,2026-04-11T19:15:37.602-05:00
1775952937613385500,2.537385498046875,78.4102783203125,54.74617004394531,93.02165222167969,2026-04-11T19:15:37.613-05:00
1775952937623819500,2.547819580078125,77.82858276367188,54.937744140625,91.38479614257812,2026-04-11T19:15:37.623-05:00
1775952937634254600,2.558254638671875,77.66751098632812,55.02787780761719,89.99371337890625,2026-04-11T19:15:37.634-05:00
1775952937644690400,2.5686904296875,77.54083251953125,54.804718017578125,89.38645935058594,2026-04-11T19:15:37.644-05:00
1775952937655124500,2.57912451171875,77.9560546875,55.06236267089844,89.0079345703125,2026-04-11T19:15:37.655-05:00
1775952937665558300,2.589558349609375,78.87945556640625,54.5963134765625,89.27003479003906,2026-04-11T19:15:37.665-05:00
1775952937675993600,2.59999365234375,79.56806945800781,54.627685546875,89.65806579589844,2026-04-11T19:15:37.675-05:00
1775952937686428400,2.610428466796875,79.89544677734375,54.71636962890625,90.02293395996094,2026-04-11T19:15:37.686-05:00
1775952937696863500,2.620863525390625,80.2816162109375,54.43540954589844,90.89131164550781,2026-04-11T19:15:37.696-05:00
1775952937707298300,2.63129833984375,80.10606384277344,54.48631286621094,91.35731506347656,2026-04-11T19:15:37.707-05:00
1775952937717733400,2.6417333984375,79.90080261230469,54.621429443359375,91.88252258300781,2026-04-11T19:15:37.717-05:00
1775952937728168400,2.65216845703125,79.96014404296875,54.36541748046875,92.46488952636719,2026-04-11T19:15:37.728-05:00
1775952937738603500,2.662603515625,79.66404724121094,54.730377197265625,92.58241271972656,2026-04-11T19:15:37.738-05:00
1775952937749038600,2.67303857421875,79.83268737792969,54.55039978027344,92.95747375488281,2026-04-11T19:15:37.749-05:00
1775952937759473400,2.683473388671875,80.0228271484375,54.44575500488281,93.09349060058594,2026-04-11T19:15:37.759-05:00
1775952937769908500,2.693908447265625,80.39483642578125,54.764801025390625,92.99278259277344,2026-04-11T19:15:37.769-05:00
1775952937780344600,2.704344482421875,80.93231201171875,54.36412048339844,93.01502990722656,2026-04-11T19:15:37.780-05:00
1775952937790778400,2.7147783203125,81.22923278808594,54.600921630859375,92.9212646484375,2026-04-11T19:15:37.790-05:00
1775952937801213400,2.72521337890625,81.61993408203125,54.58924865722656,92.61289978027344,2026-04-11T19:15:37.801-05:00
1775952937811647500,2.7356474609375,82.00517272949219,54.09355163574219,92.588134765625,2026-04-11T19:15:37.811-05:00
1775952937822082300,2.746082275390625,82.02497863769531,54.139373779296875,91.84423828125,2026-04-11T19:15:37.822-05:00
1775952937832517400,2.756517333984375,82.47737121582031,54.07769775390625,91.352294921875,2026-04-11T19:15:37.832-05:00
1775952937842951400,2.766951416015625,83.00137329101562,53.78279113769531,90.94482421875,2026-04-11T19:15:37.842-05:00
1775952937853386500,2.777386474609375,83.14877319335938,53.91914367675781,90.09024047851562,2026-04-11T19:15:37.853-05:00
1775952937863822600,2.787822509765625,83.3035888671875,53.621063232421875,89.09822082519531,2026-04-11T19:15:37.863-05:00
1775952937874257400,2.79825732421875,83.53770446777344,53.69660949707031,88.42152404785156,2026-04-11T19:15:37.874-05:00
1775952937884692500,2.8086923828125,83.95127868652344,53.68922424316406,88.03410339355469,2026-04-11T19:15:37.884-05:00
1775952937895127300,2.819127197265625,84.31544494628906,53.21540832519531,87.72172546386719,2026-04-11T19:15:37.895-05:00
1775952937905563400,2.8295634765625,84.37693786621094,53.5047607421875,87.41244506835938,2026-04-11T19:15:37.905-05:00
1775952937915999500,2.83999951171875,84.95382690429688,53.242950439453125,87.56735229492188,2026-04-11T19:15:37.915-05:00
1775952937926434300,2.850434326171875,85.24400329589844,53.2457275390625,87.67819213867188,2026-04-11T19:15:37.926-05:00
1775952937936868600,2.86086865234375,85.62208557128906,53.198974609375,87.34124755859375,2026-04-11T19:15:37.936-05:00
1775952937947303400,2.871303466796875,85.83772277832031,52.756622314453125,87.39784240722656,2026-04-11T19:15:37.947-05:00
1775952937957738500,2.881738525390625,85.97285461425781,52.81388854980469,87.26716613769531,2026-04-11T19:15:37.957-05:00
1775952937968173300,2.89217333984375,85.7896728515625,52.86627197265625,86.8956298828125,2026-04-11T19:15:37.968-05:00
1775952937978609400,2.902609375,85.8387451171875,52.41966247558594,86.82951354980469,2026-04-11T19:15:37.978-05:00
1775952937989043500,2.91304345703125,85.61079406738281,52.9044189453125,86.346923828125,2026-04-11T19:15:37.989-05:00
1775952937999479300,2.923479248046875,85.62901306152344,52.84417724609375,85.87196350097656,2026-04-11T19:15:37.999-05:00
1775952938009914400,2.933914306640625,85.31678771972656,52.6396484375,85.53530883789062,2026-04-11T19:15:38.009-05:00
1775952938020349400,2.944349365234375,84.87643432617188,52.971527099609375,85.14590454101562,2026-04-11T19:15:38.020-05:00
1775952938030784500,2.954784423828125,84.70338439941406,52.77178955078125,84.87722778320312,2026-04-11T19:15:38.030-05:00
1775952938041219600,2.965219482421875,83.81898498535156,52.924285888671875,84.23228454589844,2026-04-11T19:15:38.041-05:00
1775952938051655400,2.975655517578125,83.02235412597656,53.00645446777344,83.71080017089844,2026-04-11T19:15:38.051-05:00
1775952938062090500,2.986090576171875,82.61477661132812,53.0172119140625,83.283203125,2026-04-11T19:15:38.062-05:00
1775952938072526600,2.996526611328125,81.54396057128906,53.391510009765625,82.91226196289062,2026-04-11T19:15:38.072-05:00
1775952938082961400,3.00696142578125,81.11831665039062,53.47126770019531,82.58528137207031,2026-04-11T19:15:38.082-05:00
1775952938093397800,3.017397705078125,79.83572387695312,53.673675537109375,82.0396728515625,2026-04-11T19:15:38.093-05:00
1775952938103832800,3.027832763671875,78.76472473144531,54.03599548339844,81.50019836425781,2026-04-11T19:15:38.103-05:00
1775952938114267600,3.038267578125,78.92784118652344,53.70411682128906,81.87214660644531,2026-04-11T19:15:38.114-05:00
1775952938124701700,3.04870166015625,79.79142761230469,53.747528076171875,82.02935791015625,2026-04-11T19:15:38.124-05:00
1775952938135137500,3.059137451171875,80.10865783691406,53.592193603515625,82.52433776855469,2026-04-11T19:15:38.135-05:00
1775952938145572600,3.069572509765625,80.84036254882812,53.382415771484375,82.88444519042969,2026-04-11T19:15:38.145-05:00
1775952938156008000,3.080008056640625,81.41590881347656,53.650390625,82.79510498046875,2026-04-11T19:15:38.156-05:00
1775952938166442800,3.09044287109375,82.41807556152344,53.38629150390625,82.99847412109375,2026-04-11T19:15:38.166-05:00
1775952938176876500,3.10087646484375,82.82354736328125,53.12715148925781,83.35061645507812,2026-04-11T19:15:38.176-05:00
1775952938187311600,3.1113115234375,83.52180480957031,53.205322265625,83.39973449707031,2026-04-11T19:15:38.187-05:00
1775952938197746700,3.12174658203125,84.22189331054688,52.76539611816406,83.56997680664062,2026-04-11T19:15:38.197-05:00
1775952938208181800,3.132181640625,84.70637512207031,52.975738525390625,83.61219787597656,2026-04-11T19:15:38.208-05:00
1775952938218616800,3.142616943359375,85.39970397949219,52.91355895996094,83.92036437988281,2026-04-11T19:15:38.218-05:00
1775952938229051600,3.1530517578125,85.72889709472656,52.51310729980469,83.95133972167969,2026-04-11T19:15:38.229-05:00
1775952938239486700,3.16348681640625,86.17277526855469,52.634552001953125,84.07962036132812,2026-04-11T19:15:38.239-05:00
1775952938249921500,3.173921630859375,86.51298522949219,52.359161376953125,84.28005981445312,2026-04-11T19:15:38.249-05:00
1775952938260356600,3.184356689453125,86.70860290527344,52.27215576171875,84.28181457519531,2026-04-11T19:15:38.260-05:00
1775952938270792000,3.1947919921875,86.49844360351562,52.462127685546875,84.39401245117188,2026-04-11T19:15:38.270-05:00
1775952938281227500,3.2052275390625,86.62380981445312,52.298858642578125,84.50697326660156,2026-04-11T19:15:38.281-05:00
1775952938291663600,3.21566357421875,86.33409118652344,52.42408752441406,84.4219970703125,2026-04-11T19:15:38.291-05:00
1775952938302098700,3.2260986328125,86.16593933105469,52.53240966796875,84.5718994140625,2026-04-11T19:15:38.302-05:00
1775952938312533800,3.23653369140625,85.88247680664062,52.50108337402344,84.63871765136719,2026-04-11T19:15:38.312-05:00
1775952938322968800,3.24696875,85.79267883300781,52.82740783691406,84.48530578613281,2026-04-11T19:15:38.322-05:00
1775952938333403600,3.257403564453125,85.46571350097656,52.70478820800781,84.91505432128906,2026-04-11T19:15:38.333-05:00
1775952938343839700,3.26783984375,85.1806640625,52.97843933105469,85.02764892578125,2026-04-11T19:15:38.343-05:00
1775952938354274800,3.27827490234375,84.76792907714844,53.24711608886719,85.05180358886719,2026-04-11T19:15:38.354-05:00
1775952938364710700,3.288710693359375,84.35612487792969,53.066619873046875,85.74382019042969,2026-04-11T19:15:38.364-05:00
1775952938375146800,3.299146728515625,84.16897583007812,53.40582275390625,85.88172912597656,2026-04-11T19:15:38.375-05:00
1775952938385582800,3.309582763671875,83.70333862304688,53.761810302734375,86.20584106445312,2026-04-11T19:15:38.385-05:00
1775952938396018700,3.320018798828125,83.70774841308594,53.4161376953125,86.65170288085938,2026-04-11T19:15:38.396-05:00
1775952938406454500,3.33045458984375,83.08418273925781,53.77809143066406,87.10716247558594,2026-04-11T19:15:38.406-05:00
1775952938416890600,3.340890625,83.20663452148438,53.704803466796875,87.52667236328125,2026-04-11T19:15:38.416-05:00
1775952938427325700,3.35132568359375,83.10079956054688,53.481842041015625,88.30108642578125,2026-04-11T19:15:38.427-05:00
1775952938437761500,3.361761474609375,83.16317749023438,53.92543029785156,88.38627624511719,2026-04-11T19:15:38.437-05:00
1775952938448197600,3.37219775390625,83.05426025390625,53.680084228515625,89.08384704589844,2026-04-11T19:15:38.448-05:00
1775952938458633700,3.3826337890625,82.92964172363281,53.80091857910156,88.95472717285156,2026-04-11T19:15:38.458-05:00
1775952938469069800,3.39306982421875,82.56939697265625,53.92449951171875,89.031982421875,2026-04-11T19:15:38.469-05:00
1775952938479504600,3.403504638671875,82.30091857910156,53.971710205078125,88.73336791992188,2026-04-11T19:15:38.479-05:00
1775952938489940700,3.413940673828125,81.17184448242188,54.23876953125,88.45327758789062,2026-04-11T19:15:38.489-05:00
1775952938500375800,3.424375732421875,80.71134948730469,54.36463928222656,88.3880615234375,2026-04-11T19:15:38.500-05:00
1775952938510810600,3.434810546875,80.13970947265625,54.27980041503906,88.45262145996094,2026-04-11T19:15:38.510-05:00
1775952938521246700,3.445246826171875,79.31057739257812,54.89714050292969,88.36651611328125,2026-04-11T19:15:38.521-05:00
1775952938531681800,3.455681884765625,78.77249145507812,54.55120849609375,88.82809448242188,2026-04-11T19:15:38.531-05:00
1775952938542115800,3.46611572265625,77.919189453125,54.820159912109375,89.00057983398438,2026-04-11T19:15:38.542-05:00
1775952938552550700,3.476550537109375,77.33058166503906,54.90223693847656,88.98294067382812,2026-04-11T19:15:38.552-05:00
1775952938562986800,3.48698681640625,76.81236267089844,54.690643310546875,89.3497314453125,2026-04-11T19:15:38.562-05:00
1775952938573422800,3.4974228515625,76.05674743652344,54.865631103515625,88.98651123046875,2026-04-11T19:15:38.573-05:00
1775952938583858000,3.50785791015625,75.78216552734375,55.11671447753906,88.77630615234375,2026-04-11T19:15:38.583-05:00
1775952938594292700,3.518292724609375,75.36569213867188,54.75782775878906,88.51594543457031,2026-04-11T19:15:38.594-05:00
1775952938604727800,3.528727783203125,74.86309814453125,54.98387145996094,88.14421081542969,2026-04-11T19:15:38.604-05:00
1775952938615163600,3.53916357421875,74.55216979980469,54.753143310546875,88.06608581542969,2026-04-11T19:15:38.615-05:00
1775952938625598700,3.5495986328125,73.7452392578125,54.8819580078125,87.57145690917969,2026-04-11T19:15:38.625-05:00
1775952938636034800,3.560034912109375,73.81178283691406,54.892547607421875,87.1837158203125,2026-04-11T19:15:38.636-05:00
1775952938646469600,3.5704697265625,73.53482055664062,54.59114074707031,87.150146484375,2026-04-11T19:15:38.646-05:00
1775952938656905700,3.58090576171875,73.21238708496094,54.83732604980469,86.68557739257812,2026-04-11T19:15:38.656-05:00
1775952938667340800,3.5913408203125,73.21934509277344,54.79417419433594,86.4468994140625,2026-04-11T19:15:38.667-05:00
1775952938677775600,3.601775634765625,73.21452331542969,54.38458251953125,86.48062133789062,2026-04-11T19:15:38.677-05:00
1775952938688210700,3.612210693359375,73.41300964355469,54.59785461425781,86.20941162109375,2026-04-11T19:15:38.688-05:00
1775952938698645800,3.622645751953125,73.56416320800781,54.470977783203125,86.80941772460938,2026-04-11T19:15:38.698-05:00
1775952938709079800,3.633079833984375,73.44638061523438,54.48542785644531,87.21173095703125,2026-04-11T19:15:38.709-05:00
1775952938719514600,3.6435146484375,73.2288818359375,54.699432373046875,87.76202392578125,2026-04-11T19:15:38.719-05:00
1775952938729949700,3.65394970703125,73.03347778320312,54.521484375,88.41023254394531,2026-04-11T19:15:38.729-05:00
1775952938740384500,3.664384521484375,72.2391357421875,54.80079650878906,88.78843688964844,2026-04-11T19:15:38.740-05:00
1775952938750819800,3.67481982421875,71.49684143066406,54.93608093261719,89.04191589355469,2026-04-11T19:15:38.750-05:00
1775952938761255700,3.685255615234375,70.92617797851562,54.50811767578125,89.31074523925781,2026-04-11T19:15:38.761-05:00
1775952938771690800,3.695690673828125,70.35322570800781,55.00788879394531,89.09736633300781,2026-04-11T19:15:38.771-05:00
1775952938782126600,3.706126708984375,70.17428588867188,54.69117736816406,89.40202331542969,2026-04-11T19:15:38.782-05:00
1775952938792562000,3.71656201171875,70.54232788085938,54.77775573730469,89.31086730957031,2026-04-11T19:15:38.792-05:00
1775952938802997800,3.726997802734375,71.18272399902344,54.56561279296875,89.34616088867188,2026-04-11T19:15:38.802-05:00
1775952938813432800,3.737432861328125,71.7191162109375,54.507415771484375,89.38984680175781,2026-04-11T19:15:38.813-05:00
1775952938823867600,3.74786767578125,72.20906066894531,54.525421142578125,89.03273010253906,2026-04-11T19:15:38.823-05:00
1775952938834303700,3.7583037109375,72.84588623046875,54.37889099121094,89.11286926269531,2026-04-11T19:15:38.834-05:00
1775952938844740600,3.76874072265625,73.55715942382812,54.1556396484375,89.07257080078125,2026-04-11T19:15:38.844-05:00
1775952938855176700,3.7791767578125,73.82548522949219,54.48780822753906,88.71987915039062,2026-04-11T19:15:38.855-05:00
1775952938865612800,3.78961279296875,73.99948120117188,54.131378173828125,88.96180725097656,2026-04-11T19:15:38.865-05:00
1775952938876047600,3.800047607421875,73.98228454589844,54.1895751953125,88.78855895996094,2026-04-11T19:15:38.876-05:00
1775952938886483700,3.810483642578125,74.07791137695312,54.197296142578125,88.77531433105469,2026-04-11T19:15:38.886-05:00
1775952938896919800,3.820919921875,74.3536376953125,54.02110290527344,88.71681213378906,2026-04-11T19:15:38.896-05:00
1775952938907353600,3.831353515625,74.565185546875,54.208343505859375,88.93548583984375,2026-04-11T19:15:38.907-05:00
1775952938917788700,3.84178857421875,75.14265441894531,54.373138427734375,89.09719848632812,2026-04-11T19:15:38.917-05:00
1775952938928223700,3.8522236328125,75.22673034667969,54.17083740234375,89.40740966796875,2026-04-11T19:15:38.928-05:00
1775952938938658800,3.862658935546875,75.28572082519531,54.343017578125,89.27655029296875,2026-04-11T19:15:38.938-05:00
1775952938949095000,3.873094970703125,75.13055419921875,54.17933654785156,89.49371337890625,2026-04-11T19:15:38.949-05:00
1775952938959529700,3.88352978515625,75.46272277832031,54.09465026855469,89.74758911132812,2026-04-11T19:15:38.959-05:00
1775952938969964800,3.89396484375,75.6383056640625,54.379974365234375,89.56953430175781,2026-04-11T19:15:38.969-05:00
1775952938980399600,3.904399658203125,75.70407104492188,53.96269226074219,89.93426513671875,2026-04-11T19:15:38.980-05:00
1775952938990834700,3.914834716796875,75.90090942382812,54.16813659667969,89.82891845703125,2026-04-11T19:15:38.990-05:00
1775952939001269500,3.92526953125,75.72103881835938,54.119720458984375,89.7630615234375,2026-04-11T19:15:39.001-05:00
1775952939011703800,3.935703857421875,75.84814453125,53.97941589355469,89.90475463867188,2026-04-11T19:15:39.011-05:00
1775952939022138600,3.946138671875,75.49819946289062,54.377197265625,89.78289794921875,2026-04-11T19:15:39.022-05:00
1775952939032573700,3.95657373046875,75.82078552246094,54.01377868652344,89.92787170410156,2026-04-11T19:15:39.032-05:00
1775952939043008500,3.967008544921875,75.43510437011719,54.254425048828125,90.13583374023438,2026-04-11T19:15:39.043-05:00
1775952939053443800,3.97744384765625,75.12318420410156,54.38179016113281,90.00761413574219,2026-04-11T19:15:39.053-05:00
1775952939063879700,3.987879638671875,75.09909057617188,54.1046142578125,90.14002990722656,2026-04-11T19:15:39.063-05:00
1775952939074315500,3.9983154296875,74.63070678710938,54.15380859375,90.07670593261719,2026-04-11T19:15:39.074-05:00
1775952939084750600,4.00875048828125,74.37222290039062,54.39607238769531,90.08192443847656,2026-04-11T19:15:39.084-05:00
1775952939095187000,4.01918701171875,73.77946472167969,54.18971252441406,90.22102355957031,2026-04-11T19:15:39.095-05:00
1775952939105623000,4.029623046875,73.26963806152344,54.315765380859375,89.8736572265625,2026-04-11T19:15:39.105-05:00
1775952939116059100,4.04005908203125,72.7901611328125,54.30622863769531,90.2003173828125,2026-04-11T19:15:39.116-05:00
1775952939126494000,4.050493896484375,72.31130981445312,54.20710754394531,90.29608154296875,2026-04-11T19:15:39.126-05:00
1775952939136929000,4.060928955078125,71.93534851074219,54.6075439453125,90.31230163574219,2026-04-11T19:15:39.136-05:00
1775952939147365000,4.071365234375,71.16941833496094,54.206695556640625,90.547119140625,2026-04-11T19:15:39.147-05:00
1775952939157801000,4.081801025390625,71.08802795410156,54.48121643066406,90.45526123046875,2026-04-11T19:15:39.157-05:00
1775952939168237000,4.092237060546875,70.81187438964844,54.32652282714844,90.42198181152344,2026-04-11T19:15:39.168-05:00
1775952939178672000,4.102672119140625,70.54173278808594,54.01228332519531,90.85874938964844,2026-04-11T19:15:39.178-05:00
1775952939189108000,4.11310791015625,70.19818115234375,54.40849304199219,90.77008056640625,2026-04-11T19:15:39.189-05:00
1775952939199544000,4.1235439453125,70.15104675292969,54.32362365722656,90.81690979003906,2026-04-11T19:15:39.199-05:00
1775952939209980200,4.133980224609375,70.01028442382812,54.39128112792969,90.68038940429688,2026-04-11T19:15:39.209-05:00
1775952939220417000,4.1444169921875,70.15792846679688,54.611663818359375,90.78280639648438,2026-04-11T19:15:39.220-05:00
1775952939230851800,4.154851806640625,70.45074462890625,54.25323486328125,90.73870849609375,2026-04-11T19:15:39.230-05:00
1775952939241288000,4.165287841796875,70.62823486328125,54.405853271484375,90.61824035644531,2026-04-11T19:15:39.241-05:00
1775952939251724000,4.17572412109375,70.36296081542969,54.32572937011719,90.38810729980469,2026-04-11T19:15:39.251-05:00
1775952939262159000,4.1861591796875,70.79594421386719,54.00825500488281,90.60194396972656,2026-04-11T19:15:39.262-05:00
1775952939272595000,4.196594970703125,70.92880249023438,54.23735046386719,90.52879333496094,2026-04-11T19:15:39.272-05:00
1775952939283030000,4.207030029296875,71.22956848144531,54.17982482910156,90.45918273925781,2026-04-11T19:15:39.283-05:00
1775952939293466000,4.217466064453125,71.23291015625,54.27723693847656,90.50596618652344,2026-04-11T19:15:39.293-05:00
1775952939303901000,4.22790087890625,71.41539001464844,54.444732666015625,90.77006530761719,2026-04-11T19:15:39.303-05:00
1775952939314336000,4.2383359375,71.43733215332031,54.087188720703125,91.03762817382812,2026-04-11T19:15:39.314-05:00
1775952939324771800,4.248771728515625,71.35539245605469,54.287353515625,91.06346130371094,2026-04-11T19:15:39.324-05:00
1775952939335208000,4.2592080078125,71.79562377929688,54.39213562011719,91.02198791503906,2026-04-11T19:15:39.335-05:00
1775952939345644000,4.26964404296875,71.94285583496094,54.068817138671875,91.27012634277344,2026-04-11T19:15:39.345-05:00
1775952939356080000,4.280080078125,71.87704467773438,54.28965759277344,91.05364990234375,2026-04-11T19:15:39.356-05:00
1775952939366516200,4.29051611328125,71.63226318359375,54.29609680175781,90.998046875,2026-04-11T19:15:39.366-05:00
1775952939376951000,4.300950927734375,72.02159118652344,54.17938232421875,90.6351318359375,2026-04-11T19:15:39.376-05:00
1775952939387388200,4.31138818359375,71.97941589355469,54.15715026855469,90.41156005859375,2026-04-11T19:15:39.387-05:00
1775952939397824000,4.321823974609375,72.19358825683594,54.0223388671875,90.81130981445312,2026-04-11T19:15:39.397-05:00
1775952939408260000,4.332260009765625,72.46998596191406,54.17138671875,90.73483276367188,2026-04-11T19:15:39.408-05:00
1775952939418697000,4.342697021484375,72.73358154296875,54.2679443359375,90.63710021972656,2026-04-11T19:15:39.418-05:00
1775952939429133000,4.353133056640625,72.85800170898438,54.108917236328125,90.82014465332031,2026-04-11T19:15:39.429-05:00
1775952939439570000,4.36356982421875,72.97817993164062,54.45927429199219,90.76483154296875,2026-04-11T19:15:39.439-05:00
1775952939450006000,4.374006103515625,73.46096801757812,54.21275329589844,90.75627136230469,2026-04-11T19:15:39.450-05:00
1775952939460442000,4.384442138671875,73.68449401855469,54.057220458984375,90.5523681640625,2026-04-11T19:15:39.460-05:00
1775952939470878000,4.3948779296875,73.51150512695312,54.307647705078125,90.67684936523438,2026-04-11T19:15:39.470-05:00
1775952939481314000,4.40531396484375,73.60807800292969,53.99461364746094,90.6280517578125,2026-04-11T19:15:39.481-05:00
1775952939491750100,4.415750244140625,73.91610717773438,54.04429626464844,90.45909118652344,2026-04-11T19:15:39.491-05:00
1775952939502187000,4.42618701171875,73.61174011230469,54.18565368652344,90.45993041992188,2026-04-11T19:15:39.502-05:00
1775952939512623000,4.436623046875,73.64389038085938,53.90673828125,90.64533996582031,2026-04-11T19:15:39.512-05:00
1775952939523060200,4.447060302734375,73.28622436523438,54.2431640625,90.49085998535156,2026-04-11T19:15:39.523-05:00
1775952939533496000,4.45749609375,72.89517211914062,54.2413330078125,90.83111572265625,2026-04-11T19:15:39.533-05:00
1775952939543932000,4.467931884765625,72.72378540039062,53.96473693847656,91.17620849609375,2026-04-11T19:15:39.543-05:00
1775952939554368000,4.478367919921875,72.0875244140625,54.2099609375,90.78207397460938,2026-04-11T19:15:39.554-05:00
1775952939564804000,4.48880419921875,71.91128540039062,54.112060546875,91.24728393554688,2026-04-11T19:15:39.564-05:00
1775952939575240000,4.499239990234375,71.13557434082031,54.42921447753906,90.87542724609375,2026-04-11T19:15:39.575-05:00
1775952939585676000,4.509676025390625,71.07672119140625,54.41587829589844,91.06649780273438,2026-04-11T19:15:39.585-05:00
1775952939596112100,4.520112060546875,71.06867980957031,54.247894287109375,91.31538391113281,2026-04-11T19:15:39.596-05:00
1775952939606547000,4.530546875,70.45843505859375,54.56501770019531,90.97012329101562,2026-04-11T19:15:39.606-05:00
1775952939616983000,4.540983154296875,70.50749206542969,54.29057312011719,91.30303955078125,2026-04-11T19:15:39.616-05:00
1775952939627418000,4.551418212890625,70.64570617675781,54.31666564941406,91.21531677246094,2026-04-11T19:15:39.627-05:00
1775952939637854200,4.561854248046875,70.60820007324219,54.584747314453125,91.04393005371094,2026-04-11T19:15:39.637-05:00
1775952939648289000,4.5722890625,70.65567016601562,54.18553161621094,91.26632690429688,2026-04-11T19:15:39.648-05:00
1775952939658725000,4.58272509765625,70.70101928710938,54.225860595703125,91.4072265625,2026-04-11T19:15:39.658-05:00
1775952939669161200,4.5931611328125,70.68600463867188,54.32649230957031,91.32676696777344,2026-04-11T19:15:39.669-05:00
1775952939679596000,4.603595947265625,71.04188537597656,54.068756103515625,91.31051635742188,2026-04-11T19:15:39.679-05:00
1775952939690032000,4.6140322265625,71.21157836914062,54.21302795410156,91.44918823242188,2026-04-11T19:15:39.690-05:00
1775952939700468200,4.62446826171875,71.58662414550781,54.239410400390625,91.30549621582031,2026-04-11T19:15:39.700-05:00
1775952939710903800,4.63490380859375,71.92771911621094,54.08551025390625,91.50306701660156,2026-04-11T19:15:39.710-05:00
1775952939721340000,4.64533984375,72.03800964355469,54.32354736328125,91.32568359375,2026-04-11T19:15:39.721-05:00
1775952939731777000,4.655777099609375,72.56216430664062,54.01866149902344,91.24143981933594,2026-04-11T19:15:39.731-05:00
1775952939742214000,4.6662138671875,72.91238403320312,54.05891418457031,91.13157653808594,2026-04-11T19:15:39.742-05:00
1775952939752650000,4.67664990234375,73.33023071289062,53.93379211425781,91.14408874511719,2026-04-11T19:15:39.752-05:00
1775952939763086000,4.687086181640625,73.539794921875,53.860382080078125,91.34535217285156,2026-04-11T19:15:39.763-05:00
1775952939773522000,4.69752197265625,73.80204772949219,54.150909423828125,91.14358520507812,2026-04-11T19:15:39.773-05:00
1775952939783958000,4.7079580078125,73.73817443847656,53.8944091796875,91.23258972167969,2026-04-11T19:15:39.783-05:00
1775952939794395100,4.71839501953125,74.07612609863281,53.718994140625,91.25386047363281,2026-04-11T19:15:39.794-05:00
1775952939804831000,4.7288310546875,74.29853820800781,54.093780517578125,91.08004760742188,2026-04-11T19:15:39.804-05:00
1775952939815267000,4.73926708984375,74.69889831542969,53.81761169433594,91.04212951660156,2026-04-11T19:15:39.815-05:00
1775952939825703000,4.749702880859375,74.83329772949219,53.93818664550781,90.99748229980469,2026-04-11T19:15:39.825-05:00
1775952939836139000,4.760138916015625,74.59599304199219,54.12255859375,90.72282409667969,2026-04-11T19:15:39.836-05:00
1775952939846575000,4.7705751953125,74.8675537109375,53.85554504394531,90.54672241210938,2026-04-11T19:15:39.846-05:00
1775952939857012000,4.781011962890625,74.40655517578125,54.06919860839844,90.26388549804688,2026-04-11T19:15:39.857-05:00
1775952939867448000,4.791447998046875,74.45252990722656,54.12144470214844,90.0771484375,2026-04-11T19:15:39.867-05:00
1775952939877884000,4.8018837890625,74.31106567382812,53.81034851074219,90.14631652832031,2026-04-11T19:15:39.877-05:00
1775952939888320000,4.812320068359375,74.29498291015625,54.23301696777344,90.13899230957031,2026-04-11T19:15:39.888-05:00
1775952939898757000,4.822757080078125,74.27574157714844,54.03358459472656,90.30157470703125,2026-04-11T19:15:39.898-05:00
1775952939909193200,4.833193115234375,74.33544921875,54.274383544921875,90.31919860839844,2026-04-11T19:15:39.909-05:00
1775952939919630000,4.843630126953125,74.19174194335938,54.25019836425781,90.46385192871094,2026-04-11T19:15:39.919-05:00
1775952939930067200,4.854067138671875,75.16653442382812,53.966583251953125,90.66154479980469,2026-04-11T19:15:39.930-05:00
1775952939940504000,4.864504150390625,75.1405029296875,54.19886779785156,90.74224853515625,2026-04-11T19:15:39.940-05:00
1775952939950941200,4.874941162109375,75.00936889648438,53.94660949707031,90.90763854980469,2026-04-11T19:15:39.950-05:00
1775952939961377000,4.885376953125,75.50918579101562,53.97306823730469,91.06214904785156,2026-04-11T19:15:39.961-05:00
1775952939971814000,4.89581396484375,75.21769714355469,54.450958251953125,90.85011291503906,2026-04-11T19:15:39.971-05:00
1775952939982250000,4.90625,75.02879333496094,54.14576721191406,90.9561767578125,2026-04-11T19:15:39.982-05:00
1775952939992687000,4.91668701171875,75.50166320800781,54.18023681640625,90.70907592773438,2026-04-11T19:15:39.992-05:00
1775952940003123200,4.927123291015625,75.11605834960938,54.46183776855469,90.76776123046875,2026-04-11T19:15:40.003-05:00
1775952940013559000,4.93755908203125,75.11650085449219,54.345458984375,90.80805969238281,2026-04-11T19:15:40.013-05:00
1775952940023995000,4.947994873046875,75.34707641601562,54.357086181640625,90.76371765136719,2026-04-11T19:15:40.023-05:00
1775952940034431000,4.958430908203125,75.42021179199219,54.41859436035156,90.80178833007812,2026-04-11T19:15:40.034-05:00
1775952940044867000,4.9688671875,75.50711059570312,54.12919616699219,91.00498962402344,2026-04-11T19:15:40.044-05:00
1775952940055303200,4.97930322265625,75.23335266113281,54.236419677734375,90.802978515625,2026-04-11T19:15:40.055-05:00
1775952940065739000,4.989739013671875,75.70393371582031,54.28086853027344,90.82661437988281,2026-04-11T19:15:40.065-05:00
1775952940076176000,5.00017578125,75.66493225097656,54.3607177734375,90.82505798339844,2026-04-11T19:15:40.076-05:00
1775952940086611200,5.010611083984375,75.53298950195312,54.36534118652344,90.88548278808594,2026-04-11T19:15:40.086-05:00
1775952940097051000,5.02105078125,76.26939392089844,54.43089294433594,90.82257080078125,2026-04-11T19:15:40.097-05:00
1775952940107485700,5.031485595703125,76.39237976074219,54.59864807128906,90.70701599121094,2026-04-11T19:15:40.107-05:00
1775952940117921800,5.041921875,76.34048461914062,54.466461181640625,90.82626342773438,2026-04-11T19:15:40.117-05:00
1775952940128356900,5.05235693359375,76.75515747070312,54.44200134277344,91.18582153320312,2026-04-11T19:15:40.128-05:00
1775952940138792700,5.062792724609375,76.82595825195312,54.65293884277344,91.20954895019531,2026-04-11T19:15:40.138-05:00
1775952940149228800,5.073228759765625,77.30203247070312,54.316986083984375,91.76678466796875,2026-04-11T19:15:40.149-05:00
1775952940159663600,5.08366357421875,77.84672546386719,54.5089111328125,92.105712890625,2026-04-11T19:15:40.159-05:00
1775952940170099700,5.094099609375,77.61054992675781,54.4854736328125,92.53012084960938,2026-04-11T19:15:40.170-05:00
1775952940180534800,5.10453466796875,78.2115478515625,54.2510986328125,92.99992370605469,2026-04-11T19:15:40.180-05:00
1775952940190969900,5.114969970703125,78.06185913085938,54.619415283203125,93.21586608886719,2026-04-11T19:15:40.190-05:00
1775952940201405000,5.125405029296875,77.85487365722656,54.56330871582031,93.71694946289062,2026-04-11T19:15:40.201-05:00
1775952940211839700,5.13583984375,78.08367919921875,54.41273498535156,94.21630859375,2026-04-11T19:15:40.211-05:00
1775952940222274800,5.14627490234375,77.63906860351562,54.72245788574219,94.54731750488281,2026-04-11T19:15:40.222-05:00
1775952940232710000,5.1567099609375,76.9404296875,54.42626953125,94.80876159667969,2026-04-11T19:15:40.232-05:00
1775952940243145700,5.167145751953125,76.80683898925781,54.59825134277344,95.2098388671875,2026-04-11T19:15:40.243-05:00
1775952940253581800,5.177581787109375,75.26298522949219,54.59576416015625,95.63861083984375,2026-04-11T19:15:40.253-05:00
1775952940264018000,5.188017822265625,74.85745239257812,54.53709411621094,96.06382751464844,2026-04-11T19:15:40.264-05:00
1775952940274454800,5.198454833984375,73.53828430175781,54.77685546875,96.43759155273438,2026-04-11T19:15:40.274-05:00
1775952940284892000,5.208891845703125,72.01609802246094,54.91273498535156,96.78004455566406,2026-04-11T19:15:40.284-05:00
1775952940295329000,5.2193291015625,70.39891052246094,54.6103515625,97.23876953125,2026-04-11T19:15:40.295-05:00
1775952940305764600,5.2297646484375,67.9713134765625,54.91900634765625,97.41543579101562,2026-04-11T19:15:40.305-05:00
1775952940316200700,5.24020068359375,65.4888916015625,54.462982177734375,97.28511047363281,2026-04-11T19:15:40.316-05:00
1775952940326637800,5.250637939453125,62.86393737792969,54.215667724609375,96.37528991699219,2026-04-11T19:15:40.326-05:00
1775952940337074700,5.26107470703125,61.16532897949219,54.44207763671875,94.83468627929688,2026-04-11T19:15:40.337-05:00
1775952940347510800,5.2715107421875,61.25860595703125,54.211212158203125,93.40000915527344,2026-04-11T19:15:40.347-05:00
1775952940357947000,5.28194677734375,61.989837646484375,54.60566711425781,92.67121887207031,2026-04-11T19:15:40.357-05:00
1775952940368382700,5.2923828125,63.65425109863281,54.89634704589844,92.43092346191406,2026-04-11T19:15:40.368-05:00
1775952940378818800,5.30281884765625,66.22634887695312,54.813720703125,92.66804504394531,2026-04-11T19:15:40.378-05:00
1775952940389255000,5.3132548828125,68.77476501464844,55.2684326171875,92.40701293945312,2026-04-11T19:15:40.389-05:00
1775952940399691800,5.32369189453125,72.09919738769531,55.0147705078125,92.28500366210938,2026-04-11T19:15:40.399-05:00
1775952940410126800,5.334126953125,75.14002990722656,54.99784851074219,91.70919799804688,2026-04-11T19:15:40.410-05:00
1775952940420562700,5.344562744140625,78.02339172363281,54.96046447753906,90.50727844238281,2026-04-11T19:15:40.420-05:00
1775952940430998800,5.354998779296875,80.91519165039062,54.03675842285156,89.37892150878906,2026-04-11T19:15:40.430-05:00
1775952940441435000,5.365434814453125,83.34628295898438,53.653778076171875,87.93112182617188,2026-04-11T19:15:40.441-05:00
1775952940451870700,5.37587060546875,85.87950134277344,52.605682373046875,86.4697265625,2026-04-11T19:15:40.451-05:00
1775952940462306800,5.386306884765625,87.69358825683594,51.72380065917969,84.99665832519531,2026-04-11T19:15:40.462-05:00
1775952940472743000,5.396742919921875,88.76963806152344,51.2333984375,84.19778442382812,2026-04-11T19:15:40.472-05:00
1775952940483179000,5.407178955078125,89.76275634765625,50.7109375,84.12754821777344,2026-04-11T19:15:40.483-05:00
1775952940493614800,5.41761474609375,90.49951171875,50.401763916015625,83.83700561523438,2026-04-11T19:15:40.493-05:00
1775952940504051700,5.4280517578125,90.88438415527344,50.567230224609375,83.94548034667969,2026-04-11T19:15:40.504-05:00
1775952940514487800,5.43848779296875,91.00251770019531,50.17835998535156,84.36477661132812,2026-04-11T19:15:40.514-05:00
1775952940524924000,5.448923828125,91.74111938476562,50.17015075683594,84.68342590332031,2026-04-11T19:15:40.524-05:00
1775952940535358700,5.459358642578125,92.49526977539062,49.82879638671875,85.30410766601562,2026-04-11T19:15:40.535-05:00
1775952940545794800,5.469794921875,94.50534057617188,49.01359558105469,86.15106201171875,2026-04-11T19:15:40.545-05:00
1775952940556230000,5.48022998046875,95.71087646484375,48.489776611328125,86.27110290527344,2026-04-11T19:15:40.556-05:00
1775952940566664700,5.490664794921875,96.9332275390625,47.713409423828125,86.36512756347656,2026-04-11T19:15:40.566-05:00
1775952940577099800,5.501099853515625,97.7698974609375,46.774658203125,85.453857421875,2026-04-11T19:15:40.577-05:00
1775952940587534800,5.511534912109375,98.82591247558594,46.06813049316406,84.47256469726562,2026-04-11T19:15:40.587-05:00
1775952940597970000,5.521969970703125,100.39984130859375,44.70619201660156,83.83575439453125,2026-04-11T19:15:40.597-05:00
1775952940608406800,5.53240673828125,101.33650207519531,43.95112609863281,82.8922119140625,2026-04-11T19:15:40.608-05:00
1775952940618841900,5.542841796875,102.46237182617188,42.950897216796875,82.11734008789062,2026-04-11T19:15:40.618-05:00
1775952940629277700,5.553277587890625,103.53289794921875,41.36314392089844,81.08622741699219,2026-04-11T19:15:40.629-05:00
1775952940639712800,5.563712646484375,104.18243408203125,40.27500915527344,79.78375244140625,2026-04-11T19:15:40.639-05:00
1775952940650147800,5.57414794921875,105.10276794433594,38.91288757324219,78.72825622558594,2026-04-11T19:15:40.650-05:00
1775952940660583700,5.584583740234375,105.85678100585938,37.369903564453125,77.79170227050781,2026-04-11T19:15:40.660-05:00
1775952940671019800,5.595019775390625,106.84657287597656,36.19386291503906,76.669189453125,2026-04-11T19:15:40.671-05:00
1775952940681455900,5.605455810546875,107.64588928222656,34.66777038574219,76.465576171875,2026-04-11T19:15:40.681-05:00
1775952940691891700,5.6158916015625,108.29856872558594,34.0338134765625,76.26693725585938,2026-04-11T19:15:40.691-05:00
1775952940702327800,5.626327880859375,108.96278381347656,33.17364501953125,76.68661499023438,2026-04-11T19:15:40.702-05:00
1775952940712764000,5.636763916015625,109.54478454589844,32.532745361328125,77.30622863769531,2026-04-11T19:15:40.712-05:00
1775952940723200000,5.647199951171875,110.44151306152344,32.2451171875,77.79188537597656,2026-04-11T19:15:40.723-05:00
1775952940733635800,5.6576357421875,110.88832092285156,31.311477661132812,78.32563781738281,2026-04-11T19:15:40.733-05:00
1775952940744071700,5.66807177734375,110.92715454101562,30.9324951171875,78.64710998535156,2026-04-11T19:15:40.744-05:00
1775952940754507800,5.6785078125,111.83399963378906,30.072433471679688,78.39695739746094,2026-04-11T19:15:40.754-05:00
1775952940764944000,5.68894384765625,111.82119750976562,29.473785400390625,78.38322448730469,2026-04-11T19:15:40.764-05:00
1775952940775381000,5.699381103515625,112.13896179199219,28.786895751953125,78.46583557128906,2026-04-11T19:15:40.775-05:00
1775952940785815800,5.70981591796875,112.76612854003906,28.411239624023438,78.36346435546875,2026-04-11T19:15:40.785-05:00
1775952940796251000,5.7202509765625,112.89254760742188,27.731353759765625,78.81907653808594,2026-04-11T19:15:40.796-05:00
1775952940806687000,5.73068701171875,113.4859619140625,27.486236572265625,78.76329040527344,2026-04-11T19:15:40.806-05:00
1775952940817121800,5.741121826171875,113.37716674804688,27.25091552734375,78.84710693359375,2026-04-11T19:15:40.817-05:00
1775952940827558000,5.751557861328125,113.30912780761719,27.166397094726562,78.93733215332031,2026-04-11T19:15:40.827-05:00
1775952940837992700,5.76199267578125,113.16262817382812,27.171463012695312,78.66763305664062,2026-04-11T19:15:40.837-05:00
1775952940848427800,5.772427734375,112.84260559082031,27.038467407226562,78.73959350585938,2026-04-11T19:15:40.848-05:00
1775952940858863900,5.78286376953125,112.88995361328125,27.409896850585938,78.48806762695312,2026-04-11T19:15:40.858-05:00
1775952940869298700,5.793298583984375,112.90330505371094,27.560455322265625,78.09689331054688,2026-04-11T19:15:40.869-05:00
1775952940879734800,5.80373486328125,112.42552185058594,27.80584716796875,78.23707580566406,2026-04-11T19:15:40.879-05:00
1775952940890171000,5.8141708984375,112.27178955078125,28.068161010742188,77.77549743652344,2026-04-11T19:15:40.890-05:00
1775952940900607000,5.82460693359375,111.88383483886719,28.586776733398438,77.7764892578125,2026-04-11T19:15:40.900-05:00
1775952940911042800,5.835042724609375,111.48103332519531,29.032333374023438,77.64111328125,2026-04-11T19:15:40.911-05:00
1775952940921478000,5.845477783203125,111.11714172363281,29.75103759765625,77.11697387695312,2026-04-11T19:15:40.921-05:00
1775952940931914000,5.8559140625,110.860595703125,30.307327270507812,77.05619812011719,2026-04-11T19:15:40.931-05:00
1775952940942348800,5.866348876953125,110.29861450195312,30.92364501953125,77.11497497558594,2026-04-11T19:15:40.942-05:00
1775952940952785000,5.876784912109375,109.69549560546875,31.77459716796875,76.74111938476562,2026-04-11T19:15:40.952-05:00
1775952940963221000,5.887220947265625,109.3062744140625,32.08441162109375,77.31236267089844,2026-04-11T19:15:40.963-05:00
1775952940973656800,5.89765673828125,109.14862060546875,33.09400939941406,76.86338806152344,2026-04-11T19:15:40.973-05:00
1775952940984092700,5.9080927734375,108.390869140625,33.62806701660156,77.03952026367188,2026-04-11T19:15:40.984-05:00
1775952940994528800,5.91852880859375,108.04341125488281,34.28034973144531,77.12400817871094,2026-04-11T19:15:40.994-05:00
1775952941004964900,5.92896484375,107.4622802734375,35.17738342285156,76.83084106445312,2026-04-11T19:15:41.004-05:00
1775952941015402000,5.939402099609375,106.55607604980469,35.73939514160156,76.77835083007812,2026-04-11T19:15:41.015-05:00
1775952941025837800,5.949837890625,106.01283264160156,36.44429016113281,76.58250427246094,2026-04-11T19:15:41.025-05:00
1775952941036273700,5.960273681640625,105.11473083496094,37.32633972167969,75.9498291015625,2026-04-11T19:15:41.036-05:00
1775952941046710800,5.970710693359375,103.84852600097656,37.63800048828125,75.4241943359375,2026-04-11T19:15:41.046-05:00
1775952941057147000,5.98114697265625,103.44305419921875,38.45417785644531,74.83944702148438,2026-04-11T19:15:41.057-05:00
1775952941067583000,5.9915830078125,102.57511901855469,38.98338317871094,74.6822509765625,2026-04-11T19:15:41.067-05:00
1775952941078019800,6.002019775390625,102.238525390625,39.02702331542969,74.3653564453125,2026-04-11T19:15:41.078-05:00
1775952941088455700,6.01245556640625,101.83735656738281,39.1549072265625,73.571533203125,2026-04-11T19:15:41.088-05:00
1775952941098888400,6.022888427734375,101.24784851074219,38.9080810546875,72.69798278808594,2026-04-11T19:15:41.098-05:00
1775952941109324300,6.03332421875,100.49969482421875,38.732757568359375,71.49099731445312,2026-04-11T19:15:41.109-05:00
1775952941119760400,6.043760498046875,99.75888061523438,38.6624755859375,70.24159240722656,2026-04-11T19:15:41.119-05:00
1775952941130196500,6.054196533203125,99.69537353515625,38.06245422363281,69.53861999511719,2026-04-11T19:15:41.130-05:00
1775952941140633300,6.06463330078125,98.82357788085938,37.926910400390625,68.54217529296875,2026-04-11T19:15:41.140-05:00
1775952941151069400,6.0750693359375,98.82275390625,37.694183349609375,67.64195251464844,2026-04-11T19:15:41.151-05:00
1775952941161506300,6.08550634765625,98.59280395507812,37.2703857421875,66.79493713378906,2026-04-11T19:15:41.161-05:00
1775952941171943200,6.095943115234375,98.54971313476562,36.80525207519531,66.0286865234375,2026-04-11T19:15:41.171-05:00
1775952941182379300,6.106379150390625,97.82441711425781,36.43574523925781,65.40621948242188,2026-04-11T19:15:41.182-05:00
1775952941192816400,6.11681640625,97.40975952148438,36.42338562011719,64.85107421875,2026-04-11T19:15:41.192-05:00
1775952941203253200,6.127253173828125,96.82948303222656,36.73594665527344,64.47564697265625,2026-04-11T19:15:41.203-05:00
1775952941213689300,6.137689453125,96.8773193359375,36.82818603515625,64.63095092773438,2026-04-11T19:15:41.213-05:00
1775952941224126500,6.14812646484375,96.63450622558594,37.00114440917969,64.72285461425781,2026-04-11T19:15:41.224-05:00
1775952941234562600,6.1585625,96.49943542480469,37.26969909667969,64.94346618652344,2026-04-11T19:15:41.234-05:00
1775952941244997400,6.168997314453125,96.19660949707031,36.790435791015625,64.46397399902344,2026-04-11T19:15:41.244-05:00
1775952941255433500,6.17943359375,95.51165771484375,36.77528381347656,63.0921630859375,2026-04-11T19:15:41.255-05:00
1775952941265868300,6.189868408203125,94.71543884277344,35.655792236328125,62.03385925292969,2026-04-11T19:15:41.265-05:00
1775952941276304400,6.200304443359375,94.53096008300781,34.71675109863281,61.02415466308594,2026-04-11T19:15:41.276-05:00
1775952941286740500,6.210740478515625,95.32713317871094,33.16783142089844,60.06988525390625,2026-04-11T19:15:41.286-05:00
1775952941297176300,6.22117626953125,96.06288146972656,31.619415283203125,59.587921142578125,2026-04-11T19:15:41.297-05:00
1775952941307611400,6.231611328125,96.88670349121094,30.318923950195312,59.302215576171875,2026-04-11T19:15:41.307-05:00
1775952941318048300,6.24204833984375,97.58143615722656,29.067367553710938,59.40570068359375,2026-04-11T19:15:41.318-05:00
1775952941328484400,6.252484375,99.56924438476562,28.330398559570312,60.068511962890625,2026-04-11T19:15:41.328-05:00
1775952941338920400,6.26292041015625,100.64329528808594,27.626937866210938,60.6768798828125,2026-04-11T19:15:41.338-05:00
1775952941349357300,6.273357421875,102.283935546875,27.314529418945312,62.11767578125,2026-04-11T19:15:41.349-05:00
1775952941359793200,6.283793212890625,103.292236328125,27.344619750976562,63.31715393066406,2026-04-11T19:15:41.359-05:00
1775952941370230300,6.294230224609375,104.72755432128906,27.6729736328125,64.45547485351562,2026-04-11T19:15:41.370-05:00
1775952941380666400,6.304666259765625,105.58340454101562,27.797210693359375,65.9654541015625,2026-04-11T19:15:41.380-05:00
1775952941391102500,6.3151025390625,105.69454956054688,28.270111083984375,66.32218933105469,2026-04-11T19:15:41.391-05:00
1775952941401538300,6.325538330078125,105.16415405273438,28.570343017578125,65.82931518554688,2026-04-11T19:15:41.401-05:00
1775952941411973400,6.335973388671875,104.0552978515625,28.444808959960938,64.42665100097656,2026-04-11T19:15:41.411-05:00
1775952941422409500,6.346409423828125,103.10385131835938,28.113174438476562,62.550811767578125,2026-04-11T19:15:41.422-05:00
1775952941432844500,6.356844482421875,103.550048828125,27.058502197265625,62.56178283691406,2026-04-11T19:15:41.432-05:00
1775952941443280400,6.3672802734375,104.50984191894531,26.135498046875,63.26300048828125,2026-04-11T19:15:41.443-05:00
1775952941453715500,6.377715576171875,105.88693237304688,25.32110595703125,64.11752319335938,2026-04-11T19:15:41.453-05:00
1775952941464151600,6.388151611328125,106.27923583984375,24.630950927734375,64.67068481445312,2026-04-11T19:15:41.464-05:00
1775952941474587100,6.398587158203125,106.90010070800781,24.310333251953125,64.95335388183594,2026-04-11T19:15:41.474-05:00
1775952941485022500,6.4090224609375,107.12454223632812,24.00299072265625,65.05690002441406,2026-04-11T19:15:41.485-05:00
1775952941495458300,6.419458251953125,107.32583618164062,23.659454345703125,64.99749755859375,2026-04-11T19:15:41.495-05:00
1775952941505894100,6.42989404296875,107.1124267578125,23.087326049804688,64.50201416015625,2026-04-11T19:15:41.505-05:00
1775952941516329200,6.4403291015625,107.2386474609375,22.52001953125,64.32846069335938,2026-04-11T19:15:41.516-05:00
1775952941526764500,6.4507646484375,107.14649963378906,22.215286254882812,63.79191589355469,2026-04-11T19:15:41.526-05:00
1775952941537199400,6.461199462890625,107.35054016113281,21.934219360351562,63.53437805175781,2026-04-11T19:15:41.537-05:00
1775952941547635500,6.471635498046875,107.16078186035156,21.25201416015625,63.94291687011719,2026-04-11T19:15:41.547-05:00
1775952941558071600,6.482071533203125,107.46347045898438,20.970382690429688,63.6956787109375,2026-04-11T19:15:41.558-05:00
1775952941568506400,6.49250634765625,107.39329528808594,20.470626831054688,63.684356689453125,2026-04-11T19:15:41.568-05:00
1775952941578942500,6.5029423828125,107.65458679199219,20.11322021484375,63.83982849121094,2026-04-11T19:15:41.578-05:00
1775952941589378300,6.51337841796875,107.87660217285156,20.142471313476562,63.482086181640625,2026-04-11T19:15:41.589-05:00
1775952941599814100,6.523814208984375,107.70855712890625,19.627044677734375,63.53669738769531,2026-04-11T19:15:41.599-05:00
1775952941610250200,6.534250244140625,107.73326110839844,19.474014282226562,63.56581115722656,2026-04-11T19:15:41.610-05:00
1775952941620686300,6.544686279296875,107.92193603515625,19.306198120117188,63.067718505859375,2026-04-11T19:15:41.620-05:00
1775952941631122400,6.555122314453125,108.10627746582031,18.964004516601562,63.20814514160156,2026-04-11T19:15:41.631-05:00
1775952941641558300,6.565558349609375,108.05470275878906,18.744781494140625,63.29095458984375,2026-04-11T19:15:41.641-05:00
1775952941651994400,6.575994384765625,108.22734069824219,18.644134521484375,63.186187744140625,2026-04-11T19:15:41.651-05:00
1775952941662430500,6.586430419921875,108.31044006347656,18.434097290039062,63.486846923828125,2026-04-11T19:15:41.662-05:00
1775952941672867300,6.596867431640625,108.21607971191406,18.223297119140625,63.03392028808594,2026-04-11T19:15:41.672-05:00
1775952941683303400,6.607303466796875,108.74249267578125,17.815567016601562,63.59222412109375,2026-04-11T19:15:41.683-05:00
1775952941693740500,6.617740478515625,108.66172790527344,17.851226806640625,63.69480895996094,2026-04-11T19:15:41.693-05:00
1775952941704176000,6.628176025390625,109.17630004882812,17.58984375,63.79872131347656,2026-04-11T19:15:41.704-05:00
1775952941714613200,6.63861328125,109.04478454589844,17.214736938476562,64.4368896484375,2026-04-11T19:15:41.714-05:00
1775952941725049300,6.64904931640625,109.26350402832031,17.039749145507812,64.34996032714844,2026-04-11T19:15:41.725-05:00
1775952941735486200,6.659486328125,109.15081787109375,17.012802124023438,64.52395629882812,2026-04-11T19:15:41.735-05:00
1775952941745922300,6.66992236328125,109.04438781738281,16.625946044921875,64.61946105957031,2026-04-11T19:15:41.745-05:00
1775952941756358400,6.6803583984375,109.482421875,16.588531494140625,64.47830200195312,2026-04-11T19:15:41.756-05:00
1775952941766795500,6.69079541015625,109.41607666015625,16.464263916015625,64.40614318847656,2026-04-11T19:15:41.766-05:00
1775952941777230300,6.701230224609375,109.4052734375,16.160324096679688,64.39103698730469,2026-04-11T19:15:41.777-05:00
1775952941787667200,6.711667236328125,109.35162353515625,15.851806640625,64.18867492675781,2026-04-11T19:15:41.787-05:00
1775952941798103300,6.722103271484375,109.66761779785156,15.821792602539062,64.72908020019531,2026-04-11T19:15:41.798-05:00
1775952941808538400,6.732538330078125,109.46290588378906,15.809722900390625,64.35945129394531,2026-04-11T19:15:41.808-05:00
1775952941818974200,6.74297412109375,109.66813659667969,15.646652221679688,64.51762390136719,2026-04-11T19:15:41.818-05:00
1775952941829411300,6.753411376953125,109.86283874511719,15.325637817382812,64.72476196289062,2026-04-11T19:15:41.829-05:00
1775952941839848400,6.763848388671875,109.8193359375,15.115997314453125,64.40489196777344,2026-04-11T19:15:41.839-05:00
1775952941850284300,6.7742841796875,109.68453979492188,14.921234130859375,64.58648681640625,2026-04-11T19:15:41.850-05:00
1775952941860720400,6.784720458984375,109.95758056640625,14.772781372070312,64.74729919433594,2026-04-11T19:15:41.860-05:00
1775952941871156200,6.79515625,110.15072631835938,14.7779541015625,64.60580444335938,2026-04-11T19:15:41.871-05:00
1775952941881592300,6.80559228515625,110.06906127929688,14.279342651367188,64.97770690917969,2026-04-11T19:15:41.881-05:00
1775952941892028400,6.8160283203125,110.03890991210938,14.1873779296875,64.92922973632812,2026-04-11T19:15:41.892-05:00
1775952941902465300,6.82646533203125,110.71743774414062,13.983123779296875,64.92636108398438,2026-04-11T19:15:41.902-05:00
1775952941912902400,6.83690234375,110.44509887695312,13.910781860351562,65.08488464355469,2026-04-11T19:15:41.912-05:00
1775952941923337200,6.847337158203125,110.5701904296875,13.614944458007812,64.88444519042969,2026-04-11T19:15:41.923-05:00
1775952941933773300,6.857773193359375,110.52980041503906,13.485244750976562,65.08503723144531,2026-04-11T19:15:41.933-05:00
1775952941944209400,6.86820947265625,110.68901062011719,13.245147705078125,65.03581237792969,2026-04-11T19:15:41.944-05:00
1775952941954645500,6.8786455078125,110.72845458984375,13.097503662109375,64.70074462890625,2026-04-11T19:15:41.954-05:00
1775952941965081300,6.889081298828125,110.795654296875,12.727447509765625,65.34719848632812,2026-04-11T19:15:41.965-05:00
1775952941975516400,6.899516357421875,110.94142150878906,12.607696533203125,65.30461120605469,2026-04-11T19:15:41.975-05:00
1775952941985952500,6.909952392578125,111.02452087402344,12.402069091796875,65.09355163574219,2026-04-11T19:15:41.985-05:00
1775952941996389400,6.920389404296875,111.02107238769531,12.03753662109375,65.48678588867188,2026-04-11T19:15:41.996-05:00
1775952942006825200,6.9308251953125,111.01300048828125,11.867691040039062,65.64053344726562,2026-04-11T19:15:42.006-05:00
1775952942017261300,6.94126123046875,111.19873046875,11.738006591796875,65.71916198730469,2026-04-11T19:15:42.017-05:00
1775952942027697400,6.951697509765625,111.33673095703125,11.466476440429688,66.20448303222656,2026-04-11T19:15:42.027-05:00
1775952942038133500,6.962133544921875,111.361083984375,11.203628540039062,66.00178527832031,2026-04-11T19:15:42.038-05:00
1775952942048568300,6.972568359375,111.38217163085938,10.940689086914062,66.36273193359375,2026-04-11T19:15:42.048-05:00
1775952942059003400,6.98300341796875,111.91539001464844,10.918441772460938,66.33920288085938,2026-04-11T19:15:42.059-05:00
1775952942069438200,6.993438232421875,112.09530639648438,10.773117065429688,66.61512756347656,2026-04-11T19:15:42.069-05:00
1775952942079874300,7.003874267578125,111.86788940429688,10.517898559570312,66.71601867675781,2026-04-11T19:15:42.079-05:00
1775952942090309400,7.014309326171875,111.96072387695312,10.387985229492188,66.60630798339844,2026-04-11T19:15:42.090-05:00
1775952942100745200,7.0247451171875,111.9447021484375,10.17523193359375,66.68588256835938,2026-04-11T19:15:42.100-05:00
1775952942111181000,7.03518115234375,111.99661254882812,9.959228515625,67.03053283691406,2026-04-11T19:15:42.111-05:00
1775952942121616100,7.0456162109375,112.486572265625,9.77349853515625,66.9669189453125,2026-04-11T19:15:42.121-05:00
1775952942132052200,7.05605224609375,112.59445190429688,9.686874389648438,67.61076354980469,2026-04-11T19:15:42.132-05:00
1775952942142488000,7.066488037109375,112.55049133300781,9.609909057617188,67.674560546875,2026-04-11T19:15:42.142-05:00
1775952942152924200,7.076924072265625,112.94081115722656,9.550567626953125,67.65065002441406,2026-04-11T19:15:42.152-05:00
1775952942163361000,7.087361083984375,112.71463012695312,9.222320556640625,67.98483276367188,2026-04-11T19:15:42.163-05:00
1775952942173797000,7.097797119140625,112.77618408203125,9.0484619140625,67.81687927246094,2026-04-11T19:15:42.173-05:00
1775952942184234200,7.108234130859375,112.82597351074219,9.036361694335938,67.87522888183594,2026-04-11T19:15:42.184-05:00
1775952942194670300,7.11867041015625,112.84303283691406,8.980621337890625,67.86102294921875,2026-04-11T19:15:42.194-05:00
1775952942205107200,7.129107177734375,112.63690185546875,9.126724243164062,67.46640014648438,2026-04-11T19:15:42.205-05:00
1775952942215544300,7.13954443359375,112.57994079589844,8.874221801757812,67.99348449707031,2026-04-11T19:15:42.215-05:00
1775952942225981200,7.149981201171875,112.81263732910156,8.91485595703125,67.67109680175781,2026-04-11T19:15:42.225-05:00
1775952942236418000,7.16041796875,112.6168212890625,8.910903930664062,67.30523681640625,2026-04-11T19:15:42.236-05:00
1775952942246854100,7.170854248046875,112.77470397949219,8.7218017578125,67.6549072265625,2026-04-11T19:15:42.246-05:00
1775952942257291000,7.181291015625,112.97511291503906,8.908477783203125,67.41496276855469,2026-04-11T19:15:42.257-05:00
1775952942267727000,7.19172705078125,112.66706848144531,9.037124633789062,67.6837158203125,2026-04-11T19:15:42.267-05:00
1775952942278164200,7.202164306640625,112.73005676269531,9.032333374023438,67.81071472167969,2026-04-11T19:15:42.278-05:00
1775952942288599000,7.21259912109375,112.679931640625,9.112045288085938,67.83432006835938,2026-04-11T19:15:42.288-05:00
1775952942299036200,7.2230361328125,112.59236145019531,9.119216918945312,67.91836547851562,2026-04-11T19:15:42.299-05:00
1775952942309472300,7.23347216796875,112.77073669433594,9.368850708007812,67.97413635253906,2026-04-11T19:15:42.309-05:00
1775952942319908000,7.243908203125,112.78825378417969,9.59332275390625,67.63478088378906,2026-04-11T19:15:42.319-05:00
1775952942330344200,7.25434423828125,113.00111389160156,9.776931762695312,68.02299499511719,2026-04-11T19:15:42.330-05:00
1775952942340780000,7.264780029296875,112.98377990722656,10.21832275390625,67.53782653808594,2026-04-11T19:15:42.340-05:00
1775952942351215000,7.275215087890625,112.81405639648438,10.56182861328125,67.38642883300781,2026-04-11T19:15:42.351-05:00
1775952942361651200,7.285651123046875,112.56576538085938,10.548141479492188,67.69282531738281,2026-04-11T19:15:42.361-05:00
1775952942372087000,7.296087158203125,112.40615844726562,10.958831787109375,67.11982727050781,2026-04-11T19:15:42.372-05:00
1775952942382522000,7.306522216796875,112.39495849609375,11.36016845703125,67.09901428222656,2026-04-11T19:15:42.382-05:00
1775952942392958200,7.316958251953125,112.02828979492188,11.709609985351562,67.22491455078125,2026-04-11T19:15:42.392-05:00
1775952942403394300,7.327394287109375,111.98908996582031,12.128067016601562,66.901611328125,2026-04-11T19:15:42.403-05:00
1775952942413830100,7.337830078125,111.87202453613281,12.816192626953125,67.02455139160156,2026-04-11T19:15:42.413-05:00
1775952942424265200,7.34826513671875,111.84642028808594,13.281448364257812,66.64933776855469,2026-04-11T19:15:42.424-05:00
1775952942434701300,7.358701416015625,111.10832214355469,13.517425537109375,66.6873779296875,2026-04-11T19:15:42.434-05:00
1775952942445137200,7.36913720703125,111.08676147460938,14.126129150390625,66.65760803222656,2026-04-11T19:15:42.445-05:00
1775952942455573200,7.3795732421875,111.11155700683594,14.952117919921875,66.44503784179688,2026-04-11T19:15:42.455-05:00
1775952942466009000,7.390009033203125,110.797119140625,15.432632446289062,66.35971069335938,2026-04-11T19:15:42.466-05:00
1775952942476445200,7.400445068359375,110.83506774902344,16.19525146484375,66.28208923339844,2026-04-11T19:15:42.476-05:00
1775952942486881000,7.410881103515625,110.60054016113281,17.061370849609375,65.95375061035156,2026-04-11T19:15:42.486-05:00
1775952942497316000,7.421316162109375,110.05635070800781,17.687774658203125,65.95408630371094,2026-04-11T19:15:42.497-05:00
1775952942507752200,7.431752197265625,110.09407043457031,18.401016235351562,65.65463256835938,2026-04-11T19:15:42.507-05:00
1775952942518188300,7.442188232421875,109.59999084472656,19.10577392578125,65.52272033691406,2026-04-11T19:15:42.518-05:00
1775952942528624000,7.4526240234375,109.21168518066406,19.875457763671875,65.34326171875,2026-04-11T19:15:42.528-05:00
1775952942539060200,7.463060302734375,108.61564636230469,20.6988525390625,65.26847839355469,2026-04-11T19:15:42.539-05:00
1775952942549496300,7.473496337890625,108.38201904296875,21.145828247070312,65.35783386230469,2026-04-11T19:15:42.549-05:00
1775952942559932200,7.48393212890625,108.12669372558594,21.940902709960938,65.25494384765625,2026-04-11T19:15:42.559-05:00
1775952942570369000,7.494369140625,107.44882202148438,23.077117919921875,65.13539123535156,2026-04-11T19:15:42.570-05:00
1775952942580805000,7.50480517578125,107.35137939453125,23.84344482421875,65.25584411621094,2026-04-11T19:15:42.580-05:00
1775952942591241200,7.5152412109375,106.9442138671875,24.882247924804688,65.03791809082031,2026-04-11T19:15:42.591-05:00
1775952942601676300,7.52567626953125,106.49586486816406,25.86834716796875,65.03256225585938,2026-04-11T19:15:42.601-05:00
1775952942612111000,7.536111083984375,106.07725524902344,26.512252807617188,65.5716552734375,2026-04-11T19:15:42.612-05:00
1775952942622547200,7.546547119140625,105.64328002929688,27.541473388671875,65.57167053222656,2026-04-11T19:15:42.622-05:00
1775952942632982000,7.55698193359375,105.40763854980469,28.354598999023438,66.34593200683594,2026-04-11T19:15:42.632-05:00
1775952942643418000,7.567418212890625,105.21446228027344,29.26495361328125,66.72109985351562,2026-04-11T19:15:42.643-05:00
1775952942653854200,7.577854248046875,104.71246337890625,30.244720458984375,67.04486083984375,2026-04-11T19:15:42.653-05:00
1775952942664290300,7.588290283203125,104.3807373046875,31.164535522460938,67.46208190917969,2026-04-11T19:15:42.664-05:00
1775952942674725000,7.59872509765625,103.58660888671875,31.934829711914062,67.29257202148438,2026-04-11T19:15:42.674-05:00
1775952942685161200,7.6091611328125,103.0653076171875,32.70979309082031,67.42826843261719,2026-04-11T19:15:42.685-05:00
1775952942695596300,7.61959619140625,102.25068664550781,33.561492919921875,67.50994873046875,2026-04-11T19:15:42.695-05:00
1775952942706032000,7.6300322265625,101.46742248535156,34.70391845703125,67.28436279296875,2026-04-11T19:15:42.706-05:00
1775952942716467200,7.64046728515625,100.83973693847656,34.97923278808594,67.19903564453125,2026-04-11T19:15:42.716-05:00
1775952942726902000,7.650902099609375,99.94047546386719,35.76887512207031,67.34700012207031,2026-04-11T19:15:42.726-05:00
1775952942737338000,7.661338134765625,99.01994323730469,36.70155334472656,67.16108703613281,2026-04-11T19:15:42.737-05:00
1775952942747774200,7.671774169921875,98.79965209960938,37.40617370605469,67.74249267578125,2026-04-11T19:15:42.747-05:00
1775952942758209300,7.682209228515625,97.87936401367188,38.163482666015625,68.04954528808594,2026-04-11T19:15:42.758-05:00
1775952942768644000,7.69264404296875,97.1591796875,39.0074462890625,68.23544311523438,2026-04-11T19:15:42.768-05:00
1775952942779080200,7.703080078125,96.5390625,39.77882385253906,69.18756103515625,2026-04-11T19:15:42.779-05:00
1775952942789515000,7.713514892578125,95.63711547851562,41.08036804199219,69.32733154296875,2026-04-11T19:15:42.789-05:00
1775952942799950000,7.7239501953125,95.23907470703125,41.607666015625,70.29486083984375,2026-04-11T19:15:42.799-05:00
1775952942810386200,7.73438623046875,94.63853454589844,42.38018798828125,70.81227111816406,2026-04-11T19:15:42.810-05:00
1775952942820822000,7.744822021484375,94.19602966308594,43.43626403808594,71.11370849609375,2026-04-11T19:15:42.820-05:00
1775952942831258000,7.755258056640625,93.23892211914062,43.92884826660156,72.17234802246094,2026-04-11T19:15:42.831-05:00
1775952942841694200,7.765694091796875,92.35276794433594,44.84324645996094,72.52780151367188,2026-04-11T19:15:42.841-05:00
1775952942852130300,7.77613037109375,91.80752563476562,45.46012878417969,72.9715576171875,2026-04-11T19:15:42.852-05:00
1775952942862567200,7.786567138671875,91.2374267578125,45.7701416015625,73.42613220214844,2026-04-11T19:15:42.862-05:00
1775952942873003000,7.7970029296875,90.23223876953125,46.418426513671875,73.63273620605469,2026-04-11T19:15:42.873-05:00
1775952942883438000,7.80743798828125,89.6568603515625,47.03924560546875,73.97358703613281,2026-04-11T19:15:42.883-05:00
1775952942893874200,7.817874267578125,88.70487976074219,47.31007385253906,74.40632629394531,2026-04-11T19:15:42.893-05:00
1775952942904309000,7.82830908203125,88.02079772949219,47.949554443359375,74.39216613769531,2026-04-11T19:15:42.904-05:00
1775952942914745000,7.8387451171875,87.01040649414062,48.21699523925781,74.67753601074219,2026-04-11T19:15:42.914-05:00
1775952942925180200,7.84918017578125,86.59732055664062,48.86222839355469,74.72233581542969,2026-04-11T19:15:42.925-05:00
1775952942935616000,7.859615966796875,85.62123107910156,48.98509216308594,74.85504150390625,2026-04-11T19:15:42.935-05:00
1775952942946052000,7.870052001953125,84.65634155273438,49.05192565917969,74.76034545898438,2026-04-11T19:15:42.946-05:00
1775952942956488200,7.88048828125,83.56166076660156,49.584686279296875,74.41458129882812,2026-04-11T19:15:42.956-05:00
1775952942966924300,7.89092431640625,83.01025390625,49.42457580566406,74.04740905761719,2026-04-11T19:15:42.966-05:00
1775952942977360100,7.901360107421875,81.86643981933594,49.449676513671875,73.50141906738281,2026-04-11T19:15:42.977-05:00
1775952942987795200,7.911795166015625,81.12847900390625,49.55409240722656,73.05619812011719,2026-04-11T19:15:42.987-05:00
1775952942998231300,7.922231201171875,80.27815246582031,49.267364501953125,72.58090209960938,2026-04-11T19:15:42.998-05:00
1775952943008666000,7.932666015625,79.78721618652344,49.26423645019531,72.24058532714844,2026-04-11T19:15:43.008-05:00
1775952943019103000,7.94310302734375,79.72572326660156,49.201904296875,72.13076782226562,2026-04-11T19:15:43.019-05:00
1775952943029538300,7.953538330078125,79.91822814941406,49.098388671875,72.1514892578125,2026-04-11T19:15:43.029-05:00
1775952943039974100,7.96397412109375,79.77275085449219,49.28656005859375,72.12225341796875,2026-04-11T19:15:43.039-05:00
1775952943050410000,7.974409912109375,80.70294189453125,48.927947998046875,72.56126403808594,2026-04-11T19:15:43.050-05:00
1775952943060845300,7.98484521484375,81.83937072753906,49.045013427734375,72.82261657714844,2026-04-11T19:15:43.060-05:00
1775952943071280000,7.995280029296875,82.66148376464844,49.21632385253906,73.03025817871094,2026-04-11T19:15:43.071-05:00
1775952943081716200,8.00571630859375,83.86241149902344,48.87098693847656,73.85041809082031,2026-04-11T19:15:43.081-05:00
1775952943092152000,8.016152099609375,85.16334533691406,49.01506042480469,74.63270568847656,2026-04-11T19:15:43.092-05:00
1775952943102587400,8.02658740234375,86.59280395507812,49.1754150390625,75.60964965820312,2026-04-11T19:15:43.102-05:00
1775952943113024500,8.0370244140625,87.59312438964844,49.011199951171875,76.84732055664062,2026-04-11T19:15:43.113-05:00
1775952943123460600,8.047460693359374,88.54815673828125,49.3040771484375,77.74824523925781,2026-04-11T19:15:43.123-05:00
1775952943133897500,8.0578974609375,89.22666931152344,49.280548095703125,79.02020263671875,2026-04-11T19:15:43.133-05:00
1775952943144333600,8.06833349609375,89.741943359375,49.204254150390625,80.26385498046875,2026-04-11T19:15:43.144-05:00
1775952943154769400,8.078769287109376,90.01155090332031,49.5745849609375,81.36752319335938,2026-04-11T19:15:43.154-05:00
1775952943165205500,8.08920556640625,90.32501220703125,49.58052062988281,82.5108642578125,2026-04-11T19:15:43.165-05:00
1775952943175640600,8.099640625,90.24665832519531,49.85835266113281,83.280517578125,2026-04-11T19:15:43.175-05:00
1775952943186076400,8.110076416015625,89.94728088378906,50.15507507324219,83.84117126464844,2026-04-11T19:15:43.186-05:00
1775952943196512500,8.120512451171875,89.71849060058594,50.23176574707031,84.93598937988281,2026-04-11T19:15:43.196-05:00
1775952943206947600,8.130947509765624,88.96220397949219,50.742645263671875,85.22930908203125,2026-04-11T19:15:43.206-05:00
1775952943217382400,8.14138232421875,88.33198547363281,50.83171081542969,85.33885192871094,2026-04-11T19:15:43.217-05:00
1775952943227818500,8.151818603515625,87.49186706542969,51.09355163574219,85.34817504882812,2026-04-11T19:15:43.227-05:00
1775952943238253600,8.162253662109375,86.83711242675781,51.4964599609375,84.72743225097656,2026-04-11T19:15:43.238-05:00
1775952943248689400,8.172689453125,86.48310852050781,51.216552734375,84.1907958984375,2026-04-11T19:15:43.248-05:00
1775952943259125500,8.18312548828125,85.9151611328125,51.405029296875,83.03781127929688,2026-04-11T19:15:43.259-05:00
1775952943269561600,8.1935615234375,85.19747924804688,51.53074645996094,81.94020080566406,2026-04-11T19:15:43.269-05:00
1775952943279997700,8.203997802734374,84.56790161132812,51.171844482421875,80.89540100097656,2026-04-11T19:15:43.279-05:00
1775952943290432500,8.2144326171875,83.4503173828125,51.19328308105469,79.93704223632812,2026-04-11T19:15:43.290-05:00
1775952943300868600,8.22486865234375,82.63876342773438,51.14555358886719,79.23748779296875,2026-04-11T19:15:43.300-05:00
1775952943311304700,8.2353046875,81.75172424316406,51.17463684082031,78.59197998046875,2026-04-11T19:15:43.311-05:00
1775952943321740500,8.245740478515625,80.86714172363281,51.49058532714844,78.0013427734375,2026-04-11T19:15:43.321-05:00
1775952943332176400,8.25617626953125,80.12327575683594,51.38676452636719,77.77687072753906,2026-04-11T19:15:43.332-05:00
1775952943342611700,8.26661181640625,79.55619812011719,51.5888671875,77.59750366210938,2026-04-11T19:15:43.342-05:00
1775952943353046500,8.277046630859376,78.94508361816406,51.80125427246094,77.55293273925781,2026-04-11T19:15:43.353-05:00
1775952943363482600,8.287482666015626,78.36166381835938,51.38201904296875,77.84614562988281,2026-04-11T19:15:43.363-05:00
1775952943373918500,8.29791845703125,77.93013000488281,51.9114990234375,77.86984252929688,2026-04-11T19:15:43.373-05:00
1775952943384353500,8.308353515625,77.46061706542969,51.964111328125,78.06846618652344,2026-04-11T19:15:43.384-05:00
1775952943394788600,8.31878857421875,76.61387634277344,51.83863830566406,78.47714233398438,2026-04-11T19:15:43.394-05:00
1775952943405224700,8.329224609375,76.37806701660156,52.47462463378906,78.70448303222656,2026-04-11T19:15:43.405-05:00
1775952943415659500,8.339659423828126,75.62577819824219,52.18385314941406,79.09176635742188,2026-04-11T19:15:43.415-05:00
1775952943426095600,8.350095703125,75.07977294921875,52.392547607421875,79.46636962890625,2026-04-11T19:15:43.426-05:00
1775952943436530700,8.36053076171875,74.16897583007812,52.71180725097656,79.50253295898438,2026-04-11T19:15:43.436-05:00
1775952943446965500,8.370965576171875,74.43307495117188,52.57548522949219,80.12774658203125,2026-04-11T19:15:43.446-05:00
1775952943457401600,8.381401611328124,74.41781616210938,53.03623962402344,80.12574768066406,2026-04-11T19:15:43.457-05:00
1775952943467837700,8.391837646484374,74.83348083496094,52.869415283203125,80.39881896972656,2026-04-11T19:15:43.467-05:00
1775952943478274600,8.402274658203124,75.67594909667969,52.83856201171875,80.72364807128906,2026-04-11T19:15:43.478-05:00
1775952943488709400,8.41270947265625,76.37057495117188,52.94354248046875,80.76795959472656,2026-04-11T19:15:43.488-05:00
1775952943499145500,8.4231455078125,77.10626220703125,52.51513671875,80.6046142578125,2026-04-11T19:15:43.499-05:00
1775952943509581600,8.43358154296875,77.84359741210938,52.63316345214844,80.31494140625,2026-04-11T19:15:43.509-05:00
1775952943520017400,8.444017333984375,78.46443176269531,52.27091979980469,80.46318054199219,2026-04-11T19:15:43.520-05:00
1775952943530453500,8.45445361328125,79.23359680175781,52.174530029296875,80.24653625488281,2026-04-11T19:15:43.530-05:00
1775952943540889600,8.4648896484375,79.731689453125,52.14300537109375,80.28303527832031,2026-04-11T19:15:43.540-05:00
1775952943551326500,8.475326416015625,80.66560363769531,51.982666015625,80.2781982421875,2026-04-11T19:15:43.551-05:00
1775952943561763600,8.485763671875,81.16526794433594,51.774078369140625,80.15362548828125,2026-04-11T19:15:43.561-05:00
1775952943572199700,8.49619970703125,81.31361389160156,51.95057678222656,80.01345825195312,2026-04-11T19:15:43.572-05:00
1775952943582636500,8.506636474609374,81.92414855957031,51.56520080566406,79.82954406738281,2026-04-11T19:15:43.582-05:00
1775952943593072400,8.517072265625,82.16429138183594,51.40937805175781,79.71965026855469,2026-04-11T19:15:43.593-05:00
1775952943603507500,8.527507568359376,82.22384643554688,51.42607116699219,79.43318176269531,2026-04-11T19:15:43.603-05:00
1775952943613943600,8.537943603515625,82.4068603515625,51.0760498046875,79.25682067871094,2026-04-11T19:15:43.613-05:00
1775952943624379400,8.54837939453125,82.13710021972656,51.54449462890625,78.4649658203125,2026-04-11T19:15:43.624-05:00
1775952943634814500,8.558814453125,82.021240234375,51.062744140625,78.29447937011719,2026-04-11T19:15:43.634-05:00
1775952943645250600,8.56925048828125,81.88429260253906,50.87638854980469,77.97970581054688,2026-04-11T19:15:43.645-05:00
1775952943655686400,8.579686279296874,81.41572570800781,51.10638427734375,77.51377868652344,2026-04-11T19:15:43.655-05:00
1775952943666122500,8.59012255859375,81.92369079589844,50.81825256347656,77.38145446777344,2026-04-11T19:15:43.666-05:00
1775952943676557600,8.6005576171875,82.54270935058594,50.730133056640625,77.34857177734375,2026-04-11T19:15:43.676-05:00
1775952943686993700,8.61099365234375,82.9632568359375,50.50892639160156,77.21754455566406,2026-04-11T19:15:43.686-05:00
1775952943697428500,8.621428466796875,83.84829711914062,50.34068298339844,77.24021911621094,2026-04-11T19:15:43.697-05:00
1775952943707864600,8.631864501953125,84.37841796875,50.25584411621094,77.22053527832031,2026-04-11T19:15:43.707-05:00
1775952943718299400,8.64229931640625,85.168212890625,49.83610534667969,77.37998962402344,2026-04-11T19:15:43.718-05:00
1775952943728735500,8.652735595703126,86.27192687988281,49.086334228515625,77.46498107910156,2026-04-11T19:15:43.728-05:00
1775952943739170600,8.663170654296875,87.39228820800781,49.13383483886719,77.33343505859375,2026-04-11T19:15:43.739-05:00
1775952943749606700,8.673606689453125,88.54669189453125,48.6846923828125,77.88310241699219,2026-04-11T19:15:43.749-05:00
1775952943760042500,8.68404248046875,89.75227355957031,48.2672119140625,78.34040832519531,2026-04-11T19:15:43.760-05:00
1775952943770477600,8.6944775390625,90.78764343261719,48.170074462890625,78.61102294921875,2026-04-11T19:15:43.770-05:00
1775952943780912400,8.704912353515626,91.17341613769531,47.60784912109375,79.28999328613281,2026-04-11T19:15:43.780-05:00
1775952943791347500,8.715347412109375,91.96420288085938,47.581207275390625,79.69395446777344,2026-04-11T19:15:43.791-05:00
1775952943801782800,8.72578271484375,92.35940551757812,47.63359069824219,80.28334045410156,2026-04-11T19:15:43.801-05:00
1775952943812217600,8.736217529296875,92.42874145507812,47.76905822753906,80.897216796875,2026-04-11T19:15:43.812-05:00
1775952943822652700,8.746652587890624,92.00367736816406,48.290985107421875,81.11849975585938,2026-04-11T19:15:43.822-05:00
1775952943833088500,8.757088623046876,90.86129760742188,48.67436218261719,81.02476501464844,2026-04-11T19:15:43.833-05:00
1775952943843523600,8.767523681640625,89.51780700683594,49.31105041503906,80.78256225585938,2026-04-11T19:15:43.843-05:00
1775952943853958700,8.777958740234375,88.04104614257812,50.100433349609375,80.400634765625,2026-04-11T19:15:43.853-05:00
1775952943864393500,8.7883935546875,85.93592834472656,50.23692321777344,80.31838989257812,2026-04-11T19:15:43.864-05:00
1775952943874828500,8.79882861328125,84.1658935546875,51.04756164550781,80.23170471191406,2026-04-11T19:15:43.874-05:00
1775952943885264400,8.809264404296876,82.4478759765625,51.509552001953125,80.52896118164062,2026-04-11T19:15:43.885-05:00
1775952943895699500,8.819699462890625,82.15379333496094,51.76112365722656,81.57403564453125,2026-04-11T19:15:43.895-05:00
1775952943906134800,8.830134765625,81.88543701171875,52.347412109375,82.718994140625,2026-04-11T19:15:43.906-05:00
1775952943916569600,8.840569580078125,82.02519226074219,52.18281555175781,84.01213073730469,2026-04-11T19:15:43.916-05:00
1775952943927005700,8.851005615234374,81.96760559082031,52.56773376464844,85.00851440429688,2026-04-11T19:15:43.927-05:00
1775952943937440500,8.8614404296875,81.4659423828125,52.8819580078125,86.07963562011719,2026-04-11T19:15:43.937-05:00
1775952943947874600,8.87187451171875,80.95054626464844,53.23797607421875,87.1883544921875,2026-04-11T19:15:43.947-05:00
1775952943958309400,8.882309326171875,79.5711669921875,53.55633544921875,87.94221496582031,2026-04-11T19:15:43.958-05:00
1775952943968744400,8.892744384765624,78.14945983886719,53.988983154296875,88.66416931152344,2026-04-11T19:15:43.968-05:00
1775952943979179500,8.903179443359376,76.56895446777344,53.97108459472656,89.00602722167969,2026-04-11T19:15:43.979-05:00
1775952943989614600,8.913614501953125,75.43832397460938,54.3082275390625,88.80589294433594,2026-04-11T19:15:43.989-05:00
1775952944000049700,8.924049560546875,74.30250549316406,53.99690246582031,89.01905822753906,2026-04-11T19:15:44.000-05:00
1775952944010485500,8.934485595703125,73.58795166015625,54.404937744140625,88.87303161621094,2026-04-11T19:15:44.010-05:00
1775952944020921600,8.944921630859374,72.52810668945312,54.53004455566406,89.02494812011719,2026-04-11T19:15:44.020-05:00
1775952944031357700,8.955357666015624,72.05708312988281,54.237640380859375,89.2906494140625,2026-04-11T19:15:44.031-05:00
1775952944041793500,8.96579345703125,71.77056884765625,54.451812744140625,89.31771850585938,2026-04-11T19:15:44.041-05:00
1775952944052229400,8.9762294921875,72.00444030761719,54.38130187988281,89.70663452148438,2026-04-11T19:15:44.052-05:00
1775952944062665500,8.98666552734375,72.49307250976562,54.38520812988281,89.75192260742188,2026-04-11T19:15:44.062-05:00
1775952944073100500,8.9971005859375,72.6314697265625,54.54710388183594,89.73338317871094,2026-04-11T19:15:44.073-05:00
1775952944083536400,9.007536376953125,73.046875,54.15826416015625,89.85858154296875,2026-04-11T19:15:44.083-05:00
1775952944093972500,9.017972412109375,74.06271362304688,54.33375549316406,89.36590576171875,2026-04-11T19:15:44.093-05:00
1775952944104407000,9.028406982421876,74.37307739257812,54.33079528808594,89.14683532714844,2026-04-11T19:15:44.104-05:00
1775952944114843100,9.038843017578126,74.91531372070312,54.03871154785156,89.28762817382812,2026-04-11T19:15:44.114-05:00
1775952944125278200,9.0492783203125,75.36677551269531,54.11997985839844,88.742919921875,2026-04-11T19:15:44.125-05:00
1775952944135714000,9.059714111328125,75.59391784667969,54.217437744140625,88.87147521972656,2026-04-11T19:15:44.135-05:00
1775952944146149000,9.070149169921875,75.77384948730469,54.000457763671875,88.86746215820312,2026-04-11T19:15:44.146-05:00
1775952944156585200,9.080585205078124,75.63296508789062,54.286865234375,88.77609252929688,2026-04-11T19:15:44.156-05:00
1775952944167020000,9.09102001953125,75.72569274902344,54.03666687011719,88.90730285644531,2026-04-11T19:15:44.167-05:00
1775952944177455400,9.101455322265625,75.09817504882812,54.10060119628906,89.24429321289062,2026-04-11T19:15:44.177-05:00
1775952944187890200,9.11189013671875,74.34379577636719,54.349609375,89.3358154296875,2026-04-11T19:15:44.187-05:00
1775952944198325200,9.1223251953125,73.39016723632812,54.32342529296875,89.67457580566406,2026-04-11T19:15:44.198-05:00
1775952944208761300,9.13276123046875,72.29391479492188,54.52479553222656,89.77781677246094,2026-04-11T19:15:44.208-05:00
1775952944219197200,9.143197265625,71.19131469726562,54.414520263671875,89.92063903808594,2026-04-11T19:15:44.219-05:00
1775952944229633000,9.153633056640626,70.46725463867188,54.30702209472656,90.23448181152344,2026-04-11T19:15:44.229-05:00
1775952944240069000,9.164069091796875,69.70954895019531,54.38993835449219,90.3424072265625,2026-04-11T19:15:44.240-05:00
1775952944250505200,9.174505126953125,69.35537719726562,54.207550048828125,90.44856262207031,2026-04-11T19:15:44.250-05:00
1775952944260941000,9.184941162109375,69.37765502929688,54.382232666015625,90.49893188476562,2026-04-11T19:15:44.260-05:00
1775952944271376100,9.195376220703125,69.20777893066406,54.448455810546875,90.49748229980469,2026-04-11T19:15:44.271-05:00
1775952944281811200,9.205811279296874,69.85954284667969,54.28062438964844,90.74697875976562,2026-04-11T19:15:44.281-05:00
1775952944292247000,9.2162470703125,70.56031799316406,54.557159423828125,90.62606811523438,2026-04-11T19:15:44.292-05:00
1775952944302682000,9.22668212890625,71.19709777832031,54.45265197753906,90.48573303222656,2026-04-11T19:15:44.302-05:00
1775952944313117200,9.2371171875,71.7890625,54.272796630859375,90.21035766601562,2026-04-11T19:15:44.313-05:00
1775952944323553000,9.247552978515625,72.10493469238281,54.58778381347656,89.92320251464844,2026-04-11T19:15:44.323-05:00
1775952944333988400,9.25798828125,72.40022277832031,54.33622741699219,90.02827453613281,2026-04-11T19:15:44.333-05:00
1775952944344423200,9.268423095703126,72.64833068847656,54.45404052734375,90.03741455078125,2026-04-11T19:15:44.344-05:00
1775952944354859300,9.278859375,72.71670532226562,54.42195129394531,89.82815551757812,2026-04-11T19:15:44.354-05:00
1775952944365294300,9.28929443359375,72.575439453125,54.132720947265625,90.18719482421875,2026-04-11T19:15:44.365-05:00
1775952944375730200,9.299730224609375,72.69062805175781,54.28187561035156,90.13841247558594,2026-04-11T19:15:44.375-05:00
1775952944386166300,9.310166259765625,72.22566223144531,54.06468200683594,90.33377075195312,2026-04-11T19:15:44.386-05:00
1775952944396601300,9.320601318359374,72.04911804199219,54.16615295410156,90.37528991699219,2026-04-11T19:15:44.396-05:00
1775952944407036200,9.3310361328125,71.3671875,54.35331726074219,90.20887756347656,2026-04-11T19:15:44.407-05:00
1775952944417472300,9.34147216796875,70.89059448242188,54.23063659667969,90.2186279296875,2026-04-11T19:15:44.417-05:00
1775952944427907300,9.3519072265625,70.33221435546875,54.244293212890625,90.3629150390625,2026-04-11T19:15:44.427-05:00
1775952944438343200,9.36234326171875,69.97782897949219,54.29774475097656,90.52397155761719,2026-04-11T19:15:44.438-05:00
1775952944448778200,9.3727783203125,70.23814392089844,54.081268310546875,90.6160888671875,2026-04-11T19:15:44.448-05:00
1775952944459214300,9.38321435546875,69.86465454101562,54.18365478515625,90.68983459472656,2026-04-11T19:15:44.459-05:00
1775952944469650200,9.393650146484376,70.23634338378906,54.21772766113281,90.93690490722656,2026-04-11T19:15:44.469-05:00
1775952944480085200,9.404085205078125,70.44990539550781,54.17515563964844,91.01997375488281,2026-04-11T19:15:44.480-05:00
1775952944490521300,9.414521240234375,70.64154052734375,54.36418151855469,91.07658386230469,2026-04-11T19:15:44.490-05:00
1775952944500956200,9.4249560546875,70.94509887695312,53.972137451171875,90.87594604492188,2026-04-11T19:15:44.500-05:00
1775952944511391200,9.43539111328125,71.41793823242188,53.91694641113281,91.29365539550781,2026-04-11T19:15:44.511-05:00
1775952944521825000,9.445824951171875,71.63053894042969,54.32872009277344,90.83782958984375,2026-04-11T19:15:44.521-05:00
1775952944532261000,9.45626123046875,71.7774658203125,54.30931091308594,90.92552185058594,2026-04-11T19:15:44.532-05:00
1775952944542695200,9.466695068359375,71.90164184570312,54.468414306640625,90.878662109375,2026-04-11T19:15:44.542-05:00
1775952944553130200,9.477130126953124,71.60176086425781,54.273834228515625,90.81306457519531,2026-04-11T19:15:44.553-05:00
1775952944563565000,9.48756494140625,71.65571594238281,54.12355041503906,90.95832824707031,2026-04-11T19:15:44.563-05:00
1775952944574001200,9.498001220703125,71.29560852050781,54.13960266113281,90.87118530273438,2026-04-11T19:15:44.574-05:00
1775952944584437200,9.508437255859375,71.55912780761719,53.96809387207031,91.12026977539062,2026-04-11T19:15:44.584-05:00
1775952944594872300,9.518872314453125,71.24627685546875,53.89898681640625,91.11772155761719,2026-04-11T19:15:44.594-05:00
1775952944605308200,9.52930810546875,70.92947387695312,54.37065124511719,90.93147277832031,2026-04-11T19:15:44.605-05:00
1775952944615742200,9.5397421875,70.6448974609375,53.88682556152344,91.19636535644531,2026-04-11T19:15:44.615-05:00
1775952944626177000,9.550177001953125,70.13887023925781,54.08123779296875,90.95486450195312,2026-04-11T19:15:44.626-05:00
1775952944636613000,9.560613037109375,70.44775390625,54.19963073730469,91.01084899902344,2026-04-11T19:15:44.636-05:00
1775952944647048200,9.571048095703125,70.36410522460938,54.19465637207031,91.044921875,2026-04-11T19:15:44.647-05:00
1775952944657483300,9.581483154296874,70.25431823730469,54.216400146484375,90.784912109375,2026-04-11T19:15:44.657-05:00
1775952944667918300,9.59191845703125,70.33706665039062,54.051300048828125,90.86317443847656,2026-04-11T19:15:44.667-05:00
1775952944678353200,9.602353271484375,70.12995910644531,53.98054504394531,90.99021911621094,2026-04-11T19:15:44.678-05:00
1775952944688787200,9.612787109375,69.75222778320312,54.10527038574219,91.476806640625,2026-04-11T19:15:44.688-05:00
1775952944699222000,9.623221923828124,69.48652648925781,53.99198913574219,92.14649963378906,2026-04-11T19:15:44.699-05:00
1775952944709657300,9.6336572265625,69.78852844238281,53.92973327636719,92.49122619628906,2026-04-11T19:15:44.709-05:00
1775952944720091100,9.644091064453125,70.05262756347656,54.17338562011719,92.3663330078125,2026-04-11T19:15:44.720-05:00
1775952944730526200,9.654526123046875,70.5577392578125,54.0145263671875,92.38197326660156,2026-04-11T19:15:44.730-05:00
1775952944740961000,9.6649609375,71.09211730957031,54.044158935546875,92.08049011230469,2026-04-11T19:15:44.740-05:00
1775952944751397000,9.675397216796876,71.40986633300781,54.02229309082031,91.96084594726562,2026-04-11T19:15:44.751-05:00
1775952944761833200,9.685833251953126,71.94416809082031,53.983673095703125,91.82658386230469,2026-04-11T19:15:44.761-05:00
1775952944772268000,9.69626806640625,72.52761840820312,54.237548828125,91.93241882324219,2026-04-11T19:15:44.772-05:00
1775952944782704000,9.7067041015625,73.19831848144531,53.73724365234375,91.81307983398438,2026-04-11T19:15:44.782-05:00
1775952944793140200,9.71714013671875,73.76057434082031,53.95899963378906,91.92721557617188,2026-04-11T19:15:44.793-05:00
1775952944803575000,9.727574951171874,73.86761474609375,53.91407775878906,91.77809143066406,2026-04-11T19:15:44.803-05:00
1775952944814011100,9.73801123046875,73.53680419921875,53.955535888671875,91.96511840820312,2026-04-11T19:15:44.814-05:00
1775952944824447200,9.748447265625,73.32939147949219,54.05043029785156,91.97787475585938,2026-04-11T19:15:44.824-05:00
1775952944834883300,9.75888330078125,72.98208618164062,54.06414794921875,92.09207153320312,2026-04-11T19:15:44.834-05:00
1775952944845318100,9.769318115234375,71.97128295898438,53.96711730957031,92.18731689453125,2026-04-11T19:15:44.845-05:00
1775952944855754200,9.779754150390625,70.83746337890625,54.193206787109375,91.90798950195312,2026-04-11T19:15:44.855-05:00
1775952944866189000,9.79018896484375,69.77049255371094,54.06611633300781,92.24652099609375,2026-04-11T19:15:44.866-05:00
1775952944876624100,9.8006240234375,68.65060424804688,54.18870544433594,92.39944458007812,2026-04-11T19:15:44.876-05:00
1775952944887059200,9.81105908203125,67.40907287597656,54.26123046875,92.48291015625,2026-04-11T19:15:44.887-05:00
1775952944897493200,9.8214931640625,67.06767272949219,53.7999267578125,92.95585632324219,2026-04-11T19:15:44.897-05:00
1775952944907928300,9.83192822265625,66.42399597167969,53.98439025878906,92.78468322753906,2026-04-11T19:15:44.907-05:00
1775952944918362000,9.842362060546876,66.36859130859375,53.89561462402344,93.06494140625,2026-04-11T19:15:44.918-05:00
1775952944928797200,9.852797119140625,66.16487121582031,53.784332275390625,93.37576293945312,2026-04-11T19:15:44.928-05:00
1775952944939232300,9.863232177734375,65.98094177246094,54.04759216308594,93.572998046875,2026-04-11T19:15:44.939-05:00
1775952944949667300,9.873667236328124,66.33445739746094,53.95338439941406,93.84275817871094,2026-04-11T19:15:44.949-05:00
1775952944960104200,9.884104248046874,66.46011352539062,54.05561828613281,93.95870971679688,2026-04-11T19:15:44.960-05:00
1775952944970539300,9.894539306640626,66.78813171386719,53.91600036621094,94.23548889160156,2026-04-11T19:15:44.970-05:00
1775952944980975000,9.90497509765625,67.2767333984375,53.84625244140625,94.37600708007812,2026-04-11T19:15:44.980-05:00
1775952944991410200,9.91541015625,67.54415893554688,54.01768493652344,94.34544372558594,2026-04-11T19:15:44.991-05:00
1775952945001847000,9.925846923828125,68.10420227050781,53.86997985839844,94.47441101074219,2026-04-11T19:15:45.001-05:00
1775952945012282000,9.9362822265625,68.01826477050781,53.831268310546875,94.59944152832031,2026-04-11T19:15:45.012-05:00
1775952945022719200,9.94671923828125,68.22535705566406,54.14300537109375,94.65121459960938,2026-04-11T19:15:45.022-05:00
1775952945033155300,9.9571552734375,68.413330078125,53.84124755859375,95.0374755859375,2026-04-11T19:15:45.033-05:00
1775952945043591200,9.967591064453124,68.39767456054688,53.84306335449219,95.20722961425781,2026-04-11T19:15:45.043-05:00
1775952945054026200,9.978026123046876,68.45567321777344,54.03511047363281,95.30987548828125,2026-04-11T19:15:45.054-05:00
1775952945064462300,9.98846240234375,68.43328857421875,53.92327880859375,95.58851623535156,2026-04-11T19:15:45.064-05:00
1775952945074898200,9.998898193359375,68.63493347167969,54.11212158203125,95.59870910644531,2026-04-11T19:15:45.074-05:00
1775952945085333200,10.009333251953125,68.80986022949219,53.94978332519531,95.81333923339844,2026-04-11T19:15:45.085-05:00
1775952945095769300,10.019769287109375,69.07725524902344,53.994598388671875,96.11033630371094,2026-04-11T19:15:45.095-05:00
1775952945106204700,10.03020458984375,68.94793701171875,54.202423095703125,96.43812561035156,2026-04-11T19:15:45.106-05:00
1775952945116640500,10.040640625,69.12942504882812,54.02081298828125,96.55841064453125,2026-04-11T19:15:45.116-05:00
1775952945127076400,10.051076416015626,69.17352294921875,54.05963134765625,96.91044616699219,2026-04-11T19:15:45.127-05:00
1775952945137511400,10.061511474609375,69.12062072753906,54.17356872558594,97.35945129394531,2026-04-11T19:15:45.137-05:00
1775952945147946800,10.07194677734375,69.17306518554688,53.86431884765625,97.97503662109375,2026-04-11T19:15:45.147-05:00
1775952945158382600,10.082382568359375,69.19277954101562,53.832977294921875,98.39984130859375,2026-04-11T19:15:45.158-05:00
1775952945168817700,10.092817626953124,68.72653198242188,53.717498779296875,98.97360229492188,2026-04-11T19:15:45.168-05:00
1775952945179253500,10.10325341796875,68.61656188964844,53.69464111328125,99.331298828125,2026-04-11T19:15:45.179-05:00
1775952945189688600,10.1136884765625,68.013671875,53.85115051269531,99.63429260253906,2026-04-11T19:15:45.189-05:00
1775952945200123600,10.12412353515625,67.67918395996094,53.698089599609375,100.14080810546875,2026-04-11T19:15:45.200-05:00
1775952945210558500,10.134558349609375,67.27842712402344,53.562225341796875,100.33638000488281,2026-04-11T19:15:45.210-05:00
1775952945220993500,10.14499365234375,65.91786193847656,53.63706970214844,100.26356506347656,2026-04-11T19:15:45.220-05:00
1775952945231427600,10.155427490234375,64.44148254394531,53.32127380371094,100.60308837890625,2026-04-11T19:15:45.231-05:00
1775952945241863400,10.165863525390625,62.30186462402344,52.89201354980469,100.35531616210938,2026-04-11T19:15:45.241-05:00
1775952945252298800,10.176298828125,60.88728332519531,52.74208068847656,99.99681091308594,2026-04-11T19:15:45.252-05:00
1775952945262733600,10.186733642578124,59.86030578613281,52.44731140136719,99.8668212890625,2026-04-11T19:15:45.262-05:00
1775952945273168600,10.197168701171876,59.49311828613281,53.01344299316406,99.16610717773438,2026-04-11T19:15:45.273-05:00
1775952945283603500,10.207603515625,60.61454772949219,52.75010681152344,98.82981872558594,2026-04-11T19:15:45.283-05:00
1775952945294037500,10.21803759765625,62.42155456542969,53.21577453613281,98.40982055664062,2026-04-11T19:15:45.294-05:00
1775952945304472600,10.22847265625,64.52291870117188,53.87785339355469,98.02896118164062,2026-04-11T19:15:45.304-05:00
1775952945314908700,10.23890869140625,67.272705078125,53.81050109863281,97.360595703125,2026-04-11T19:15:45.314-05:00
1775952945325343700,10.24934375,69.72154235839844,54.33876037597656,96.42559814453125,2026-04-11T19:15:45.325-05:00
1775952945335779600,10.259779541015625,72.1915283203125,54.3685302734375,95.26515197753906,2026-04-11T19:15:45.335-05:00
1775952945346214700,10.270214599609375,75.06198120117188,54.02294921875,94.01318359375,2026-04-11T19:15:45.346-05:00
1775952945356650800,10.280650634765625,77.79611206054688,53.74385070800781,92.40110778808594,2026-04-11T19:15:45.356-05:00
1775952945367085600,10.29108544921875,80.05540466308594,53.36962890625,91.00859069824219,2026-04-11T19:15:45.367-05:00
1775952945377520600,10.301520751953126,82.06570434570312,52.95985412597656,89.59121704101562,2026-04-11T19:15:45.377-05:00
1775952945387956500,10.31195654296875,83.16360473632812,52.53794860839844,88.50654602050781,2026-04-11T19:15:45.387-05:00
1775952945398392600,10.322392578125,84.46607971191406,51.859832763671875,87.89814758300781,2026-04-11T19:15:45.398-05:00
1775952945408828700,10.33282861328125,85.76702880859375,51.6727294921875,87.30342102050781,2026-04-11T19:15:45.408-05:00
1775952945419263700,10.343263671875,86.90365600585938,51.30415344238281,87.13334655761719,2026-04-11T19:15:45.419-05:00
1775952945429699600,10.353699462890624,88.39854431152344,50.630706787109375,87.00993347167969,2026-04-11T19:15:45.429-05:00
1775952945440134700,10.364134765625,89.51240539550781,50.319000244140625,87.02154541015625,2026-04-11T19:15:45.440-05:00
1775952945450570800,10.37457080078125,89.96495056152344,49.87493896484375,87.46817016601562,2026-04-11T19:15:45.450-05:00
1775952945461007600,10.385007568359375,90.73684692382812,49.60346984863281,87.73130798339844,2026-04-11T19:15:45.461-05:00
1775952945471443500,10.395443359375,91.42890930175781,49.40849304199219,88.01071166992188,2026-04-11T19:15:45.471-05:00
