absolute_timestamp,gyro_x,gyro_y,gyro_z
1775850908704,0.003,-0.005,-0.007
1775850908724,0.003,-0.006,-0.007
1775850908743,0.002,-0.005,-0.005
1775850908763,0.001,-0.004,-0.006
1775850908783,0.000,-0.004,-0.005
1775850908803,-0.002,-0.003,-0.004
1775850908822,-0.001,-0.002,-0.005
1775850908842,-0.002,-0.003,-0.007
1775850908862,-0.004,-0.003,-0.006
1775850908882,-0.004,-0.004,-0.005
1775850908902,-0.002,-0.007,-0.005
1775850908921,0.000,-0.009,-0.005
1775850908941,0.002,-0.010,-0.004
1775850908961,0.004,-0.008,-0.003
1775850908981,0.006,-0.005,-0.002
1775850909000,0.006,-0.003,-0.002
1775850909020,0.006,-0.001,-0.001
1775850909040,0.005,-0.001,-0.000
1775850909060,0.006,-0.001,0.000
1775850909079,0.005,-0.002,0.001
1775850909099,0.003,-0.002,0.001
1775850909119,0.000,-0.002,0.002
1775850909139,-0.001,-0.001,0.003
1775850909158,-0.001,-0.002,0.000
1775850909178,-0.000,-0.003,0.001
1775850909198,-0.001,-0.000,0.007
1775850909218,-0.001,0.000,0.005
1775850909237,0.000,-0.000,0.001
1775850909257,0.001,-0.000,0.000
1775850909277,0.000,0.000,0.001
1775850909297,0.001,-0.000,0.001
1775850909317,0.000,-0.005,0.000
1775850909336,0.000,-0.007,0.001
1775850909356,-0.001,-0.007,0.002
1775850909376,-0.002,-0.005,0.001
1775850909396,-0.004,-0.002,0.003
1775850909415,-0.006,0.000,0.003
1775850909435,-0.005,0.001,0.002
1775850909455,-0.006,0.000,0.001
1775850909475,-0.006,-0.000,0.001
1775850909494,-0.006,-0.001,0.002
1775850909514,-0.007,-0.003,0.001
1775850909534,-0.005,-0.002,0.001
1775850909554,-0.005,-0.001,0.002
1775850909573,-0.007,0.000,0.002
1775850909593,-0.008,0.001,0.001
1775850909613,-0.007,0.000,0.002
1775850909633,-0.007,0.001,0.001
1775850909652,-0.007,0.001,0.000
1775850909672,-0.008,0.001,0.000
1775850909692,-0.008,0.001,0.001
1775850909712,-0.009,0.001,0.002
1775850909732,-0.010,0.000,0.002
1775850909751,-0.009,0.001,0.004
1775850909771,-0.007,0.002,0.003
1775850909791,-0.006,0.000,-0.002
1775850909811,-0.007,-0.001,-0.003
1775850909830,-0.012,-0.000,0.001
1775850909850,-0.015,-0.003,-0.002
1775850909870,-0.014,-0.009,-0.004
1775850909890,-0.015,-0.012,-0.005
1775850909909,-0.014,-0.012,-0.003
1775850909929,-0.015,-0.014,-0.004
1775850909949,-0.018,-0.019,-0.007
1775850909969,-0.021,-0.025,-0.009
1775850909988,-0.023,-0.027,-0.010
1775850910008,-0.024,-0.031,-0.012
1775850910028,-0.027,-0.034,-0.014
1775850910048,-0.033,-0.037,-0.015
1775850910068,-0.036,-0.039,-0.016
1775850910087,-0.037,-0.043,-0.017
1775850910107,-0.035,-0.042,-0.016
1775850910127,-0.034,-0.034,-0.013
1775850910147,-0.034,-0.024,-0.011
1775850910166,-0.033,-0.015,-0.011
1775850910186,-0.033,-0.006,-0.010
1775850910206,-0.034,0.003,-0.008
1775850910226,-0.037,0.007,-0.008
1775850910245,-0.042,0.009,-0.012
1775850910265,-0.050,0.013,-0.013
1775850910285,-0.058,0.020,-0.010
1775850910305,-0.063,0.026,-0.007
1775850910324,-0.064,0.026,-0.005
1775850910344,-0.060,0.024,-0.006
1775850910364,-0.056,0.023,-0.004
1775850910384,-0.053,0.025,-0.000
1775850910403,-0.048,0.026,0.003
1775850910423,-0.041,0.025,0.007
1775850910443,-0.037,0.023,0.008
1775850910463,-0.032,0.022,0.014
1775850910483,-0.029,0.021,0.019
1775850910502,-0.024,0.021,0.019
1775850910522,-0.019,0.021,0.018
1775850910542,-0.013,0.022,0.015
1775850910562,-0.009,0.024,0.015
1775850910581,-0.010,0.024,0.008
1775850910601,-0.010,0.019,-0.001
1775850910621,-0.011,0.016,-0.007
1775850910641,-0.010,0.016,-0.009
1775850910660,-0.013,0.011,-0.013
1775850910680,-0.017,0.005,-0.015
1775850910700,-0.021,0.002,-0.016
1775850910720,-0.020,-0.003,-0.017
1775850910739,-0.019,-0.011,-0.019
1775850910759,-0.017,-0.014,-0.018
1775850910779,-0.013,-0.014,-0.018
1775850910799,-0.010,-0.018,-0.022
1775850910818,-0.013,-0.022,-0.028
1775850910838,-0.017,-0.027,-0.032
1775850910858,-0.017,-0.031,-0.034
1775850910878,-0.014,-0.038,-0.037
1775850910898,-0.011,-0.048,-0.040
1775850910917,-0.009,-0.057,-0.039
1775850910937,-0.010,-0.067,-0.039
1775850910957,-0.009,-0.077,-0.036
1775850910977,-0.006,-0.082,-0.031
1775850910996,-0.004,-0.080,-0.026
1775850911016,-0.004,-0.077,-0.021
1775850911036,-0.005,-0.075,-0.017
1775850911056,-0.008,-0.071,-0.011
1775850911075,-0.010,-0.067,-0.007
1775850911095,-0.011,-0.073,-0.012
1775850911115,-0.013,-0.081,-0.013
1775850911135,-0.022,-0.086,-0.015
1775850911154,-0.030,-0.097,-0.022
1775850911174,-0.034,-0.112,-0.029
1775850911194,-0.035,-0.121,-0.030
1775850911214,-0.034,-0.125,-0.029
1775850911233,-0.032,-0.125,-0.026
1775850911253,-0.032,-0.120,-0.025
1775850911273,-0.029,-0.113,-0.021
1775850911293,-0.028,-0.102,-0.016
1775850911312,-0.025,-0.087,-0.009
1775850911332,-0.025,-0.070,-0.003
1775850911352,-0.027,-0.055,0.000
1775850911372,-0.029,-0.045,0.003
1775850911392,-0.025,-0.036,0.005
1775850911411,-0.020,-0.027,0.004
1775850911431,-0.014,-0.022,0.003
1775850911451,-0.007,-0.019,0.001
1775850911471,-0.001,-0.016,0.000
1775850911490,0.006,-0.013,0.002
1775850911510,0.012,-0.012,0.001
1775850911530,0.019,-0.011,0.001
1775850911550,0.024,-0.008,0.001
1775850911569,0.031,-0.003,0.001
1775850911589,0.038,0.000,0.000
1775850911609,0.045,0.002,0.000
1775850911629,0.050,0.004,0.000
1775850911648,0.053,0.006,0.001
1775850911668,0.047,0.010,0.005
1775850911688,0.039,0.014,0.001
1775850911708,0.038,0.014,-0.007
1775850911727,0.040,0.011,-0.014
1775850911747,0.048,0.012,-0.015
1775850911767,0.052,0.012,-0.019
1775850911787,0.056,0.009,-0.021
1775850911807,0.060,0.009,-0.020
1775850911826,0.063,0.011,-0.016
1775850911846,0.061,0.014,-0.017
1775850911866,0.055,0.015,-0.021
1775850911886,0.046,0.017,-0.022
1775850911905,0.037,0.021,-0.023
1775850911925,0.029,0.021,-0.027
1775850911945,0.022,0.021,-0.027
1775850911965,0.018,0.026,-0.023
1775850911984,0.016,0.031,-0.023
1775850912004,0.014,0.034,-0.022
1775850912024,0.011,0.039,-0.022
1775850912044,0.007,0.043,-0.021
1775850912063,0.000,0.047,-0.020
1775850912083,-0.005,0.053,-0.016
1775850912103,-0.005,0.059,-0.015
1775850912123,-0.004,0.062,-0.015
1775850912142,-0.002,0.067,-0.011
1775850912162,-0.001,0.075,-0.006
1775850912182,0.003,0.081,-0.003
1775850912202,0.004,0.087,-0.003
1775850912222,0.004,0.092,-0.003
1775850912241,0.004,0.096,-0.004
1775850912261,0.000,0.101,-0.009
1775850912281,-0.007,0.101,-0.019
1775850912301,-0.011,0.097,-0.035
1775850912320,-0.015,0.089,-0.051
1775850912340,-0.019,0.082,-0.059
1775850912360,-0.027,0.078,-0.058
1775850912380,-0.034,0.074,-0.055
1775850912399,-0.033,0.063,-0.053
1775850912419,-0.023,0.050,-0.049
1775850912439,-0.003,0.036,-0.040
1775850912459,0.022,0.023,-0.036
1775850912478,0.040,0.004,-0.041
1775850912498,0.053,-0.014,-0.047
1775850912518,0.058,-0.031,-0.046
1775850912538,0.052,-0.039,-0.038
1775850912557,0.032,-0.044,-0.037
1775850912577,0.017,-0.048,-0.036
1775850912597,0.016,-0.046,-0.016
1775850912617,0.015,-0.047,-0.010
1775850912637,0.021,-0.042,0.007
1775850912656,0.011,-0.035,0.014
1775850912676,0.010,-0.031,0.023
1775850912696,0.005,-0.031,0.025
1775850912716,-0.002,-0.028,0.024
1775850912735,-0.011,-0.025,0.018
1775850912755,-0.015,-0.024,0.014
1775850912775,-0.017,-0.020,0.013
1775850912795,-0.016,-0.016,0.013
1775850912814,-0.009,-0.012,0.014
1775850912834,0.002,-0.011,0.016
1775850912854,0.013,-0.010,0.020
1775850912874,0.017,-0.009,0.024
1775850912894,0.012,-0.006,0.029
1775850912913,-0.001,-0.002,0.032
1775850912933,-0.015,-0.001,0.029
1775850912953,-0.027,-0.003,0.019
1775850912973,-0.036,-0.004,0.015
1775850912992,-0.041,-0.004,0.012
1775850913012,-0.036,-0.006,0.009
1775850913032,-0.029,-0.010,0.006
1775850913052,-0.022,-0.012,0.006
1775850913071,-0.016,-0.013,0.008
1775850913091,-0.010,-0.010,0.007
1775850913111,-0.000,-0.012,-0.003
1775850913131,0.007,-0.020,-0.018
1775850913150,0.011,-0.027,-0.033
1775850913170,0.013,-0.033,-0.040
1775850913190,0.012,-0.036,-0.039
1775850913210,0.005,-0.041,-0.039
1775850913230,-0.000,-0.045,-0.035
1775850913249,-0.007,-0.045,-0.029
1775850913269,-0.011,-0.040,-0.021
1775850913289,-0.016,-0.034,-0.017
1775850913309,-0.021,-0.027,-0.015
1775850913328,-0.025,-0.017,-0.011
1775850913348,-0.026,-0.008,-0.007
1775850913368,-0.026,-0.005,-0.003
1775850913388,-0.023,-0.002,0.002
1775850913407,-0.017,-0.002,0.004
1775850913427,-0.013,-0.005,0.006
1775850913447,-0.008,-0.004,0.008
1775850913467,-0.005,-0.003,0.011
1775850913486,-0.001,-0.000,0.014
1775850913506,0.003,-0.000,0.014
1775850913526,0.006,-0.001,0.015
1775850913546,0.008,0.001,0.016
1775850913566,0.012,0.000,0.013
1775850913585,0.015,-0.003,0.008
1775850913605,0.013,-0.001,0.013
1775850913625,0.009,0.002,0.012
1775850913645,0.008,0.000,0.007
1775850913664,0.009,-0.004,0.003
1775850913684,0.009,-0.004,0.004
1775850913704,0.010,-0.002,0.005
1775850913724,0.011,-0.003,0.003
1775850913743,0.011,-0.002,0.000
1775850913763,0.011,-0.000,0.000
1775850913783,0.012,0.000,0.000
1775850913803,0.014,0.001,0.002
1775850913823,0.012,0.004,0.000
1775850913842,0.010,0.005,-0.004
1775850913862,0.007,0.005,-0.006
1775850913882,0.006,0.004,-0.007
1775850913902,0.003,0.001,-0.009
1775850913921,0.001,-0.000,-0.012
1775850913941,0.000,-0.004,-0.012
1775850913961,0.002,-0.008,-0.012
1775850913981,0.003,-0.008,-0.012
1775850914000,0.005,-0.007,-0.010
1775850914020,0.007,-0.006,-0.009
1775850914040,0.010,-0.005,-0.009
1775850914060,0.011,-0.006,-0.007
1775850914079,0.012,-0.005,-0.005
1775850914099,0.013,-0.004,-0.003
1775850914119,0.011,-0.003,-0.002
1775850914139,0.009,-0.004,0.000
1775850914158,0.004,-0.003,0.000
1775850914178,0.005,-0.007,0.000
1775850914198,0.004,-0.010,0.002
1775850914218,0.001,-0.008,0.008
1775850914238,-0.003,-0.004,0.005
1775850914257,-0.004,-0.005,0.000
1775850914277,-0.003,-0.005,-0.001
1775850914297,-0.001,-0.006,0.001
1775850914317,0.000,-0.009,0.001
1775850914336,0.001,-0.014,0.002
1775850914356,0.002,-0.018,0.001
1775850914376,0.000,-0.018,0.002
1775850914396,0.000,-0.014,0.001
1775850914415,-0.001,-0.014,0.003
1775850914435,-0.003,-0.010,0.006
1775850914455,-0.002,-0.010,0.008
1775850914475,0.000,-0.012,0.007
1775850914494,0.001,-0.014,0.007
1775850914514,0.000,-0.013,0.007
1775850914534,-0.001,-0.013,0.006
1775850914554,-0.003,-0.013,0.004
1775850914574,-0.006,-0.012,0.003
1775850914593,-0.007,-0.011,0.004
1775850914613,-0.007,-0.009,0.006
1775850914633,-0.006,-0.005,0.005
1775850914653,-0.005,-0.003,0.004
1775850914672,-0.005,-0.002,0.002
1775850914692,-0.005,-0.003,0.001
1775850914712,-0.005,-0.004,0.002
1775850914732,-0.005,-0.008,0.003
1775850914751,-0.005,-0.011,0.002
1775850914771,-0.007,-0.009,-0.000
1775850914791,-0.006,-0.009,-0.002
1775850914811,-0.005,-0.009,-0.003
1775850914830,-0.010,-0.006,-0.001
1775850914850,-0.014,-0.004,-0.001
1775850914870,-0.012,-0.006,-0.003
1775850914890,-0.010,-0.008,-0.004
1775850914910,-0.010,-0.007,-0.005
1775850914929,-0.013,-0.007,-0.007
1775850914949,-0.015,-0.011,-0.010
1775850914969,-0.017,-0.015,-0.012
1775850914989,-0.019,-0.020,-0.012
1775850915008,-0.017,-0.025,-0.013
1775850915028,-0.017,-0.027,-0.010
1775850915048,-0.018,-0.026,-0.009
1775850915068,-0.018,-0.026,-0.009
1775850915087,-0.018,-0.027,-0.012
1775850915107,-0.023,-0.029,-0.012
1775850915127,-0.031,-0.032,-0.010
1775850915147,-0.035,-0.037,-0.004
1775850915166,-0.038,-0.044,-0.001
1775850915186,-0.043,-0.045,0.002
1775850915206,-0.047,-0.042,0.003
1775850915226,-0.052,-0.038,0.003
1775850915246,-0.058,-0.034,0.003
1775850915265,-0.062,-0.031,0.005
1775850915285,-0.064,-0.030,0.007
1775850915305,-0.063,-0.027,0.009
1775850915325,-0.057,-0.024,0.008
1775850915344,-0.049,-0.025,0.006
1775850915364,-0.049,-0.027,0.003
1775850915384,-0.056,-0.030,0.006
1775850915404,-0.058,-0.032,0.010
1775850915423,-0.056,-0.036,0.015
1775850915443,-0.049,-0.040,0.014
1775850915463,-0.042,-0.050,0.009
1775850915483,-0.040,-0.057,0.015
1775850915502,-0.041,-0.052,0.017
1775850915522,-0.039,-0.052,0.010
1775850915542,-0.038,-0.055,0.000
1775850915562,-0.039,-0.052,-0.002
1775850915581,-0.036,-0.045,0.001
1775850915601,-0.035,-0.037,0.001
1775850915621,-0.032,-0.029,0.001
1775850915641,-0.028,-0.020,0.002
1775850915660,-0.027,-0.013,0.003
1775850915680,-0.030,-0.003,0.005
1775850915700,-0.023,0.006,0.008
1775850915720,-0.006,0.009,0.006
1775850915739,0.011,0.005,0.001
1775850915759,0.018,0.001,-0.001
1775850915779,0.014,-0.000,-0.001
1775850915799,0.008,0.000,0.003
1775850915819,0.007,-0.002,0.006
1775850915838,0.009,-0.007,0.002
1775850915898,0.005,-0.004,-0.006
1775850915917,0.008,-0.001,-0.010
1775850915937,0.012,-0.000,-0.013
1775850915957,0.016,-0.004,-0.017
1775850915977,0.019,-0.011,-0.021
1775850915996,0.016,-0.015,-0.025
1775850916016,0.010,-0.015,-0.028
1775850916036,0.003,-0.017,-0.033
1775850916056,-0.004,-0.017,-0.035
1775850916075,-0.011,-0.016,-0.033
1775850916095,-0.016,-0.015,-0.034
1775850916115,-0.021,-0.015,-0.037
1775850916135,-0.024,-0.015,-0.037
1775850916154,-0.025,-0.010,-0.031
1775850916174,-0.027,-0.004,-0.032
1775850916194,-0.025,-0.004,-0.031
1775850916214,-0.029,0.000,-0.027
1775850916233,-0.032,0.008,-0.019
1775850916253,-0.036,0.015,-0.011
1775850916273,-0.039,0.025,-0.008
1775850916293,-0.046,0.038,-0.004
1775850916312,-0.062,0.058,0.003
1775850916332,-0.087,0.080,0.007
1775850916352,-0.117,0.100,0.011
1775850916372,-0.152,0.125,0.014
1775850916391,-0.186,0.149,0.010
1775850916411,-0.203,0.160,0.008
1775850916431,-0.209,0.157,0.009
1775850916451,-0.207,0.143,0.007
1775850916470,-0.201,0.125,0.009
1775850916490,-0.194,0.115,0.011
1775850916510,-0.179,0.100,0.012
1775850916530,-0.164,0.084,0.016
1775850916549,-0.154,0.074,0.022
1775850916569,-0.144,0.069,0.028
1775850916589,-0.122,0.062,0.031
1775850916609,-0.102,0.058,0.029
1775850916629,-0.087,0.058,0.030
1775850916648,-0.085,0.062,0.029
1775850916668,-0.075,0.065,0.026
1775850916688,-0.062,0.062,0.024
1775850916708,-0.052,0.055,0.025
1775850916727,-0.044,0.056,0.026
1775850916747,-0.033,0.052,0.024
1775850916767,-0.030,0.046,0.026
1775850916787,-0.038,0.045,0.030
1775850916806,-0.043,0.048,0.032
1775850916826,-0.039,0.049,0.030
1775850916846,-0.026,0.047,0.027
1775850916866,-0.022,0.050,0.024
1775850916885,-0.022,0.049,0.022
1775850916905,-0.019,0.047,0.024
1775850916925,-0.027,0.049,0.023
1775850916945,-0.041,0.055,0.026
1775850916964,-0.046,0.060,0.027
1775850916984,-0.041,0.058,0.032
1775850917004,-0.042,0.060,0.038
1775850917024,-0.036,0.059,0.039
1775850917044,-0.026,0.056,0.037
1775850917063,-0.027,0.062,0.039
1775850917083,-0.035,0.066,0.039
1775850917103,-0.037,0.062,0.037
1775850917123,-0.034,0.058,0.038
1775850917142,-0.033,0.063,0.043
1775850917162,-0.035,0.075,0.048
1775850917182,-0.039,0.090,0.051
1775850917202,-0.045,0.104,0.047
1775850917221,-0.042,0.115,0.041
1775850917241,-0.042,0.119,0.037
1775850917261,-0.049,0.116,0.035
1775850917281,-0.051,0.110,0.031
1775850917300,-0.050,0.102,0.026
1775850917320,-0.050,0.099,0.022
1775850917340,-0.047,0.092,0.018
1775850917399,-0.046,0.077,0.018
1775850917419,-0.043,0.071,0.012
1775850917439,-0.032,0.069,0.008
1775850917458,-0.026,0.077,0.011
1775850917478,-0.023,0.089,0.012
1775850917498,-0.026,0.097,0.005
1775850917518,-0.026,0.103,-0.002
1775850917537,-0.015,0.105,-0.013
1775850917557,-0.002,0.098,-0.018
1775850917577,0.010,0.083,-0.021
1775850917597,0.020,0.059,-0.023
1775850917616,0.028,0.035,-0.022
1775850917636,0.028,0.021,-0.020
1775850917656,0.027,0.019,-0.023
1775850917676,0.038,0.006,-0.028
1775850917696,0.043,0.007,-0.033
1775850917715,0.061,0.018,-0.022
1775850917735,0.067,0.018,-0.016
1775850917755,0.065,0.014,-0.017
1775850917775,0.071,0.010,-0.018
1775850917794,0.068,0.006,-0.015
1775850917814,0.054,0.007,-0.019
1775850917834,0.031,0.007,-0.023
1775850917854,0.018,0.015,-0.016
1775850917873,0.012,0.019,-0.007
1775850917893,0.011,0.023,-0.010
1775850917913,0.019,0.023,-0.016
1775850917933,0.011,0.024,-0.019
1775850917952,0.006,0.030,-0.017
1775850917972,0.018,0.033,-0.012
1775850917992,0.036,0.029,-0.004
1775850918012,0.049,0.031,0.004
1775850918031,0.048,0.033,0.004
1775850918051,0.035,0.033,0.004
1775850918071,0.029,0.031,0.007
1775850918091,0.026,0.034,0.016
1775850918111,0.030,0.039,0.020
1775850918130,0.027,0.039,0.015
1775850918150,0.023,0.040,0.009
1775850918170,0.019,0.033,0.004
1775850918190,0.011,0.024,0.008
1775850918209,0.007,0.018,0.004
1775850918229,0.009,0.005,-0.004
1775850918249,0.012,-0.004,-0.008
1775850918269,0.018,-0.011,-0.008
1775850918288,0.013,-0.011,-0.007
1775850918308,0.021,-0.018,-0.011
1775850918328,0.028,-0.024,-0.014
1775850918348,0.029,-0.020,-0.013
1775850918367,0.030,-0.014,-0.011
1775850918387,0.029,-0.018,-0.014
1775850918407,0.025,-0.020,-0.018
1775850918427,0.022,-0.021,-0.018
1775850918446,0.021,-0.016,-0.017
1775850918466,0.021,-0.015,-0.020
1775850918486,0.021,-0.016,-0.023
1775850918506,0.020,-0.023,-0.024
1775850918525,0.021,-0.034,-0.025
1775850918545,0.019,-0.048,-0.025
1775850918565,0.013,-0.059,-0.025
1775850918585,0.005,-0.065,-0.023
1775850918605,0.007,-0.074,-0.025
1775850918624,0.012,-0.083,-0.025
1775850918644,0.013,-0.076,-0.023
1775850918664,0.015,-0.072,-0.020
1775850918684,0.016,-0.074,-0.020
1775850918703,0.011,-0.069,-0.016
1775850918723,0.003,-0.063,-0.013
1775850918743,-0.001,-0.060,-0.014
1775850918763,-0.002,-0.050,-0.011
1775850918782,-0.004,-0.037,-0.009
1775850918802,-0.008,-0.030,-0.010
1775850918822,-0.004,-0.022,-0.012
1775850918842,0.001,-0.012,-0.011
1775850918861,0.005,-0.005,-0.012
1775850918881,0.006,0.000,-0.014
1775850918901,0.009,-0.001,-0.017
1775850918921,0.008,-0.003,-0.018
1775850918940,-0.002,-0.006,-0.017
1775850918960,-0.012,-0.008,-0.011
1775850918980,-0.021,-0.007,-0.010
1775850919000,-0.025,-0.005,-0.007
1775850919019,-0.025,-0.003,-0.007
1775850919039,-0.026,0.002,-0.004
1775850919059,-0.029,0.009,0.000
1775850919079,-0.028,0.010,0.000
1775850919099,-0.019,0.002,0.005
1775850919118,-0.019,0.006,0.021
1775850919138,-0.021,0.017,0.032
1775850919158,-0.022,0.025,0.034
1775850919178,-0.017,0.031,0.030
1775850919197,-0.010,0.026,0.015
1775850919217,-0.007,0.010,0.007
1775850919237,-0.009,0.002,0.011
1775850919257,-0.015,0.005,0.015
1775850919276,-0.022,0.006,0.009
1775850919296,-0.023,0.005,0.001
1775850919316,-0.023,0.008,-0.005
1775850919336,-0.029,0.016,-0.009
1775850919355,-0.032,0.022,-0.015
1775850919375,-0.033,0.021,-0.019
1775850919395,-0.039,0.025,-0.021
1775850919415,-0.045,0.027,-0.023
1775850919434,-0.050,0.032,-0.021
1775850919454,-0.053,0.029,-0.024
1775850919474,-0.057,0.023,-0.031
1775850919494,-0.058,0.019,-0.030
1775850919513,-0.052,0.014,-0.029
1775850919533,-0.034,0.004,-0.036
1775850919553,-0.014,-0.002,-0.040
1775850919573,0.002,0.000,-0.039
1775850919593,0.018,0.004,-0.041
1775850919612,0.026,0.006,-0.049
1775850919632,0.031,0.009,-0.052
1775850919652,0.033,0.015,-0.051
1775850919672,0.033,0.016,-0.051
1775850919691,0.030,0.015,-0.050
1775850919711,0.026,0.015,-0.047
1775850919731,0.023,0.014,-0.044
1775850919751,0.019,0.012,-0.042
1775850919770,0.014,0.014,-0.038
1775850919790,0.014,0.015,-0.038
1775850919810,0.016,0.015,-0.038
1775850919830,0.017,0.015,-0.039
1775850919849,0.016,0.016,-0.036
1775850919869,0.015,0.016,-0.033
1775850919889,0.012,0.015,-0.030
1775850919909,0.010,0.012,-0.027
1775850919928,0.011,0.009,-0.026
1775850919948,0.013,0.005,-0.027
1775850919968,0.014,0.001,-0.025
1775850919988,0.011,0.000,-0.023
1775850920007,0.006,-0.004,-0.027
1775850920027,0.007,-0.013,-0.031
1775850920047,0.007,-0.019,-0.029
1775850920067,0.006,-0.017,-0.017
1775850920086,0.014,-0.017,-0.006
1775850920106,0.018,-0.020,-0.001
1775850920126,0.016,-0.019,0.004
1775850920146,0.015,-0.015,0.012
1775850920166,0.018,-0.010,0.012
1775850920185,0.017,-0.006,0.009
1775850920205,0.018,-0.001,0.008
1775850920225,0.018,0.000,0.008
1775850920245,0.017,0.000,0.005
1775850920264,0.014,-0.007,0.001
1775850920284,0.011,-0.013,-0.003
1775850920304,0.012,-0.017,-0.009
1775850920324,0.012,-0.020,-0.013
1775850920343,0.010,-0.021,-0.014
1775850920363,0.004,-0.021,-0.015
1775850920383,0.000,-0.019,-0.015
1775850920403,-0.001,-0.018,-0.012
1775850920422,-0.002,-0.012,-0.006
1775850920442,-0.001,-0.006,-0.001
1775850920462,0.000,0.000,0.003
1775850920482,0.005,0.007,0.004
1775850920501,0.007,0.007,0.002
1775850920521,0.009,0.007,0.004
1775850920541,0.005,0.010,0.008
1775850920561,0.003,0.011,0.001
1775850920580,0.006,0.003,-0.006
1775850920600,0.006,-0.000,-0.009
1775850920620,0.007,0.003,-0.010
1775850920640,0.006,-0.001,-0.011
1775850920659,0.009,-0.003,-0.012
1775850920679,0.022,-0.010,-0.012
1775850920699,0.024,-0.013,-0.010
1775850920719,0.012,-0.010,-0.011
1775850920738,0.001,-0.007,-0.012
1775850920758,-0.001,-0.009,-0.011
1775850920778,-0.003,-0.012,-0.011
1775850920798,-0.003,-0.011,-0.009
1775850920817,-0.005,-0.011,-0.008
1775850920837,-0.003,-0.011,-0.005
1775850920857,-0.000,-0.008,0.000
1775850920877,0.001,-0.004,0.002
1775850920896,0.000,-0.001,0.003
1775850920916,0.000,-0.000,0.004
1775850920936,0.000,-0.000,0.005
1775850920956,0.001,-0.001,0.005
1775850920976,0.002,-0.004,0.002
1775850920995,0.000,-0.005,0.001
1775850921015,-0.007,-0.004,0.002
1775850921035,-0.010,-0.000,0.003
1775850921055,-0.009,0.000,0.003
1775850921074,-0.006,0.001,0.004
1775850921094,-0.004,0.003,0.004
1775850921114,-0.002,0.001,0.002
1775850921134,-0.003,-0.000,0.001
1775850921153,-0.002,-0.001,0.000
1775850921173,-0.002,-0.001,-0.001
1775850921193,-0.003,-0.001,-0.003
1775850921213,-0.003,-0.001,-0.003
1775850921232,-0.001,-0.002,-0.003
1775850921252,0.001,-0.004,-0.003
1775850921272,0.004,-0.006,-0.007
1775850921292,0.006,-0.014,-0.012
1775850921311,0.009,-0.023,-0.011
1775850921331,0.008,-0.024,-0.008
1775850921351,0.016,-0.023,-0.011
1775850921371,0.027,-0.035,-0.022
1775850921391,0.033,-0.059,-0.035
1775850921410,0.036,-0.090,-0.041
1775850921430,0.039,-0.121,-0.047
1775850921450,0.051,-0.170,-0.062
1775850921470,0.064,-0.232,-0.086
1775850921489,0.076,-0.283,-0.104
1775850921509,0.086,-0.313,-0.113
1775850921529,0.089,-0.326,-0.115
1775850921549,0.090,-0.336,-0.125
1775850921568,0.090,-0.347,-0.137
1775850921588,0.089,-0.347,-0.139
1775850921608,0.095,-0.339,-0.141
1775850921628,0.106,-0.337,-0.154
1775850921647,0.112,-0.331,-0.165
1775850921667,0.109,-0.318,-0.172
1775850921687,0.105,-0.302,-0.177
1775850921707,0.108,-0.288,-0.178
1775850921726,0.114,-0.276,-0.181
1775850921746,0.115,-0.267,-0.183
1775850921766,0.107,-0.258,-0.185
1775850921786,0.098,-0.250,-0.186
1775850921806,0.098,-0.241,-0.183
1775850921825,0.101,-0.232,-0.179
1775850921845,0.099,-0.218,-0.172
1775850921865,0.103,-0.201,-0.157
1775850921885,0.105,-0.185,-0.143
1775850921904,0.101,-0.170,-0.134
1775850921924,0.098,-0.157,-0.128
1775850921944,0.097,-0.148,-0.122
1775850921964,0.090,-0.140,-0.118
1775850921983,0.083,-0.133,-0.110
1775850922003,0.082,-0.124,-0.096
1775850922023,0.083,-0.113,-0.088
1775850922043,0.083,-0.106,-0.084
1775850922062,0.076,-0.094,-0.083
1775850922082,0.079,-0.074,-0.073
1775850922102,0.083,-0.052,-0.064
1775850922122,0.087,-0.020,-0.055
1775850922141,0.096,0.021,-0.041
1775850922161,0.106,0.058,-0.032
1775850922181,0.109,0.083,-0.025
1775850922201,0.104,0.099,-0.020
1775850922220,0.103,0.113,-0.013
1775850922240,0.106,0.119,-0.007
1775850922260,0.100,0.117,-0.003
1775850922280,0.088,0.114,-0.002
1775850922299,0.076,0.105,-0.004
1775850922319,0.064,0.094,-0.005
1775850922339,0.059,0.088,0.003
1775850922359,0.057,0.082,0.001
1775850922378,0.052,0.071,-0.003
1775850922398,0.042,0.065,-0.006
1775850922418,0.034,0.067,-0.002
1775850922438,0.028,0.069,0.001
1775850922457,0.024,0.063,0.003
1775850922477,0.023,0.052,0.006
1775850922497,0.025,0.040,0.010
1775850922517,0.025,0.026,0.011
1775850922536,0.024,0.008,0.015
1775850922556,0.019,-0.009,0.012
1775850922576,0.021,-0.025,0.011
1775850922596,0.028,-0.041,0.013
1775850922615,0.034,-0.057,0.010
1775850922635,0.029,-0.070,0.007
1775850922655,0.015,-0.085,0.004
1775850922675,-0.001,-0.107,0.004
1775850922694,-0.019,-0.143,-0.000
1775850922714,-0.039,-0.185,-0.007
1775850922734,-0.057,-0.214,-0.008
1775850922754,-0.073,-0.242,-0.008
1775850922773,-0.088,-0.277,-0.017
1775850922793,-0.098,-0.298,-0.023
1775850922813,-0.106,-0.295,-0.026
1775850922833,-0.109,-0.281,-0.031
1775850922852,-0.107,-0.267,-0.045
1775850922872,-0.099,-0.252,-0.057
1775850922892,-0.091,-0.228,-0.055
1775850922912,-0.087,-0.195,-0.053
1775850922931,-0.073,-0.170,-0.053
1775850922951,-0.061,-0.159,-0.042
1775850922971,-0.055,-0.145,-0.026
1775850922991,-0.050,-0.132,-0.015
1775850923010,-0.047,-0.123,-0.004
1775850923030,-0.040,-0.110,0.008
1775850923050,-0.032,-0.094,0.011
1775850923070,-0.030,-0.083,0.005
1775850923089,-0.034,-0.073,0.003
1775850923109,-0.033,-0.055,0.002
1775850923129,-0.025,-0.039,-0.002
1775850923149,-0.019,-0.028,-0.013
1775850923168,-0.014,-0.017,-0.022
1775850923188,-0.003,-0.002,-0.030
1775850923208,0.014,0.006,-0.040
1775850923228,0.029,0.009,-0.047
1775850923247,0.036,0.011,-0.049
1775850923267,0.040,0.013,-0.049
1775850923287,0.040,0.019,-0.049
1775850923307,0.046,0.026,-0.046
1775850923326,0.060,0.032,-0.044
1775850923346,0.070,0.037,-0.043
1775850923366,0.069,0.040,-0.038
1775850923386,0.062,0.043,-0.031
1775850923405,0.063,0.045,-0.020
1775850923425,0.071,0.048,-0.000
1775850923445,0.058,0.049,0.010
1775850923465,0.021,0.050,0.019
1775850923484,0.001,0.054,0.035
1775850923504,0.010,0.056,0.033
1775850923524,0.029,0.044,0.016
1775850923544,0.041,0.038,0.009
1775850923564,0.045,0.045,0.007
1775850923583,0.053,0.048,-0.001
1775850923603,0.061,0.043,-0.016
1775850923623,0.057,0.041,-0.022
1775850923643,0.043,0.042,-0.022
1775850923662,0.033,0.040,-0.017
1775850923682,0.022,0.043,-0.006
1775850923702,0.018,0.044,0.002
1775850923722,0.015,0.047,0.008
1775850923741,0.014,0.051,0.011
1775850923761,0.020,0.055,0.013
1775850923781,0.029,0.057,0.012
1775850923801,0.033,0.056,0.013
1775850923820,0.030,0.055,0.010
1775850923840,0.032,0.053,0.006
1775850923860,0.037,0.053,-0.003
1775850923880,0.040,0.054,-0.005
1775850923899,0.037,0.058,-0.004
1775850923919,0.044,0.061,-0.003
1775850923939,0.055,0.066,-0.003
1775850923959,0.071,0.071,0.000
1775850923978,0.074,0.074,0.004
1775850923998,0.073,0.080,0.008
1775850924018,0.070,0.081,0.010
1775850924038,0.062,0.074,0.011
1775850924057,0.057,0.059,0.011
1775850924077,0.046,0.042,0.006
1775850924097,0.036,0.023,0.006
1775850924117,0.031,0.010,0.021
1775850924136,0.030,0.004,0.026
1775850924156,0.039,-0.002,0.024
1775850924176,0.050,-0.015,0.024
1775850924196,0.061,-0.038,0.029
1775850924215,0.054,-0.067,0.039
1775850924235,0.062,-0.140,0.046
1775850924255,0.082,-0.292,0.032
1775850924275,0.090,-0.509,0.016
1775850924294,0.082,-0.700,0.023
1775850924314,0.073,-0.833,0.031
1775850924334,0.049,-0.965,0.009
1775850924354,0.034,-1.050,-0.010
1775850924373,0.033,-1.058,-0.007
1775850924393,0.032,-1.048,-0.016
1775850924413,-0.004,-1.021,-0.041
1775850924433,-0.053,-0.914,-0.029
1775850924452,-0.055,-0.743,0.010
1775850924472,-0.029,-0.607,-0.001
1775850924492,-0.017,-0.515,-0.025
1775850924512,-0.008,-0.407,-0.017
1775850924531,-0.010,-0.291,0.000
1775850924551,-0.004,-0.196,-0.002
1775850924571,-0.016,-0.131,-0.013
1775850924591,-0.010,-0.079,-0.015
1775850924610,0.013,-0.057,-0.012
1775850924630,0.012,-0.061,-0.005
1775850924650,0.001,-0.054,0.012
1775850924670,0.007,-0.042,0.008
1775850924689,0.016,-0.061,0.000
1775850924709,0.000,-0.091,-0.002
1775850924729,-0.001,-0.077,0.014
1775850924749,-0.003,-0.074,0.011
1775850924768,-0.011,-0.089,0.004
1775850924788,-0.020,-0.084,0.008
1775850924808,-0.029,-0.078,0.001
1775850924828,-0.023,-0.077,-0.003
1775850924847,-0.020,-0.072,-0.002
1775850924867,-0.024,-0.054,0.002
1775850924887,-0.023,-0.040,-0.000
1775850924907,-0.017,-0.039,-0.007
1775850924926,-0.013,-0.031,-0.005
1775850924946,-0.014,-0.017,-0.001
1775850924966,-0.009,-0.014,-0.008
1775850924986,-0.002,-0.018,-0.011
1775850925005,-0.004,-0.018,-0.008
1775850925025,-0.003,-0.007,-0.007
1775850925045,0.004,0.003,-0.019
1775850925065,0.013,0.012,-0.028
1775850925084,0.016,0.029,-0.027
1775850925104,0.019,0.056,-0.032
1775850925124,0.023,0.102,-0.046
1775850925144,0.016,0.175,-0.073
1775850925163,0.023,0.247,-0.085
1775850925183,0.033,0.288,-0.086
1775850925203,0.026,0.328,-0.091
1775850925223,0.017,0.426,-0.094
1775850925242,0.003,0.592,-0.091
1775850925262,-0.002,0.757,-0.059
1775850925282,-0.005,0.850,-0.039
1775850925302,-0.021,0.889,-0.048
1775850925321,-0.052,0.922,-0.055
1775850925341,-0.057,0.949,-0.047
1775850925361,-0.042,0.911,-0.031
1775850925381,-0.036,0.833,-0.019
1775850925400,-0.029,0.790,0.002
1775850925420,-0.009,0.762,0.023
1775850925440,0.016,0.675,0.038
1775850925460,0.026,0.556,0.049
1775850925479,0.031,0.469,0.058
1775850925499,0.030,0.399,0.070
1775850925519,0.026,0.324,0.082
1775850925539,0.021,0.274,0.094
1775850925558,0.010,0.250,0.112
1775850925578,0.002,0.225,0.114
1775850925598,-0.007,0.193,0.098
1775850925618,-0.017,0.166,0.080
1775850925637,-0.027,0.134,0.068
1775850925657,-0.043,0.081,0.066
1775850925677,-0.068,0.001,0.062
1775850925697,-0.091,-0.076,0.056
1775850925716,-0.101,-0.121,0.049
1775850925736,-0.110,-0.135,0.035
1775850925756,-0.118,-0.138,0.019
1775850925776,-0.121,-0.138,0.007
1775850925795,-0.113,-0.121,-0.001
1775850925815,-0.097,-0.091,-0.006
1775850925835,-0.079,-0.069,-0.013
1775850925855,-0.055,-0.062,-0.017
1775850925874,-0.037,-0.058,-0.019
1775850925894,-0.028,-0.049,-0.019
1775850925914,-0.021,-0.041,-0.012
1775850925934,-0.017,-0.031,-0.008
1775850925953,-0.016,-0.024,-0.009
1775850925973,-0.020,-0.019,-0.015
1775850925993,-0.024,-0.015,-0.019
1775850926013,-0.023,-0.010,-0.020
1775850926032,-0.022,-0.009,-0.021
1775850926052,-0.022,-0.009,-0.021
1775850926072,-0.022,-0.007,-0.020
1775850926092,-0.020,-0.007,-0.021
1775850926111,-0.015,-0.009,-0.019
1775850926131,-0.011,-0.011,-0.017
1775850926151,-0.008,-0.013,-0.015
1775850926171,-0.005,-0.011,-0.014
1775850926191,-0.006,-0.012,-0.014
1775850926210,-0.006,-0.013,-0.016
1775850926230,-0.004,-0.016,-0.018
1775850926250,0.000,-0.016,-0.017
1775850926270,0.010,-0.001,-0.016
1775850926289,0.046,0.030,-0.021
1775850926309,0.100,0.092,-0.032
1775850926329,0.146,0.169,-0.040
1775850926349,0.195,0.236,-0.050
1775850926368,0.237,0.308,-0.056
1775850926388,0.253,0.363,-0.049
1775850926408,0.247,0.375,-0.037
1775850926428,0.233,0.353,-0.024
1775850926447,0.212,0.323,-0.006
1775850926467,0.177,0.286,0.015
1775850926487,0.135,0.232,0.032
1775850926507,0.102,0.176,0.054
1775850926526,0.093,0.139,0.064
1775850926546,0.075,0.115,0.068
1775850926566,0.055,0.087,0.063
1775850926586,0.038,0.054,0.052
1775850926605,0.026,0.028,0.042
1775850926625,0.021,0.013,0.040
1775850926645,0.024,0.009,0.039
1775850926665,0.023,0.008,0.029
1775850926684,0.020,0.004,0.015
1775850926704,0.024,0.000,0.013
1775850926724,0.026,0.005,0.011
1775850926744,0.026,0.015,0.011
1775850926763,0.024,0.018,0.011
1775850926783,0.026,0.014,0.014
1775850926803,0.032,0.012,0.013
1775850926823,0.033,0.020,0.015
1775850926843,0.028,0.027,0.019
1775850926862,0.018,0.025,0.015
1775850926882,0.009,0.017,0.006
1775850926902,0.009,0.013,0.005
1775850926922,0.009,0.016,0.007
1775850926941,0.008,0.017,0.005
1775850926961,0.006,0.017,-0.002
1775850926981,0.000,0.015,-0.006
1775850927001,-0.006,0.011,-0.005
1775850927020,-0.005,0.012,0.000
1775850927040,0.001,0.013,0.004
1775850927060,0.002,0.013,0.006
1775850927080,0.007,0.021,0.009
1775850927099,0.001,0.034,0.009
1775850927119,0.000,0.064,0.017
1775850927139,0.018,0.103,0.004
1775850927159,0.028,0.137,-0.013
1775850927178,0.025,0.171,-0.037
1775850927198,0.000,0.186,-0.038
1775850927218,-0.029,0.170,-0.013
1775850927238,-0.027,0.113,-0.004
1775850927257,-0.019,0.036,0.003
1775850927277,-0.032,-0.030,0.031
1775850927297,-0.047,-0.081,0.057
1775850927317,-0.030,-0.088,0.065
1775850927336,0.005,-0.036,0.057
1775850927356,0.037,0.043,0.025
1775850927376,0.044,0.115,-0.011
1775850927396,0.045,0.166,-0.030
1775850927415,0.043,0.187,-0.053
1775850927435,0.029,0.182,-0.059
1775850927455,0.013,0.142,-0.039
1775850927475,-0.006,0.062,0.004
1775850927494,-0.033,-0.039,0.056
1775850927514,-0.075,-0.134,0.078
1775850927534,-0.097,-0.197,0.090
1775850927554,-0.059,-0.197,0.094
1775850927573,-0.004,-0.129,0.060
1775850927593,0.020,-0.043,0.018
1775850927613,0.044,0.016,-0.033
1775850927633,0.054,0.077,-0.090
1775850927652,0.046,0.138,-0.099
1775850927672,0.037,0.161,-0.084
1775850927692,0.031,0.121,-0.048
1775850927712,0.001,0.054,-0.008
1775850927731,-0.022,-0.005,0.033
1775850927751,-0.014,-0.039,0.056
1775850927771,0.007,-0.052,0.055
1775850927791,0.021,-0.043,0.041
1775850927811,0.042,-0.016,0.016
1775850927870,0.006,0.052,-0.031
1775850927890,0.011,0.044,-0.022
1775850927909,0.002,0.038,-0.004
1775850927929,-0.011,0.019,0.009
1775850927949,-0.017,0.000,0.017
1775850927969,-0.014,-0.010,0.018
1775850927988,-0.005,-0.017,0.020
1775850928008,-0.002,-0.018,0.018
1775850928028,-0.004,-0.017,0.014
1775850928048,-0.000,-0.014,0.005
1775850928067,0.000,-0.012,-0.004
1775850928087,0.000,-0.013,-0.012
1775850928107,0.007,-0.018,-0.008
1775850928127,0.012,-0.020,-0.006
1775850928146,0.014,-0.019,-0.006
1775850928166,0.014,-0.020,-0.006
1775850928186,0.015,-0.015,-0.005
1775850928206,0.012,-0.008,0.000
1775850928225,0.008,-0.007,0.001
1775850928245,0.002,-0.007,0.001
1775850928265,0.000,-0.002,-0.000
1775850928285,0.001,0.000,0.002
1775850928304,0.000,0.002,0.003
1775850928324,-0.003,0.002,0.004
1775850928344,-0.010,-0.001,0.001
1775850928364,-0.010,0.000,0.007
1775850928383,-0.007,0.008,0.009
1775850928403,-0.003,0.008,0.007
1775850928423,0.001,0.003,0.002
1775850928443,0.000,-0.001,0.000
1775850928462,0.000,-0.004,-0.001
1775850928482,0.002,-0.010,0.000
1775850928502,0.001,-0.015,0.002
1775850928522,-0.000,-0.019,0.002
1775850928541,-0.006,-0.022,0.000
1775850928561,-0.008,-0.018,0.002
1775850928581,-0.008,-0.014,0.004
1775850928601,-0.007,-0.013,0.004
1775850928620,-0.010,-0.009,0.000
1775850928640,-0.012,-0.007,-0.003
1775850928660,-0.011,-0.003,-0.001
1775850928680,-0.005,-0.001,-0.000
1775850928699,-0.005,0.000,0.000
1775850928719,-0.006,-0.000,0.002
1775850928739,-0.008,-0.004,0.003
1775850928759,-0.006,-0.008,0.006
1775850928778,0.001,-0.010,0.007
1775850928798,0.008,-0.006,0.005
1775850928818,0.000,-0.001,0.006
1775850928838,-0.011,0.004,0.009
1775850928857,-0.015,0.005,0.012
1775850928877,-0.020,0.013,0.016
1775850928897,-0.014,0.033,0.020
1775850928917,-0.006,0.051,0.017
1775850928936,-0.012,0.059,0.016
1775850928956,-0.019,0.053,0.008
1775850928976,-0.026,0.025,-0.001
1775850928996,-0.041,-0.021,-0.007
1775850929015,-0.053,-0.061,0.023
1775850929035,-0.028,-0.081,0.029
1775850929055,0.010,-0.084,0.007
1775850929075,0.013,-0.072,-0.032
1775850929094,0.009,-0.051,-0.066
1775850929114,0.012,-0.022,-0.066
1775850929134,0.001,0.014,-0.042
1775850929154,-0.006,0.032,-0.032
1775850929173,-0.020,0.035,-0.027
1775850929193,-0.035,0.036,-0.009
1775850929213,-0.041,0.026,0.008
1775850929233,-0.032,0.004,0.010
1775850929252,-0.009,-0.014,0.008
1775850929272,0.011,-0.016,0.000
1775850929292,0.012,-0.006,-0.008
1775850929312,0.003,0.010,-0.017
1775850929331,-0.007,0.023,-0.022
1775850929351,-0.015,0.027,-0.016
1775850929371,-0.011,0.022,-0.001
1775850929391,-0.010,0.011,0.010
1775850929410,0.000,-0.001,0.009
1775850929430,0.007,-0.011,0.013
1775850929450,0.010,-0.012,0.016
1775850929470,0.006,-0.016,0.010
1775850929489,0.011,-0.011,0.004
1775850929509,0.015,-0.001,0.001
1775850929529,0.010,0.007,-0.001
1775850929549,0.001,0.007,0.000
1775850929568,-0.010,0.005,-0.000
1775850929588,-0.007,-0.001,0.002
1775850929608,0.000,-0.004,0.005
1775850929628,0.001,-0.001,0.005
1775850929647,0.002,0.000,0.002
1775850929667,0.001,0.001,0.004
1775850929687,0.007,0.004,0.006
1775850929707,0.006,0.004,0.008
1775850929726,0.003,0.006,0.008
1775850929746,0.000,0.003,0.009
1775850929766,0.005,-0.002,0.008
1775850929786,0.014,-0.003,0.006
1775850929805,0.017,-0.002,0.003
1775850929825,0.014,-0.005,0.003
1775850929845,0.008,-0.005,0.008
1775850929865,0.013,-0.006,0.007
1775850929884,0.013,-0.010,0.001
1775850929904,0.010,-0.009,0.001
1775850929924,0.011,-0.004,0.002
1775850929944,0.010,-0.005,0.003
1775850929963,0.005,-0.010,0.002
1775850929983,0.004,-0.012,0.001
1775850930003,0.005,-0.009,0.003
1775850930023,0.000,-0.005,0.002
1775850930042,-0.002,-0.006,0.002
1775850930062,-0.004,-0.009,0.001
1775850930082,-0.003,-0.015,0.005
1775850930102,0.002,-0.021,0.009
1775850930121,0.003,-0.021,0.010
1775850930141,0.005,-0.018,0.012
1775850930161,0.002,-0.019,0.011
1775850930181,0.005,-0.017,0.011
1775850930200,0.011,-0.015,0.009
1775850930220,0.022,-0.013,0.002
1775850930240,0.023,-0.011,-0.003
1775850930260,0.010,-0.007,-0.013
1775850930279,-0.017,-0.014,-0.018
1775850930299,-0.044,-0.017,-0.016
1775850930319,-0.074,-0.013,-0.004
1775850930339,-0.086,-0.011,-0.013
1775850930359,-0.070,-0.006,-0.025
1775850930378,-0.046,0.003,-0.049
1775850930398,-0.058,0.028,-0.075
1775850930418,-0.070,0.049,-0.092
1775850930438,-0.063,0.060,-0.103
1775850930457,-0.031,0.066,-0.079
1775850930477,0.018,0.070,-0.032
1775850930497,0.056,0.058,-0.004
1775850930517,0.094,0.028,0.029
1775850930536,0.135,0.004,0.083
1775850930556,0.170,-0.018,0.103
1775850930576,0.179,-0.040,0.103
1775850930596,0.157,-0.049,0.102
1775850930615,0.130,-0.048,0.096
1775850930635,0.110,-0.037,0.085
1775850930655,0.091,-0.017,0.073
1775850930675,0.059,0.002,0.065
1775850930694,0.021,0.010,0.046
1775850930714,-0.008,0.008,0.027
1775850930734,-0.024,0.013,0.019
1775850930754,-0.012,0.017,0.016
1775850930773,-0.008,0.017,0.012
1775850930793,-0.003,0.016,0.007
1775850930813,0.003,0.012,0.003
1775850930833,0.005,0.008,-0.004
1775850930852,0.004,0.005,-0.008
1775850930872,0.004,-0.001,-0.006
1775850930892,0.000,-0.005,-0.008
1775850930912,-0.008,-0.011,-0.015
1775850930931,-0.019,-0.015,-0.026
1775850930951,-0.047,-0.013,-0.036
1775850930971,-0.084,-0.003,-0.036
1775850930991,-0.116,0.004,-0.037
1775850931011,-0.154,0.016,-0.047
1775850931030,-0.172,0.045,-0.057
1775850931050,-0.130,0.056,-0.053
1775850931070,-0.058,0.049,-0.012
1775850931090,0.015,0.048,0.017
1775850931109,0.097,0.034,0.036
1775850931129,0.147,0.010,0.052
1775850931149,0.148,-0.001,0.060
1775850931169,0.139,-0.005,0.055
1775850931188,0.117,-0.007,0.050
1775850931208,0.094,-0.004,0.039
1775850931228,0.068,-0.005,0.023
1775850931248,0.037,-0.000,0.012
1775850931267,0.005,0.009,0.004
1775850931287,-0.028,0.013,-0.005
1775850931307,-0.059,0.017,-0.018
1775850931327,-0.090,0.016,-0.021
1775850931346,-0.108,0.018,-0.017
1775850931366,-0.091,0.022,-0.016
1775850931386,-0.024,0.018,-0.004
1775850931406,0.014,0.013,0.009
1775850931425,0.026,0.002,0.018
1775850931445,0.045,-0.011,0.016
1775850931465,0.050,-0.015,0.011
1775850931485,0.042,-0.002,0.022
1775850931504,0.023,0.009,0.026
1775850931524,0.020,0.009,0.014
1775850931544,0.006,0.010,-0.003
1775850931564,-0.008,0.015,-0.006
1775850931583,-0.003,0.015,-0.001
1775850931603,0.005,0.010,0.005
1775850931623,0.012,0.000,0.011
1775850931643,0.018,-0.010,0.015
1775850931662,0.018,-0.016,0.011
1775850931682,0.013,-0.016,0.008
1775850931702,0.016,-0.009,0.008
1775850931722,0.018,-0.004,0.006
1775850931742,0.017,-0.001,0.002
1775850931761,0.013,-0.001,0.000
1775850931781,0.008,-0.000,-0.001
1775850931801,0.006,-0.004,-0.006
1775850931821,0.002,-0.007,-0.007
1775850931840,-0.000,-0.010,-0.003
1775850931860,0.000,-0.011,0.003
1775850931880,0.004,-0.012,0.006
1775850931900,0.000,-0.010,0.003
1775850931919,-0.003,-0.006,0.004
1775850931939,-0.010,0.002,0.007
1775850931959,-0.010,0.007,0.007
1775850931979,-0.008,0.008,0.007
1775850931998,-0.006,0.009,0.006
1775850932018,-0.006,0.012,0.007
1775850932038,-0.008,0.012,0.005
1775850932058,-0.006,0.011,0.002
1775850932077,-0.003,0.009,-0.000
1775850932097,-0.006,0.008,-0.004
1775850932117,-0.006,0.005,-0.003
1775850932137,-0.005,0.003,-0.000
1775850932156,-0.001,0.001,0.002
1775850932176,-0.000,-0.001,0.001
1775850932196,-0.003,-0.004,0.000
1775850932216,-0.002,-0.009,-0.001
1775850932235,-0.001,-0.013,0.003
1775850932255,0.001,-0.015,0.005
1775850932275,0.002,-0.016,0.006
1775850932295,0.004,-0.016,0.005
1775850932334,-0.001,-0.014,0.002
1775850932354,-0.002,-0.010,0.003
1775850932374,-0.002,-0.006,0.002
1775850932393,-0.003,-0.001,0.001
1775850932413,-0.005,0.000,0.001
1775850932433,-0.003,0.001,-0.000
1775850932453,-0.002,0.003,-0.002
1775850932472,-0.001,0.004,-0.002
1775850932492,-0.002,0.003,-0.002
1775850932512,-0.005,0.002,-0.004
1775850932532,-0.012,-0.002,-0.003
1775850932552,-0.022,-0.014,-0.005
1775850932571,-0.034,-0.030,-0.009
1775850932591,-0.051,-0.054,-0.011
1775850932611,-0.083,-0.101,-0.019
1775850932631,-0.125,-0.170,-0.021
1775850932650,-0.178,-0.247,-0.022
1775850932670,-0.229,-0.321,-0.030
1775850932690,-0.275,-0.385,-0.043
1775850932710,-0.313,-0.422,-0.053
1775850932729,-0.341,-0.435,-0.059
1775850932749,-0.345,-0.438,-0.063
1775850932769,-0.325,-0.430,-0.071
1775850932789,-0.288,-0.401,-0.083
1775850932808,-0.243,-0.355,-0.095
1775850932828,-0.184,-0.307,-0.106
1775850932848,-0.119,-0.257,-0.114
1775850932868,-0.062,-0.207,-0.112
1775850932887,-0.025,-0.158,-0.106
1775850932907,0.003,-0.119,-0.095
1775850932927,0.028,-0.090,-0.083
1775850932947,0.039,-0.068,-0.071
1775850932966,0.030,-0.052,-0.067
1775850932986,0.019,-0.049,-0.061
1775850933006,0.019,-0.045,-0.052
1775850933026,0.027,-0.037,-0.040
1775850933046,0.021,-0.027,-0.027
1775850933065,0.005,-0.014,-0.018
1775850933085,-0.017,-0.002,-0.008
1775850933105,-0.027,0.001,-0.004
1775850933125,-0.020,-0.006,-0.000
1775850933144,-0.005,-0.015,-0.005
1775850933164,-0.004,-0.018,-0.002
1775850933184,-0.005,-0.015,0.003
1775850933204,-0.001,-0.013,0.001
1775850933223,0.000,-0.012,-0.003
1775850933243,0.000,-0.008,-0.007
1775850933263,0.000,-0.006,-0.014
1775850933283,-0.001,-0.009,-0.017
1775850933302,-0.003,-0.009,-0.009
1775850933322,-0.007,-0.009,-0.012
1775850933342,-0.003,-0.011,-0.017
1775850933362,0.001,-0.015,-0.024
1775850933381,0.003,-0.015,-0.026
1775850933401,0.005,-0.015,-0.023
1775850933421,0.009,-0.015,-0.019
1775850933441,0.014,-0.014,-0.016
1775850933460,0.019,-0.013,-0.012
1775850933480,0.021,-0.016,-0.013
1775850933500,0.022,-0.016,-0.010
1775850933520,0.027,-0.015,-0.009
1775850933540,0.035,-0.017,-0.012
1775850933559,0.036,-0.023,-0.015
1775850933579,0.035,-0.025,-0.010
1775850933599,0.034,-0.026,-0.007
1775850933619,0.032,-0.028,0.002
1775850933638,0.025,-0.027,0.013
1775850933658,0.013,-0.023,0.020
1775850933678,-0.000,-0.020,0.023
1775850933698,-0.017,-0.015,0.027
1775850933717,-0.033,-0.007,0.031
1775850933737,-0.044,-0.002,0.030
1775850933757,-0.050,-0.000,0.027
1775850933777,-0.053,0.002,0.025
1775850933796,-0.052,0.001,0.023
1775850933816,-0.046,-0.005,0.019
1775850933836,-0.039,-0.011,0.018
1775850933856,-0.030,-0.017,0.022
1775850933875,-0.023,-0.019,0.024
1775850933895,-0.018,-0.021,0.025
1775850933915,-0.017,-0.026,0.021
1775850933935,-0.014,-0.028,0.028
1775850933955,-0.015,-0.030,0.029
1775850933974,-0.021,-0.033,0.027
1775850933994,-0.027,-0.036,0.022
1775850934014,-0.031,-0.036,0.018
1775850934034,-0.035,-0.037,0.014
1775850934053,-0.037,-0.039,0.010
1775850934073,-0.035,-0.043,0.009
1775850934093,-0.032,-0.044,0.012
1775850934113,-0.031,-0.044,0.013
1775850934132,-0.030,-0.041,0.017
1775850934152,-0.028,-0.037,0.015
1775850934172,-0.025,-0.035,0.013
1775850934192,-0.022,-0.039,0.008
1775850934211,-0.025,-0.041,0.005
1775850934231,-0.031,-0.040,0.006
1775850934251,-0.034,-0.037,0.003
1775850934271,-0.032,-0.039,-0.002
1775850934290,-0.033,-0.044,-0.009
1775850934310,-0.033,-0.046,-0.004
1775850934330,-0.032,-0.043,0.004
1775850934350,-0.033,-0.041,0.005
1775850934369,-0.037,-0.036,0.008
1775850934389,-0.038,-0.025,0.013
1775850934409,-0.040,-0.011,0.014
1775850934429,-0.040,-0.003,0.008
1775850934448,-0.033,-0.002,-0.003
1775850934468,-0.021,-0.001,-0.011
1775850934488,-0.005,0.005,-0.011
1775850934508,0.010,0.009,-0.015
1775850934528,0.022,0.011,-0.016
1775850934547,0.039,0.013,-0.008
1775850934567,0.051,0.010,-0.002
1775850934587,0.045,0.011,0.000
1775850934607,0.035,0.011,-0.003
1775850934626,0.029,0.008,-0.003
1775850934646,0.022,0.010,-0.001
1775850934666,0.021,0.016,0.003
1775850934686,0.028,0.021,0.008
1775850934705,0.028,0.027,0.009
1775850934725,0.015,0.033,0.005
1775850934745,0.005,0.036,0.005
1775850934765,0.008,0.037,0.004
1775850934784,0.017,0.038,0.006
1775850934804,0.026,0.039,0.006
1775850934824,0.027,0.041,0.006
1775850934844,0.022,0.041,0.002
1775850934863,0.021,0.039,-0.001
1775850934883,0.023,0.037,-0.001
1775850934903,0.026,0.034,0.001
1775850934923,0.027,0.031,0.003
1775850934943,0.025,0.028,0.008
1775850934962,0.026,0.028,0.013
1775850934982,0.025,0.029,0.011
1775850935002,0.016,0.032,0.005
1775850935022,0.000,0.039,0.006
1775850935041,-0.005,0.040,0.005
1775850935061,0.005,0.039,0.000
1775850935081,0.006,0.039,0.007
1775850935101,-0.003,0.038,0.017
1775850935120,-0.015,0.036,0.006
1775850935140,-0.018,0.028,0.002
1775850935160,-0.014,0.028,0.001
1775850935180,-0.009,0.033,0.003
1775850935199,-0.000,0.036,0.007
1775850935219,0.011,0.031,0.000
1775850935239,0.004,0.035,-0.002
1775850935259,0.010,0.034,0.000
1775850935278,0.021,0.031,-0.004
1775850935298,0.029,0.030,-0.002
1775850935318,0.022,0.025,-0.005
1775850935338,0.011,0.021,-0.007
1775850935358,0.002,0.016,-0.013
1775850935377,-0.004,0.009,-0.017
1775850935397,-0.012,0.003,-0.017
1775850935417,-0.014,0.001,-0.019
1775850935437,-0.015,-0.003,-0.025
1775850935456,-0.014,-0.006,-0.020
1775850935476,-0.005,-0.006,-0.017
1775850935496,0.009,-0.007,-0.018
1775850935516,0.014,-0.006,-0.017
1775850935535,0.011,-0.005,-0.021
1775850935555,0.001,-0.006,-0.025
1775850935575,-0.004,-0.008,-0.019
1775850935595,0.007,-0.014,-0.023
1775850935614,0.017,-0.022,-0.027
1775850935634,0.021,-0.024,-0.025
1775850935654,0.023,-0.020,-0.023
1775850935674,0.016,-0.015,-0.017
1775850935693,0.007,-0.009,-0.015
1775850935713,-0.003,-0.006,-0.010
1775850935733,-0.008,-0.006,-0.005
1775850935753,-0.015,-0.008,-0.005
1775850935773,-0.021,-0.012,0.006
1775850935792,-0.023,-0.009,0.012
1775850935812,-0.021,-0.007,0.008
1775850935832,-0.017,-0.005,0.004
1775850935852,-0.010,0.000,0.003
1775850935871,-0.002,0.007,0.005
1775850935891,0.003,0.009,0.006
1775850935911,0.006,0.006,0.005
1775850935931,0.010,0.002,0.004
1775850935950,0.008,-0.002,0.003
1775850935970,0.005,-0.004,0.005
1775850935990,0.001,-0.005,0.003
1775850936010,0.000,-0.004,0.002
1775850936029,0.000,-0.002,0.000
1775850936049,-0.000,-0.001,0.001
1775850936069,0.000,-0.004,0.003
1775850936089,-0.001,-0.005,0.004
1775850936109,-0.004,-0.005,0.006
1775850936128,-0.007,-0.007,0.007
1775850936148,-0.008,-0.006,0.008
1775850936168,-0.004,-0.000,0.007
1775850936188,0.000,0.007,0.005
1775850936207,0.001,0.011,0.004
1775850936227,0.004,0.013,0.005
1775850936247,0.017,0.021,0.004
1775850936267,0.057,0.056,-0.001
1775850936286,0.120,0.141,-0.004
1775850936306,0.166,0.260,-0.016
1775850936326,0.224,0.384,-0.041
1775850936346,0.277,0.498,-0.053
1775850936365,0.293,0.580,-0.060
1775850936385,0.305,0.597,-0.056
1775850936405,0.322,0.567,-0.043
1775850936425,0.293,0.517,-0.044
1775850936445,0.198,0.443,-0.042
1775850936464,0.118,0.344,-0.011
1775850936484,0.087,0.256,0.031
1775850936504,0.068,0.192,0.040
1775850936524,0.037,0.139,0.050
1775850936543,0.011,0.104,0.047
1775850936563,-0.014,0.075,0.043
1775850936583,-0.019,0.050,0.042
1775850936603,-0.029,0.040,0.053
1775850936622,-0.039,0.037,0.049
1775850936642,-0.046,0.017,0.019
1775850936662,-0.051,-0.003,0.003
1775850936682,-0.063,-0.013,0.002
1775850936702,-0.066,-0.004,0.013
1775850936721,-0.056,0.005,0.017
1775850936741,-0.053,0.021,0.003
1775850936761,-0.037,0.025,-0.004
1775850936781,-0.022,0.015,-0.009
1775850936800,0.016,0.007,0.001
1775850936820,0.031,-0.007,0.004
1775850936840,0.044,-0.025,-0.001
1775850936860,0.034,-0.042,-0.006
1775850936879,0.020,-0.037,-0.007
1775850936899,0.005,-0.020,-0.003
1775850936919,-0.007,-0.004,0.005
1775850936939,0.004,-0.002,0.007
1775850936958,0.015,0.000,0.008
1775850936978,0.020,0.002,0.006
1775850936998,0.024,-0.008,0.003
1775850937018,0.010,-0.019,0.002
1775850937037,-0.007,-0.019,0.008
1775850937057,-0.006,-0.021,0.013
1775850937077,0.009,-0.027,0.009
1775850937097,0.006,-0.015,0.001
1775850937117,0.008,-0.006,-0.003
1775850937136,0.007,-0.006,0.002
1775850937156,0.008,-0.010,0.001
1775850937176,0.003,-0.013,0.006
1775850937196,-0.006,-0.018,0.007
1775850937215,-0.003,-0.018,0.012
1775850937235,0.005,-0.011,0.011
1775850937255,-0.007,-0.010,0.006
1775850937275,-0.017,-0.007,0.005
1775850937294,-0.011,-0.010,0.001
1775850937314,-0.007,-0.008,0.002
1775850937334,-0.008,-0.008,0.001
1775850937354,-0.010,-0.015,0.003
1775850937373,-0.007,-0.019,0.005
1775850937393,-0.008,-0.015,0.005
1775850937413,-0.009,-0.013,0.006
1775850937433,-0.010,-0.014,0.006
1775850937452,-0.004,-0.015,0.005
1775850937472,0.000,-0.010,0.003
1775850937492,0.002,-0.006,0.005
1775850937512,0.000,-0.005,0.004
1775850937532,0.004,-0.001,0.001
1775850937551,0.007,0.006,0.003
1775850937571,0.007,0.006,0.005
1775850937591,0.003,-0.000,0.002
1775850937611,0.003,-0.006,0.005
1775850937630,0.003,-0.004,0.008
1775850937650,0.007,-0.002,0.006
1775850937670,0.009,-0.005,0.000
1775850937690,0.005,-0.008,-0.003
1775850937709,-0.002,-0.011,-0.003
1775850937729,-0.003,-0.014,-0.005
1775850937749,-0.004,-0.015,-0.005
1775850937769,-0.005,-0.013,-0.003
1775850937788,-0.009,-0.012,-0.003
1775850937808,-0.006,-0.010,-0.004
1775850937828,-0.006,-0.004,-0.004
1775850937848,-0.003,-0.001,-0.003
1775850937867,-0.001,-0.001,-0.005
1775850937887,0.003,0.001,-0.005
1775850937907,0.002,0.005,-0.003
1775850937927,0.004,0.004,-0.003
1775850937946,0.004,-0.000,-0.002
1775850937966,0.008,-0.004,0.000
1775850937986,0.011,-0.006,0.001
1775850938006,0.008,-0.009,0.001
1775850938025,0.002,-0.012,0.002
1775850938045,-0.003,-0.016,0.001
1775850938065,-0.006,-0.018,0.000
1775850938085,-0.002,-0.017,0.000
1775850938104,0.000,-0.009,0.001
1775850938124,0.001,-0.000,-0.002
1775850938144,0.003,0.007,-0.005
1775850938164,0.007,0.014,-0.005
1775850938183,0.011,0.017,-0.003
1775850938203,0.011,0.016,-0.004
1775850938223,0.009,0.013,0.003
1775850938243,0.005,0.012,0.004
1775850938262,0.001,0.006,0.003
1775850938282,-0.000,-0.003,-0.001
1775850938342,-0.016,-0.025,-0.001
1775850938361,-0.023,-0.041,0.000
1775850938381,-0.038,-0.078,0.004
1775850938401,-0.064,-0.149,0.010
1775850938421,-0.108,-0.243,0.014
1775850938440,-0.152,-0.331,0.012
1775850938460,-0.187,-0.381,0.017
1775850938480,-0.211,-0.404,0.020
1775850938500,-0.224,-0.416,0.018
1775850938519,-0.220,-0.411,0.011
1775850938539,-0.197,-0.380,0.003
1775850938559,-0.166,-0.336,-0.007
1775850938579,-0.139,-0.298,-0.021
1775850938598,-0.112,-0.260,-0.033
1775850938618,-0.084,-0.212,-0.038
1775850938638,-0.060,-0.164,-0.040
1775850938658,-0.041,-0.128,-0.042
1775850938677,-0.030,-0.098,-0.042
1775850938697,-0.024,-0.070,-0.040
1775850938717,-0.021,-0.047,-0.035
1775850938737,-0.020,-0.037,-0.031
1775850938756,-0.018,-0.033,-0.026
1775850938776,-0.012,-0.028,-0.023
1775850938796,-0.007,-0.024,-0.024
1775850938816,0.001,-0.019,-0.017
1775850938835,0.006,-0.014,-0.011
1775850938855,0.010,-0.011,-0.013
1775850938875,0.014,-0.017,-0.019
1775850938895,0.017,-0.023,-0.022
1775850938914,0.018,-0.022,-0.018
1775850938934,0.018,-0.019,-0.016
1775850938954,0.020,-0.016,-0.015
1775850938974,0.021,-0.012,-0.016
1775850938994,0.023,-0.011,-0.016
1775850939013,0.026,-0.014,-0.013
1775850939033,0.025,-0.017,-0.010
1775850939053,0.020,-0.018,-0.008
1775850939073,0.013,-0.017,-0.008
1775850939092,0.008,-0.011,-0.007
1775850939112,0.004,-0.004,-0.008
1775850939132,0.003,-0.000,-0.008
1775850939152,-0.000,-0.001,-0.011
1775850939171,-0.004,-0.002,-0.009
1775850939191,-0.008,-0.003,-0.006
1775850939211,-0.010,-0.001,-0.002
1775850939231,-0.011,0.000,0.000
1775850939250,-0.009,0.001,0.001
1775850939270,-0.006,-0.000,-0.000
1775850939290,-0.004,-0.002,-0.000
1775850939310,-0.004,-0.001,-0.001
1775850939329,-0.005,-0.001,-0.001
1775850939349,-0.003,0.002,-0.000
1775850939369,0.003,0.001,-0.002
1775850939389,0.004,-0.002,-0.005
1775850939408,0.003,-0.001,0.003
1775850939428,0.003,0.002,0.006
1775850939448,0.004,0.004,0.001
1775850939468,0.004,0.004,-0.005
1775850939487,0.003,0.005,-0.009
1775850939507,0.000,0.007,-0.008
1775850939527,-0.001,0.004,-0.010
1775850939547,0.000,0.000,-0.010
1775850939566,0.001,-0.000,-0.009
1775850939586,-0.002,0.000,-0.006
1775850939606,-0.008,0.000,-0.004
1775850939626,-0.008,0.001,-0.003
1775850939645,-0.006,0.002,-0.001
1775850939665,-0.005,0.002,-0.001
1775850939685,-0.004,0.004,-0.000
1775850939705,-0.003,0.007,0.000
1775850939724,-0.001,0.008,0.000
1775850939744,0.000,0.007,0.001
1775850939764,0.001,0.006,0.001
1775850939784,0.000,0.003,0.003
1775850939803,0.000,0.001,0.003
1775850939823,0.003,-0.001,0.003
1775850939843,0.002,-0.002,-0.001
1775850939863,-0.001,-0.002,-0.003
1775850939883,-0.005,-0.001,-0.002
1775850939902,-0.007,0.000,-0.002
1775850939922,-0.005,0.001,-0.003
1775850939942,-0.003,0.002,-0.004
1775850939962,0.000,0.004,-0.002
1775850939981,0.002,0.001,-0.004
1775850940001,0.002,-0.000,-0.007
1775850940021,0.002,0.000,0.002
1775850940041,0.003,0.002,0.004
1775850940060,0.005,0.003,0.000
1775850940080,0.001,0.002,-0.005
1775850940100,-0.002,0.003,-0.004
1775850940120,-0.001,0.003,-0.003
1775850940139,0.000,0.001,-0.005
1775850940159,0.003,-0.001,-0.003
1775850940179,0.002,-0.004,-0.003
1775850940199,0.000,-0.006,-0.004
1775850940218,0.000,-0.007,-0.002
1775850940238,0.000,-0.006,0.000
1775850940258,0.001,-0.002,0.000
1775850940278,-0.001,0.000,-0.002
1775850940297,-0.001,0.001,-0.001
1775850940317,-0.000,0.001,0.000
1775850940337,0.001,-0.001,0.002
1775850940357,0.001,-0.002,0.002
1775850940376,0.002,-0.003,0.002
1775850940396,0.002,-0.003,0.002
1775850940416,0.004,0.000,0.003
1775850940436,0.006,0.001,0.004
1775850940455,0.005,0.001,0.005
1775850940475,0.004,0.001,0.004
1775850940495,0.002,0.001,0.003
1775850940515,0.002,0.003,0.004
1775850940534,0.002,0.003,0.004
1775850940554,0.002,0.003,0.004
1775850940574,0.001,0.004,0.005
1775850940594,-0.000,0.004,0.005
1775850940613,0.000,0.005,0.003
1775850940633,0.002,0.001,0.000
1775850940653,0.003,-0.001,0.001
1775850940673,0.003,0.002,0.009
1775850940693,0.005,0.005,0.007
1775850940712,0.004,0.005,0.001
1775850940732,0.001,0.004,-0.002
1775850940752,0.001,0.003,-0.002
1775850940772,0.003,0.001,-0.001
1775850940791,0.005,-0.001,-0.002
1775850940811,0.007,-0.004,-0.002
1775850940831,0.003,-0.005,-0.004
1775850940851,0.003,-0.007,-0.003
1775850940870,0.001,-0.006,-0.002
1775850940890,0.000,-0.003,-0.002
1775850940910,0.000,-0.002,-0.005
1775850940930,0.002,-0.004,-0.005
1775850940949,0.001,-0.004,-0.001
1775850940969,0.001,-0.004,0.000
1775850940989,0.002,-0.005,0.000
1775850941009,0.002,-0.005,0.000
1775850941028,0.000,-0.002,0.002
1775850941048,-0.001,-0.000,0.000
1775850941068,0.000,-0.002,0.002
1775850941088,0.006,-0.005,0.003
1775850941107,0.009,-0.009,0.004
1775850941127,0.007,-0.009,0.005
1775850941147,0.000,-0.007,0.001
1775850941167,-0.006,-0.005,-0.002
1775850941186,-0.003,-0.005,-0.005
1775850941206,0.005,-0.002,-0.007
1775850941226,0.004,-0.000,-0.004
1775850941246,-0.003,-0.002,0.001
1775850941266,-0.011,-0.001,0.001
1775850941285,-0.005,-0.003,0.004
1775850941305,-0.002,-0.007,0.001
1775850941325,-0.005,-0.002,0.009
1775850941345,-0.010,0.004,0.005
1775850941364,-0.011,0.004,0.000
1775850941384,-0.011,0.005,-0.000
1775850941404,-0.005,0.004,0.001
1775850941424,-0.001,0.001,0.002
1775850941443,-0.004,-0.001,0.002
1775850941463,-0.005,-0.005,0.003
1775850941483,-0.001,-0.005,0.002
1775850941503,-0.002,-0.004,-0.000
1775850941522,-0.006,-0.001,0.001
1775850941542,-0.004,0.001,0.001
1775850941562,-0.000,0.000,-0.001
1775850941582,0.002,0.001,-0.002
1775850941601,0.001,0.000,-0.002
1775850941621,0.001,0.000,0.001
1775850941641,-0.000,-0.001,-0.001
1775850941661,0.000,-0.003,-0.001
1775850941680,0.001,-0.005,-0.004
1775850941700,0.004,-0.005,-0.001
1775850941720,0.000,-0.004,-0.001
1775850941740,-0.003,-0.003,0.000
1775850941759,-0.003,-0.001,0.001
1775850941779,0.000,-0.002,0.005
1775850941799,0.001,-0.001,0.008
1775850941819,0.000,0.000,0.008
1775850941838,0.005,-0.000,0.005
1775850941858,0.001,-0.003,0.000
1775850941878,-0.000,0.000,0.001
1775850941898,-0.000,-0.002,0.003
1775850941917,-0.006,0.000,0.003
1775850941937,-0.012,0.000,-0.001
1775850941957,-0.015,-0.004,-0.002
1775850941977,-0.016,0.000,0.009
1775850941997,-0.017,0.005,0.008
1775850942016,-0.018,0.007,0.006
1775850942036,-0.015,0.008,0.003
1775850942056,-0.010,0.006,0.002
1775850942076,-0.009,0.005,0.000
1775850942095,-0.010,-0.000,-0.002
1775850942115,-0.012,-0.003,0.000
1775850942135,-0.011,-0.002,0.002
1775850942155,-0.008,-0.002,0.001
1775850942174,-0.006,-0.001,0.003
1775850942194,-0.005,0.002,0.003
1775850942214,-0.003,0.003,0.003
1775850942234,-0.005,0.006,0.005
1775850942253,-0.009,0.009,0.009
1775850942273,-0.010,0.008,0.008
1775850942293,-0.010,0.006,0.006
1775850942313,-0.009,0.003,0.003
1775850942332,-0.008,0.003,0.003
1775850942352,-0.008,0.003,0.007
1775850942372,-0.009,0.003,0.007
1775850942392,-0.007,0.001,0.002
1775850942411,-0.005,-0.001,-0.001
1775850942431,-0.008,-0.001,-0.003
1775850942451,-0.008,-0.000,-0.003
1775850942471,-0.006,-0.001,-0.006
1775850942491,-0.003,-0.003,-0.007
1775850942510,-0.001,-0.007,-0.008
1775850942530,-0.003,-0.013,-0.010
1775850942550,-0.004,-0.012,-0.009
1775850942570,-0.001,-0.011,-0.010
1775850942589,0.000,-0.011,-0.015
1775850942609,0.002,-0.010,-0.009
1775850942629,0.004,-0.006,-0.002
1775850942649,0.009,-0.008,-0.003
1775850942668,0.006,-0.010,-0.008
1775850942688,-0.004,-0.006,-0.007
1775850942708,-0.010,-0.002,-0.006
1775850942728,-0.011,-0.000,-0.008
1775850942747,-0.010,0.000,-0.008
1775850942767,-0.006,-0.000,-0.006
1775850942787,0.001,-0.004,-0.009
1775850942807,0.010,-0.006,-0.008
1775850942826,0.013,-0.002,-0.003
1775850942846,0.017,0.000,-0.004
1775850942866,0.019,0.001,-0.005
1775850942886,0.018,0.002,-0.004
1775850942905,0.012,0.003,-0.003
1775850942925,0.008,0.001,-0.004
1775850942945,0.004,-0.000,-0.005
1775850942965,-0.001,-0.002,-0.007
1775850942985,-0.004,0.000,-0.005
1775850943004,-0.005,0.001,-0.001
1775850943024,-0.003,0.001,-0.001
1775850943044,-0.001,0.000,-0.002
1775850943064,0.002,-0.004,-0.001
1775850943083,0.005,-0.007,-0.001
1775850943103,0.003,-0.005,0.001
1775850943123,0.000,-0.002,0.002
1775850943143,0.000,0.000,0.003
1775850943162,0.002,0.001,0.003
1775850943182,0.001,0.000,0.000
1775850943202,-0.002,-0.001,-0.000
1775850943222,-0.002,-0.003,-0.002
1775850943241,-0.004,-0.008,-0.009
1775850943261,-0.005,-0.009,-0.006
1775850943281,-0.004,-0.005,-0.000
1775850943301,-0.002,-0.000,-0.003
1775850943320,-0.002,0.002,-0.003
1775850943340,-0.000,0.005,-0.002
1775850943360,0.004,0.006,-0.000
1775850943380,0.007,0.005,0.001
1775850943399,0.006,0.004,0.001
1775850943419,0.007,0.004,0.002
1775850943439,0.008,0.005,0.002
1775850943459,0.004,0.004,0.002
1775850943479,0.000,0.006,0.004
1775850943498,0.001,0.005,0.004
1775850943518,0.002,0.002,0.001
1775850943538,0.000,0.000,-0.002
1775850943558,-0.003,-0.001,-0.000
1775850943577,-0.001,-0.001,-0.002
1775850943597,0.002,-0.004,-0.002
1775850943617,0.004,-0.004,-0.002
1775850943637,0.004,-0.003,0.000
1775850943656,0.003,-0.004,-0.000
1775850943676,0.001,-0.002,0.000
1775850943696,-0.000,0.001,0.003
1775850943716,-0.002,0.003,0.004
1775850943735,-0.001,0.002,0.003
1775850943755,0.002,0.000,0.000
1775850943775,0.003,-0.005,-0.001
1775850943795,0.000,-0.008,-0.002
1775850943814,-0.003,-0.011,-0.001
1775850943834,-0.003,-0.016,-0.003
1775850943854,-0.003,-0.020,-0.006
1775850943874,-0.006,-0.020,-0.006
1775850943894,-0.009,-0.018,-0.008
1775850943913,-0.012,-0.018,-0.013
1775850943933,-0.013,-0.015,-0.008
1775850943953,-0.011,-0.014,-0.007
1775850943973,-0.006,-0.017,-0.011
1775850943992,0.000,-0.022,-0.014
1775850944012,0.000,-0.026,-0.015
1775850944032,-0.003,-0.025,-0.014
1775850944052,-0.001,-0.023,-0.014
1775850944071,0.003,-0.025,-0.012
1775850944091,-0.000,-0.021,-0.006
1775850944111,-0.011,-0.018,-0.003
1775850944131,-0.013,-0.022,-0.002
1775850944150,-0.009,-0.027,0.000
1775850944170,-0.009,-0.030,0.000
1775850944190,-0.011,-0.038,0.000
1775850944210,-0.011,-0.046,0.003
1775850944230,-0.011,-0.055,0.003
1775850944249,-0.014,-0.061,-0.001
1775850944269,-0.018,-0.067,-0.009
1775850944289,-0.018,-0.076,-0.018
1775850944309,-0.018,-0.081,-0.024
1775850944328,-0.022,-0.077,-0.026
1775850944348,-0.027,-0.075,-0.032
1775850944368,-0.025,-0.073,-0.038
1775850944388,-0.022,-0.068,-0.038
1775850944407,-0.020,-0.064,-0.037
1775850944427,-0.017,-0.062,-0.036
1775850944447,-0.011,-0.057,-0.036
1775850944467,-0.004,-0.051,-0.029
1775850944486,0.000,-0.045,-0.027
1775850944506,0.001,-0.040,-0.024
1775850944526,0.003,-0.032,-0.016
1775850944546,0.005,-0.028,-0.013
1775850944565,0.013,-0.024,-0.011
1775850944585,0.015,-0.013,0.000
1775850944605,0.008,0.004,0.008
1775850944625,0.000,0.015,0.003
1775850944645,-0.002,0.019,-0.002
1775850944664,0.001,0.023,0.000
1775850944684,0.006,0.022,0.000
1775850944704,0.015,0.020,0.007
1775850944724,0.024,0.018,0.013
1775850944743,0.021,0.020,0.016
1775850944763,0.013,0.019,0.020
1775850944783,0.009,0.014,0.023
1775850944803,0.014,0.013,0.030
1775850944822,0.022,0.016,0.038
1775850944842,0.022,0.020,0.041
1775850944862,0.009,0.021,0.039
1775850944882,0.000,0.018,0.039
1775850944901,-0.004,0.012,0.035
1775850944921,-0.006,0.001,0.034
1775850944941,-0.015,-0.006,0.033
1775850944961,-0.022,-0.008,0.033
1775850944980,-0.027,-0.009,0.033
1775850945000,-0.031,-0.010,0.028
1775850945020,-0.028,-0.015,0.021
1775850945040,-0.021,-0.021,0.016
1775850945060,-0.021,-0.020,0.016
1775850945079,-0.022,-0.020,0.012
1775850945099,-0.018,-0.023,0.008
1775850945119,-0.014,-0.022,0.005
1775850945139,-0.008,-0.023,0.003
1775850945158,-0.000,-0.022,0.006
1775850945178,0.000,-0.023,0.004
1775850945198,0.002,-0.025,0.004
1775850945218,0.004,-0.024,0.010
1775850945237,0.006,-0.020,0.015
1775850945257,0.006,-0.015,0.016
1775850945277,0.004,-0.012,0.013
1775850945297,0.005,-0.008,0.012
1775850945316,0.005,-0.005,0.010
1775850945336,0.007,-0.008,0.006
1775850945356,0.010,-0.008,0.004
1775850945376,0.005,-0.008,-0.001
1775850945395,0.001,-0.008,-0.004
1775850945415,0.002,-0.009,-0.008
1775850945435,0.004,-0.010,-0.009
1775850945455,0.003,-0.012,-0.011
1775850945475,0.002,-0.016,-0.011
1775850945494,0.004,-0.018,-0.009
1775850945514,0.004,-0.019,-0.006
1775850945534,0.002,-0.016,-0.004
1775850945554,0.002,-0.012,-0.004
1775850945573,0.005,-0.009,-0.004
1775850945593,0.005,-0.006,-0.004
1775850945613,0.006,-0.008,-0.005
1775850945633,0.008,-0.010,-0.004
1775850945652,0.006,-0.012,-0.005
1775850945672,0.003,-0.012,-0.006
1775850945692,0.000,-0.013,-0.009
1775850945712,0.000,-0.010,-0.008
1775850945731,0.001,-0.008,-0.006
1775850945751,0.002,-0.008,-0.009
1775850945771,0.003,-0.009,-0.010
1775850945791,0.005,-0.009,-0.009
1775850945811,0.006,-0.011,-0.011
1775850945830,0.005,-0.014,-0.013
1775850945850,0.005,-0.011,-0.005
1775850945870,0.005,-0.007,-0.003
1775850945890,0.006,-0.005,-0.003
1775850945909,0.004,-0.003,-0.006
1775850945929,0.003,-0.001,-0.003
1775850945949,0.003,0.001,-0.001
1775850945969,0.003,0.001,-0.001
1775850945988,0.003,0.001,0.000
1775850946008,0.003,0.000,0.000
1775850946028,0.002,0.001,0.000
1775850946048,0.002,0.001,0.000
1775850946068,0.004,0.001,0.002
1775850946087,0.005,0.004,0.001
1775850946107,0.003,0.003,0.000
1775850946127,0.003,0.001,-0.000
1775850946147,0.004,0.002,0.001
1775850946166,0.005,0.003,0.004
1775850946186,0.004,0.003,0.001
1775850946206,0.004,0.002,0.001
1775850946226,0.003,0.005,0.003
1775850946245,0.001,0.005,0.002
1775850946265,0.000,0.004,0.002
1775850946285,-0.002,0.004,0.002
1775850946305,-0.002,0.005,0.002
1775850946325,-0.002,0.005,0.002
1775850946344,-0.001,0.006,0.003
1775850946364,-0.001,0.005,0.002
1775850946384,0.000,0.004,0.003
1775850946404,0.002,0.004,0.003
1775850946423,0.004,0.004,0.002
1775850946443,0.002,0.003,0.000
1775850946463,0.003,0.005,0.007
1775850946483,0.001,0.008,0.007
1775850946502,0.000,0.006,0.004
1775850946522,-0.001,0.004,0.003
1775850946542,-0.002,0.003,0.003
1775850946562,-0.002,0.005,0.005
1775850946581,-0.004,0.005,0.004
1775850946601,-0.004,0.004,0.003
1775850946621,-0.002,0.003,0.001
1775850946641,-0.001,0.001,0.000
1775850946661,0.000,0.000,0.002
1775850946680,0.002,-0.000,0.001
1775850946700,0.002,-0.001,0.000
1775850946720,0.002,-0.000,0.000
1775850946740,0.002,0.002,0.001
1775850946759,0.002,0.003,0.001
1775850946779,0.002,0.001,0.000
1775850946799,0.003,-0.001,0.001
1775850946819,0.003,-0.001,0.003
1775850946838,0.002,-0.000,0.002
1775850946858,0.001,0.000,0.002
1775850946878,0.001,0.003,0.001
1775850946898,0.001,0.003,0.001
1775850946917,0.001,0.003,0.000
1775850946937,0.001,0.000,0.000
1775850946957,0.001,-0.004,0.000
1775850946977,0.001,-0.006,0.000
1775850946997,0.001,-0.008,-0.001
1775850947016,0.001,-0.006,-0.001
1775850947036,0.002,-0.003,-0.001
1775850947056,0.000,-0.002,-0.003
1775850947076,-0.002,-0.003,-0.001
1775850947095,-0.003,0.000,0.007
1775850947115,-0.002,0.001,0.008
1775850947135,-0.003,0.001,0.004
1775850947155,-0.005,0.003,0.003
1775850947174,-0.005,0.004,0.007
1775850947194,-0.006,0.005,0.008
1775850947214,-0.007,0.003,0.006
1775850947234,-0.005,0.000,0.006
1775850947253,-0.005,0.001,0.006
1775850947273,-0.005,0.001,0.005
1775850947293,-0.004,0.001,0.005
1775850947313,-0.002,0.001,0.005
1775850947332,-0.004,0.002,0.005
1775850947352,-0.004,0.000,0.003
1775850947372,-0.004,-0.001,0.002
1775850947392,-0.003,-0.002,0.002
1775850947412,-0.001,-0.005,0.001
1775850947431,-0.002,-0.006,0.000
1775850947451,-0.002,-0.006,-0.001
1775850947471,-0.001,-0.006,-0.003
1775850947491,0.000,-0.006,-0.003
1775850947510,0.000,-0.007,-0.003
1775850947530,0.001,-0.007,-0.004
1775850947550,0.003,-0.007,-0.005
1775850947570,0.005,-0.007,-0.006
1775850947589,0.004,-0.006,-0.005
1775850947609,0.003,-0.007,-0.004
1775850947629,0.004,-0.007,-0.005
1775850947649,0.004,-0.007,-0.003
1775850947668,0.004,-0.006,-0.003
1775850947688,0.002,-0.007,-0.005
1775850947708,0.003,-0.007,-0.005
1775850947728,0.005,-0.005,-0.003
1775850947747,0.001,-0.007,-0.008
1775850947767,-0.000,-0.009,-0.004
1775850947787,0.001,-0.005,0.001
1775850947807,0.003,-0.004,0.000
1775850947827,0.000,-0.002,-0.003
1775850947846,-0.002,-0.001,-0.004
1775850947866,-0.001,-0.000,-0.004
1775850947886,0.000,-0.001,-0.003
1775850947906,0.001,-0.003,-0.002
1775850947925,0.002,-0.005,-0.001
1775850947945,0.003,-0.006,0.000
1775850947965,0.002,-0.004,-0.003
1775850947985,0.002,-0.003,-0.002
1775850948004,0.003,-0.001,-0.002
1775850948024,0.004,-0.002,-0.002
1775850948044,0.004,-0.005,-0.004
1775850948064,0.003,-0.006,-0.006
1775850948083,0.003,-0.009,-0.007
1775850948103,0.002,-0.012,-0.009
1775850948123,0.002,-0.018,-0.013
1775850948143,0.005,-0.024,-0.014
1775850948162,0.007,-0.029,-0.016
1775850948182,0.007,-0.032,-0.016
1775850948202,0.007,-0.033,-0.016
1775850948222,0.005,-0.034,-0.013
1775850948242,0.004,-0.036,-0.013
1775850948261,0.003,-0.038,-0.015
1775850948281,0.004,-0.035,-0.012
1775850948301,0.004,-0.032,-0.010
1775850948321,0.004,-0.029,-0.010
1775850948340,0.005,-0.023,-0.009
1775850948360,0.008,-0.017,-0.005
1775850948380,0.010,-0.012,-0.003
1775850948400,0.010,-0.009,-0.002
1775850948419,0.011,-0.004,0.000
1775850948439,0.010,-0.001,0.001
1775850948459,0.007,0.000,0.001
1775850948479,0.005,0.000,0.001
1775850948498,0.004,-0.001,-0.003
1775850948518,0.002,-0.004,-0.004
1775850948538,0.002,-0.003,0.001
1775850948558,0.003,-0.002,-0.001
1775850948577,0.003,-0.004,-0.002
1775850948597,0.002,-0.001,-0.006
1775850948617,0.003,-0.001,-0.006
1775850948637,0.002,-0.000,-0.005
1775850948657,0.001,-0.001,-0.003
1775850948676,0.001,-0.003,-0.002
1775850948696,0.003,-0.003,0.000
1775850948716,0.003,-0.003,-0.002
1775850948736,0.003,0.000,0.000
1775850948755,0.003,0.004,0.000
1775850948795,0.003,0.002,-0.003
1775850948815,0.003,0.000,-0.003
1775850948834,0.003,-0.001,-0.003
1775850948854,0.003,-0.002,-0.003
1775850948874,0.003,-0.002,-0.003
1775850948894,0.002,0.001,-0.004
1775850948913,0.003,0.004,-0.003
1775850948933,0.003,0.006,-0.002
1775850948953,0.002,0.005,-0.001
1775850948973,0.000,0.006,-0.001
1775850948992,-0.003,0.004,-0.001
1775850949012,-0.006,0.005,-0.003
1775850949032,-0.006,0.004,-0.006
1775850949052,-0.005,0.002,-0.007
1775850949071,-0.005,0.000,-0.007
1775850949091,-0.004,-0.001,-0.005
1775850949111,-0.003,-0.001,-0.005
1775850949131,-0.001,0.001,-0.004
1775850949150,-0.001,0.003,-0.002
1775850949170,-0.001,0.006,0.000
1775850949190,-0.003,0.009,0.002
1775850949210,-0.007,0.010,0.003
1775850949229,-0.009,0.008,0.003
1775850949249,-0.008,0.006,0.000
1775850949269,-0.010,0.002,-0.004
1775850949289,-0.008,0.001,0.003
1775850949308,-0.008,0.001,0.001
1775850949328,-0.007,-0.000,-0.001
1775850949348,-0.008,-0.002,-0.004
1775850949368,-0.006,-0.001,-0.002
1775850949388,-0.005,-0.000,0.002
1775850949407,-0.007,-0.000,0.000
1775850949427,-0.009,-0.003,-0.001
1775850949447,-0.008,-0.002,-0.000
1775850949467,-0.006,-0.003,-0.002
1775850949486,-0.005,-0.004,-0.001
1775850949506,-0.004,-0.004,-0.000
1775850949526,-0.002,-0.002,-0.000
1775850949546,-0.002,-0.002,-0.001
1775850949565,-0.002,-0.000,0.000
1775850949585,-0.001,0.000,0.000
1775850949605,0.000,-0.000,0.000
1775850949625,0.000,-0.000,0.001
1775850949644,-0.001,0.001,0.002
1775850949664,-0.002,0.000,0.001
1775850949684,-0.001,0.001,0.002
1775850949704,-0.000,0.001,0.004
1775850949723,-0.002,0.002,0.005
1775850949743,-0.002,0.002,0.005
1775850949763,-0.002,0.003,0.004
1775850949783,-0.002,0.005,0.005
1775850949802,-0.004,0.004,0.004
1775850949822,-0.007,0.004,0.004
1775850949842,-0.006,0.004,0.004
1775850949862,-0.004,0.003,0.003
1775850949881,-0.004,0.002,0.003
1775850949901,-0.006,0.001,0.003
1775850949921,-0.005,0.002,0.003
1775850949941,-0.005,0.003,0.003
1775850949960,-0.005,0.003,0.003
1775850949980,-0.005,0.006,0.005
1775850950000,-0.004,0.005,0.003
1775850950020,-0.008,0.002,0.000
1775850950040,-0.007,0.002,0.007
1775850950059,-0.005,0.004,0.007
1775850950079,-0.004,0.003,0.002
1775850950099,-0.004,0.003,0.000
1775850950119,-0.005,0.004,0.000
1775850950138,-0.005,0.003,0.000
1775850950158,-0.005,0.000,-0.001
1775850950178,-0.004,-0.002,-0.002
1775850950198,-0.003,-0.002,-0.001
1775850950217,-0.002,-0.002,-0.003
1775850950237,-0.002,-0.002,-0.005
1775850950257,-0.003,-0.001,-0.005
1775850950277,-0.001,0.000,-0.004
1775850950296,-0.000,0.001,-0.006
1775850950316,-0.001,0.000,-0.009
1775850950336,-0.002,-0.002,-0.009
1775850950356,-0.002,-0.004,-0.009
1775850950375,-0.001,-0.004,-0.007
1775850950395,-0.000,-0.004,-0.008
1775850950415,0.001,-0.003,-0.008
1775850950435,0.000,-0.003,-0.005
1775850950454,-0.000,0.000,-0.004
1775850950474,-0.001,-0.000,-0.004
1775850950494,0.001,0.000,-0.004
1775850950514,0.000,-0.000,-0.005
1775850950534,-0.001,-0.002,-0.005
1775850950553,-0.002,-0.001,-0.004
1775850950573,0.000,-0.001,-0.003
1775850950593,0.003,-0.004,-0.003
1775850950613,0.000,-0.005,-0.002
1775850950632,-0.002,-0.000,0.001
1775850950652,-0.002,0.000,0.001
1775850950672,-0.009,0.004,0.005
1775850950692,-0.021,0.018,0.017
1775850950711,-0.024,0.033,0.023
1775850950731,-0.020,0.038,0.022
1775850950751,-0.012,0.035,0.022
1775850950771,-0.010,0.028,0.017
1775850950790,-0.003,0.018,0.016
1775850950810,0.008,0.012,0.016
1775850950830,0.021,0.001,0.007
1775850950850,0.024,-0.010,0.001
1775850950869,0.016,-0.016,-0.001
1775850950889,0.009,-0.015,-0.001
1775850950909,0.005,-0.013,-0.008
1775850950929,0.003,-0.015,-0.016
1775850950949,-0.004,-0.016,-0.022
1775850950968,-0.014,-0.017,-0.022
1775850950988,-0.019,-0.019,-0.021
1775850951008,-0.024,-0.020,-0.013
1775850951028,-0.029,-0.017,-0.010
1775850951047,-0.021,-0.015,-0.003
1775850951067,-0.004,-0.015,-0.002
1775850951087,0.001,-0.012,-0.005
1775850951107,-0.006,-0.012,-0.009
1775850951126,-0.012,-0.012,-0.008
1775850951146,-0.013,-0.009,-0.001
1775850951166,-0.009,-0.008,0.003
1775850951186,-0.009,-0.008,0.006
1775850951205,-0.012,0.000,0.009
1775850951225,-0.016,0.009,0.011
1775850951245,-0.015,0.013,0.010
1775850951265,-0.010,0.015,0.009
1775850951284,-0.006,0.018,0.009
1775850951304,-0.009,0.021,0.010
1775850951324,-0.011,0.022,0.011
1775850951344,-0.016,0.022,0.009
1775850951363,-0.015,0.022,0.010
1775850951383,-0.011,0.021,0.010
1775850951403,-0.005,0.018,0.008
1775850951423,0.002,0.017,0.007
1775850951443,0.006,0.011,0.003
1775850951462,0.004,0.008,0.003
1775850951482,0.005,0.010,0.004
1775850951502,0.009,0.007,-0.001
1775850951522,0.009,0.006,-0.006
1775850951541,0.009,0.010,0.002
1775850951561,0.009,0.014,0.000
1775850951581,0.007,0.014,-0.002
1775850951601,0.003,0.011,-0.005
1775850951620,0.002,0.008,-0.003
1775850951640,0.003,0.005,-0.002
1775850951660,0.002,0.002,-0.003
1775850951680,0.001,0.001,-0.005
1775850951699,0.001,0.000,-0.003
1775850951719,-0.000,0.000,-0.004
1775850951739,-0.001,0.002,-0.001
1775850951759,-0.002,0.004,-0.001
1775850951779,-0.002,0.007,-0.001
1775850951798,0.000,0.007,0.000
1775850951818,0.000,0.005,-0.001
1775850951838,-0.001,0.001,-0.003
1775850951858,-0.004,-0.001,-0.002
1775850951877,-0.004,-0.002,-0.003
1775850951897,-0.001,-0.003,-0.003
1775850951917,0.000,-0.003,-0.003
1775850951937,0.000,0.000,-0.004
1775850951956,0.002,0.003,0.001
1775850951976,-0.001,0.003,0.006
1775850951996,-0.008,-0.001,0.006
1775850952016,-0.018,-0.007,0.000
1775850952035,-0.028,-0.009,0.000
1775850952055,-0.035,-0.005,0.000
1775850952075,-0.036,0.000,-0.001
1775850952095,-0.038,0.005,0.000
1775850952115,-0.044,0.010,0.000
1775850952134,-0.048,0.010,0.001
1775850952154,-0.048,0.006,-0.001
1775850952174,-0.044,-0.001,-0.004
1775850952194,-0.040,-0.005,-0.004
1775850952213,-0.034,-0.006,-0.003
1775850952233,-0.024,-0.005,-0.003
1775850952253,-0.019,-0.005,-0.007
1775850952273,-0.012,-0.002,0.000
1775850952292,-0.006,0.003,0.006
1775850952312,-0.003,0.001,0.001
1775850952332,-0.003,0.000,-0.001
1775850952352,-0.002,0.000,0.000
1775850952372,-0.000,0.000,0.001
1775850952391,-0.005,-0.001,0.003
1775850952411,-0.009,-0.001,0.003
1775850952431,-0.008,0.000,0.005
1775850952451,-0.006,0.004,0.005
1775850952470,-0.008,0.010,0.003
1775850952490,-0.009,0.011,0.001
1775850952510,-0.009,0.012,0.001
1775850952530,-0.008,0.014,0.000
1775850952549,-0.003,0.011,-0.000
1775850952569,0.002,0.008,0.000
1775850952589,0.011,0.005,0.000
1775850952609,0.020,0.001,-0.001
1775850952628,0.020,-0.003,-0.000
1775850952648,0.013,-0.002,0.000
1775850952668,0.008,-0.003,-0.002
1775850952688,0.001,0.002,-0.002
1775850952708,-0.006,0.016,0.003
1775850952727,-0.010,0.028,0.009
1775850952747,-0.011,0.027,0.010
1775850952767,-0.007,0.016,0.004
1775850952787,-0.000,0.009,-0.004
1775850952806,0.003,0.001,-0.005
1775850952826,0.003,-0.003,-0.001
1775850952846,0.002,-0.006,0.000
1775850952866,0.003,-0.010,-0.001
1775850952885,0.004,-0.012,-0.001
1775850952905,0.001,-0.007,-0.003
1775850952925,-0.005,-0.002,-0.004
1775850952945,-0.011,0.002,-0.003
1775850952965,-0.014,0.003,-0.008
1775850952984,-0.018,-0.003,-0.011
1775850953004,-0.022,-0.003,0.000
1775850953024,-0.027,0.003,0.006
1775850953044,-0.029,0.005,0.002
1775850953063,-0.026,0.006,-0.004
1775850953083,-0.021,0.004,-0.008
1775850953103,-0.014,0.000,-0.007
1775850953123,-0.010,-0.004,-0.006
1775850953142,-0.006,-0.005,-0.007
1775850953162,-0.000,-0.004,-0.007
1775850953182,0.003,-0.001,-0.010
1775850953202,0.005,0.003,-0.008
1775850953221,0.008,0.005,-0.006
1775850953241,0.010,0.004,-0.010
1775850953261,0.009,0.001,-0.014
1775850953281,0.007,0.000,-0.015
1775850953301,0.008,0.000,-0.017
1775850953320,0.008,0.004,-0.015
1775850953340,0.008,0.007,-0.016
1775850953360,0.010,0.009,-0.019
1775850953380,0.015,0.007,-0.020
1775850953399,0.016,0.003,-0.020
1775850953419,0.019,-0.002,-0.023
1775850953439,0.021,-0.008,-0.027
1775850953459,0.022,-0.007,-0.026
1775850953478,0.027,-0.007,-0.027
1775850953498,0.026,-0.010,-0.027
1775850953518,0.023,-0.010,-0.024
1775850953538,0.021,-0.013,-0.025
1775850953557,0.020,-0.012,-0.022
1775850953577,0.020,-0.007,-0.018
1775850953597,0.021,-0.005,-0.019
1775850953617,0.020,-0.001,-0.017
1775850953636,0.016,0.002,-0.016
1775850953656,0.010,0.004,-0.018
1775850953676,0.003,0.002,-0.020
1775850953696,0.000,0.000,-0.011
1775850953715,-0.001,0.003,-0.005
1775850953735,-0.002,0.007,-0.005
1775850953755,-0.003,0.011,-0.003
1775850953775,-0.006,0.017,0.000
1775850953795,-0.005,0.019,0.003
1775850953814,-0.004,0.016,0.005
1775850953834,-0.003,0.015,0.010
1775850953854,-0.004,0.017,0.016
1775850953874,-0.006,0.024,0.020
1775850953893,-0.009,0.032,0.023
1775850953913,-0.010,0.038,0.024
1775850953933,-0.010,0.040,0.022
1775850953953,-0.010,0.039,0.019
1775850953972,-0.008,0.036,0.018
1775850953992,-0.005,0.031,0.018
1775850954012,0.000,0.025,0.016
1775850954032,0.004,0.020,0.014
1775850954051,0.009,0.018,0.014
1775850954071,0.012,0.018,0.014
1775850954091,0.010,0.018,0.015
1775850954111,0.008,0.019,0.017
1775850954131,0.009,0.017,0.016
1775850954150,0.010,0.016,0.015
1775850954170,0.009,0.014,0.013
1775850954190,0.007,0.010,0.012
1775850954210,0.008,0.008,0.011
1775850954229,0.007,0.005,0.009
1775850954249,0.008,0.004,0.007
1775850954269,0.007,0.002,0.007
1775850954289,0.010,0.000,0.007
1775850954308,0.009,-0.001,0.004
1775850954328,0.009,-0.001,0.009
1775850954348,0.009,-0.001,0.011
1775850954368,0.008,-0.004,0.006
1775850954387,0.008,-0.009,0.002
1775850954407,0.006,-0.011,0.002
1775850954427,0.006,-0.015,0.002
1775850954447,0.006,-0.017,0.002
1775850954466,0.005,-0.018,0.000
1775850954486,0.003,-0.018,-0.001
1775850954506,0.000,-0.020,-0.004
1775850954526,-0.000,-0.019,-0.005
1775850954546,0.001,-0.018,-0.005
1775850954565,0.004,-0.018,-0.008
1775850954585,0.004,-0.020,-0.010
1775850954605,0.004,-0.022,-0.011
1775850954625,0.004,-0.023,-0.011
1775850954644,0.004,-0.025,-0.011
1775850954664,0.003,-0.026,-0.012
1775850954684,0.001,-0.025,-0.012
1775850954704,0.001,-0.023,-0.012
1775850954723,0.000,-0.020,-0.013
1775850954743,-0.000,-0.018,-0.012
1775850954802,0.005,-0.020,-0.019
1775850954822,0.004,-0.022,-0.019
1775850954842,0.002,-0.024,-0.021
1775850954862,0.003,-0.024,-0.022
1775850954881,0.006,-0.022,-0.027
1775850954901,0.006,-0.023,-0.031
1775850954921,0.003,-0.025,-0.030
1775850954941,0.003,-0.023,-0.025
1775850954960,0.001,-0.024,-0.026
1775850954980,-0.001,-0.023,-0.029
1775850955000,-0.003,-0.021,-0.030
1775850955020,-0.001,-0.019,-0.028
1775850955040,0.000,-0.018,-0.026
1775850955059,0.000,-0.016,-0.025
1775850955079,0.000,-0.018,-0.024
1775850955099,0.000,-0.017,-0.021
1775850955119,-0.001,-0.015,-0.019
1775850955138,-0.003,-0.013,-0.015
1775850955158,-0.004,-0.011,-0.014
1775850955178,-0.003,-0.008,-0.015
1775850955198,-0.003,-0.008,-0.017
1775850955217,-0.004,-0.009,-0.017
1775850955237,-0.003,-0.010,-0.015
1775850955257,-0.002,-0.014,-0.014
1775850955277,-0.005,-0.016,-0.015
1775850955296,-0.006,-0.016,-0.014
1775850955316,-0.004,-0.015,-0.013
1775850955336,-0.002,-0.014,-0.012
1775850955356,-0.001,-0.011,-0.010
1775850955376,0.000,-0.010,-0.008
1775850955395,-0.001,-0.010,-0.007
1775850955415,-0.003,-0.010,-0.005
1775850955435,-0.007,-0.010,-0.003
1775850955455,-0.008,-0.008,-0.000
1775850955474,-0.006,-0.006,0.001
1775850955494,-0.007,-0.005,-0.001
1775850955514,-0.010,-0.005,0.000
1775850955534,-0.010,-0.003,0.008
1775850955553,-0.006,-0.004,0.003
1775850955573,-0.004,-0.006,0.002
1775850955593,-0.005,-0.006,0.000
1775850955613,-0.004,-0.007,-0.001
1775850955632,0.000,-0.008,-0.002
1775850955652,0.002,-0.010,-0.001
1775850955672,0.001,-0.011,-0.002
1775850955692,0.000,-0.012,0.000
1775850955711,-0.000,-0.010,0.000
1775850955731,0.000,-0.007,0.001
1775850955751,0.005,-0.004,0.000
1775850955771,0.011,-0.003,-0.000
1775850955791,0.014,-0.004,-0.002
1775850955810,0.013,-0.006,-0.003
1775850955830,0.010,-0.008,-0.002
1775850955850,0.009,-0.009,-0.002
1775850955870,0.010,-0.011,-0.001
1775850955889,0.012,-0.014,0.004
1775850955909,0.016,-0.013,0.009
1775850955929,0.024,-0.010,0.003
1775850955949,0.029,-0.004,-0.006
1775850955968,0.024,0.002,-0.014
1775850955988,0.017,0.002,-0.015
1775850956008,0.013,-0.000,-0.016
1775850956028,0.009,-0.005,-0.015
1775850956047,0.002,-0.013,-0.016
1775850956067,-0.001,-0.014,-0.014
1775850956087,-0.000,-0.004,-0.008
1775850956107,0.009,0.005,-0.007
1775850956126,0.013,0.007,-0.005
1775850956146,0.007,0.006,-0.004
1775850956166,-0.000,0.005,-0.006
1775850956186,-0.009,0.002,-0.011
1775850956206,-0.018,-0.002,-0.018
1775850956225,-0.021,-0.005,-0.022
1775850956245,-0.013,-0.002,-0.021
1775850956265,0.007,0.014,-0.022
1775850956285,0.033,0.063,-0.013
1775850956304,0.048,0.103,-0.003
1775850956324,0.053,0.095,0.007
1775850956344,0.048,0.058,0.022
1775850956364,0.038,0.028,0.038
1775850956383,0.027,0.000,0.035
1775850956403,0.010,-0.019,0.029
1775850956423,-0.001,-0.024,0.027
1775850956443,-0.007,-0.028,0.012
1775850956462,-0.001,-0.037,0.000
1775850956482,-0.005,-0.039,0.000
1775850956502,-0.021,-0.027,0.000
1775850956522,-0.031,-0.016,0.000
1775850956541,-0.030,-0.009,-0.003
1775850956561,-0.025,-0.005,-0.005
1775850956581,-0.032,0.003,-0.002
1775850956601,-0.041,0.012,0.005
1775850956621,-0.048,0.018,0.010
1775850956640,-0.042,0.026,0.011
1775850956660,-0.034,0.028,0.006
1775850956680,-0.018,0.028,0.006
1775850956700,-0.006,0.025,0.006
1775850956719,0.001,0.015,0.000
1775850956739,0.005,0.008,0.008
1775850956759,0.007,0.006,0.008
1775850956779,0.002,0.003,0.005
1775850956798,-0.003,0.008,0.002
1775850956818,-0.010,0.011,-0.001
1775850956838,-0.010,0.014,0.002
1775850956858,-0.014,0.012,0.003
1775850956877,-0.015,0.013,0.007
1775850956897,-0.013,0.010,0.006
1775850956917,-0.007,0.011,0.005
1775850956937,-0.002,0.010,0.006
1775850956956,0.003,0.012,0.008
1775850956976,0.003,0.013,0.008
1775850956996,0.006,0.015,0.006
1775850957016,0.007,0.014,0.004
1775850957035,0.010,0.010,0.006
1775850957055,0.009,0.009,0.007
1775850957075,0.007,0.008,0.007
1775850957095,0.004,0.009,0.006
1775850957115,0.002,0.012,0.006
1775850957134,0.004,0.015,0.007
1775850957154,0.002,0.015,0.008
1775850957174,0.000,0.014,0.007
1775850957194,0.000,0.010,0.006
1775850957213,0.000,0.009,0.005
1775850957233,0.003,0.010,0.005
1775850957253,0.003,0.008,0.004
1775850957273,0.002,0.009,0.005
1775850957292,0.007,0.008,0.004
1775850957312,0.004,0.004,0.001
1775850957332,0.004,0.004,0.009
1775850957352,0.005,0.007,0.013
1775850957371,0.005,0.007,0.013
1775850957391,0.003,0.009,0.013
1775850957411,0.002,0.012,0.012
1775850957431,0.005,0.011,0.012
1775850957450,0.007,0.008,0.009
1775850957470,0.008,0.002,0.008
1775850957490,0.008,0.000,0.008
1775850957510,0.007,0.000,0.010
1775850957530,0.005,0.002,0.009
1775850957549,0.003,0.004,0.011
1775850957569,0.003,0.008,0.014
1775850957589,0.004,0.008,0.017
1775850957609,-0.000,0.003,0.020
1775850957628,-0.007,0.001,0.023
1775850957648,-0.009,0.003,0.028
1775850957668,-0.005,0.011,0.029
1775850957688,0.000,0.020,0.026
1775850957707,0.004,0.026,0.023
1775850957727,0.004,0.030,0.021
1775850957747,0.004,0.026,0.020
1775850957767,0.004,0.021,0.018
1775850957786,0.002,0.017,0.018
1775850957806,0.003,0.013,0.020
1775850957826,0.002,0.011,0.020
1775850957846,0.000,0.012,0.023
1775850957866,0.001,0.014,0.023
1775850957885,0.002,0.016,0.023
1775850957905,0.000,0.015,0.021
1775850957925,-0.002,0.018,0.029
1775850957945,-0.004,0.022,0.030
1775850957964,-0.006,0.024,0.029
1775850957984,-0.007,0.022,0.030
1775850958004,-0.005,0.024,0.030
1775850958024,0.004,0.025,0.023
1775850958043,0.020,0.018,0.016
1775850958063,0.022,0.013,0.012
1775850958083,0.008,0.019,0.016
1775850958103,0.007,0.022,0.015
1775850958122,0.008,0.014,0.016
1775850958142,0.002,0.018,0.020
1775850958162,-0.002,0.031,0.030
1775850958182,-0.003,0.045,0.041
1775850958201,-0.012,0.062,0.041
1775850958221,-0.017,0.078,0.038
1775850958241,-0.012,0.082,0.036
1775850958261,-0.001,0.077,0.032
1775850958280,0.005,0.071,0.028
1775850958300,0.008,0.065,0.018
1775850958320,0.007,0.061,0.008
1775850958340,-0.000,0.054,-0.006
1775850958360,-0.016,0.041,-0.024
1775850958379,-0.007,0.020,-0.037
1775850958399,0.021,-0.005,-0.042
1775850958419,0.031,-0.030,-0.042
1775850958439,0.030,-0.048,-0.037
1775850958458,0.022,-0.066,-0.041
1775850958478,0.003,-0.074,-0.052
1775850958498,-0.035,-0.073,-0.064
1775850958518,-0.068,-0.060,-0.079
1775850958537,-0.069,-0.043,-0.083
1775850958557,-0.052,-0.025,-0.077
1775850958577,-0.027,-0.005,-0.050
1775850958597,-0.009,0.011,-0.031
1775850958616,-0.000,0.010,-0.026
1775850958636,0.002,0.001,-0.014
1775850958656,0.008,0.000,-0.012
1775850958676,0.015,-0.002,-0.008
1775850958695,0.018,-0.006,-0.006
1775850958715,0.021,-0.010,-0.017
1775850958735,0.037,-0.021,-0.036
1775850958755,0.016,-0.029,-0.053
1775850958774,-0.014,-0.038,-0.073
1775850958794,-0.020,-0.053,-0.082
1775850958814,-0.020,-0.060,-0.081
1775850958834,-0.023,-0.056,-0.064
1775850958853,-0.024,-0.049,-0.039
1775850958873,-0.021,-0.043,-0.015
1775850958893,-0.014,-0.038,0.003
1775850958913,-0.006,-0.039,0.010
1775850958933,-0.010,-0.043,0.013
1775850958952,-0.015,-0.042,0.020
1775850958972,-0.004,-0.044,0.027
1775850958992,-0.001,-0.061,0.013
1775850959012,-0.019,-0.085,-0.011
1775850959031,-0.040,-0.100,-0.040
1775850959051,-0.052,-0.107,-0.030
1775850959071,-0.063,-0.101,-0.010
1775850959091,-0.066,-0.084,0.009
1775850959110,-0.046,-0.063,0.038
1775850959130,-0.018,-0.035,0.075
1775850959150,-0.005,-0.014,0.084
1775850959170,0.000,-0.006,0.076
1775850959189,-0.004,0.012,0.074
1775850959209,-0.013,0.035,0.070
1775850959229,-0.018,0.042,0.049
1775850959249,-0.016,0.042,0.025
1775850959269,-0.003,0.048,0.012
1775850959288,0.009,0.057,0.011
1775850959308,0.018,0.063,0.015
1775850959328,0.020,0.069,0.019
1775850959348,0.013,0.075,0.021
1775850959367,0.013,0.080,0.031
1775850959387,0.009,0.085,0.034
1775850959407,0.010,0.092,0.044
1775850959427,-0.000,0.093,0.053
1775850959446,-0.014,0.088,0.049
1775850959466,-0.026,0.078,0.031
1775850959486,-0.022,0.068,0.004
1775850959506,-0.010,0.052,-0.027
1775850959525,0.008,0.044,-0.029
1775850959545,0.014,0.051,-0.024
1775850959565,0.004,0.061,-0.023
1775850959585,-0.009,0.063,-0.026
1775850959605,-0.020,0.058,-0.033
1775850959624,-0.024,0.054,-0.044
1775850959644,-0.020,0.052,-0.046
1775850959664,-0.011,0.043,-0.051
1775850959684,-0.003,0.030,-0.064
1775850959703,-0.005,0.015,-0.072
1775850959723,-0.011,0.003,-0.075
1775850959743,-0.012,-0.002,-0.060
1775850959763,-0.014,-0.005,-0.049
1775850959782,-0.011,-0.013,-0.039
1775850959802,-0.010,-0.011,-0.038
1775850959822,-0.005,-0.012,-0.036
1775850959842,-0.002,-0.005,-0.028
1775850959861,-0.003,-0.010,-0.052
1775850959881,0.025,-0.019,-0.044
1775850959901,0.048,-0.022,-0.034
1775850959921,0.065,-0.027,-0.021
1775850959940,0.064,-0.034,-0.021
1775850959960,0.055,-0.033,-0.010
1775850959980,0.047,-0.027,-0.009
1775850960000,0.042,-0.027,-0.010
1775850960020,0.028,-0.027,-0.021
1775850960039,0.017,-0.025,-0.021
1775850960059,0.011,-0.024,-0.019
1775850960079,0.009,-0.026,-0.018
1775850960099,0.011,-0.027,-0.012
1775850960118,0.018,-0.027,-0.009
1775850960138,0.026,-0.026,-0.008
1775850960158,0.033,-0.026,-0.004
1775850960178,0.035,-0.022,0.002
1775850960197,0.036,-0.014,0.011
1775850960217,0.032,-0.005,0.015
1775850960237,0.025,0.003,0.019
1775850960257,0.022,0.011,0.022
1775850960276,0.019,0.013,0.023
1775850960296,0.017,0.013,0.024
1775850960316,0.015,0.013,0.024
1775850960336,0.014,0.014,0.023
1775850960356,0.013,0.013,0.019
1775850960375,0.011,0.015,0.017
1775850960395,0.010,0.014,0.014
1775850960415,0.009,0.012,0.011
1775850960435,0.006,0.012,0.010
1775850960454,0.004,0.011,0.008
1775850960474,0.005,0.009,0.007
1775850960494,0.004,0.007,0.007
1775850960514,0.002,0.008,0.008
1775850960533,0.000,0.008,0.006
1775850960553,-0.002,0.007,0.007
1775850960573,-0.006,0.008,0.009
1775850960593,-0.004,0.006,0.006
1775850960612,-0.001,0.000,0.006
1775850960632,0.001,-0.001,0.012
1775850960652,0.001,0.003,0.017
1775850960672,-0.001,0.007,0.010
1775850960691,0.000,0.006,0.005
1775850960711,0.000,0.006,0.002
1775850960731,0.003,0.001,0.002
1775850960751,0.004,-0.004,-0.000
1775850960771,0.004,-0.008,-0.003
1775850960790,0.002,-0.007,-0.002
1775850960810,0.001,-0.006,-0.006
1775850960830,0.003,-0.010,-0.008
1775850960850,0.002,-0.010,-0.003
1775850960869,-0.000,-0.007,0.001
1775850960889,0.001,-0.002,0.001
1775850960909,0.007,-0.002,-0.001
1775850960929,0.011,-0.006,-0.004
1775850960948,0.007,-0.009,-0.005
1775850960968,-0.000,-0.012,-0.005
1775850960988,-0.006,-0.011,-0.003
1775850961008,-0.006,-0.007,-0.000
1775850961028,-0.003,-0.007,-0.002
1775850961047,0.001,-0.006,-0.000
1775850961067,0.001,-0.006,-0.002
1775850961087,0.000,-0.009,-0.007
1775850961107,0.001,-0.010,-0.008
1775850961126,0.003,-0.007,-0.008
1775850961146,0.005,-0.009,-0.009
1775850961166,0.002,-0.008,-0.007
1775850961186,0.000,-0.004,-0.003
1775850961205,0.001,-0.003,-0.002
1775850961225,0.003,-0.004,-0.002
1775850961245,0.008,-0.006,-0.003
1775850961265,0.007,-0.010,-0.003
1775850961284,0.007,-0.012,0.003
1775850961304,0.010,-0.007,0.018
1775850961324,0.014,0.006,0.028
1775850961344,0.011,0.018,0.038
1775850961364,0.010,0.045,0.056
1775850961383,0.018,0.085,0.078
1775850961403,0.029,0.116,0.095
1775850961423,0.025,0.136,0.111
1775850961443,0.018,0.163,0.131
1775850961462,0.018,0.184,0.142
1775850961482,0.024,0.184,0.136
1775850961502,0.029,0.173,0.130
1775850961522,0.025,0.158,0.115
1775850961541,0.011,0.133,0.093
1775850961561,-0.003,0.108,0.077
1775850961581,-0.012,0.091,0.069
1775850961601,-0.006,0.076,0.056
1775850961621,0.006,0.058,0.041
1775850961640,-0.001,0.040,0.033
1775850961660,-0.025,0.028,0.030
1775850961680,-0.039,0.021,0.026
1775850961700,-0.032,0.009,0.015
1775850961719,-0.004,0.010,0.014
1775850961739,0.084,0.057,0.020
1775850961759,0.230,0.185,0.010
1775850961779,0.367,0.371,-0.023
1775850961798,0.421,0.494,-0.066
1775850961818,0.393,0.487,-0.082
1775850961838,0.321,0.395,-0.055
1775850961858,0.234,0.296,-0.006
1775850961877,0.130,0.204,0.047
1775850961897,0.038,0.100,0.076
1775850961917,-0.000,0.009,0.083
1775850961937,-0.018,-0.038,0.066
1775850961957,-0.022,-0.051,0.053
1775850961976,-0.007,-0.040,0.048
1775850961996,0.010,-0.021,0.036
1775850962016,0.012,-0.007,0.017
1775850962036,-0.001,-0.006,-0.000
1775850962055,-0.021,-0.011,-0.008
1775850962075,-0.034,-0.009,-0.002
1775850962095,-0.025,-0.000,-0.005
1775850962115,0.009,0.003,-0.011
1775850962134,0.016,0.001,-0.015
1775850962154,-0.002,0.000,-0.014
1775850962174,-0.035,-0.001,-0.000
1775850962194,-0.059,-0.004,-0.006
1775850962213,-0.073,-0.021,-0.005
1775850962233,-0.078,-0.040,-0.004
1775850962253,-0.099,-0.050,0.001
1775850962273,-0.126,-0.062,0.003
1775850962292,-0.149,-0.084,-0.004
1775850962312,-0.165,-0.102,-0.008
1775850962332,-0.167,-0.115,-0.001
1775850962352,-0.164,-0.123,0.004
1775850962372,-0.159,-0.116,0.012
1775850962391,-0.159,-0.098,0.017
1775850962411,-0.165,-0.085,0.017
1775850962431,-0.153,-0.067,0.024
1775850962451,-0.137,-0.057,0.019
1775850962470,-0.125,-0.050,0.015
1775850962490,-0.103,-0.035,0.015
1775850962510,-0.086,-0.015,0.014
1775850962530,-0.085,-0.009,0.014
1775850962549,-0.096,-0.002,0.014
1775850962569,-0.121,0.004,0.000
1775850962589,-0.139,-0.004,-0.026
1775850962609,-0.135,-0.020,-0.030
1775850962628,-0.146,-0.036,-0.038
1775850962648,-0.174,-0.051,-0.042
1775850962668,-0.201,-0.039,-0.035
1775850962688,-0.186,-0.036,-0.023
1775850962708,-0.141,-0.046,-0.023
1775850962727,-0.110,-0.045,-0.021
1775850962747,-0.113,-0.027,-0.016
1775850962767,-0.112,-0.011,0.000
1775850962787,-0.096,-0.007,0.006
1775850962806,-0.072,-0.014,0.002
1775850962826,-0.055,-0.027,-0.008
1775850962846,-0.045,-0.027,0.007
1775850962866,-0.037,-0.025,0.012
1775850962885,-0.027,-0.015,0.014
1775850962905,-0.037,0.008,0.020
1775850962925,-0.041,0.006,-0.017
1775850962945,-0.026,-0.009,-0.016
1775850962964,-0.019,-0.006,0.005
1775850962984,-0.025,-0.001,0.012
1775850963004,-0.030,0.003,0.003
1775850963024,-0.028,0.015,-0.001
1775850963044,0.009,0.016,-0.002
1775850963063,0.012,0.007,0.003
1775850963083,0.002,0.020,0.010
1775850963103,-0.035,0.013,-0.022
1775850963123,-0.076,-0.003,-0.037
1775850963142,-0.073,-0.003,-0.015
1775850963162,-0.031,0.001,-0.002
1775850963182,0.001,0.003,0.014
1775850963202,-0.007,-0.009,0.030
1775850963221,-0.005,-0.031,-0.034
1775850963241,0.027,-0.020,-0.025
1775850963261,0.040,-0.007,0.007
1775850963281,0.029,-0.013,0.028
1775850963300,0.021,0.002,0.019
1775850963320,0.022,0.002,0.030
1775850963340,0.016,-0.042,0.015
1775850963360,0.039,-0.061,0.020
1775850963380,0.060,-0.033,0.028
1775850963399,0.051,-0.031,0.002
1775850963419,0.046,-0.041,-0.020
1775850963439,0.066,-0.007,0.006
1775850963459,0.080,0.024,0.020
1775850963478,0.094,0.012,0.003
1775850963498,0.121,-0.011,0.000
1775850963518,0.108,-0.013,0.002
1775850963538,0.104,-0.012,0.011
1775850963557,0.143,-0.034,0.003
1775850963577,0.147,-0.050,-0.015
1775850963597,0.128,-0.043,-0.008
1775850963617,0.132,-0.010,0.016
1775850963637,0.141,0.008,0.006
1775850963656,0.117,0.015,-0.000
1775850963676,0.065,0.021,-0.016
1775850963696,0.029,0.004,-0.027
1775850963716,0.027,-0.023,-0.023
1775850963755,0.021,-0.029,0.014
1775850963775,-0.066,-0.024,0.004
1775850963795,-0.105,-0.025,0.015
1775850963814,-0.097,-0.035,0.003
1775850963834,-0.090,-0.038,0.004
1775850963854,-0.088,-0.027,0.013
1775850963874,-0.084,-0.007,0.022
1775850963893,-0.082,0.024,0.031
1775850963913,-0.084,0.049,0.031
1775850963933,-0.069,0.037,0.023
1775850963953,-0.056,0.010,0.032
1775850963973,-0.035,-0.002,0.034
1775850963992,0.004,-0.013,0.014
1775850964012,0.049,-0.033,0.005
1775850964032,0.052,-0.034,0.010
1775850964052,0.036,-0.013,0.015
1775850964071,0.068,-0.007,0.019
1775850964091,0.103,-0.005,0.042
1775850964111,0.104,0.014,0.049
1775850964131,0.086,0.034,0.046
1775850964150,0.052,0.036,0.013
1775850964170,0.041,0.012,-0.004
1775850964190,0.033,-0.005,-0.012
1775850964210,0.016,-0.010,-0.019
1775850964230,-0.014,-0.015,-0.022
1775850964249,-0.027,-0.021,-0.024
1775850964269,-0.015,-0.024,-0.025
1775850964289,-0.003,-0.023,-0.020
1775850964309,-0.005,-0.017,-0.002
1775850964328,-0.014,-0.012,-0.003
1775850964348,-0.012,-0.008,0.001
1775850964368,0.002,0.001,0.004
1775850964388,0.024,0.011,0.002
1775850964407,0.032,0.020,0.007
1775850964427,0.009,0.032,-0.010
1775850964447,0.002,0.043,-0.004
1775850964467,0.011,0.045,-0.000
1775850964486,0.009,0.044,-0.012
1775850964506,-0.020,0.042,-0.006
1775850964526,-0.051,0.036,-0.018
1775850964546,-0.054,0.046,-0.010
1775850964565,-0.036,0.046,0.000
1775850964585,-0.001,0.025,0.004
1775850964605,0.010,0.007,0.000
1775850964625,-0.018,0.009,-0.002
1775850964645,-0.033,0.009,-0.006
1775850964664,-0.026,-0.003,-0.021
1775850964684,-0.011,-0.002,-0.011
1775850964704,-0.022,-0.008,-0.004
1775850964724,-0.036,-0.013,0.003
1775850964743,-0.034,-0.009,-0.008
1775850964763,-0.012,-0.040,-0.023
1775850964783,-0.011,-0.055,-0.008
1775850964803,-0.045,-0.015,0.014
1775850964822,-0.052,0.009,0.017
1775850964842,-0.041,-0.020,0.015
1775850964862,-0.047,-0.030,-0.010
1775850964882,-0.045,-0.019,-0.015
1775850964901,-0.011,0.001,-0.000
1775850964921,0.017,0.007,0.010
1775850964941,-0.001,0.009,-0.009
1775850964961,-0.013,0.028,0.002
1775850964981,-0.030,0.031,0.006
1775850965000,-0.051,0.017,0.002
1775850965020,-0.050,0.011,0.000
1775850965040,-0.032,0.015,0.019
1775850965060,-0.033,0.016,0.051
1775850965079,-0.042,0.005,0.011
1775850965099,-0.019,0.010,0.015
1775850965119,0.011,0.000,0.010
1775850965139,0.010,-0.032,0.029
1775850965158,-0.033,-0.028,-0.002
1775850965178,0.006,-0.013,0.036
1775850965198,0.022,0.005,0.037
1775850965218,0.019,-0.002,0.009
1775850965237,0.019,0.013,0.007
1775850965257,-0.005,0.036,0.021
1775850965277,-0.005,0.036,0.038
1775850965297,0.021,0.028,0.020
1775850965316,0.019,0.039,-0.000
1775850965336,0.021,0.043,-0.017
1775850965356,0.033,0.013,-0.037
1775850965376,0.051,-0.001,-0.033
1775850965396,0.055,0.010,-0.016
1775850965415,0.038,-0.008,-0.016
1775850965435,0.043,-0.033,-0.025
1775850965455,0.077,-0.010,0.015
1775850965475,0.085,0.021,0.026
1775850965494,0.088,0.008,0.001
1775850965514,0.118,-0.003,-0.005
1775850965534,0.116,-0.014,-0.021
1775850965554,0.082,-0.032,-0.024
1775850965573,0.087,-0.017,0.002
1775850965593,0.107,-0.011,0.014
1775850965613,0.095,-0.019,0.003
1775850965633,0.065,-0.022,-0.006
1775850965652,0.084,-0.026,-0.010
1775850965672,0.125,-0.038,-0.002
1775850965692,0.111,-0.024,0.007
1775850965712,0.030,0.003,0.019
1775850965732,-0.045,0.026,0.029
1775850965751,-0.077,0.037,0.028
1775850965771,-0.075,0.038,0.031
1775850965791,-0.064,0.030,0.023
1775850965811,-0.066,0.014,0.015
1775850965830,-0.091,0.018,0.015
1775850965850,-0.117,0.026,0.006
1775850965870,-0.143,0.016,0.009
1775850965890,-0.156,0.002,0.016
1775850965909,-0.145,-0.004,0.025
1775850965929,-0.122,0.002,0.044
1775850965949,-0.118,0.006,0.042
1775850965969,-0.126,0.001,0.014
1775850965989,-0.077,-0.005,0.010
1775850966008,0.007,-0.013,0.022
1775850966028,0.075,0.000,0.026
1775850966048,0.100,0.001,0.020
1775850966068,0.076,-0.013,-0.000
1775850966087,0.046,-0.010,0.001
1775850966107,0.042,-0.001,0.001
1775850966127,0.040,-0.003,0.002
1775850966147,0.034,-0.004,0.003
1775850966166,0.024,-0.008,0.001
1775850966186,0.013,-0.007,-0.000
1775850966206,0.001,0.002,-0.007
1775850966226,-0.005,0.013,-0.008
1775850966246,-0.009,0.018,-0.010
1775850966265,-0.013,0.013,-0.012
1775850966285,-0.026,0.002,-0.018
1775850966305,-0.035,0.001,-0.010
1775850966325,-0.033,0.006,0.001
1775850966344,-0.033,0.008,0.001
1775850966364,-0.031,0.010,0.006
1775850966384,-0.022,0.012,0.000
1775850966404,-0.008,0.012,0.006
1775850966423,-0.001,0.024,0.014
1775850966443,-0.005,0.036,0.008
1775850966463,-0.004,0.038,0.006
1775850966483,-0.003,0.030,0.015
1775850966502,-0.026,0.023,0.004
1775850966522,-0.054,0.034,0.003
1775850966542,-0.061,0.036,-0.003
1775850966562,-0.048,0.026,-0.006
1775850966581,-0.045,0.030,-0.008
1775850966601,-0.049,0.044,0.007
1775850966621,-0.049,0.050,0.008
1775850966641,-0.040,0.031,-0.009
1775850966661,-0.041,0.010,-0.029
1775850966680,-0.024,-0.000,-0.027
1775850966700,-0.040,-0.015,-0.042
1775850966720,-0.061,-0.025,-0.035
1775850966740,-0.076,-0.016,-0.036
1775850966759,-0.062,-0.020,-0.022
1775850966779,-0.031,-0.031,-0.002
1775850966799,-0.020,-0.030,0.003
1775850966819,-0.019,-0.029,0.006
1775850966838,-0.013,-0.027,0.002
1775850966858,-0.017,-0.011,-0.000
1775850966878,-0.047,-0.008,-0.010
1775850966898,-0.060,0.003,0.000
1775850966917,-0.044,0.014,0.009
1775850966937,-0.030,0.006,0.010
1775850966957,-0.040,-0.000,0.004
1775850966977,-0.047,0.010,0.002
1775850966996,-0.042,0.027,0.009
1775850967016,-0.013,0.023,-0.002
1775850967036,0.003,-0.003,-0.026
1775850967056,-0.019,-0.014,-0.035
1775850967076,-0.037,-0.000,-0.009
1775850967095,-0.020,0.003,0.000
1775850967115,-0.007,-0.010,0.003
1775850967135,-0.021,0.000,0.023
1775850967155,-0.048,0.006,0.032
1775850967174,-0.069,-0.004,-0.019
1775850967194,-0.042,-0.007,-0.014
1775850967214,-0.017,0.009,0.021
1775850967234,-0.016,0.034,0.046
1775850967253,-0.009,0.046,0.040
1775850967273,-0.006,0.029,0.020
1775850967293,-0.004,0.001,0.004
1775850967313,-0.010,0.004,0.019
1775850967332,-0.009,0.036,0.036
1775850967352,-0.013,0.027,0.018
1775850967372,0.003,0.002,0.000
1775850967392,0.034,0.018,-0.002
1775850967412,0.054,0.022,-0.013
1775850967431,0.066,-0.008,-0.033
1775850967451,0.072,-0.012,-0.023
1775850967471,0.067,0.003,0.002
1775850967491,0.054,-0.004,0.006
1775850967510,0.065,-0.007,0.009
1775850967530,0.078,0.003,0.020
1775850967550,0.073,0.008,0.025
1775850967570,0.089,0.017,0.030
1775850967589,0.107,0.009,0.017
1775850967609,0.094,-0.004,-0.007
1775850967629,0.095,-0.013,-0.009
1775850967649,0.096,-0.009,-0.002
1775850967668,0.084,0.000,0.001
1775850967688,0.067,0.005,0.002
1775850967708,0.036,0.009,0.009
1775850967728,0.011,0.012,0.014
1775850967747,-0.010,0.009,0.018
1775850967767,-0.035,-0.001,0.023
1775850967787,-0.022,0.016,0.035
1775850967807,0.027,0.020,0.028
1775850967827,0.061,0.027,0.024
1775850967846,0.052,0.040,0.016
1775850967866,0.031,0.043,0.001
1775850967886,0.027,0.028,-0.011
1775850967906,0.012,0.012,-0.032
1775850967925,-0.014,0.006,0.007
1775850967945,-0.026,0.012,0.014
1775850967965,-0.021,0.014,0.004
1775850967985,-0.027,0.013,0.010
1775850968004,-0.052,0.011,0.013
1775850968024,-0.065,0.003,0.011
1775850968044,-0.046,-0.005,0.015
1775850968064,-0.005,-0.006,0.015
1775850968083,0.020,-0.012,0.020
1775850968103,0.036,-0.018,0.015
1775850968123,0.042,-0.012,0.011
1775850968143,0.014,0.003,0.027
1775850968162,-0.019,0.006,0.013
1775850968182,-0.041,0.000,-0.000
1775850968202,-0.036,-0.004,0.005
1775850968222,-0.026,-0.007,-0.002
1775850968242,-0.027,-0.010,-0.009
1775850968261,-0.027,-0.001,-0.009
1775850968281,-0.015,0.005,-0.002
1775850968301,-0.009,0.003,-0.001
1775850968321,-0.013,-0.002,-0.005
1775850968340,-0.029,-0.011,-0.018
1775850968360,-0.040,-0.019,-0.022
1775850968380,-0.044,-0.024,-0.024
1775850968400,-0.042,-0.031,-0.032
1775850968419,-0.029,-0.036,-0.038
1775850968439,-0.004,-0.038,-0.038
1775850968459,0.017,-0.037,-0.027
1775850968479,0.003,-0.025,-0.019
1775850968498,-0.030,-0.009,-0.026
1775850968518,-0.031,0.000,-0.030
1775850968538,0.004,-0.001,-0.004
1775850968558,0.005,0.002,0.004
1775850968578,-0.020,0.021,0.001
1775850968597,-0.002,0.029,0.017
1775850968617,0.007,0.037,0.006
1775850968637,-0.016,0.049,0.015
1775850968657,-0.027,0.059,0.003
1775850968676,-0.027,0.067,-0.003
1775850968696,-0.050,0.052,-0.021
1775850968716,-0.061,0.026,-0.050
1775850968736,-0.039,0.005,-0.030
1775850968755,-0.042,-0.004,-0.023
1775850968775,-0.048,0.004,0.008
1775850968795,-0.059,0.012,0.025
1775850968815,-0.045,0.007,0.025
1775850968834,-0.046,-0.008,0.012
1775850968854,-0.072,-0.024,-0.043
1775850968874,-0.075,-0.048,-0.044
1775850968894,-0.075,-0.045,-0.021
1775850968913,-0.065,-0.034,-0.010
1775850968933,-0.060,-0.064,-0.030
1775850968953,-0.057,-0.065,-0.041
1775850968973,-0.056,-0.046,-0.038
1775850968993,-0.048,-0.031,-0.023
1775850969012,-0.021,-0.007,0.018
1775850969032,-0.004,0.008,0.042
1775850969052,-0.005,-0.007,0.015
1775850969072,-0.031,-0.033,-0.018
1775850969091,-0.045,-0.020,-0.005
1775850969111,-0.037,0.004,0.034
1775850969131,-0.015,0.027,0.056
1775850969151,-0.016,0.034,0.053
1775850969170,-0.036,0.010,0.014
1775850969190,-0.018,0.008,0.042
1775850969210,0.035,0.018,0.047
1775850969230,0.062,-0.012,0.034
1775850969249,0.050,-0.030,0.010
1775850969269,0.088,0.002,0.047
1775850969289,0.099,0.011,0.021
1775850969309,0.099,-0.012,0.000
1775850969328,0.096,-0.001,0.009
1775850969348,0.086,0.007,0.014
1775850969368,0.069,-0.012,0.002
1775850969388,0.070,-0.032,-0.018
1775850969407,0.108,-0.038,-0.008
1775850969427,0.122,-0.041,0.005
1775850969447,0.111,-0.025,0.018
1775850969467,0.121,-0.022,0.018
1775850969486,0.126,-0.026,0.014
1775850969506,0.085,-0.026,-0.006
1775850969526,0.073,-0.029,-0.027
1775850969546,0.102,-0.037,-0.020
1775850969565,0.088,-0.050,-0.040
1775850969585,0.068,-0.055,-0.028
1775850969605,0.074,-0.055,-0.017
1775850969625,0.081,-0.060,-0.012
1775850969645,0.051,-0.052,-0.005
1775850969664,-0.015,-0.021,0.003
1775850969684,-0.053,0.012,0.021
1775850969704,-0.046,0.018,0.001
1775850969724,-0.034,0.010,0.000
1775850969743,-0.035,0.017,0.003
1775850969763,-0.042,0.026,0.004
1775850969783,-0.048,0.026,-0.000
1775850969803,-0.042,0.018,-0.007
1775850969822,-0.014,0.004,-0.014
1775850969842,0.010,-0.005,-0.009
1775850969862,0.027,-0.001,-0.004
1775850969882,0.034,0.000,0.002
1775850969901,0.046,-0.009,0.004
1775850969921,0.065,-0.013,0.002
1775850969941,0.082,-0.017,0.009
1775850969961,0.082,-0.013,-0.008
1775850969980,0.110,-0.007,-0.006
1775850970000,0.116,-0.007,0.000
1775850970020,0.095,0.005,0.004
1775850970040,0.079,0.016,0.021
1775850970060,0.040,0.025,0.029
1775850970079,-0.006,0.035,0.019
1775850970099,-0.024,0.042,0.023
1775850970119,-0.016,0.039,0.008
1775850970139,-0.011,0.023,-0.009
1775850970158,-0.016,0.016,-0.016
1775850970178,-0.001,0.015,-0.007
1775850970198,0.023,0.008,-0.003
1775850970218,0.024,-0.003,-0.003
1775850970237,0.010,-0.004,0.001
1775850970257,-0.003,-0.003,-0.002
1775850970277,-0.019,-0.003,-0.007
1775850970297,-0.029,-0.004,-0.012
1775850970317,-0.027,-0.007,-0.024
1775850970336,-0.013,-0.010,-0.025
1775850970356,-0.009,-0.008,-0.025
1775850970376,-0.013,-0.007,-0.027
1775850970396,-0.017,-0.011,-0.026
1775850970415,-0.020,-0.014,-0.025
1775850970435,-0.017,-0.012,-0.015
1775850970455,-0.017,-0.005,-0.013
1775850970475,-0.016,0.007,-0.013
1775850970494,-0.005,0.013,-0.009
1775850970514,0.009,0.012,-0.004
1775850970534,0.001,0.015,-0.012
1775850970554,-0.017,0.022,0.000
1775850970573,-0.043,0.031,0.005
1775850970593,-0.048,0.041,-0.003
1775850970613,-0.031,0.031,0.000
1775850970633,-0.028,0.017,-0.023
1775850970652,-0.031,0.029,-0.003
1775850970672,-0.036,0.045,-0.002
1775850970692,-0.029,0.041,-0.001
1775850970712,-0.037,0.026,-0.013
1775850970732,-0.057,0.014,-0.023
1775850970751,-0.076,0.011,-0.024
1775850970771,-0.087,0.001,-0.026
1775850970791,-0.094,0.000,-0.018
1775850970811,-0.087,0.007,-0.006
1775850970830,-0.072,0.002,0.001
1775850970850,-0.074,-0.023,-0.016
1775850970870,-0.079,-0.052,-0.029
1775850970890,-0.088,-0.041,-0.003
1775850970909,-0.070,-0.007,0.020
1775850970929,-0.041,-0.007,0.023
1775850970949,-0.036,-0.011,0.009
1775850970969,-0.063,-0.019,-0.010
1775850970988,-0.065,-0.005,-0.000
1775850971008,-0.025,-0.002,0.008
1775850971028,0.013,-0.011,0.014
1775850971048,-0.007,-0.005,0.009
1775850971068,-0.021,-0.006,0.008
1775850971087,-0.008,-0.010,0.013
1775850971107,0.006,0.004,0.013
1775850971127,0.023,-0.002,0.010
1775850971147,0.023,-0.021,0.027
1775850971166,-0.019,0.008,0.054
1775850971186,-0.015,0.037,0.086
1775850971206,0.024,-0.015,0.054
1775850971226,0.046,-0.031,0.036
1775850971245,0.042,-0.002,0.044
1775850971265,0.052,-0.015,0.032
1775850971285,0.072,-0.035,0.013
1775850971305,0.090,-0.025,0.020
1775850971324,0.088,-0.025,0.019
1775850971344,0.073,-0.053,-0.004
1775850971364,0.073,-0.073,-0.006
1775850971384,0.080,-0.080,0.006
1775850971403,0.064,-0.088,0.017
1775850971423,0.055,-0.102,0.016
1775850971443,0.097,-0.113,0.021
1775850971463,0.110,-0.122,0.008
1775850971482,0.096,-0.116,0.000
1775850971502,0.094,-0.121,-0.011
1775850971522,0.071,-0.124,-0.044
1775850971542,0.037,-0.131,-0.054
1775850971562,-0.009,-0.127,-0.044
1775850971581,-0.019,-0.102,-0.037
1775850971601,-0.021,-0.082,-0.020
1775850971621,-0.073,-0.042,-0.020
1775850971641,-0.135,-0.004,-0.012
1775850971660,-0.166,-0.004,-0.020
1775850971680,-0.154,-0.038,-0.029
1775850971700,-0.139,-0.045,-0.007
1775850971720,-0.131,-0.008,0.022
1775850971739,-0.125,0.020,0.018
1775850971759,-0.130,0.024,0.006
1775850971779,-0.141,0.018,-0.007
1775850971799,-0.123,0.016,-0.002
1775850971818,-0.072,0.022,0.014
1775850971838,-0.012,0.031,0.016
1775850971858,0.025,0.027,0.006
1775850971878,0.026,0.014,-0.022
1775850971898,0.049,0.000,-0.053
1775850971917,0.120,-0.009,-0.043
1775850971937,0.175,-0.005,-0.033
1775850971957,0.174,-0.001,-0.025
1775850971977,0.143,0.005,-0.019
1775850971996,0.106,0.009,-0.013
1775850972016,0.061,0.014,-0.001
1775850972036,0.012,0.020,0.006
1775850972056,-0.017,0.020,0.010
1775850972075,-0.027,0.018,0.000
1775850972095,-0.026,0.026,-0.006
1775850972115,-0.022,0.027,-0.017
1775850972135,-0.016,0.022,-0.026
1775850972155,-0.012,0.015,-0.030
1775850972174,-0.007,0.007,-0.030
1775850972194,0.001,0.007,-0.025
1775850972214,0.002,0.011,-0.020
1775850972234,0.002,0.021,-0.019
1775850972253,0.006,0.030,-0.021
1775850972273,0.015,0.038,-0.014
1775850972293,0.027,0.041,-0.005
1775850972313,0.044,0.040,-0.000
1775850972332,0.053,0.042,0.004
1775850972352,0.040,0.047,0.003
1775850972372,0.013,0.053,0.004
1775850972392,-0.014,0.062,0.007
1775850972412,-0.022,0.068,-0.003
1775850972431,-0.008,0.063,0.002
1775850972451,-0.028,0.065,0.002
1775850972471,-0.071,0.067,-0.011
1775850972491,-0.079,0.059,0.000
1775850972510,-0.062,0.052,-0.004
1775850972530,-0.043,0.044,0.006
1775850972550,-0.035,0.034,0.006
1775850972570,-0.034,0.046,0.012
1775850972589,-0.046,0.071,0.018
1775850972609,-0.036,0.063,0.005
1775850972629,-0.006,0.042,-0.013
1775850972649,-0.017,0.034,-0.019
1775850972668,-0.048,0.033,-0.026
1775850972688,-0.049,0.020,-0.014
1775850972708,-0.072,0.027,-0.008
1775850972728,-0.082,0.018,-0.010
1775850972748,-0.048,-0.006,-0.007
1775850972767,-0.038,-0.002,-0.005
1775850972787,-0.068,0.011,0.010
1775850972807,-0.078,0.011,0.002
1775850972827,-0.063,0.002,-0.003
1775850972846,-0.058,0.003,-0.005
1775850972866,-0.073,0.012,-0.003
1775850972886,-0.083,0.013,-0.004
1775850972906,-0.064,0.005,-0.005
1775850972925,-0.048,0.003,-0.005
1775850972945,-0.074,0.010,-0.014
1775850972965,-0.089,0.035,0.001
1775850972985,-0.078,0.036,0.003
1775850973005,-0.087,0.020,-0.001
1775850973024,-0.090,0.026,0.022
1775850973044,-0.063,0.037,0.037
1775850973064,-0.025,0.022,0.020
1775850973084,-0.007,-0.002,0.011
1775850973103,-0.017,0.002,0.016
1775850973123,0.004,0.012,0.042
1775850973143,0.013,0.003,0.039
1775850973163,0.012,-0.020,0.005
1775850973182,0.022,-0.037,0.000
1775850973202,0.028,-0.030,0.030
1775850973222,0.020,-0.025,0.051
1775850973242,0.021,-0.022,0.055
1775850973261,0.027,-0.024,0.027
1775850973281,0.053,-0.033,0.003
1775850973301,0.089,-0.039,0.005
1775850973321,0.102,-0.020,0.001
1775850973340,0.092,-0.012,-0.005
1775850973360,0.089,-0.011,-0.009
1775850973380,0.086,-0.019,-0.008
1775850973400,0.069,-0.023,0.001
1775850973419,0.075,-0.027,0.012
1775850973439,0.091,-0.033,0.006
1775850973459,0.087,-0.042,-0.008
1775850973479,0.062,-0.042,-0.017
1775850973499,0.033,-0.040,-0.026
1775850973518,0.023,-0.041,-0.034
1775850973538,0.013,-0.040,-0.018
1775850973558,-0.017,-0.029,-0.017
1775850973578,-0.036,-0.029,-0.005
1775850973597,-0.042,-0.031,-0.004
1775850973617,-0.048,-0.014,0.006
1775850973637,-0.057,0.017,0.024
1775850973657,-0.063,0.045,0.028
1775850973676,-0.062,0.055,0.012
1775850973696,-0.057,0.057,0.000
1775850973716,-0.044,0.049,-0.007
1775850973736,-0.014,0.031,-0.001
1775850973755,0.010,0.012,0.004
1775850973775,0.033,0.002,-0.006
1775850973795,0.077,-0.006,-0.007
1775850973815,0.135,-0.016,0.008
1775850973834,0.171,-0.021,0.012
1775850973854,0.182,-0.025,0.000
1775850973874,0.195,-0.028,0.002
1775850973894,0.195,-0.028,0.005
1775850973914,0.155,-0.017,0.001
1775850973933,0.121,0.003,0.022
1775850973953,0.083,0.011,0.022
1775850973973,0.035,0.013,0.012
1775850973993,0.006,0.022,0.012
1775850974012,0.006,0.019,0.007
1775850974032,0.010,0.012,-0.003
1775850974052,0.002,0.015,-0.000
1775850974072,-0.020,0.014,-0.010
1775850974091,-0.036,0.003,-0.014
1775850974111,-0.036,-0.001,-0.013
1775850974131,-0.025,-0.011,-0.009
1775850974151,-0.024,-0.024,-0.007
1775850974170,-0.035,-0.030,-0.006
1775850974190,-0.042,-0.032,-0.001
1775850974210,-0.043,-0.031,-0.000
1775850974230,-0.034,-0.027,0.002
1775850974250,-0.015,-0.028,0.004
1775850974269,0.000,-0.032,0.002
1775850974289,0.002,-0.031,-0.004
1775850974309,-0.001,-0.021,-0.001
1775850974329,-0.007,-0.010,-0.007
1775850974348,0.005,-0.001,0.003
1775850974368,0.015,0.007,-0.000
1775850974388,0.012,0.026,0.010
1775850974408,-0.004,0.045,0.010
1775850974427,-0.021,0.057,0.010
1775850974447,-0.043,0.079,0.007
1775850974467,-0.089,0.100,0.021
1775850974487,-0.130,0.110,0.005
1775850974507,-0.116,0.110,0.000
1775850974526,-0.075,0.096,-0.007
1775850974546,-0.087,0.067,-0.030
1775850974566,-0.112,0.043,-0.039
1775850974586,-0.125,0.034,-0.027
1775850974605,-0.122,0.033,-0.017
1775850974625,-0.109,0.021,-0.011
1775850974645,-0.110,0.012,-0.011
1775850974665,-0.106,0.023,-0.012
1775850974684,-0.085,0.039,-0.014
1775850974704,-0.067,0.027,-0.018
1775850974724,-0.049,0.007,-0.015
1775850974744,-0.042,0.004,-0.008
1775850974763,-0.061,0.002,-0.001
1775850974783,-0.069,-0.006,-0.007
1775850974803,-0.078,-0.005,-0.010
1775850974823,-0.083,0.014,-0.006
1775850974843,-0.073,0.025,0.001
1775850974862,-0.061,0.014,-0.012
1775850974882,-0.062,-0.005,-0.014
1775850974902,-0.070,-0.012,0.002
1775850974922,-0.044,-0.000,0.026
1775850974941,-0.010,0.011,0.037
1775850974961,-0.011,0.004,0.007
1775850974981,-0.024,-0.014,-0.021
1775850975001,-0.020,-0.011,0.024
1775850975020,-0.005,0.002,0.054
1775850975040,0.002,0.000,0.069
1775850975060,-0.024,-0.025,-0.010
1775850975080,-0.027,-0.058,-0.011
1775850975099,-0.017,-0.043,0.021
1775850975119,0.024,-0.005,0.052
1775850975139,0.068,0.010,0.040
1775850975159,0.104,0.000,-0.000
1775850975179,0.111,-0.007,-0.027
1775850975198,0.114,0.003,-0.017
1775850975218,0.126,0.002,-0.013
1775850975238,0.124,-0.019,-0.014
1775850975258,0.096,-0.021,-0.000
1775850975277,0.099,0.003,0.029
1775850975297,0.113,0.027,0.047
1775850975317,0.111,0.025,0.031
1775850975337,0.143,0.017,0.042
1775850975356,0.160,0.003,0.033
1775850975376,0.151,-0.020,0.020
1775850975396,0.135,-0.040,-0.005
1775850975416,0.116,-0.053,-0.013
1775850975435,0.095,-0.051,-0.001
1775850975455,0.048,-0.058,-0.006
1775850975475,0.006,-0.055,0.009
1775850975495,0.016,-0.047,0.014
1775850975515,0.043,-0.046,0.019
1775850975534,0.012,-0.038,0.008
1775850975554,-0.035,-0.025,0.015
1775850975574,-0.060,-0.009,0.020
1775850975594,-0.053,0.001,0.038
1775850975613,-0.043,0.007,0.037
1775850975633,-0.033,0.005,0.021
1775850975653,-0.031,-0.001,0.013
1775850975673,-0.026,-0.007,-0.007
1775850975692,-0.003,-0.013,-0.014
1775850975732,0.054,-0.020,-0.005
1775850975752,0.056,-0.037,-0.014
1775850975772,0.049,-0.050,-0.008
1775850975791,0.075,-0.062,-0.009
1775850975811,0.115,-0.085,-0.006
1775850975831,0.133,-0.098,-0.014
1775850975851,0.127,-0.074,-0.007
1775850975870,0.096,-0.041,-0.001
1775850975890,0.091,-0.025,-0.005
1775850975910,0.098,-0.005,0.013
1775850975930,0.069,0.020,0.016
1775850975949,0.033,0.024,0.001
1775850975969,0.002,0.020,-0.010
1775850975989,-0.018,0.018,-0.024
1775850976009,-0.030,0.003,-0.033
1775850976029,-0.032,-0.006,-0.030
1775850976048,-0.039,-0.008,-0.030
1775850976068,-0.051,-0.007,-0.027
1775850976088,-0.069,-0.002,-0.026
1775850976108,-0.079,0.003,-0.019
1775850976127,-0.079,0.009,-0.018
1775850976147,-0.068,0.012,-0.017
1775850976167,-0.054,0.014,-0.013
1775850976187,-0.055,0.016,-0.003
1775850976206,-0.083,0.029,-0.003
1775850976226,-0.105,0.042,-0.012
1775850976246,-0.081,0.043,-0.022
1775850976266,-0.031,0.036,-0.026
1775850976286,-0.009,0.034,-0.006
1775850976305,-0.049,0.047,-0.021
1775850976325,-0.063,0.058,-0.011
1775850976345,-0.032,0.061,-0.004
1775850976365,0.000,0.062,0.011
1775850976384,-0.034,0.068,-0.009
1775850976404,-0.075,0.071,-0.000
1775850976424,-0.099,0.067,-0.009
1775850976444,-0.090,0.054,-0.032
1775850976463,-0.053,0.028,-0.036
1775850976483,-0.041,0.015,-0.030
1775850976503,-0.052,0.023,-0.004
1775850976523,-0.069,0.037,0.010
1775850976543,-0.093,0.031,-0.015
1775850976562,-0.101,0.013,-0.031
1775850976582,-0.073,0.014,-0.027
1775850976602,-0.050,0.008,-0.027
1775850976622,-0.072,-0.004,-0.041
1775850976641,-0.099,-0.003,-0.025
1775850976661,-0.095,0.009,0.004
1775850976681,-0.069,0.018,0.011
1775850976701,-0.058,0.014,0.004
1775850976720,-0.059,0.006,0.001
1775850976740,-0.054,0.008,0.010
1775850976760,-0.057,0.017,0.009
1775850976780,-0.064,0.007,-0.008
1775850976800,-0.049,-0.008,-0.008
1775850976819,-0.016,-0.003,0.020
1775850976839,-0.018,0.011,0.043
1775850976859,-0.043,0.011,-0.002
1775850976879,-0.017,0.005,0.003
1775850976898,0.015,0.009,0.007
1775850976918,0.026,0.002,0.010
1775850976938,-0.004,0.005,0.009
1775850976958,-0.000,0.016,0.024
1775850976977,0.025,0.004,0.031
1775850976997,0.033,-0.013,0.020
1775850977017,0.037,-0.000,0.028
1775850977037,0.041,0.010,0.031
1775850977057,0.058,0.000,0.014
1775850977076,0.075,-0.015,-0.005
1775850977096,0.087,-0.010,0.001
1775850977116,0.078,-0.009,0.005
1775850977136,0.068,-0.029,-0.002
1775850977155,0.068,-0.042,-0.001
1775850977175,0.062,-0.034,0.008
1775850977195,0.066,-0.021,0.022
1775850977215,0.092,-0.009,0.026
1775850977234,0.096,-0.008,0.010
1775850977254,0.098,-0.003,0.012
1775850977274,0.113,0.004,0.020
1775850977294,0.118,-0.005,0.009
1775850977314,0.129,-0.022,-0.005
1775850977333,0.155,-0.037,-0.002
1775850977353,0.156,-0.038,0.006
1775850977373,0.134,-0.039,0.005
1775850977393,0.094,-0.042,0.010
1775850977412,0.044,-0.030,0.007
1775850977432,0.013,-0.010,0.008
1775850977452,-0.005,0.002,-0.004
1775850977472,-0.032,0.003,-0.017
1775850977491,-0.077,0.015,-0.007
1775850977511,-0.109,0.044,0.008
1775850977531,-0.102,0.052,0.012
1775850977551,-0.082,0.046,0.008
1775850977571,-0.073,0.038,0.007
1775850977590,-0.063,0.033,0.011
1775850977610,-0.049,0.026,0.009
1775850977630,-0.034,0.019,0.013
1775850977650,-0.018,0.013,0.021
1775850977669,0.005,0.008,0.022
1775850977689,0.034,0.000,0.014
1775850977709,0.051,-0.008,0.000
1775850977729,0.045,-0.020,-0.017
1775850977748,0.026,-0.041,-0.037
1775850977768,0.024,-0.068,-0.048
1775850977788,0.038,-0.084,-0.040
1775850977808,0.061,-0.089,-0.031
1775850977827,0.074,-0.076,-0.025
1775850977847,0.077,-0.059,-0.008
1775850977867,0.052,-0.045,-0.011
1775850977887,0.028,-0.030,-0.005
1775850977907,0.014,-0.017,0.001
1775850977926,0.013,-0.010,0.004
1775850977946,0.029,-0.005,0.002
1775850977966,0.038,0.003,0.008
1775850977986,0.035,0.009,0.012
1775850978005,0.031,0.009,0.007
1775850978025,0.029,0.005,0.001
1775850978045,0.015,0.004,0.001
1775850978065,-0.011,0.005,0.000
1775850978084,-0.031,0.002,-0.002
1775850978104,-0.035,0.000,0.000
1775850978124,-0.025,0.002,0.003
1775850978144,-0.016,0.008,0.002
1775850978164,-0.014,0.014,-0.004
1775850978183,-0.013,0.017,-0.006
1775850978203,-0.014,0.019,-0.008
1775850978223,-0.011,0.019,-0.010
1775850978243,-0.011,0.017,-0.007
1775850978262,-0.019,0.021,-0.006
1775850978282,-0.032,0.021,-0.009
1775850978302,-0.061,0.013,-0.015
1775850978322,-0.075,0.016,-0.018
1775850978342,-0.073,0.022,-0.006
1775850978361,-0.094,0.016,-0.026
1775850978381,-0.102,0.008,-0.044
1775850978401,-0.089,0.002,-0.020
1775850978421,-0.073,0.008,-0.007
1775850978440,-0.069,0.018,-0.002
1775850978460,-0.075,0.019,-0.008
1775850978480,-0.078,0.010,-0.018
1775850978500,-0.086,-0.009,-0.026
1775850978519,-0.086,-0.019,-0.018
1775850978539,-0.088,-0.014,-0.009
1775850978559,-0.096,-0.012,0.000
1775850978579,-0.089,-0.012,0.005
1775850978599,-0.090,-0.002,0.005
1775850978618,-0.071,0.004,-0.008
1775850978638,-0.043,-0.002,-0.010
1775850978658,-0.059,0.000,-0.014
1775850978678,-0.085,0.004,-0.008
1775850978697,-0.094,0.007,-0.007
1775850978717,-0.083,0.007,-0.003
1775850978737,-0.057,0.009,0.011
1775850978757,-0.045,0.006,0.010
1775850978776,-0.063,-0.009,-0.008
1775850978796,-0.076,-0.008,0.008
1775850978816,-0.063,0.004,0.018
1775850978836,-0.032,0.004,0.021
1775850978856,-0.028,0.007,0.019
1775850978875,-0.020,0.012,0.021
1775850978895,0.009,0.028,0.027
1775850978915,0.024,0.031,0.020
1775850978935,-0.001,0.004,-0.016
1775850978954,0.012,-0.009,-0.008
1775850978974,0.042,-0.006,0.018
1775850978994,0.042,-0.004,0.038
1775850979014,0.035,0.007,0.052
1775850979033,0.020,0.012,0.037
1775850979053,0.025,0.013,-0.012
1775850979073,0.051,0.013,-0.017
1775850979093,0.072,0.002,-0.023
1775850979113,0.083,-0.004,-0.018
1775850979132,0.103,-0.006,-0.000
1775850979152,0.115,-0.022,-0.012
1775850979172,0.110,-0.034,-0.023
1775850979192,0.093,-0.033,-0.024
1775850979211,0.117,-0.021,0.003
1775850979231,0.134,-0.010,0.023
1775850979251,0.134,-0.006,0.027
1775850979271,0.119,0.000,0.028
1775850979290,0.135,-0.006,0.020
1775850979310,0.178,-0.019,0.013
1775850979330,0.177,-0.026,0.006
1775850979350,0.143,-0.029,0.003
1775850979370,0.099,-0.024,-0.002
1775850979389,0.056,-0.019,-0.014
1775850979409,0.041,-0.016,-0.013
1775850979429,0.033,-0.005,-0.012
1775850979449,0.006,0.004,-0.016
1775850979468,-0.029,0.017,-0.020
1775850979488,-0.070,0.023,-0.033
1775850979508,-0.096,0.017,-0.033
1775850979528,-0.109,-0.002,-0.039
1775850979547,-0.122,-0.017,-0.029
1775850979567,-0.146,-0.021,-0.029
1775850979587,-0.154,-0.024,-0.032
1775850979607,-0.137,-0.020,-0.022
1775850979627,-0.102,-0.008,-0.008
