absolute_timestamp,accel_x,accel_y,accel_z
1775850908704,-0.182,-0.926,-0.344
1775850908724,-0.180,-0.919,-0.346
1775850908743,-0.178,-0.925,-0.342
1775850908763,-0.181,-0.923,-0.340
1775850908783,-0.182,-0.914,-0.347
1775850908803,-0.184,-0.928,-0.347
1775850908822,-0.181,-0.930,-0.342
1775850908842,-0.180,-0.928,-0.349
1775850908862,-0.178,-0.922,-0.347
1775850908882,-0.179,-0.925,-0.343
1775850908902,-0.176,-0.927,-0.342
1775850908921,-0.177,-0.928,-0.349
1775850908941,-0.178,-0.925,-0.353
1775850908961,-0.178,-0.921,-0.354
1775850908981,-0.176,-0.922,-0.355
1775850909000,-0.178,-0.924,-0.351
1775850909020,-0.174,-0.926,-0.346
1775850909040,-0.174,-0.926,-0.342
1775850909060,-0.176,-0.925,-0.339
1775850909079,-0.176,-0.924,-0.336
1775850909099,-0.174,-0.924,-0.338
1775850909119,-0.177,-0.920,-0.341
1775850909139,-0.178,-0.933,-0.338
1775850909158,-0.176,-0.935,-0.337
1775850909178,-0.185,-0.908,-0.342
1775850909198,-0.182,-0.928,-0.349
1775850909218,-0.182,-0.938,-0.342
1775850909237,-0.182,-0.931,-0.340
1775850909257,-0.183,-0.925,-0.347
1775850909277,-0.184,-0.921,-0.339
1775850909297,-0.185,-0.929,-0.334
1775850909317,-0.183,-0.929,-0.334
1775850909336,-0.183,-0.921,-0.337
1775850909356,-0.183,-0.927,-0.341
1775850909376,-0.187,-0.923,-0.341
1775850909396,-0.180,-0.920,-0.348
1775850909415,-0.186,-0.929,-0.344
1775850909435,-0.186,-0.929,-0.336
1775850909455,-0.189,-0.924,-0.340
1775850909475,-0.189,-0.922,-0.344
1775850909494,-0.187,-0.925,-0.339
1775850909514,-0.186,-0.926,-0.343
1775850909534,-0.190,-0.924,-0.346
1775850909554,-0.184,-0.924,-0.349
1775850909573,-0.183,-0.929,-0.347
1775850909593,-0.185,-0.923,-0.343
1775850909613,-0.187,-0.924,-0.347
1775850909633,-0.185,-0.926,-0.346
1775850909652,-0.185,-0.927,-0.346
1775850909672,-0.181,-0.924,-0.345
1775850909692,-0.184,-0.921,-0.349
1775850909712,-0.184,-0.937,-0.345
1775850909732,-0.181,-0.927,-0.344
1775850909751,-0.183,-0.925,-0.350
1775850909771,-0.183,-0.939,-0.342
1775850909791,-0.178,-0.935,-0.338
1775850909811,-0.176,-0.910,-0.340
1775850909830,-0.175,-0.925,-0.342
1775850909850,-0.173,-0.932,-0.331
1775850909870,-0.171,-0.930,-0.337
1775850909890,-0.172,-0.925,-0.347
1775850909909,-0.174,-0.924,-0.345
1775850909929,-0.168,-0.939,-0.331
1775850909949,-0.165,-0.935,-0.333
1775850909969,-0.166,-0.927,-0.332
1775850909988,-0.164,-0.929,-0.333
1775850910008,-0.165,-0.925,-0.333
1775850910028,-0.164,-0.931,-0.338
1775850910048,-0.163,-0.923,-0.338
1775850910068,-0.159,-0.925,-0.338
1775850910087,-0.158,-0.920,-0.346
1775850910107,-0.160,-0.914,-0.365
1775850910127,-0.156,-0.916,-0.380
1775850910147,-0.163,-0.919,-0.378
1775850910166,-0.160,-0.915,-0.371
1775850910186,-0.161,-0.911,-0.372
1775850910206,-0.161,-0.909,-0.362
1775850910226,-0.159,-0.919,-0.354
1775850910245,-0.157,-0.906,-0.368
1775850910265,-0.161,-0.896,-0.386
1775850910285,-0.158,-0.890,-0.408
1775850910305,-0.163,-0.900,-0.416
1775850910324,-0.165,-0.900,-0.414
1775850910344,-0.164,-0.898,-0.426
1775850910364,-0.163,-0.899,-0.441
1775850910384,-0.169,-0.891,-0.443
1775850910403,-0.172,-0.885,-0.437
1775850910423,-0.176,-0.895,-0.435
1775850910443,-0.180,-0.888,-0.437
1775850910463,-0.181,-0.872,-0.445
1775850910483,-0.189,-0.881,-0.447
1775850910502,-0.197,-0.885,-0.446
1775850910522,-0.197,-0.887,-0.451
1775850910542,-0.202,-0.876,-0.447
1775850910562,-0.207,-0.892,-0.444
1775850910581,-0.212,-0.897,-0.436
1775850910601,-0.208,-0.898,-0.435
1775850910621,-0.205,-0.888,-0.447
1775850910641,-0.197,-0.890,-0.450
1775850910660,-0.194,-0.885,-0.445
1775850910680,-0.194,-0.877,-0.464
1775850910700,-0.188,-0.865,-0.468
1775850910720,-0.188,-0.872,-0.466
1775850910739,-0.189,-0.862,-0.481
1775850910759,-0.191,-0.852,-0.494
1775850910779,-0.187,-0.858,-0.496
1775850910799,-0.189,-0.862,-0.485
1775850910818,-0.185,-0.869,-0.494
1775850910838,-0.193,-0.861,-0.500
1775850910858,-0.186,-0.873,-0.491
1775850910878,-0.186,-0.878,-0.479
1775850910898,-0.180,-0.867,-0.480
1775850910917,-0.170,-0.866,-0.481
1775850910937,-0.169,-0.857,-0.466
1775850910957,-0.168,-0.843,-0.472
1775850910977,-0.169,-0.840,-0.488
1775850910996,-0.167,-0.842,-0.493
1775850911016,-0.169,-0.842,-0.479
1775850911036,-0.172,-0.847,-0.484
1775850911056,-0.181,-0.842,-0.485
1775850911075,-0.187,-0.869,-0.460
1775850911095,-0.199,-0.876,-0.441
1775850911115,-0.208,-0.858,-0.454
1775850911135,-0.207,-0.876,-0.458
1775850911154,-0.214,-0.879,-0.439
1775850911174,-0.216,-0.868,-0.448
1775850911194,-0.212,-0.859,-0.471
1775850911214,-0.207,-0.840,-0.484
1775850911233,-0.218,-0.839,-0.502
1775850911253,-0.215,-0.834,-0.507
1775850911273,-0.223,-0.827,-0.523
1775850911293,-0.218,-0.819,-0.536
1775850911312,-0.219,-0.819,-0.551
1775850911332,-0.230,-0.815,-0.555
1775850911352,-0.236,-0.829,-0.550
1775850911372,-0.240,-0.819,-0.548
1775850911392,-0.248,-0.824,-0.555
1775850911411,-0.253,-0.823,-0.558
1775850911431,-0.258,-0.822,-0.551
1775850911451,-0.259,-0.821,-0.554
1775850911471,-0.257,-0.808,-0.561
1775850911490,-0.260,-0.809,-0.558
1775850911510,-0.259,-0.809,-0.556
1775850911530,-0.260,-0.813,-0.557
1775850911550,-0.257,-0.810,-0.560
1775850911569,-0.261,-0.818,-0.549
1775850911589,-0.260,-0.811,-0.540
1775850911609,-0.256,-0.818,-0.530
1775850911629,-0.259,-0.815,-0.517
1775850911648,-0.265,-0.836,-0.512
1775850911668,-0.271,-0.875,-0.506
1775850911688,-0.271,-0.883,-0.492
1775850911708,-0.259,-0.897,-0.477
1775850911727,-0.257,-0.866,-0.469
1775850911747,-0.247,-0.878,-0.463
1775850911767,-0.239,-0.870,-0.440
1775850911787,-0.226,-0.864,-0.427
1775850911807,-0.223,-0.854,-0.423
1775850911826,-0.218,-0.865,-0.410
1775850911846,-0.214,-0.880,-0.392
1775850911866,-0.208,-0.882,-0.384
1775850911886,-0.208,-0.880,-0.382
1775850911905,-0.201,-0.895,-0.374
1775850911925,-0.197,-0.893,-0.364
1775850911945,-0.193,-0.887,-0.373
1775850911965,-0.185,-0.886,-0.379
1775850911984,-0.185,-0.898,-0.370
1775850912004,-0.182,-0.906,-0.375
1775850912024,-0.175,-0.906,-0.378
1775850912044,-0.177,-0.910,-0.380
1775850912063,-0.165,-0.912,-0.389
1775850912083,-0.166,-0.916,-0.398
1775850912103,-0.166,-0.932,-0.388
1775850912123,-0.163,-0.923,-0.388
1775850912142,-0.154,-0.916,-0.396
1775850912162,-0.152,-0.904,-0.389
1775850912182,-0.147,-0.918,-0.381
1775850912202,-0.139,-0.916,-0.371
1775850912222,-0.135,-0.905,-0.362
1775850912241,-0.127,-0.917,-0.354
1775850912261,-0.117,-0.964,-0.348
1775850912281,-0.101,-0.991,-0.339
1775850912301,-0.083,-0.993,-0.337
1775850912320,-0.058,-0.966,-0.341
1775850912340,-0.041,-0.944,-0.360
1775850912360,-0.029,-0.949,-0.384
1775850912380,-0.013,-0.956,-0.384
1775850912399,-0.001,-0.948,-0.381
1775850912419,0.002,-0.925,-0.385
1775850912439,0.005,-0.903,-0.387
1775850912459,0.004,-0.927,-0.372
1775850912478,0.010,-0.930,-0.353
1775850912498,0.013,-0.903,-0.346
1775850912518,0.009,-0.907,-0.352
1775850912538,0.022,-1.006,-0.351
1775850912557,0.001,-0.992,-0.359
1775850912577,0.005,-0.892,-0.364
1775850912597,0.015,-0.935,-0.373
1775850912617,0.000,-0.854,-0.368
1775850912637,-0.009,-0.884,-0.389
1775850912656,-0.023,-0.878,-0.390
1775850912676,-0.035,-0.902,-0.371
1775850912696,-0.043,-0.911,-0.379
1775850912716,-0.057,-0.933,-0.395
1775850912735,-0.061,-0.926,-0.396
1775850912755,-0.065,-0.924,-0.409
1775850912775,-0.071,-0.928,-0.421
1775850912795,-0.075,-0.931,-0.422
1775850912814,-0.082,-0.925,-0.419
1775850912834,-0.077,-0.912,-0.411
1775850912854,-0.084,-0.899,-0.399
1775850912874,-0.086,-0.892,-0.393
1775850912894,-0.092,-0.884,-0.392
1775850912913,-0.097,-0.895,-0.392
1775850912933,-0.105,-0.923,-0.386
1775850912953,-0.113,-0.914,-0.393
1775850912973,-0.118,-0.909,-0.422
1775850912992,-0.123,-0.921,-0.424
1775850913012,-0.132,-0.918,-0.424
1775850913032,-0.132,-0.917,-0.438
1775850913052,-0.143,-0.896,-0.443
1775850913071,-0.150,-0.902,-0.459
1775850913091,-0.151,-0.919,-0.451
1775850913111,-0.150,-0.943,-0.429
1775850913131,-0.139,-0.950,-0.415
1775850913150,-0.132,-0.931,-0.407
1775850913170,-0.120,-0.899,-0.413
1775850913190,-0.103,-0.901,-0.412
1775850913210,-0.094,-0.890,-0.402
1775850913230,-0.087,-0.891,-0.411
1775850913249,-0.079,-0.876,-0.428
1775850913269,-0.082,-0.881,-0.437
1775850913289,-0.081,-0.892,-0.450
1775850913309,-0.080,-0.889,-0.463
1775850913328,-0.078,-0.884,-0.474
1775850913348,-0.084,-0.881,-0.466
1775850913368,-0.080,-0.879,-0.466
1775850913388,-0.087,-0.886,-0.463
1775850913407,-0.089,-0.890,-0.457
1775850913427,-0.092,-0.885,-0.464
1775850913447,-0.095,-0.887,-0.469
1775850913467,-0.097,-0.880,-0.470
1775850913486,-0.097,-0.889,-0.464
1775850913506,-0.108,-0.891,-0.453
1775850913526,-0.113,-0.884,-0.459
1775850913546,-0.117,-0.896,-0.456
1775850913566,-0.114,-0.912,-0.432
1775850913585,-0.119,-0.884,-0.432
1775850913605,-0.115,-0.886,-0.455
1775850913625,-0.116,-0.907,-0.435
1775850913645,-0.119,-0.908,-0.423
1775850913664,-0.120,-0.897,-0.433
1775850913684,-0.118,-0.894,-0.436
1775850913704,-0.115,-0.899,-0.428
1775850913724,-0.113,-0.902,-0.429
1775850913743,-0.116,-0.903,-0.429
1775850913763,-0.118,-0.903,-0.427
1775850913783,-0.119,-0.897,-0.420
1775850913803,-0.114,-0.901,-0.423
1775850913823,-0.112,-0.911,-0.419
1775850913842,-0.112,-0.913,-0.410
1775850913862,-0.106,-0.904,-0.413
1775850913882,-0.115,-0.910,-0.408
1775850913902,-0.110,-0.911,-0.408
1775850913921,-0.110,-0.910,-0.412
1775850913941,-0.106,-0.907,-0.407
1775850913961,-0.101,-0.912,-0.414
1775850913981,-0.096,-0.907,-0.422
1775850914000,-0.095,-0.906,-0.423
1775850914020,-0.097,-0.913,-0.420
1775850914040,-0.093,-0.912,-0.416
1775850914060,-0.093,-0.905,-0.413
1775850914079,-0.092,-0.903,-0.412
1775850914099,-0.092,-0.906,-0.405
1775850914119,-0.091,-0.906,-0.400
1775850914139,-0.095,-0.908,-0.395
1775850914158,-0.095,-0.914,-0.397
1775850914178,-0.095,-0.919,-0.389
1775850914198,-0.092,-0.896,-0.395
1775850914218,-0.095,-0.907,-0.418
1775850914238,-0.097,-0.930,-0.408
1775850914257,-0.101,-0.915,-0.401
1775850914277,-0.095,-0.910,-0.407
1775850914297,-0.099,-0.906,-0.407
1775850914317,-0.098,-0.911,-0.394
1775850914336,-0.101,-0.910,-0.394
1775850914356,-0.098,-0.910,-0.403
1775850914376,-0.100,-0.916,-0.413
1775850914396,-0.100,-0.908,-0.407
1775850914415,-0.103,-0.901,-0.415
1775850914435,-0.102,-0.905,-0.416
1775850914455,-0.108,-0.913,-0.401
1775850914475,-0.110,-0.911,-0.402
1775850914494,-0.110,-0.906,-0.410
1775850914514,-0.112,-0.908,-0.408
1775850914534,-0.112,-0.913,-0.404
1775850914554,-0.117,-0.910,-0.406
1775850914574,-0.116,-0.904,-0.407
1775850914593,-0.118,-0.903,-0.411
1775850914613,-0.119,-0.909,-0.417
1775850914633,-0.119,-0.911,-0.418
1775850914653,-0.119,-0.911,-0.420
1775850914672,-0.125,-0.910,-0.409
1775850914692,-0.122,-0.900,-0.409
1775850914712,-0.124,-0.902,-0.406
1775850914732,-0.128,-0.904,-0.398
1775850914751,-0.133,-0.903,-0.408
1775850914771,-0.130,-0.911,-0.409
1775850914791,-0.123,-0.915,-0.398
1775850914811,-0.122,-0.900,-0.408
1775850914830,-0.123,-0.906,-0.419
1775850914850,-0.117,-0.911,-0.407
1775850914870,-0.122,-0.913,-0.398
1775850914890,-0.116,-0.913,-0.406
1775850914910,-0.114,-0.912,-0.409
1775850914929,-0.118,-0.917,-0.399
1775850914949,-0.118,-0.913,-0.394
1775850914969,-0.117,-0.915,-0.397
1775850914989,-0.117,-0.916,-0.394
1775850915008,-0.111,-0.905,-0.400
1775850915028,-0.109,-0.907,-0.409
1775850915048,-0.115,-0.916,-0.414
1775850915068,-0.110,-0.926,-0.401
1775850915087,-0.100,-0.915,-0.401
1775850915107,-0.093,-0.909,-0.402
1775850915127,-0.101,-0.899,-0.392
1775850915147,-0.102,-0.893,-0.391
1775850915166,-0.107,-0.890,-0.406
1775850915186,-0.112,-0.891,-0.426
1775850915206,-0.117,-0.886,-0.437
1775850915226,-0.114,-0.880,-0.442
1775850915246,-0.118,-0.869,-0.455
1775850915265,-0.119,-0.870,-0.459
1775850915285,-0.126,-0.864,-0.476
1775850915305,-0.130,-0.873,-0.494
1775850915325,-0.131,-0.868,-0.491
1775850915344,-0.133,-0.856,-0.487
1775850915364,-0.134,-0.850,-0.498
1775850915384,-0.135,-0.832,-0.513
1775850915404,-0.137,-0.843,-0.512
1775850915423,-0.141,-0.840,-0.519
1775850915443,-0.154,-0.874,-0.510
1775850915463,-0.158,-0.853,-0.493
1775850915483,-0.174,-0.830,-0.524
1775850915502,-0.181,-0.859,-0.536
1775850915522,-0.187,-0.868,-0.512
1775850915542,-0.192,-0.857,-0.518
1775850915562,-0.191,-0.821,-0.541
1775850915581,-0.192,-0.823,-0.552
1775850915601,-0.189,-0.828,-0.550
1775850915621,-0.192,-0.824,-0.550
1775850915641,-0.184,-0.825,-0.552
1775850915660,-0.188,-0.820,-0.573
1775850915680,-0.193,-0.821,-0.584
1775850915700,-0.193,-0.841,-0.565
1775850915720,-0.197,-0.852,-0.539
1775850915739,-0.195,-0.846,-0.523
1775850915759,-0.186,-0.842,-0.526
1775850915779,-0.186,-0.827,-0.528
1775850915799,-0.187,-0.823,-0.521
1775850915819,-0.191,-0.836,-0.506
1775850915838,-0.192,-0.847,-0.501
1775850915898,-0.204,-0.847,-0.515
1775850915917,-0.206,-0.865,-0.511
1775850915937,-0.207,-0.864,-0.496
1775850915957,-0.209,-0.863,-0.476
1775850915977,-0.205,-0.859,-0.468
1775850915996,-0.196,-0.859,-0.475
1775850916016,-0.186,-0.863,-0.473
1775850916036,-0.184,-0.855,-0.466
1775850916056,-0.177,-0.845,-0.474
1775850916075,-0.167,-0.851,-0.479
1775850916095,-0.168,-0.862,-0.474
1775850916115,-0.156,-0.871,-0.480
1775850916135,-0.149,-0.839,-0.491
1775850916154,-0.145,-0.853,-0.510
1775850916174,-0.142,-0.864,-0.496
1775850916194,-0.133,-0.849,-0.491
1775850916214,-0.129,-0.838,-0.517
1775850916233,-0.124,-0.823,-0.513
1775850916253,-0.122,-0.835,-0.506
1775850916273,-0.120,-0.834,-0.499
1775850916293,-0.119,-0.814,-0.498
1775850916312,-0.107,-0.811,-0.488
1775850916332,-0.108,-0.797,-0.466
1775850916352,-0.102,-0.779,-0.461
1775850916372,-0.098,-0.797,-0.491
1775850916391,-0.102,-0.808,-0.495
1775850916411,-0.099,-0.786,-0.488
1775850916431,-0.098,-0.812,-0.493
1775850916451,-0.092,-0.807,-0.519
1775850916470,-0.084,-0.785,-0.587
1775850916490,-0.079,-0.792,-0.628
1775850916510,-0.082,-0.769,-0.633
1775850916530,-0.079,-0.749,-0.670
1775850916549,-0.076,-0.741,-0.724
1775850916569,-0.084,-0.726,-0.728
1775850916589,-0.080,-0.728,-0.734
1775850916609,-0.069,-0.708,-0.764
1775850916629,-0.068,-0.691,-0.797
1775850916648,-0.072,-0.699,-0.810
1775850916668,-0.064,-0.688,-0.791
1775850916688,-0.060,-0.682,-0.780
1775850916708,-0.065,-0.662,-0.787
1775850916727,-0.059,-0.675,-0.782
1775850916747,-0.064,-0.645,-0.752
1775850916767,-0.057,-0.636,-0.772
1775850916787,-0.064,-0.626,-0.789
1775850916806,-0.062,-0.638,-0.790
1775850916826,-0.065,-0.648,-0.776
1775850916846,-0.056,-0.644,-0.786
1775850916866,-0.057,-0.646,-0.777
1775850916885,-0.047,-0.629,-0.762
1775850916905,-0.047,-0.617,-0.759
1775850916925,-0.033,-0.632,-0.771
1775850916945,-0.032,-0.625,-0.775
1775850916964,-0.030,-0.618,-0.754
1775850916984,-0.031,-0.622,-0.766
1775850917004,-0.030,-0.644,-0.784
1775850917024,-0.034,-0.644,-0.769
1775850917044,-0.029,-0.631,-0.776
1775850917063,-0.023,-0.629,-0.804
1775850917083,-0.016,-0.634,-0.787
1775850917103,-0.007,-0.624,-0.765
1775850917123,-0.007,-0.614,-0.782
1775850917142,-0.016,-0.607,-0.805
1775850917162,-0.016,-0.603,-0.817
1775850917182,-0.020,-0.616,-0.816
1775850917202,-0.022,-0.632,-0.809
1775850917221,-0.026,-0.613,-0.794
1775850917241,-0.019,-0.603,-0.791
1775850917261,-0.021,-0.600,-0.779
1775850917281,-0.014,-0.602,-0.788
1775850917300,-0.013,-0.591,-0.802
1775850917320,-0.004,-0.588,-0.816
1775850917340,0.001,-0.576,-0.822
1775850917399,0.012,-0.579,-0.865
1775850917419,0.015,-0.595,-0.857
1775850917439,0.018,-0.567,-0.866
1775850917458,0.025,-0.552,-0.880
1775850917478,0.028,-0.569,-0.863
1775850917498,0.037,-0.571,-0.866
1775850917518,0.049,-0.589,-0.874
1775850917537,0.057,-0.574,-0.847
1775850917557,0.074,-0.570,-0.830
1775850917577,0.083,-0.577,-0.807
1775850917597,0.088,-0.564,-0.780
1775850917616,0.093,-0.560,-0.794
1775850917636,0.099,-0.581,-0.820
1775850917656,0.093,-0.579,-0.805
1775850917676,0.089,-0.620,-0.802
1775850917696,0.111,-0.590,-0.847
1775850917715,0.107,-0.581,-0.823
1775850917735,0.119,-0.624,-0.793
1775850917755,0.109,-0.627,-0.775
1775850917775,0.117,-0.595,-0.751
1775850917794,0.123,-0.616,-0.755
1775850917814,0.123,-0.625,-0.740
1775850917834,0.133,-0.592,-0.750
1775850917854,0.136,-0.576,-0.745
1775850917873,0.135,-0.590,-0.745
1775850917893,0.126,-0.609,-0.765
1775850917913,0.143,-0.626,-0.774
1775850917933,0.138,-0.609,-0.807
1775850917952,0.150,-0.612,-0.819
1775850917972,0.156,-0.608,-0.788
1775850917992,0.164,-0.586,-0.793
1775850918012,0.162,-0.608,-0.809
1775850918031,0.160,-0.618,-0.780
1775850918051,0.154,-0.615,-0.763
1775850918071,0.150,-0.603,-0.758
1775850918091,0.153,-0.605,-0.767
1775850918111,0.145,-0.631,-0.752
1775850918130,0.143,-0.650,-0.753
1775850918150,0.141,-0.659,-0.738
1775850918170,0.134,-0.620,-0.717
1775850918190,0.130,-0.636,-0.724
1775850918209,0.135,-0.667,-0.708
1775850918229,0.139,-0.667,-0.699
1775850918249,0.140,-0.656,-0.711
1775850918269,0.145,-0.650,-0.734
1775850918288,0.142,-0.668,-0.733
1775850918308,0.141,-0.670,-0.710
1775850918328,0.148,-0.668,-0.740
1775850918348,0.153,-0.647,-0.760
1775850918367,0.155,-0.654,-0.738
1775850918387,0.148,-0.661,-0.723
1775850918407,0.149,-0.650,-0.729
1775850918427,0.141,-0.647,-0.745
1775850918446,0.147,-0.658,-0.745
1775850918466,0.144,-0.664,-0.739
1775850918486,0.143,-0.661,-0.720
1775850918506,0.141,-0.653,-0.701
1775850918525,0.143,-0.654,-0.687
1775850918545,0.144,-0.659,-0.688
1775850918565,0.146,-0.665,-0.712
1775850918585,0.136,-0.673,-0.711
1775850918605,0.133,-0.673,-0.690
1775850918624,0.140,-0.680,-0.731
1775850918644,0.139,-0.675,-0.748
1775850918664,0.136,-0.666,-0.716
1775850918684,0.135,-0.665,-0.721
1775850918703,0.134,-0.650,-0.734
1775850918723,0.124,-0.662,-0.724
1775850918743,0.122,-0.659,-0.738
1775850918763,0.125,-0.652,-0.754
1775850918782,0.127,-0.663,-0.752
1775850918802,0.123,-0.677,-0.742
1775850918822,0.116,-0.672,-0.745
1775850918842,0.121,-0.666,-0.744
1775850918861,0.115,-0.670,-0.742
1775850918881,0.117,-0.672,-0.724
1775850918901,0.117,-0.668,-0.702
1775850918921,0.129,-0.666,-0.697
1775850918940,0.130,-0.647,-0.705
1775850918960,0.127,-0.653,-0.714
1775850918980,0.137,-0.652,-0.723
1775850919000,0.143,-0.658,-0.733
1775850919019,0.149,-0.654,-0.750
1775850919039,0.149,-0.625,-0.774
1775850919059,0.154,-0.646,-0.782
1775850919079,0.161,-0.647,-0.743
1775850919099,0.155,-0.603,-0.754
1775850919118,0.144,-0.588,-0.795
1775850919138,0.131,-0.615,-0.798
1775850919158,0.116,-0.631,-0.784
1775850919178,0.111,-0.664,-0.772
1775850919197,0.110,-0.678,-0.725
1775850919217,0.115,-0.631,-0.716
1775850919237,0.119,-0.609,-0.757
1775850919257,0.116,-0.632,-0.766
1775850919276,0.116,-0.644,-0.760
1775850919296,0.108,-0.640,-0.760
1775850919316,0.107,-0.618,-0.781
1775850919336,0.094,-0.616,-0.799
1775850919355,0.095,-0.606,-0.775
1775850919375,0.102,-0.590,-0.770
1775850919395,0.100,-0.595,-0.780
1775850919415,0.104,-0.578,-0.781
1775850919434,0.110,-0.579,-0.770
1775850919454,0.111,-0.602,-0.764
1775850919474,0.119,-0.592,-0.788
1775850919494,0.130,-0.590,-0.818
1775850919513,0.124,-0.614,-0.817
1775850919533,0.116,-0.629,-0.809
1775850919553,0.130,-0.611,-0.831
1775850919573,0.136,-0.605,-0.835
1775850919593,0.134,-0.630,-0.813
1775850919612,0.143,-0.630,-0.793
1775850919632,0.146,-0.615,-0.795
1775850919652,0.154,-0.611,-0.774
1775850919672,0.159,-0.617,-0.757
1775850919691,0.178,-0.614,-0.755
1775850919711,0.185,-0.607,-0.753
1775850919731,0.182,-0.609,-0.745
1775850919751,0.192,-0.611,-0.758
1775850919770,0.197,-0.614,-0.762
1775850919790,0.197,-0.621,-0.752
1775850919810,0.203,-0.620,-0.744
1775850919830,0.215,-0.620,-0.747
1775850919849,0.216,-0.612,-0.749
1775850919869,0.223,-0.610,-0.746
1775850919889,0.221,-0.613,-0.746
1775850919909,0.226,-0.613,-0.742
1775850919928,0.227,-0.629,-0.743
1775850919948,0.227,-0.619,-0.738
1775850919968,0.230,-0.606,-0.740
1775850919988,0.231,-0.622,-0.743
1775850920007,0.232,-0.634,-0.743
1775850920027,0.231,-0.629,-0.744
1775850920047,0.239,-0.600,-0.760
1775850920067,0.230,-0.594,-0.764
1775850920086,0.229,-0.614,-0.748
1775850920106,0.226,-0.620,-0.756
1775850920126,0.225,-0.589,-0.771
1775850920146,0.219,-0.604,-0.777
1775850920166,0.212,-0.623,-0.768
1775850920185,0.210,-0.616,-0.768
1775850920205,0.204,-0.623,-0.760
1775850920225,0.195,-0.625,-0.750
1775850920245,0.189,-0.635,-0.738
1775850920264,0.184,-0.639,-0.729
1775850920284,0.185,-0.648,-0.729
1775850920304,0.187,-0.645,-0.727
1775850920324,0.199,-0.628,-0.733
1775850920343,0.208,-0.617,-0.743
1775850920363,0.216,-0.622,-0.747
1775850920383,0.215,-0.614,-0.752
1775850920403,0.222,-0.604,-0.760
1775850920422,0.220,-0.616,-0.771
1775850920442,0.212,-0.614,-0.766
1775850920462,0.210,-0.612,-0.767
1775850920482,0.204,-0.633,-0.755
1775850920501,0.202,-0.628,-0.743
1775850920521,0.190,-0.607,-0.747
1775850920541,0.192,-0.633,-0.755
1775850920561,0.186,-0.651,-0.725
1775850920580,0.187,-0.640,-0.720
1775850920600,0.196,-0.631,-0.758
1775850920620,0.198,-0.630,-0.743
1775850920640,0.194,-0.629,-0.746
1775850920659,0.195,-0.636,-0.738
1775850920679,0.194,-0.626,-0.731
1775850920699,0.200,-0.628,-0.755
1775850920719,0.212,-0.627,-0.758
1775850920738,0.213,-0.616,-0.744
1775850920758,0.209,-0.635,-0.730
1775850920778,0.209,-0.635,-0.732
1775850920798,0.209,-0.633,-0.739
1775850920817,0.213,-0.641,-0.742
1775850920837,0.216,-0.621,-0.754
1775850920857,0.215,-0.626,-0.760
1775850920877,0.211,-0.627,-0.753
1775850920896,0.210,-0.628,-0.753
1775850920916,0.206,-0.629,-0.742
1775850920936,0.201,-0.631,-0.742
1775850920956,0.199,-0.633,-0.732
1775850920976,0.198,-0.629,-0.729
1775850920995,0.200,-0.627,-0.742
1775850921015,0.203,-0.628,-0.751
1775850921035,0.203,-0.623,-0.745
1775850921055,0.200,-0.623,-0.746
1775850921074,0.191,-0.627,-0.750
1775850921094,0.200,-0.633,-0.752
1775850921114,0.190,-0.630,-0.747
1775850921134,0.194,-0.626,-0.748
1775850921153,0.191,-0.630,-0.750
1775850921173,0.197,-0.627,-0.748
1775850921193,0.193,-0.624,-0.754
1775850921213,0.195,-0.628,-0.754
1775850921232,0.199,-0.628,-0.748
1775850921252,0.198,-0.627,-0.755
1775850921272,0.205,-0.642,-0.749
1775850921292,0.207,-0.635,-0.748
1775850921311,0.205,-0.615,-0.765
1775850921331,0.201,-0.630,-0.790
1775850921351,0.193,-0.647,-0.778
1775850921371,0.215,-0.668,-0.750
1775850921391,0.211,-0.667,-0.733
1775850921410,0.203,-0.652,-0.740
1775850921430,0.172,-0.695,-0.712
1775850921450,0.135,-0.733,-0.655
1775850921470,0.111,-0.723,-0.656
1775850921489,0.097,-0.690,-0.700
1775850921509,0.101,-0.652,-0.740
1775850921529,0.088,-0.653,-0.768
1775850921549,0.070,-0.648,-0.764
1775850921568,0.061,-0.635,-0.784
1775850921588,0.061,-0.628,-0.819
1775850921608,0.047,-0.659,-0.804
1775850921628,0.034,-0.665,-0.794
1775850921647,0.019,-0.666,-0.810
1775850921667,0.026,-0.657,-0.813
1775850921687,0.016,-0.667,-0.800
1775850921707,0.003,-0.676,-0.781
1775850921726,-0.007,-0.686,-0.755
1775850921746,-0.010,-0.690,-0.739
1775850921766,-0.012,-0.699,-0.737
1775850921786,-0.010,-0.694,-0.735
1775850921806,-0.002,-0.700,-0.737
1775850921825,-0.009,-0.708,-0.739
1775850921845,-0.016,-0.694,-0.735
1775850921865,-0.014,-0.691,-0.713
1775850921885,-0.011,-0.711,-0.692
1775850921904,-0.014,-0.728,-0.671
1775850921924,-0.020,-0.721,-0.645
1775850921944,-0.023,-0.741,-0.630
1775850921964,-0.026,-0.755,-0.620
1775850921983,-0.035,-0.748,-0.604
1775850922003,-0.031,-0.755,-0.597
1775850922023,-0.028,-0.782,-0.586
1775850922043,-0.033,-0.798,-0.584
1775850922062,-0.031,-0.779,-0.599
1775850922082,-0.025,-0.782,-0.608
1775850922102,-0.009,-0.787,-0.625
1775850922122,0.003,-0.774,-0.657
1775850922141,0.016,-0.807,-0.662
1775850922161,0.019,-0.812,-0.631
1775850922181,0.026,-0.820,-0.595
1775850922201,0.030,-0.826,-0.574
1775850922220,0.043,-0.825,-0.538
1775850922240,0.054,-0.839,-0.502
1775850922260,0.070,-0.844,-0.487
1775850922280,0.097,-0.859,-0.475
1775850922299,0.118,-0.855,-0.462
1775850922319,0.145,-0.833,-0.465
1775850922339,0.159,-0.837,-0.475
1775850922359,0.171,-0.865,-0.456
1775850922378,0.186,-0.870,-0.460
1775850922398,0.199,-0.849,-0.483
1775850922418,0.212,-0.824,-0.496
1775850922438,0.216,-0.843,-0.483
1775850922457,0.221,-0.845,-0.458
1775850922477,0.223,-0.844,-0.444
1775850922497,0.218,-0.865,-0.435
1775850922517,0.215,-0.854,-0.420
1775850922536,0.218,-0.872,-0.418
1775850922556,0.206,-0.894,-0.415
1775850922576,0.199,-0.896,-0.408
1775850922596,0.188,-0.910,-0.386
1775850922615,0.175,-0.917,-0.378
1775850922635,0.159,-0.937,-0.382
1775850922655,0.140,-0.942,-0.354
1775850922675,0.112,-0.952,-0.314
1775850922694,0.092,-0.948,-0.270
1775850922714,0.063,-0.886,-0.291
1775850922734,0.046,-0.841,-0.326
1775850922754,0.014,-0.852,-0.315
1775850922773,-0.009,-0.859,-0.332
1775850922793,-0.013,-0.852,-0.406
1775850922813,-0.019,-0.874,-0.478
1775850922833,-0.031,-0.906,-0.502
1775850922852,-0.030,-0.916,-0.511
1775850922872,-0.038,-0.877,-0.545
1775850922892,-0.042,-0.863,-0.597
1775850922912,-0.052,-0.859,-0.612
1775850922931,-0.073,-0.824,-0.581
1775850922951,-0.089,-0.783,-0.584
1775850922971,-0.117,-0.776,-0.602
1775850922991,-0.154,-0.774,-0.597
1775850923010,-0.176,-0.765,-0.601
1775850923030,-0.196,-0.775,-0.619
1775850923050,-0.218,-0.799,-0.619
1775850923070,-0.237,-0.805,-0.618
1775850923089,-0.246,-0.792,-0.639
1775850923109,-0.244,-0.790,-0.645
1775850923129,-0.247,-0.804,-0.641
1775850923149,-0.242,-0.830,-0.641
1775850923168,-0.232,-0.835,-0.647
1775850923188,-0.223,-0.850,-0.626
1775850923208,-0.212,-0.838,-0.587
1775850923228,-0.196,-0.837,-0.570
1775850923247,-0.177,-0.812,-0.556
1775850923267,-0.160,-0.813,-0.557
1775850923287,-0.137,-0.809,-0.567
1775850923307,-0.116,-0.810,-0.552
1775850923326,-0.097,-0.825,-0.534
1775850923346,-0.084,-0.806,-0.531
1775850923366,-0.078,-0.810,-0.525
1775850923386,-0.075,-0.814,-0.512
1775850923405,-0.070,-0.817,-0.501
1775850923425,-0.067,-0.831,-0.498
1775850923445,-0.056,-0.920,-0.498
1775850923465,-0.051,-0.861,-0.517
1775850923484,-0.047,-0.851,-0.544
1775850923504,-0.044,-0.917,-0.506
1775850923524,-0.038,-0.912,-0.486
1775850923544,-0.026,-0.884,-0.525
1775850923564,-0.013,-0.879,-0.537
1775850923583,-0.001,-0.890,-0.496
1775850923603,0.013,-0.886,-0.477
1775850923623,0.026,-0.857,-0.477
1775850923643,0.045,-0.852,-0.479
1775850923662,0.045,-0.830,-0.478
1775850923682,0.055,-0.840,-0.484
1775850923702,0.055,-0.839,-0.488
1775850923722,0.053,-0.860,-0.502
1775850923741,0.048,-0.871,-0.508
1775850923761,0.049,-0.871,-0.503
1775850923781,0.052,-0.871,-0.497
1775850923801,0.047,-0.881,-0.491
1775850923820,0.048,-0.882,-0.496
1775850923840,0.047,-0.882,-0.492
1775850923860,0.056,-0.870,-0.494
1775850923880,0.058,-0.869,-0.503
1775850923899,0.056,-0.869,-0.505
1775850923919,0.061,-0.888,-0.498
1775850923939,0.060,-0.890,-0.493
1775850923959,0.062,-0.887,-0.488
1775850923978,0.061,-0.877,-0.474
1775850923998,0.066,-0.889,-0.454
1775850924018,0.060,-0.884,-0.413
1775850924038,0.054,-0.891,-0.382
1775850924057,0.057,-0.897,-0.364
1775850924077,0.054,-0.917,-0.366
1775850924097,0.048,-0.874,-0.375
1775850924117,0.043,-0.898,-0.391
1775850924136,0.036,-0.910,-0.389
1775850924156,0.026,-0.926,-0.365
1775850924176,0.024,-0.923,-0.332
1775850924196,0.016,-0.899,-0.329
1775850924215,0.006,-0.921,-0.305
1775850924235,-0.022,-0.965,-0.132
1775850924255,-0.100,-0.983,0.072
1775850924275,-0.173,-0.911,0.143
1775850924294,-0.206,-0.903,0.004
1775850924314,-0.309,-0.960,-0.047
1775850924334,-0.389,-0.966,-0.054
1775850924354,-0.397,-0.914,-0.215
1775850924373,-0.414,-0.941,-0.317
1775850924393,-0.469,-0.994,-0.319
1775850924413,-0.429,-0.910,-0.464
1775850924433,-0.347,-0.837,-0.663
1775850924452,-0.329,-0.950,-0.663
1775850924472,-0.294,-1.002,-0.541
1775850924492,-0.266,-0.945,-0.523
1775850924512,-0.251,-0.927,-0.546
1775850924531,-0.255,-0.923,-0.516
1775850924551,-0.274,-0.974,-0.422
1775850924571,-0.276,-0.948,-0.367
1775850924591,-0.285,-0.941,-0.315
1775850924610,-0.291,-0.933,-0.218
1775850924630,-0.283,-0.892,-0.199
1775850924650,-0.298,-0.910,-0.235
1775850924670,-0.311,-0.951,-0.185
1775850924689,-0.325,-0.954,-0.094
1775850924709,-0.321,-0.893,-0.168
1775850924729,-0.328,-0.921,-0.215
1775850924749,-0.330,-0.940,-0.141
1775850924768,-0.327,-0.911,-0.165
1775850924788,-0.334,-0.944,-0.203
1775850924808,-0.334,-0.942,-0.180
1775850924828,-0.338,-0.937,-0.189
1775850924847,-0.322,-0.924,-0.228
1775850924867,-0.319,-0.926,-0.238
1775850924887,-0.334,-0.951,-0.207
1775850924907,-0.322,-0.938,-0.208
1775850924926,-0.322,-0.917,-0.232
1775850924946,-0.325,-0.937,-0.216
1775850924966,-0.335,-0.953,-0.186
1775850924986,-0.331,-0.929,-0.195
1775850925005,-0.323,-0.931,-0.213
1775850925025,-0.323,-0.955,-0.228
1775850925045,-0.330,-0.971,-0.223
1775850925065,-0.327,-0.948,-0.232
1775850925084,-0.314,-0.950,-0.262
1775850925104,-0.316,-0.985,-0.296
1775850925124,-0.303,-1.012,-0.372
1775850925144,-0.301,-1.002,-0.416
1775850925163,-0.282,-0.953,-0.340
1775850925183,-0.271,-0.956,-0.284
1775850925203,-0.259,-0.955,-0.388
1775850925223,-0.250,-0.977,-0.590
1775850925242,-0.235,-0.895,-0.679
1775850925262,-0.266,-0.862,-0.545
1775850925282,-0.301,-0.939,-0.401
1775850925302,-0.311,-0.971,-0.356
1775850925321,-0.292,-0.918,-0.379
1775850925341,-0.298,-0.919,-0.262
1775850925361,-0.268,-0.922,-0.125
1775850925381,-0.216,-0.894,-0.168
1775850925400,-0.166,-0.909,-0.270
1775850925420,-0.133,-0.926,-0.170
1775850925440,-0.103,-0.921,-0.037
1775850925460,-0.067,-0.921,-0.077
1775850925479,-0.029,-0.932,-0.150
1775850925499,-0.020,-0.918,-0.126
1775850925519,0.005,-0.921,-0.151
1775850925539,0.027,-0.910,-0.227
1775850925558,0.014,-0.919,-0.254
1775850925578,-0.007,-0.971,-0.223
1775850925598,-0.016,-0.994,-0.226
1775850925618,-0.021,-0.983,-0.221
1775850925637,-0.017,-0.958,-0.182
1775850925657,-0.021,-0.944,-0.113
1775850925677,-0.030,-0.937,-0.078
1775850925697,-0.040,-0.942,-0.149
1775850925716,-0.048,-0.963,-0.250
1775850925736,-0.039,-0.980,-0.315
1775850925756,-0.038,-0.963,-0.338
1775850925776,-0.036,-0.946,-0.377
1775850925795,-0.035,-0.952,-0.444
1775850925815,-0.031,-0.960,-0.465
1775850925835,-0.028,-0.954,-0.431
1775850925855,-0.025,-0.948,-0.409
1775850925874,-0.023,-0.941,-0.423
1775850925894,-0.023,-0.914,-0.421
1775850925914,-0.028,-0.911,-0.421
1775850925934,-0.029,-0.921,-0.419
1775850925953,-0.030,-0.924,-0.410
1775850925973,-0.028,-0.927,-0.411
1775850925993,-0.027,-0.919,-0.409
1775850926013,-0.021,-0.913,-0.404
1775850926032,-0.023,-0.918,-0.404
1775850926052,-0.018,-0.914,-0.412
1775850926072,-0.016,-0.917,-0.416
1775850926092,-0.016,-0.911,-0.413
1775850926111,-0.013,-0.911,-0.411
1775850926131,-0.012,-0.908,-0.415
1775850926151,-0.012,-0.906,-0.419
1775850926171,-0.011,-0.906,-0.426
1775850926191,-0.009,-0.910,-0.425
1775850926210,-0.011,-0.916,-0.426
1775850926230,-0.013,-0.909,-0.424
1775850926250,-0.014,-0.905,-0.455
1775850926270,-0.006,-0.923,-0.505
1775850926289,-0.010,-0.970,-0.585
1775850926309,0.001,-0.976,-0.656
1775850926329,0.007,-0.961,-0.639
1775850926349,0.024,-0.967,-0.624
1775850926368,0.036,-0.930,-0.592
1775850926388,0.044,-0.885,-0.463
1775850926408,0.053,-0.880,-0.311
1775850926428,0.058,-0.872,-0.232
1775850926447,0.076,-0.863,-0.189
1775850926467,0.085,-0.877,-0.128
1775850926487,0.085,-0.871,-0.071
1775850926507,0.083,-0.905,-0.098
1775850926526,0.081,-0.942,-0.151
1775850926546,0.070,-0.961,-0.156
1775850926566,0.059,-0.983,-0.131
1775850926586,0.063,-0.991,-0.130
1775850926605,0.050,-0.983,-0.161
1775850926625,0.043,-0.967,-0.187
1775850926645,0.052,-0.995,-0.210
1775850926665,0.051,-1.020,-0.208
1775850926684,0.054,-0.993,-0.198
1775850926704,0.056,-0.978,-0.202
1775850926724,0.056,-0.992,-0.224
1775850926744,0.059,-0.987,-0.216
1775850926763,0.056,-0.975,-0.179
1775850926783,0.056,-0.979,-0.170
1775850926803,0.058,-0.985,-0.195
1775850926823,0.053,-0.976,-0.204
1775850926843,0.045,-0.980,-0.181
1775850926862,0.043,-0.993,-0.162
1775850926882,0.043,-0.990,-0.166
1775850926902,0.049,-0.974,-0.182
1775850926922,0.044,-0.983,-0.180
1775850926941,0.047,-1.002,-0.176
1775850926961,0.049,-0.989,-0.174
1775850926981,0.057,-0.977,-0.159
1775850927001,0.057,-0.970,-0.163
1775850927020,0.066,-0.983,-0.178
1775850927040,0.056,-0.976,-0.162
1775850927060,0.062,-0.979,-0.182
1775850927080,0.074,-1.004,-0.200
1775850927099,0.063,-0.967,-0.235
1775850927119,0.066,-0.992,-0.273
1775850927139,0.064,-1.008,-0.259
1775850927159,0.050,-1.039,-0.245
1775850927178,0.039,-1.030,-0.238
1775850927198,0.053,-0.939,-0.167
1775850927218,0.069,-0.939,-0.041
1775850927238,0.074,-0.979,0.041
1775850927257,0.081,-0.930,0.019
1775850927277,0.078,-0.918,-0.022
1775850927297,0.070,-0.940,-0.107
1775850927317,0.059,-0.997,-0.268
1775850927336,0.071,-1.073,-0.391
1775850927356,0.055,-1.101,-0.390
1775850927376,0.062,-1.060,-0.323
1775850927396,0.062,-1.039,-0.239
1775850927415,0.070,-1.029,-0.165
1775850927435,0.077,-0.944,-0.090
1775850927455,0.087,-0.900,0.016
1775850927475,0.093,-0.846,0.093
1775850927494,0.078,-0.872,0.088
1775850927514,0.037,-0.912,0.007
1775850927534,-0.002,-0.946,-0.149
1775850927554,-0.016,-1.064,-0.349
1775850927573,-0.018,-1.127,-0.471
1775850927593,0.001,-1.111,-0.411
1775850927613,0.029,-1.153,-0.344
1775850927633,0.076,-1.060,-0.342
1775850927652,0.107,-0.963,-0.262
1775850927672,0.115,-0.907,-0.094
1775850927692,0.128,-0.882,0.038
1775850927712,0.125,-0.877,0.045
1775850927731,0.108,-0.907,-0.021
1775850927751,0.070,-0.981,-0.096
1775850927771,0.051,-1.016,-0.173
1775850927791,0.060,-1.051,-0.224
1775850927811,0.054,-1.062,-0.271
1775850927870,0.069,-0.986,-0.131
1775850927890,0.077,-0.950,-0.140
1775850927909,0.081,-0.936,-0.129
1775850927929,0.071,-0.956,-0.108
1775850927949,0.072,-0.986,-0.119
1775850927969,0.064,-0.984,-0.137
1775850927988,0.060,-0.988,-0.154
1775850928008,0.048,-0.991,-0.169
1775850928028,0.047,-1.002,-0.174
1775850928048,0.048,-1.006,-0.172
1775850928067,0.054,-1.015,-0.173
1775850928087,0.056,-0.993,-0.156
1775850928107,0.068,-0.982,-0.156
1775850928127,0.072,-0.993,-0.164
1775850928146,0.075,-0.989,-0.159
1775850928166,0.075,-0.991,-0.162
1775850928186,0.076,-0.978,-0.179
1775850928206,0.077,-0.980,-0.163
1775850928225,0.066,-0.977,-0.143
1775850928245,0.065,-0.992,-0.154
1775850928265,0.070,-0.981,-0.155
1775850928285,0.068,-0.987,-0.154
1775850928304,0.069,-0.971,-0.149
1775850928324,0.066,-1.000,-0.141
1775850928344,0.060,-0.978,-0.147
1775850928364,0.062,-0.988,-0.179
1775850928383,0.054,-0.992,-0.175
1775850928403,0.049,-0.998,-0.150
1775850928423,0.051,-0.997,-0.139
1775850928443,0.053,-0.996,-0.150
1775850928462,0.055,-0.989,-0.145
1775850928482,0.055,-0.980,-0.142
1775850928502,0.057,-0.982,-0.141
1775850928522,0.056,-0.991,-0.139
1775850928541,0.062,-0.984,-0.159
1775850928561,0.059,-0.986,-0.169
1775850928581,0.057,-0.986,-0.161
1775850928601,0.056,-0.995,-0.163
1775850928620,0.057,-0.997,-0.170
1775850928640,0.055,-0.981,-0.171
1775850928660,0.060,-0.990,-0.170
1775850928680,0.061,-0.989,-0.168
1775850928699,0.065,-0.991,-0.166
1775850928719,0.058,-0.985,-0.155
1775850928739,0.060,-0.983,-0.153
1775850928759,0.056,-0.983,-0.150
1775850928778,0.057,-1.000,-0.158
1775850928798,0.057,-1.002,-0.183
1775850928818,0.059,-0.984,-0.182
1775850928838,0.056,-0.991,-0.161
1775850928857,0.054,-0.967,-0.159
1775850928877,0.055,-0.974,-0.186
1775850928897,0.049,-1.002,-0.210
1775850928917,0.048,-0.977,-0.188
1775850928936,0.044,-1.004,-0.179
1775850928956,0.033,-1.005,-0.136
1775850928976,0.011,-1.007,-0.079
1775850928996,-0.019,-0.934,-0.088
1775850929015,-0.036,-0.939,-0.149
1775850929035,-0.032,-1.038,-0.196
1775850929055,-0.014,-1.084,-0.244
1775850929075,0.018,-1.085,-0.259
1775850929094,0.059,-1.025,-0.254
1775850929114,0.085,-0.951,-0.243
1775850929134,0.106,-0.947,-0.213
1775850929154,0.110,-0.965,-0.158
1775850929173,0.095,-0.951,-0.147
1775850929193,0.086,-0.932,-0.147
1775850929213,0.084,-0.979,-0.115
1775850929233,0.074,-0.995,-0.118
1775850929252,0.071,-1.008,-0.167
1775850929272,0.076,-1.009,-0.210
1775850929292,0.079,-1.001,-0.243
1775850929312,0.082,-0.995,-0.248
1775850929331,0.080,-0.975,-0.214
1775850929351,0.081,-0.957,-0.192
1775850929371,0.066,-0.946,-0.173
1775850929391,0.074,-0.987,-0.166
1775850929410,0.067,-0.987,-0.161
1775850929430,0.064,-0.981,-0.185
1775850929450,0.057,-0.992,-0.185
1775850929470,0.055,-0.997,-0.188
1775850929489,0.065,-1.001,-0.215
1775850929509,0.066,-0.993,-0.216
1775850929529,0.071,-0.981,-0.195
1775850929549,0.067,-0.979,-0.177
1775850929568,0.067,-0.977,-0.163
1775850929588,0.068,-0.978,-0.164
1775850929608,0.059,-0.983,-0.196
1775850929628,0.062,-0.989,-0.207
1775850929647,0.063,-0.985,-0.193
1775850929667,0.066,-0.992,-0.198
1775850929687,0.056,-0.982,-0.195
1775850929707,0.062,-0.991,-0.204
1775850929726,0.056,-0.977,-0.197
1775850929746,0.058,-0.983,-0.172
1775850929766,0.053,-0.995,-0.184
1775850929786,0.054,-0.994,-0.194
1775850929805,0.056,-0.984,-0.183
1775850929825,0.055,-0.976,-0.186
1775850929845,0.046,-0.981,-0.180
1775850929865,0.050,-0.999,-0.169
1775850929884,0.051,-0.986,-0.178
1775850929904,0.053,-0.992,-0.196
1775850929924,0.051,-0.987,-0.180
1775850929944,0.048,-0.985,-0.165
1775850929963,0.051,-0.986,-0.163
1775850929983,0.055,-0.988,-0.177
1775850930003,0.048,-0.987,-0.184
1775850930023,0.053,-0.986,-0.180
1775850930042,0.054,-0.988,-0.169
1775850930062,0.059,-0.980,-0.168
1775850930082,0.047,-0.971,-0.159
1775850930102,0.043,-0.998,-0.178
1775850930121,0.042,-0.994,-0.192
1775850930141,0.037,-0.995,-0.178
1775850930161,0.037,-0.991,-0.169
1775850930181,0.032,-0.997,-0.173
1775850930200,0.030,-0.999,-0.170
1775850930220,0.027,-1.001,-0.157
1775850930240,0.018,-0.998,-0.161
1775850930260,0.012,-0.972,-0.123
1775850930279,0.010,-1.002,-0.113
1775850930299,0.011,-0.909,-0.145
1775850930319,-0.005,-0.975,-0.136
1775850930339,-0.013,-0.980,-0.134
1775850930359,-0.012,-0.962,-0.131
1775850930378,-0.008,-0.953,-0.151
1775850930398,0.012,-0.955,-0.195
1775850930418,0.072,-1.027,-0.277
1775850930438,0.140,-1.054,-0.380
1775850930457,0.174,-1.003,-0.442
1775850930477,0.185,-1.035,-0.400
1775850930497,0.194,-1.048,-0.325
1775850930517,0.174,-0.946,-0.292
1775850930536,0.159,-0.940,-0.237
1775850930556,0.139,-0.994,-0.171
1775850930576,0.116,-0.967,-0.152
1775850930596,0.082,-0.950,-0.127
1775850930615,0.056,-0.957,-0.090
1775850930635,0.026,-0.965,-0.087
1775850930655,0.008,-0.959,-0.090
1775850930675,-0.014,-0.988,-0.078
1775850930694,-0.013,-1.016,-0.045
1775850930714,-0.010,-0.998,-0.053
1775850930734,-0.006,-1.011,-0.095
1775850930754,-0.005,-1.016,-0.096
1775850930773,-0.008,-1.007,-0.095
1775850930793,-0.011,-0.999,-0.096
1775850930813,0.003,-1.018,-0.098
1775850930833,0.007,-1.020,-0.104
1775850930852,0.003,-0.994,-0.091
1775850930872,-0.003,-0.990,-0.084
1775850930892,-0.002,-0.993,-0.070
1775850930912,-0.008,-0.982,-0.049
1775850930931,-0.003,-1.003,-0.068
1775850930951,-0.004,-0.972,-0.099
1775850930971,-0.006,-0.943,-0.096
1775850930991,-0.007,-0.935,-0.086
1775850931011,0.032,-1.001,-0.198
1775850931030,0.072,-1.067,-0.307
1775850931050,0.090,-0.990,-0.300
1775850931070,0.116,-1.003,-0.322
1775850931090,0.108,-1.047,-0.302
1775850931109,0.094,-1.032,-0.227
1775850931129,0.068,-0.980,-0.175
1775850931149,0.051,-0.995,-0.151
1775850931169,0.028,-0.977,-0.109
1775850931188,0.008,-0.978,-0.091
1775850931208,0.001,-0.988,-0.065
1775850931228,-0.015,-0.972,-0.060
1775850931248,-0.017,-0.973,-0.077
1775850931267,-0.014,-0.980,-0.065
1775850931287,-0.016,-1.002,-0.069
1775850931307,-0.008,-0.995,-0.071
1775850931327,0.001,-0.978,-0.103
1775850931346,0.027,-0.987,-0.141
1775850931366,0.051,-1.022,-0.147
1775850931386,0.065,-1.026,-0.184
1775850931406,0.064,-1.017,-0.188
1775850931425,0.045,-1.016,-0.147
1775850931445,0.043,-1.037,-0.123
1775850931465,0.030,-0.974,-0.169
1775850931485,0.023,-0.954,-0.162
1775850931504,0.015,-0.996,-0.129
1775850931524,0.014,-1.020,-0.119
1775850931544,0.020,-1.001,-0.138
1775850931564,0.012,-0.986,-0.138
1775850931583,0.013,-0.978,-0.116
1775850931603,0.010,-0.988,-0.100
1775850931623,0.008,-0.988,-0.086
1775850931643,0.010,-1.007,-0.094
1775850931662,0.012,-1.006,-0.110
1775850931682,0.013,-1.004,-0.126
1775850931702,0.010,-1.000,-0.129
1775850931722,0.009,-1.006,-0.120
1775850931742,0.002,-1.001,-0.111
1775850931761,0.009,-0.994,-0.101
1775850931781,0.022,-1.009,-0.104
1775850931801,0.013,-1.005,-0.094
1775850931821,0.020,-1.000,-0.099
1775850931840,0.022,-0.983,-0.104
1775850931860,0.018,-0.985,-0.103
1775850931880,0.015,-1.010,-0.108
1775850931900,0.017,-1.005,-0.119
1775850931919,0.019,-0.995,-0.133
1775850931939,0.022,-0.994,-0.139
1775850931959,0.014,-0.993,-0.125
1775850931979,0.005,-1.004,-0.118
1775850931998,0.007,-0.987,-0.126
1775850932018,0.001,-1.001,-0.130
1775850932038,0.004,-0.999,-0.115
1775850932058,0.002,-1.006,-0.116
1775850932077,0.003,-1.004,-0.117
1775850932097,0.004,-1.003,-0.115
1775850932117,0.012,-0.992,-0.114
1775850932137,0.011,-0.995,-0.118
1775850932156,0.014,-0.998,-0.118
1775850932176,0.007,-1.007,-0.121
1775850932196,0.013,-1.007,-0.116
1775850932216,0.014,-0.991,-0.114
1775850932235,0.008,-0.990,-0.116
1775850932255,0.012,-0.996,-0.122
1775850932275,0.006,-1.001,-0.124
1775850932295,0.007,-1.001,-0.121
1775850932334,0.014,-0.992,-0.128
1775850932354,0.008,-0.998,-0.127
1775850932374,0.001,-0.996,-0.131
1775850932393,0.004,-0.998,-0.122
1775850932413,-0.002,-0.995,-0.116
1775850932433,0.002,-1.005,-0.129
1775850932453,0.006,-1.004,-0.128
1775850932472,0.000,-0.998,-0.121
1775850932492,0.006,-1.000,-0.117
1775850932512,0.004,-0.992,-0.106
1775850932532,0.003,-1.000,-0.088
1775850932552,0.007,-0.998,-0.071
1775850932571,-0.001,-0.988,-0.060
1775850932591,-0.012,-1.000,-0.006
1775850932611,-0.025,-0.983,0.062
1775850932631,-0.039,-0.949,0.101
1775850932650,-0.053,-0.956,0.088
1775850932670,-0.064,-0.949,0.061
1775850932690,-0.081,-0.942,-0.021
1775850932710,-0.084,-0.922,-0.140
1775850932729,-0.088,-0.926,-0.228
1775850932749,-0.093,-0.924,-0.298
1775850932769,-0.084,-0.948,-0.397
1775850932789,-0.066,-0.976,-0.507
1775850932808,-0.047,-0.986,-0.560
1775850932828,-0.032,-0.995,-0.579
1775850932848,-0.026,-0.975,-0.584
1775850932868,-0.013,-0.951,-0.589
1775850932887,-0.002,-0.939,-0.573
1775850932907,0.003,-0.913,-0.524
1775850932927,0.008,-0.897,-0.478
1775850932947,0.022,-0.916,-0.449
1775850932966,0.019,-0.915,-0.397
1775850932986,0.019,-0.897,-0.355
1775850933006,0.027,-0.900,-0.349
1775850933026,0.020,-0.894,-0.345
1775850933046,0.018,-0.897,-0.363
1775850933065,0.013,-0.896,-0.385
1775850933085,0.002,-0.910,-0.385
1775850933105,-0.006,-0.923,-0.357
1775850933125,-0.004,-0.939,-0.348
1775850933144,-0.005,-0.940,-0.369
1775850933164,-0.015,-0.920,-0.391
1775850933184,-0.015,-0.934,-0.396
1775850933204,-0.020,-0.950,-0.379
1775850933223,-0.019,-0.943,-0.386
1775850933243,-0.014,-0.943,-0.385
1775850933263,-0.013,-0.949,-0.372
1775850933283,-0.017,-0.907,-0.368
1775850933302,-0.012,-0.923,-0.387
1775850933322,-0.011,-0.930,-0.390
1775850933342,-0.006,-0.944,-0.383
1775850933362,-0.002,-0.936,-0.388
1775850933381,0.007,-0.921,-0.397
1775850933401,0.016,-0.923,-0.393
1775850933421,0.015,-0.928,-0.392
1775850933441,0.022,-0.918,-0.387
1775850933460,0.027,-0.936,-0.376
1775850933480,0.026,-0.930,-0.372
1775850933500,0.035,-0.935,-0.380
1775850933520,0.036,-0.942,-0.363
1775850933540,0.046,-0.955,-0.342
1775850933559,0.056,-0.938,-0.336
1775850933579,0.067,-0.937,-0.333
1775850933599,0.071,-0.923,-0.317
1775850933619,0.074,-0.907,-0.309
1775850933638,0.069,-0.907,-0.317
1775850933658,0.067,-0.909,-0.321
1775850933678,0.061,-0.913,-0.319
1775850933698,0.057,-0.906,-0.340
1775850933717,0.050,-0.926,-0.348
1775850933737,0.042,-0.934,-0.346
1775850933757,0.032,-0.936,-0.360
1775850933777,0.028,-0.940,-0.374
1775850933796,0.019,-0.943,-0.366
1775850933816,0.018,-0.949,-0.364
1775850933836,0.010,-0.931,-0.374
1775850933856,-0.003,-0.931,-0.381
1775850933875,-0.009,-0.929,-0.382
1775850933895,-0.019,-0.951,-0.370
1775850933915,-0.025,-0.922,-0.367
1775850933935,-0.035,-0.913,-0.370
1775850933955,-0.039,-0.928,-0.368
1775850933974,-0.048,-0.923,-0.367
1775850933994,-0.053,-0.932,-0.369
1775850934014,-0.053,-0.921,-0.372
1775850934034,-0.050,-0.927,-0.377
1775850934053,-0.051,-0.920,-0.371
1775850934073,-0.045,-0.917,-0.380
1775850934093,-0.050,-0.919,-0.391
1775850934113,-0.049,-0.912,-0.399
1775850934132,-0.055,-0.916,-0.414
1775850934152,-0.058,-0.923,-0.401
1775850934172,-0.061,-0.928,-0.393
1775850934192,-0.072,-0.923,-0.393
1775850934211,-0.079,-0.911,-0.401
1775850934231,-0.084,-0.919,-0.413
1775850934251,-0.094,-0.909,-0.417
1775850934271,-0.108,-0.921,-0.414
1775850934290,-0.120,-0.887,-0.424
1775850934310,-0.135,-0.846,-0.449
1775850934330,-0.154,-0.867,-0.471
1775850934350,-0.175,-0.881,-0.476
1775850934369,-0.186,-0.859,-0.499
1775850934389,-0.198,-0.870,-0.528
1775850934409,-0.206,-0.895,-0.530
1775850934429,-0.203,-0.897,-0.517
1775850934448,-0.195,-0.905,-0.516
1775850934468,-0.187,-0.878,-0.522
1775850934488,-0.175,-0.899,-0.506
1775850934508,-0.162,-0.910,-0.482
1775850934528,-0.151,-0.910,-0.459
1775850934547,-0.138,-0.936,-0.436
1775850934567,-0.119,-0.915,-0.429
1775850934587,-0.094,-0.919,-0.450
1775850934607,-0.077,-0.905,-0.422
1775850934626,-0.073,-0.877,-0.401
1775850934646,-0.067,-0.888,-0.420
1775850934666,-0.069,-0.880,-0.416
1775850934686,-0.069,-0.888,-0.399
1775850934705,-0.066,-0.914,-0.406
1775850934725,-0.069,-0.915,-0.420
1775850934745,-0.067,-0.920,-0.420
1775850934765,-0.065,-0.911,-0.418
1775850934784,-0.064,-0.909,-0.430
1775850934804,-0.058,-0.911,-0.424
1775850934824,-0.055,-0.905,-0.419
1775850934844,-0.053,-0.915,-0.408
1775850934863,-0.056,-0.908,-0.387
1775850934883,-0.053,-0.911,-0.386
1775850934903,-0.043,-0.913,-0.387
1775850934923,-0.046,-0.915,-0.385
1775850934943,-0.035,-0.910,-0.390
1775850934962,-0.040,-0.903,-0.386
1775850934982,-0.039,-0.921,-0.377
1775850935002,-0.039,-0.908,-0.388
1775850935022,-0.036,-0.900,-0.374
1775850935041,-0.035,-0.927,-0.356
1775850935061,-0.032,-0.911,-0.352
1775850935081,-0.032,-0.892,-0.375
1775850935101,-0.021,-0.936,-0.405
1775850935120,-0.027,-0.948,-0.413
1775850935140,-0.029,-0.919,-0.418
1775850935160,-0.026,-0.938,-0.457
1775850935180,-0.029,-0.922,-0.458
1775850935199,-0.033,-0.921,-0.425
1775850935219,-0.036,-0.949,-0.423
1775850935239,-0.035,-0.920,-0.415
1775850935259,-0.034,-0.940,-0.369
1775850935278,-0.033,-0.925,-0.370
1775850935298,-0.034,-0.918,-0.378
1775850935318,-0.037,-0.925,-0.368
1775850935338,-0.030,-0.923,-0.369
1775850935358,-0.025,-0.928,-0.358
1775850935377,-0.024,-0.919,-0.364
1775850935397,-0.024,-0.921,-0.374
1775850935417,-0.019,-0.929,-0.372
1775850935437,-0.021,-0.923,-0.384
1775850935456,-0.015,-0.922,-0.402
1775850935476,-0.014,-0.935,-0.400
1775850935496,-0.012,-0.916,-0.400
1775850935516,-0.011,-0.930,-0.409
1775850935535,-0.013,-0.932,-0.402
1775850935555,-0.017,-0.898,-0.400
1775850935575,-0.014,-0.916,-0.396
1775850935595,-0.017,-0.942,-0.392
1775850935614,-0.015,-0.927,-0.407
1775850935634,-0.007,-0.917,-0.416
1775850935654,-0.009,-0.911,-0.411
1775850935674,0.002,-0.906,-0.405
1775850935693,-0.006,-0.905,-0.393
1775850935713,-0.002,-0.891,-0.378
1775850935733,-0.005,-0.913,-0.369
1775850935753,-0.010,-0.899,-0.377
1775850935773,-0.014,-0.895,-0.397
1775850935792,-0.015,-0.918,-0.411
1775850935812,-0.018,-0.926,-0.420
1775850935832,-0.017,-0.926,-0.424
1775850935852,-0.023,-0.919,-0.435
1775850935871,-0.014,-0.917,-0.431
1775850935891,-0.019,-0.923,-0.413
1775850935911,-0.021,-0.917,-0.397
1775850935931,-0.024,-0.923,-0.388
1775850935950,-0.025,-0.912,-0.391
1775850935970,-0.026,-0.912,-0.396
1775850935990,-0.030,-0.917,-0.400
1775850936010,-0.026,-0.919,-0.401
1775850936029,-0.025,-0.917,-0.405
1775850936049,-0.024,-0.912,-0.402
1775850936069,-0.026,-0.909,-0.396
1775850936089,-0.026,-0.910,-0.402
1775850936109,-0.028,-0.908,-0.409
1775850936128,-0.028,-0.912,-0.406
1775850936148,-0.032,-0.912,-0.419
1775850936168,-0.034,-0.922,-0.430
1775850936188,-0.034,-0.923,-0.425
1775850936207,-0.033,-0.916,-0.418
1775850936227,-0.034,-0.918,-0.424
1775850936247,-0.035,-0.925,-0.462
1775850936267,-0.030,-0.968,-0.587
1775850936286,-0.008,-0.985,-0.711
1775850936306,-0.012,-1.005,-0.739
1775850936326,-0.009,-1.000,-0.713
1775850936346,-0.011,-0.975,-0.629
1775850936365,-0.016,-0.911,-0.452
1775850936385,-0.027,-0.884,-0.258
1775850936405,0.004,-0.905,-0.158
1775850936425,0.036,-0.888,-0.094
1775850936445,0.065,-0.878,-0.010
1775850936464,0.076,-0.829,0.024
1775850936484,0.100,-0.886,0.000
1775850936504,0.106,-0.911,-0.026
1775850936524,0.108,-0.963,-0.067
1775850936543,0.105,-0.998,-0.074
1775850936563,0.095,-1.012,-0.037
1775850936583,0.092,-0.975,-0.055
1775850936603,0.100,-0.950,-0.121
1775850936622,0.104,-1.039,-0.126
1775850936642,0.093,-1.012,-0.134
1775850936662,0.090,-0.972,-0.175
1775850936682,0.091,-0.948,-0.236
1775850936702,0.089,-0.950,-0.260
1775850936721,0.098,-0.988,-0.260
1775850936741,0.106,-1.008,-0.265
1775850936761,0.095,-1.033,-0.204
1775850936781,0.089,-1.012,-0.187
1775850936800,0.085,-0.990,-0.145
1775850936820,0.107,-1.017,-0.123
1775850936840,0.113,-0.988,-0.132
1775850936860,0.120,-0.981,-0.180
1775850936879,0.124,-0.955,-0.238
1775850936899,0.115,-0.950,-0.247
1775850936919,0.107,-0.960,-0.211
1775850936939,0.100,-0.983,-0.199
1775850936958,0.111,-0.993,-0.200
1775850936978,0.106,-1.006,-0.163
1775850936998,0.103,-0.984,-0.130
1775850937018,0.105,-0.982,-0.168
1775850937037,0.099,-0.957,-0.184
1775850937057,0.108,-0.975,-0.157
1775850937077,0.103,-0.987,-0.203
1775850937097,0.099,-1.017,-0.239
1775850937117,0.100,-0.966,-0.206
1775850937136,0.099,-0.976,-0.178
1775850937156,0.096,-0.973,-0.179
1775850937176,0.100,-0.982,-0.175
1775850937196,0.087,-0.975,-0.180
1775850937215,0.092,-0.972,-0.198
1775850937235,0.094,-0.995,-0.192
1775850937255,0.085,-0.978,-0.202
1775850937275,0.089,-0.988,-0.187
1775850937294,0.089,-0.972,-0.182
1775850937314,0.090,-0.979,-0.201
1775850937334,0.087,-0.976,-0.187
1775850937354,0.090,-0.984,-0.181
1775850937373,0.092,-0.980,-0.209
1775850937393,0.090,-0.981,-0.216
1775850937413,0.086,-0.981,-0.205
1775850937433,0.083,-0.982,-0.197
1775850937452,0.088,-0.989,-0.213
1775850937472,0.082,-0.980,-0.218
1775850937492,0.079,-0.971,-0.207
1775850937512,0.079,-0.989,-0.207
1775850937532,0.081,-0.990,-0.220
1775850937551,0.087,-0.975,-0.215
1775850937571,0.082,-0.987,-0.186
1775850937591,0.081,-0.980,-0.173
1775850937611,0.073,-0.968,-0.192
1775850937630,0.078,-0.985,-0.210
1775850937650,0.071,-0.997,-0.198
1775850937670,0.074,-0.993,-0.190
1775850937690,0.068,-0.983,-0.190
1775850937709,0.071,-0.984,-0.185
1775850937729,0.074,-0.983,-0.192
1775850937749,0.076,-0.973,-0.197
1775850937769,0.074,-0.983,-0.194
1775850937788,0.075,-0.978,-0.197
1775850937808,0.080,-0.986,-0.207
1775850937828,0.077,-0.986,-0.216
1775850937848,0.080,-0.981,-0.200
1775850937867,0.080,-0.985,-0.203
1775850937887,0.085,-0.981,-0.215
1775850937907,0.084,-0.977,-0.205
1775850937927,0.083,-0.985,-0.196
1775850937946,0.084,-0.983,-0.190
1775850937966,0.081,-0.983,-0.199
1775850937986,0.084,-0.978,-0.195
1775850938006,0.081,-0.980,-0.183
1775850938025,0.081,-0.979,-0.180
1775850938045,0.080,-0.981,-0.179
1775850938065,0.080,-0.987,-0.188
1775850938085,0.077,-0.977,-0.206
1775850938104,0.088,-0.987,-0.223
1775850938124,0.082,-0.992,-0.215
1775850938144,0.083,-0.985,-0.220
1775850938164,0.085,-0.978,-0.208
1775850938183,0.088,-0.988,-0.197
1775850938203,0.087,-0.969,-0.185
1775850938223,0.085,-0.975,-0.192
1775850938243,0.082,-0.980,-0.186
1775850938262,0.080,-0.987,-0.171
1775850938282,0.073,-0.988,-0.167
1775850938342,0.075,-0.983,-0.165
1775850938361,0.068,-0.976,-0.118
1775850938381,0.067,-0.969,-0.047
1775850938401,0.059,-0.952,0.036
1775850938421,0.033,-0.947,0.052
1775850938440,0.000,-0.927,-0.037
1775850938460,-0.006,-0.919,-0.136
1775850938480,-0.018,-0.922,-0.187
1775850938500,-0.020,-0.937,-0.249
1775850938519,-0.026,-0.953,-0.343
1775850938539,-0.022,-0.980,-0.427
1775850938559,-0.023,-0.988,-0.454
1775850938579,-0.025,-0.989,-0.459
1775850938598,-0.024,-0.972,-0.497
1775850938618,-0.024,-0.960,-0.519
1775850938638,-0.022,-0.955,-0.492
1775850938658,-0.021,-0.942,-0.466
1775850938677,-0.020,-0.928,-0.459
1775850938697,-0.012,-0.917,-0.452
1775850938717,-0.015,-0.921,-0.428
1775850938737,-0.013,-0.915,-0.401
1775850938756,-0.018,-0.918,-0.405
1775850938776,-0.018,-0.932,-0.407
1775850938796,-0.024,-0.925,-0.405
1775850938816,-0.024,-0.909,-0.407
1775850938835,-0.022,-0.934,-0.411
1775850938855,-0.022,-0.942,-0.387
1775850938875,-0.024,-0.942,-0.373
1775850938895,-0.020,-0.922,-0.381
1775850938914,-0.018,-0.922,-0.389
1775850938934,-0.017,-0.929,-0.388
1775850938954,-0.014,-0.928,-0.385
1775850938974,-0.010,-0.938,-0.372
1775850938994,-0.012,-0.930,-0.355
1775850939013,-0.006,-0.933,-0.345
1775850939033,-0.010,-0.928,-0.343
1775850939053,-0.009,-0.928,-0.345
1775850939073,-0.011,-0.928,-0.356
1775850939092,-0.010,-0.934,-0.363
1775850939112,-0.008,-0.929,-0.361
1775850939132,-0.004,-0.936,-0.352
1775850939152,-0.004,-0.934,-0.346
1775850939171,-0.002,-0.927,-0.350
1775850939191,-0.002,-0.929,-0.357
1775850939211,-0.002,-0.925,-0.363
1775850939231,-0.001,-0.931,-0.367
1775850939250,-0.005,-0.937,-0.365
1775850939270,-0.004,-0.934,-0.367
1775850939290,-0.005,-0.929,-0.375
1775850939310,-0.008,-0.940,-0.373
1775850939329,-0.009,-0.934,-0.379
1775850939349,-0.009,-0.932,-0.374
1775850939369,-0.006,-0.950,-0.355
1775850939389,-0.008,-0.920,-0.356
1775850939408,-0.007,-0.922,-0.371
1775850939428,-0.008,-0.934,-0.375
1775850939448,-0.010,-0.951,-0.368
1775850939468,-0.008,-0.939,-0.362
1775850939487,-0.009,-0.936,-0.366
1775850939507,-0.005,-0.928,-0.360
1775850939527,-0.009,-0.939,-0.350
1775850939547,-0.002,-0.936,-0.355
1775850939566,-0.001,-0.929,-0.365
1775850939586,-0.001,-0.922,-0.364
1775850939606,-0.002,-0.935,-0.362
1775850939626,-0.002,-0.931,-0.364
1775850939645,0.001,-0.936,-0.367
1775850939665,-0.003,-0.934,-0.361
1775850939685,-0.002,-0.935,-0.374
1775850939705,-0.001,-0.935,-0.369
1775850939724,0.001,-0.939,-0.365
1775850939744,0.002,-0.934,-0.363
1775850939764,-0.001,-0.931,-0.361
1775850939784,-0.002,-0.931,-0.358
1775850939803,0.000,-0.933,-0.361
1775850939823,-0.002,-0.940,-0.356
1775850939843,-0.005,-0.937,-0.360
1775850939863,-0.005,-0.929,-0.364
1775850939883,-0.001,-0.926,-0.367
1775850939902,0.004,-0.932,-0.368
1775850939922,0.000,-0.944,-0.372
1775850939942,-0.003,-0.932,-0.371
1775850939962,0.001,-0.933,-0.367
1775850939981,0.004,-0.948,-0.355
1775850940001,0.005,-0.922,-0.368
1775850940021,0.003,-0.924,-0.371
1775850940041,0.000,-0.931,-0.372
1775850940060,-0.003,-0.943,-0.366
1775850940080,0.000,-0.932,-0.372
1775850940100,0.008,-0.931,-0.371
1775850940120,0.006,-0.935,-0.363
1775850940139,0.007,-0.938,-0.359
1775850940159,0.006,-0.932,-0.357
1775850940179,0.008,-0.937,-0.358
1775850940199,0.006,-0.927,-0.360
1775850940218,0.009,-0.932,-0.366
1775850940238,0.004,-0.929,-0.367
1775850940258,0.008,-0.938,-0.372
1775850940278,0.004,-0.936,-0.372
1775850940297,0.012,-0.926,-0.373
1775850940317,0.008,-0.931,-0.362
1775850940337,0.006,-0.931,-0.359
1775850940357,0.006,-0.934,-0.366
1775850940376,0.005,-0.934,-0.371
1775850940396,0.004,-0.936,-0.374
1775850940416,0.002,-0.933,-0.373
1775850940436,0.006,-0.930,-0.365
1775850940455,-0.001,-0.937,-0.366
1775850940475,0.001,-0.933,-0.364
1775850940495,0.001,-0.934,-0.368
1775850940515,0.002,-0.933,-0.365
1775850940534,-0.001,-0.930,-0.367
1775850940554,-0.003,-0.927,-0.367
1775850940574,-0.002,-0.936,-0.366
1775850940594,-0.004,-0.933,-0.367
1775850940613,-0.003,-0.939,-0.362
1775850940633,-0.002,-0.948,-0.351
1775850940653,-0.001,-0.920,-0.369
1775850940673,-0.002,-0.932,-0.375
1775850940693,-0.008,-0.938,-0.363
1775850940712,-0.005,-0.943,-0.365
1775850940732,-0.009,-0.938,-0.364
1775850940752,-0.003,-0.934,-0.358
1775850940772,0.000,-0.940,-0.355
1775850940791,-0.002,-0.937,-0.351
1775850940811,0.000,-0.945,-0.352
1775850940831,0.002,-0.940,-0.350
1775850940851,0.000,-0.930,-0.356
1775850940870,-0.002,-0.936,-0.363
1775850940890,0.001,-0.941,-0.361
1775850940910,0.002,-0.942,-0.354
1775850940930,0.001,-0.934,-0.349
1775850940949,0.005,-0.930,-0.356
1775850940969,0.005,-0.935,-0.352
1775850940989,0.004,-0.941,-0.353
1775850941009,0.001,-0.933,-0.359
1775850941028,0.001,-0.931,-0.361
1775850941048,0.000,-0.935,-0.352
1775850941068,-0.005,-0.933,-0.346
1775850941088,-0.001,-0.936,-0.349
1775850941107,-0.002,-0.935,-0.363
1775850941127,-0.003,-0.941,-0.371
1775850941147,-0.007,-0.936,-0.373
1775850941167,-0.006,-0.940,-0.360
1775850941186,-0.008,-0.934,-0.351
1775850941206,0.002,-0.939,-0.353
1775850941226,-0.003,-0.933,-0.359
1775850941246,-0.005,-0.933,-0.360
1775850941266,-0.004,-0.932,-0.354
1775850941285,-0.014,-0.954,-0.336
1775850941305,-0.007,-0.925,-0.346
1775850941325,-0.004,-0.933,-0.377
1775850941345,-0.011,-0.950,-0.361
1775850941364,-0.011,-0.940,-0.359
1775850941384,-0.001,-0.936,-0.361
1775850941404,-0.008,-0.931,-0.355
1775850941424,-0.010,-0.933,-0.358
1775850941443,-0.008,-0.938,-0.359
1775850941463,-0.009,-0.936,-0.363
1775850941483,-0.007,-0.942,-0.367
1775850941503,-0.010,-0.928,-0.370
1775850941522,-0.009,-0.934,-0.372
1775850941542,-0.013,-0.943,-0.362
1775850941562,-0.010,-0.940,-0.361
1775850941582,-0.005,-0.932,-0.362
1775850941601,-0.006,-0.927,-0.362
1775850941621,-0.005,-0.935,-0.365
1775850941641,-0.009,-0.935,-0.354
1775850941661,-0.010,-0.941,-0.355
1775850941680,-0.008,-0.936,-0.359
1775850941700,-0.009,-0.932,-0.368
1775850941720,-0.002,-0.935,-0.381
1775850941740,-0.001,-0.934,-0.375
1775850941759,-0.003,-0.930,-0.368
1775850941779,-0.001,-0.930,-0.373
1775850941799,0.000,-0.931,-0.372
1775850941819,-0.002,-0.936,-0.357
1775850941838,-0.007,-0.942,-0.349
1775850941858,-0.004,-0.932,-0.362
1775850941878,-0.001,-0.926,-0.356
1775850941898,-0.010,-0.928,-0.355
1775850941917,-0.003,-0.936,-0.371
1775850941937,-0.007,-0.956,-0.349
1775850941957,-0.005,-0.900,-0.359
1775850941977,-0.001,-0.922,-0.381
1775850941997,-0.012,-0.937,-0.375
1775850942016,-0.016,-0.942,-0.384
1775850942036,-0.013,-0.935,-0.374
1775850942056,-0.013,-0.933,-0.373
1775850942076,-0.010,-0.938,-0.371
1775850942095,-0.007,-0.933,-0.364
1775850942115,-0.005,-0.918,-0.372
1775850942135,-0.009,-0.933,-0.374
1775850942155,-0.008,-0.927,-0.369
1775850942174,-0.007,-0.936,-0.380
1775850942194,-0.006,-0.930,-0.376
1775850942214,-0.008,-0.926,-0.378
1775850942234,-0.009,-0.920,-0.384
1775850942253,-0.013,-0.926,-0.382
1775850942273,-0.017,-0.928,-0.373
1775850942293,-0.014,-0.938,-0.376
1775850942313,-0.020,-0.934,-0.380
1775850942332,-0.020,-0.921,-0.382
1775850942352,-0.021,-0.924,-0.389
1775850942372,-0.019,-0.932,-0.385
1775850942392,-0.027,-0.935,-0.380
1775850942411,-0.025,-0.925,-0.393
1775850942431,-0.027,-0.923,-0.397
1775850942451,-0.025,-0.926,-0.393
1775850942471,-0.021,-0.925,-0.392
1775850942491,-0.023,-0.926,-0.384
1775850942510,-0.018,-0.931,-0.374
1775850942530,-0.016,-0.926,-0.386
1775850942550,-0.012,-0.928,-0.396
1775850942570,-0.014,-0.935,-0.387
1775850942589,-0.012,-0.922,-0.389
1775850942609,-0.012,-0.905,-0.396
1775850942629,-0.009,-0.919,-0.389
1775850942649,-0.014,-0.930,-0.373
1775850942668,-0.016,-0.919,-0.395
1775850942688,-0.015,-0.905,-0.410
1775850942708,-0.016,-0.922,-0.401
1775850942728,-0.013,-0.919,-0.406
1775850942747,-0.006,-0.915,-0.409
1775850942767,-0.002,-0.924,-0.400
1775850942787,-0.002,-0.927,-0.398
1775850942807,-0.002,-0.918,-0.407
1775850942826,0.002,-0.926,-0.407
1775850942846,-0.002,-0.933,-0.390
1775850942866,-0.001,-0.923,-0.386
1775850942886,-0.003,-0.918,-0.383
1775850942905,0.000,-0.922,-0.370
1775850942925,-0.004,-0.923,-0.365
1775850942945,0.003,-0.926,-0.367
1775850942965,0.004,-0.926,-0.378
1775850942985,0.005,-0.919,-0.383
1775850943004,0.001,-0.930,-0.382
1775850943024,-0.002,-0.936,-0.375
1775850943044,-0.005,-0.937,-0.367
1775850943064,-0.002,-0.934,-0.368
1775850943083,0.002,-0.923,-0.378
1775850943103,-0.002,-0.924,-0.386
1775850943123,-0.006,-0.926,-0.382
1775850943143,-0.012,-0.926,-0.379
1775850943162,-0.009,-0.939,-0.370
1775850943182,-0.007,-0.932,-0.367
1775850943202,-0.006,-0.922,-0.375
1775850943222,-0.007,-0.938,-0.367
1775850943241,0.000,-0.929,-0.372
1775850943261,-0.004,-0.905,-0.393
1775850943281,-0.003,-0.924,-0.403
1775850943301,-0.002,-0.926,-0.405
1775850943320,0.000,-0.924,-0.403
1775850943340,0.003,-0.922,-0.397
1775850943360,0.005,-0.923,-0.397
1775850943380,0.002,-0.927,-0.379
1775850943399,-0.006,-0.925,-0.381
1775850943419,0.002,-0.924,-0.379
1775850943439,0.000,-0.929,-0.372
1775850943459,-0.004,-0.917,-0.380
1775850943479,-0.012,-0.927,-0.377
1775850943498,-0.006,-0.930,-0.373
1775850943518,-0.006,-0.937,-0.373
1775850943538,-0.004,-0.925,-0.376
1775850943558,0.001,-0.930,-0.380
1775850943577,-0.001,-0.938,-0.372
1775850943597,0.004,-0.933,-0.373
1775850943617,0.001,-0.925,-0.379
1775850943637,0.002,-0.925,-0.379
1775850943656,0.002,-0.933,-0.377
1775850943676,0.000,-0.922,-0.384
1775850943696,-0.001,-0.921,-0.381
1775850943716,-0.004,-0.931,-0.374
1775850943735,-0.008,-0.940,-0.374
1775850943755,-0.011,-0.936,-0.359
1775850943775,-0.007,-0.933,-0.362
1775850943795,-0.011,-0.925,-0.366
1775850943814,-0.014,-0.934,-0.357
1775850943834,-0.012,-0.944,-0.353
1775850943854,-0.013,-0.928,-0.367
1775850943874,-0.009,-0.925,-0.380
1775850943894,-0.011,-0.939,-0.378
1775850943913,-0.010,-0.921,-0.381
1775850943933,-0.009,-0.923,-0.392
1775850943953,-0.009,-0.938,-0.387
1775850943973,-0.003,-0.938,-0.372
1775850943992,0.000,-0.932,-0.376
1775850944012,0.004,-0.927,-0.383
1775850944032,0.008,-0.926,-0.393
1775850944052,0.014,-0.930,-0.369
1775850944071,0.009,-0.907,-0.370
1775850944091,0.009,-0.923,-0.391
1775850944111,-0.001,-0.918,-0.373
1775850944131,-0.003,-0.921,-0.363
1775850944150,-0.006,-0.916,-0.372
1775850944170,-0.010,-0.928,-0.371
1775850944190,-0.016,-0.916,-0.368
1775850944210,-0.019,-0.926,-0.361
1775850944230,-0.025,-0.924,-0.364
1775850944249,-0.030,-0.935,-0.378
1775850944269,-0.035,-0.944,-0.366
1775850944289,-0.040,-0.942,-0.366
1775850944309,-0.034,-0.927,-0.400
1775850944328,-0.032,-0.924,-0.416
1775850944348,-0.025,-0.931,-0.415
1775850944368,-0.014,-0.916,-0.424
1775850944388,-0.012,-0.909,-0.433
1775850944407,-0.003,-0.905,-0.430
1775850944427,0.001,-0.915,-0.433
1775850944447,0.009,-0.902,-0.438
1775850944467,0.020,-0.903,-0.438
1775850944486,0.020,-0.923,-0.428
1775850944506,0.025,-0.905,-0.433
1775850944526,0.030,-0.902,-0.429
1775850944546,0.027,-0.922,-0.416
1775850944565,0.018,-0.892,-0.416
1775850944585,0.017,-0.890,-0.446
1775850944605,0.019,-0.905,-0.446
1775850944625,0.019,-0.926,-0.430
1775850944645,0.020,-0.909,-0.418
1775850944664,0.024,-0.920,-0.405
1775850944684,0.026,-0.905,-0.393
1775850944704,0.025,-0.907,-0.392
1775850944724,0.020,-0.907,-0.405
1775850944743,0.028,-0.910,-0.406
1775850944763,0.010,-0.911,-0.393
1775850944783,0.008,-0.920,-0.382
1775850944803,0.005,-0.910,-0.396
1775850944822,-0.009,-0.904,-0.397
1775850944842,-0.010,-0.919,-0.396
1775850944862,-0.016,-0.917,-0.386
1775850944882,-0.021,-0.920,-0.372
1775850944901,-0.023,-0.923,-0.355
1775850944921,-0.031,-0.919,-0.355
1775850944941,-0.035,-0.917,-0.372
1775850944961,-0.037,-0.911,-0.379
1775850944980,-0.038,-0.921,-0.387
1775850945000,-0.040,-0.936,-0.383
1775850945020,-0.048,-0.934,-0.380
1775850945040,-0.051,-0.921,-0.400
1775850945060,-0.050,-0.921,-0.418
1775850945079,-0.056,-0.926,-0.408
1775850945099,-0.056,-0.921,-0.415
1775850945119,-0.059,-0.927,-0.416
1775850945139,-0.059,-0.912,-0.417
1775850945158,-0.055,-0.916,-0.415
1775850945178,-0.052,-0.929,-0.411
1775850945198,-0.065,-0.897,-0.416
1775850945218,-0.064,-0.899,-0.418
1775850945237,-0.070,-0.898,-0.425
1775850945257,-0.078,-0.912,-0.425
1775850945277,-0.077,-0.915,-0.423
1775850945297,-0.084,-0.912,-0.422
1775850945316,-0.085,-0.921,-0.409
1775850945336,-0.089,-0.921,-0.401
1775850945356,-0.093,-0.924,-0.409
1775850945376,-0.087,-0.921,-0.409
1775850945395,-0.086,-0.927,-0.405
1775850945415,-0.083,-0.918,-0.406
1775850945435,-0.077,-0.918,-0.398
1775850945455,-0.074,-0.920,-0.394
1775850945475,-0.071,-0.904,-0.393
1775850945494,-0.069,-0.912,-0.390
1775850945514,-0.066,-0.909,-0.401
1775850945534,-0.066,-0.915,-0.412
1775850945554,-0.065,-0.922,-0.410
1775850945573,-0.070,-0.920,-0.407
1775850945593,-0.069,-0.921,-0.403
1775850945613,-0.070,-0.918,-0.392
1775850945633,-0.066,-0.918,-0.389
1775850945652,-0.074,-0.920,-0.399
1775850945672,-0.072,-0.917,-0.403
1775850945692,-0.069,-0.919,-0.410
1775850945712,-0.070,-0.907,-0.413
1775850945731,-0.070,-0.920,-0.409
1775850945751,-0.069,-0.925,-0.401
1775850945771,-0.069,-0.913,-0.400
1775850945791,-0.069,-0.917,-0.399
1775850945811,-0.063,-0.931,-0.389
1775850945830,-0.060,-0.905,-0.391
1775850945850,-0.062,-0.909,-0.412
1775850945870,-0.067,-0.912,-0.407
1775850945890,-0.062,-0.917,-0.402
1775850945909,-0.060,-0.917,-0.401
1775850945929,-0.061,-0.908,-0.402
1775850945949,-0.057,-0.916,-0.398
1775850945969,-0.055,-0.913,-0.395
1775850945988,-0.061,-0.924,-0.393
1775850946008,-0.058,-0.917,-0.393
1775850946028,-0.059,-0.919,-0.399
1775850946048,-0.057,-0.921,-0.397
1775850946068,-0.057,-0.916,-0.397
1775850946087,-0.059,-0.929,-0.397
1775850946107,-0.058,-0.920,-0.393
1775850946127,-0.060,-0.918,-0.390
1775850946147,-0.058,-0.912,-0.394
1775850946166,-0.060,-0.925,-0.392
1775850946186,-0.062,-0.925,-0.384
1775850946206,-0.059,-0.915,-0.393
1775850946226,-0.059,-0.922,-0.388
1775850946245,-0.060,-0.918,-0.384
1775850946265,-0.061,-0.925,-0.387
1775850946285,-0.059,-0.918,-0.385
1775850946305,-0.058,-0.916,-0.391
1775850946325,-0.062,-0.919,-0.390
1775850946344,-0.057,-0.920,-0.392
1775850946364,-0.061,-0.924,-0.389
1775850946384,-0.059,-0.923,-0.394
1775850946404,-0.061,-0.923,-0.391
1775850946423,-0.055,-0.931,-0.387
1775850946443,-0.059,-0.913,-0.387
1775850946463,-0.059,-0.907,-0.397
1775850946483,-0.063,-0.929,-0.388
1775850946502,-0.063,-0.920,-0.380
1775850946522,-0.064,-0.924,-0.387
1775850946542,-0.063,-0.914,-0.390
1775850946562,-0.061,-0.919,-0.393
1775850946581,-0.068,-0.925,-0.393
1775850946601,-0.063,-0.921,-0.395
1775850946621,-0.063,-0.932,-0.392
1775850946641,-0.063,-0.917,-0.389
1775850946661,-0.060,-0.918,-0.398
1775850946680,-0.060,-0.925,-0.395
1775850946700,-0.066,-0.918,-0.392
1775850946720,-0.059,-0.919,-0.400
1775850946740,-0.058,-0.917,-0.400
1775850946759,-0.061,-0.921,-0.391
1775850946779,-0.065,-0.922,-0.386
1775850946799,-0.060,-0.918,-0.387
1775850946819,-0.064,-0.921,-0.390
1775850946838,-0.064,-0.916,-0.391
1775850946858,-0.061,-0.925,-0.396
1775850946878,-0.066,-0.919,-0.394
1775850946898,-0.068,-0.918,-0.390
1775850946917,-0.064,-0.924,-0.388
1775850946937,-0.061,-0.921,-0.378
1775850946957,-0.056,-0.922,-0.379
1775850946977,-0.063,-0.921,-0.382
1775850946997,-0.059,-0.927,-0.391
1775850947016,-0.060,-0.920,-0.394
1775850947036,-0.061,-0.921,-0.390
1775850947056,-0.055,-0.926,-0.387
1775850947076,-0.056,-0.901,-0.392
1775850947095,-0.054,-0.912,-0.393
1775850947115,-0.059,-0.921,-0.387
1775850947135,-0.060,-0.924,-0.392
1775850947155,-0.064,-0.913,-0.396
1775850947174,-0.065,-0.913,-0.398
1775850947194,-0.063,-0.919,-0.391
1775850947214,-0.064,-0.926,-0.386
1775850947234,-0.068,-0.915,-0.393
1775850947253,-0.069,-0.924,-0.399
1775850947273,-0.071,-0.918,-0.399
1775850947293,-0.070,-0.919,-0.397
1775850947313,-0.072,-0.910,-0.400
1775850947332,-0.073,-0.924,-0.400
1775850947352,-0.071,-0.919,-0.400
1775850947372,-0.078,-0.915,-0.401
1775850947392,-0.076,-0.917,-0.395
1775850947412,-0.081,-0.915,-0.400
1775850947431,-0.077,-0.922,-0.401
1775850947451,-0.079,-0.915,-0.401
1775850947471,-0.077,-0.920,-0.406
1775850947491,-0.075,-0.912,-0.405
1775850947510,-0.073,-0.919,-0.400
1775850947530,-0.075,-0.918,-0.405
1775850947550,-0.071,-0.918,-0.400
1775850947570,-0.068,-0.918,-0.406
1775850947589,-0.071,-0.914,-0.397
1775850947609,-0.068,-0.917,-0.398
1775850947629,-0.073,-0.913,-0.395
1775850947649,-0.073,-0.912,-0.398
1775850947668,-0.069,-0.921,-0.398
1775850947688,-0.070,-0.928,-0.390
1775850947708,-0.069,-0.911,-0.392
1775850947728,-0.071,-0.924,-0.389
1775850947747,-0.063,-0.924,-0.386
1775850947767,-0.065,-0.906,-0.395
1775850947787,-0.067,-0.920,-0.397
1775850947807,-0.071,-0.916,-0.398
1775850947827,-0.070,-0.925,-0.397
1775850947846,-0.068,-0.917,-0.399
1775850947866,-0.066,-0.914,-0.390
1775850947886,-0.065,-0.919,-0.390
1775850947906,-0.064,-0.921,-0.386
1775850947925,-0.070,-0.913,-0.388
1775850947945,-0.063,-0.931,-0.393
1775850947965,-0.064,-0.921,-0.392
1775850947985,-0.064,-0.919,-0.398
1775850948004,-0.069,-0.917,-0.390
1775850948024,-0.070,-0.923,-0.383
1775850948044,-0.065,-0.923,-0.383
1775850948064,-0.065,-0.922,-0.381
1775850948083,-0.066,-0.926,-0.383
1775850948103,-0.068,-0.937,-0.380
1775850948123,-0.066,-0.929,-0.371
1775850948143,-0.067,-0.930,-0.378
1775850948162,-0.066,-0.924,-0.378
1775850948182,-0.064,-0.920,-0.380
1775850948202,-0.067,-0.913,-0.383
1775850948222,-0.064,-0.916,-0.378
1775850948242,-0.069,-0.924,-0.381
1775850948261,-0.067,-0.917,-0.384
1775850948281,-0.068,-0.918,-0.390
1775850948301,-0.061,-0.920,-0.392
1775850948321,-0.060,-0.923,-0.397
1775850948340,-0.058,-0.917,-0.398
1775850948360,-0.061,-0.923,-0.400
1775850948380,-0.067,-0.920,-0.392
1775850948400,-0.068,-0.923,-0.388
1775850948419,-0.065,-0.919,-0.386
1775850948439,-0.070,-0.925,-0.374
1775850948459,-0.072,-0.923,-0.377
1775850948479,-0.072,-0.926,-0.372
1775850948498,-0.070,-0.942,-0.365
1775850948518,-0.072,-0.918,-0.375
1775850948538,-0.071,-0.926,-0.385
1775850948558,-0.075,-0.926,-0.377
1775850948577,-0.073,-0.931,-0.385
1775850948597,-0.073,-0.926,-0.385
1775850948617,-0.070,-0.920,-0.379
1775850948637,-0.071,-0.919,-0.382
1775850948657,-0.068,-0.923,-0.374
1775850948676,-0.067,-0.914,-0.378
1775850948696,-0.071,-0.928,-0.379
1775850948716,-0.072,-0.924,-0.381
1775850948736,-0.068,-0.926,-0.387
1775850948755,-0.069,-0.929,-0.384
1775850948795,-0.070,-0.927,-0.371
1775850948815,-0.072,-0.926,-0.369
1775850948834,-0.073,-0.928,-0.367
1775850948854,-0.066,-0.927,-0.373
1775850948874,-0.059,-0.930,-0.378
1775850948894,-0.066,-0.932,-0.375
1775850948913,-0.062,-0.930,-0.373
1775850948933,-0.062,-0.927,-0.365
1775850948953,-0.061,-0.925,-0.364
1775850948973,-0.066,-0.925,-0.363
1775850948992,-0.067,-0.932,-0.367
1775850949012,-0.066,-0.933,-0.372
1775850949032,-0.061,-0.934,-0.366
1775850949052,-0.061,-0.934,-0.366
1775850949071,-0.055,-0.927,-0.367
1775850949091,-0.052,-0.931,-0.368
1775850949111,-0.051,-0.929,-0.375
1775850949131,-0.045,-0.926,-0.378
1775850949150,-0.047,-0.929,-0.374
1775850949170,-0.048,-0.917,-0.373
1775850949190,-0.053,-0.925,-0.371
1775850949210,-0.057,-0.925,-0.365
1775850949229,-0.053,-0.926,-0.362
1775850949249,-0.053,-0.942,-0.358
1775850949269,-0.055,-0.921,-0.370
1775850949289,-0.055,-0.924,-0.381
1775850949308,-0.056,-0.933,-0.377
1775850949328,-0.063,-0.932,-0.378
1775850949348,-0.052,-0.928,-0.380
1775850949368,-0.052,-0.915,-0.379
1775850949388,-0.055,-0.919,-0.383
1775850949407,-0.058,-0.930,-0.380
1775850949427,-0.062,-0.922,-0.380
1775850949447,-0.057,-0.927,-0.386
1775850949467,-0.054,-0.933,-0.381
1775850949486,-0.057,-0.922,-0.384
1775850949506,-0.055,-0.923,-0.387
1775850949526,-0.056,-0.927,-0.390
1775850949546,-0.057,-0.925,-0.393
1775850949565,-0.055,-0.920,-0.390
1775850949585,-0.056,-0.921,-0.382
1775850949605,-0.056,-0.922,-0.380
1775850949625,-0.055,-0.927,-0.385
1775850949644,-0.055,-0.925,-0.386
1775850949664,-0.055,-0.921,-0.386
1775850949684,-0.057,-0.920,-0.387
1775850949704,-0.057,-0.917,-0.391
1775850949723,-0.057,-0.924,-0.384
1775850949743,-0.059,-0.922,-0.387
1775850949763,-0.061,-0.923,-0.388
1775850949783,-0.061,-0.921,-0.388
1775850949802,-0.064,-0.923,-0.383
1775850949822,-0.063,-0.920,-0.389
1775850949842,-0.063,-0.924,-0.386
1775850949862,-0.066,-0.923,-0.386
1775850949881,-0.064,-0.921,-0.388
1775850949901,-0.063,-0.920,-0.392
1775850949921,-0.066,-0.921,-0.393
1775850949941,-0.058,-0.925,-0.393
1775850949960,-0.063,-0.919,-0.394
1775850949980,-0.060,-0.917,-0.390
1775850950000,-0.062,-0.929,-0.385
1775850950020,-0.066,-0.908,-0.392
1775850950040,-0.061,-0.916,-0.401
1775850950059,-0.069,-0.925,-0.402
1775850950079,-0.071,-0.921,-0.397
1775850950099,-0.071,-0.915,-0.401
1775850950119,-0.073,-0.915,-0.399
1775850950138,-0.072,-0.920,-0.395
1775850950158,-0.070,-0.919,-0.394
1775850950178,-0.070,-0.918,-0.399
1775850950198,-0.068,-0.919,-0.403
1775850950217,-0.068,-0.925,-0.405
1775850950237,-0.067,-0.919,-0.404
1775850950257,-0.062,-0.914,-0.406
1775850950277,-0.068,-0.917,-0.406
1775850950296,-0.065,-0.919,-0.399
1775850950316,-0.063,-0.921,-0.397
1775850950336,-0.060,-0.915,-0.395
1775850950356,-0.057,-0.913,-0.399
1775850950375,-0.059,-0.917,-0.404
1775850950395,-0.053,-0.914,-0.403
1775850950415,-0.052,-0.912,-0.404
1775850950435,-0.053,-0.910,-0.408
1775850950454,-0.054,-0.920,-0.405
1775850950474,-0.051,-0.915,-0.405
1775850950494,-0.053,-0.919,-0.404
1775850950514,-0.054,-0.916,-0.396
1775850950534,-0.051,-0.910,-0.402
1775850950553,-0.051,-0.913,-0.407
1775850950573,-0.051,-0.917,-0.397
1775850950593,-0.048,-0.915,-0.393
1775850950613,-0.046,-0.901,-0.413
1775850950632,-0.039,-0.900,-0.414
1775850950652,-0.037,-0.903,-0.404
1775850950672,-0.038,-0.877,-0.432
1775850950692,-0.041,-0.881,-0.453
1775850950711,-0.049,-0.908,-0.433
1775850950731,-0.056,-0.922,-0.408
1775850950751,-0.067,-0.925,-0.394
1775850950771,-0.074,-0.937,-0.383
1775850950790,-0.075,-0.927,-0.383
1775850950810,-0.081,-0.962,-0.369
1775850950830,-0.082,-0.957,-0.351
1775850950850,-0.084,-0.935,-0.365
1775850950869,-0.088,-0.923,-0.385
1775850950889,-0.087,-0.943,-0.402
1775850950909,-0.079,-0.930,-0.393
1775850950929,-0.062,-0.925,-0.377
1775850950949,-0.056,-0.914,-0.377
1775850950968,-0.050,-0.912,-0.380
1775850950988,-0.038,-0.900,-0.386
1775850951008,-0.036,-0.890,-0.407
1775850951028,-0.040,-0.913,-0.402
1775850951047,-0.052,-0.929,-0.391
1775850951067,-0.054,-0.919,-0.406
1775850951087,-0.056,-0.927,-0.419
1775850951107,-0.049,-0.908,-0.419
1775850951126,-0.048,-0.891,-0.422
1775850951146,-0.046,-0.895,-0.435
1775850951166,-0.050,-0.896,-0.424
1775850951186,-0.047,-0.899,-0.441
1775850951205,-0.046,-0.893,-0.454
1775850951225,-0.052,-0.902,-0.439
1775850951245,-0.055,-0.910,-0.425
1775850951265,-0.058,-0.906,-0.422
1775850951284,-0.060,-0.905,-0.428
1775850951304,-0.059,-0.905,-0.431
1775850951324,-0.065,-0.904,-0.425
1775850951344,-0.069,-0.906,-0.429
1775850951363,-0.070,-0.902,-0.430
1775850951383,-0.073,-0.912,-0.425
1775850951403,-0.069,-0.915,-0.433
1775850951423,-0.069,-0.909,-0.421
1775850951443,-0.067,-0.911,-0.423
1775850951462,-0.060,-0.903,-0.434
1775850951482,-0.062,-0.915,-0.428
1775850951502,-0.061,-0.925,-0.421
1775850951522,-0.059,-0.895,-0.428
1775850951541,-0.061,-0.903,-0.432
1775850951561,-0.064,-0.912,-0.423
1775850951581,-0.063,-0.907,-0.418
1775850951601,-0.060,-0.908,-0.413
1775850951620,-0.060,-0.900,-0.412
1775850951640,-0.056,-0.902,-0.413
1775850951660,-0.056,-0.907,-0.414
1775850951680,-0.055,-0.908,-0.418
1775850951699,-0.053,-0.909,-0.413
1775850951719,-0.051,-0.904,-0.416
1775850951739,-0.049,-0.903,-0.422
1775850951759,-0.055,-0.913,-0.424
1775850951779,-0.058,-0.914,-0.416
1775850951798,-0.061,-0.906,-0.415
1775850951818,-0.057,-0.915,-0.413
1775850951838,-0.051,-0.904,-0.411
1775850951858,-0.050,-0.910,-0.416
1775850951877,-0.053,-0.911,-0.415
1775850951897,-0.050,-0.919,-0.411
1775850951917,-0.051,-0.915,-0.418
1775850951937,-0.042,-0.922,-0.405
1775850951956,-0.043,-0.907,-0.386
1775850951976,-0.049,-0.905,-0.375
1775850951996,-0.050,-0.916,-0.369
1775850952016,-0.051,-0.908,-0.383
1775850952035,-0.054,-0.896,-0.397
1775850952055,-0.060,-0.907,-0.432
1775850952075,-0.056,-0.895,-0.438
1775850952095,-0.062,-0.896,-0.450
1775850952115,-0.061,-0.885,-0.460
1775850952134,-0.063,-0.898,-0.454
1775850952154,-0.060,-0.897,-0.451
1775850952174,-0.061,-0.896,-0.454
1775850952194,-0.051,-0.896,-0.470
1775850952213,-0.052,-0.887,-0.479
1775850952233,-0.046,-0.908,-0.471
1775850952253,-0.046,-0.892,-0.472
1775850952273,-0.041,-0.868,-0.478
1775850952292,-0.048,-0.894,-0.469
1775850952312,-0.056,-0.902,-0.456
1775850952332,-0.051,-0.892,-0.459
1775850952352,-0.049,-0.884,-0.458
1775850952372,-0.049,-0.875,-0.454
1775850952391,-0.049,-0.884,-0.457
1775850952411,-0.052,-0.886,-0.460
1775850952431,-0.053,-0.881,-0.470
1775850952451,-0.054,-0.887,-0.476
1775850952470,-0.056,-0.887,-0.478
1775850952490,-0.057,-0.882,-0.474
1775850952510,-0.059,-0.877,-0.482
1775850952530,-0.053,-0.887,-0.479
1775850952549,-0.059,-0.890,-0.468
1775850952569,-0.058,-0.890,-0.464
1775850952589,-0.049,-0.898,-0.457
1775850952609,-0.050,-0.893,-0.443
1775850952628,-0.047,-0.879,-0.453
1775850952648,-0.045,-0.884,-0.448
1775850952668,-0.040,-0.882,-0.450
1775850952688,-0.043,-0.878,-0.477
1775850952708,-0.054,-0.866,-0.488
1775850952727,-0.058,-0.881,-0.469
1775850952747,-0.061,-0.899,-0.438
1775850952767,-0.059,-0.914,-0.435
1775850952787,-0.057,-0.910,-0.436
1775850952806,-0.051,-0.888,-0.437
1775850952826,-0.046,-0.882,-0.444
1775850952846,-0.047,-0.903,-0.435
1775850952866,-0.047,-0.899,-0.426
1775850952885,-0.052,-0.895,-0.442
1775850952905,-0.048,-0.895,-0.449
1775850952925,-0.053,-0.883,-0.452
1775850952945,-0.048,-0.885,-0.453
1775850952965,-0.040,-0.897,-0.436
1775850952984,-0.045,-0.861,-0.443
1775850953004,-0.046,-0.849,-0.480
1775850953024,-0.057,-0.880,-0.490
1775850953044,-0.057,-0.885,-0.489
1775850953063,-0.060,-0.891,-0.490
1775850953083,-0.058,-0.882,-0.486
1775850953103,-0.050,-0.872,-0.486
1775850953123,-0.050,-0.873,-0.495
1775850953142,-0.051,-0.876,-0.496
1775850953162,-0.049,-0.886,-0.499
1775850953182,-0.052,-0.879,-0.502
1775850953202,-0.052,-0.872,-0.498
1775850953221,-0.048,-0.880,-0.486
1775850953241,-0.050,-0.884,-0.476
1775850953261,-0.047,-0.882,-0.477
1775850953281,-0.045,-0.878,-0.481
1775850953301,-0.044,-0.874,-0.483
1775850953320,-0.046,-0.878,-0.490
1775850953340,-0.040,-0.888,-0.488
1775850953360,-0.040,-0.891,-0.473
1775850953380,-0.038,-0.886,-0.462
1775850953399,-0.037,-0.887,-0.460
1775850953419,-0.039,-0.894,-0.448
1775850953439,-0.037,-0.890,-0.464
1775850953459,-0.032,-0.893,-0.464
1775850953478,-0.028,-0.889,-0.445
1775850953498,-0.022,-0.881,-0.458
1775850953518,-0.020,-0.885,-0.444
1775850953538,-0.013,-0.891,-0.444
1775850953557,-0.012,-0.878,-0.456
1775850953577,-0.015,-0.886,-0.452
1775850953597,-0.006,-0.890,-0.444
1775850953617,-0.006,-0.888,-0.450
1775850953636,0.002,-0.884,-0.444
1775850953656,0.005,-0.898,-0.439
1775850953676,0.006,-0.877,-0.443
1775850953696,0.010,-0.869,-0.448
1775850953715,0.006,-0.887,-0.455
1775850953735,0.009,-0.887,-0.454
1775850953755,0.005,-0.882,-0.463
1775850953775,0.009,-0.877,-0.461
1775850953795,0.015,-0.883,-0.445
1775850953814,0.013,-0.878,-0.446
1775850953834,0.015,-0.875,-0.454
1775850953854,0.009,-0.868,-0.467
1775850953874,0.002,-0.877,-0.474
1775850953893,-0.006,-0.883,-0.477
1775850953913,-0.011,-0.884,-0.468
1775850953933,-0.014,-0.893,-0.462
1775850953953,-0.015,-0.894,-0.462
1775850953972,-0.013,-0.892,-0.457
1775850953992,-0.012,-0.895,-0.453
1775850954012,-0.011,-0.896,-0.456
1775850954032,-0.010,-0.895,-0.458
1775850954051,-0.002,-0.887,-0.461
1775850954071,-0.005,-0.887,-0.462
1775850954091,-0.005,-0.881,-0.463
1775850954111,-0.004,-0.888,-0.457
1775850954131,-0.013,-0.891,-0.451
1775850954150,-0.009,-0.893,-0.444
1775850954170,-0.010,-0.894,-0.444
1775850954190,-0.007,-0.894,-0.437
1775850954210,-0.009,-0.891,-0.443
1775850954229,-0.003,-0.900,-0.443
1775850954249,-0.005,-0.898,-0.442
1775850954269,-0.002,-0.896,-0.445
1775850954289,-0.004,-0.899,-0.441
1775850954308,0.000,-0.895,-0.446
1775850954328,-0.006,-0.880,-0.445
1775850954348,-0.007,-0.904,-0.443
1775850954368,-0.011,-0.898,-0.435
1775850954387,-0.013,-0.889,-0.438
1775850954407,-0.011,-0.890,-0.440
1775850954427,-0.014,-0.886,-0.436
1775850954447,-0.019,-0.897,-0.439
1775850954466,-0.017,-0.895,-0.442
1775850954486,-0.020,-0.893,-0.446
1775850954506,-0.026,-0.899,-0.447
1775850954526,-0.027,-0.894,-0.446
1775850954546,-0.023,-0.896,-0.445
1775850954565,-0.024,-0.902,-0.441
1775850954585,-0.023,-0.895,-0.440
1775850954605,-0.023,-0.896,-0.444
1775850954625,-0.026,-0.895,-0.440
1775850954644,-0.025,-0.892,-0.434
1775850954664,-0.024,-0.891,-0.437
1775850954684,-0.027,-0.892,-0.443
1775850954704,-0.028,-0.898,-0.446
1775850954723,-0.029,-0.893,-0.446
1775850954743,-0.031,-0.899,-0.449
1775850954802,-0.032,-0.901,-0.434
1775850954822,-0.037,-0.902,-0.433
1775850954842,-0.034,-0.906,-0.434
1775850954862,-0.033,-0.906,-0.440
1775850954881,-0.034,-0.912,-0.434
1775850954901,-0.029,-0.910,-0.429
1775850954921,-0.030,-0.883,-0.430
1775850954941,-0.023,-0.897,-0.430
1775850954960,-0.024,-0.901,-0.432
1775850954980,-0.023,-0.900,-0.436
1775850955000,-0.018,-0.901,-0.435
1775850955020,-0.015,-0.895,-0.432
1775850955040,-0.011,-0.898,-0.436
1775850955059,-0.010,-0.906,-0.427
1775850955079,-0.006,-0.897,-0.430
1775850955099,-0.005,-0.897,-0.430
1775850955119,-0.010,-0.889,-0.431
1775850955138,-0.010,-0.895,-0.439
1775850955158,-0.007,-0.901,-0.439
1775850955178,-0.014,-0.905,-0.436
1775850955198,-0.008,-0.903,-0.434
1775850955217,-0.004,-0.896,-0.430
1775850955237,-0.001,-0.897,-0.427
1775850955257,0.000,-0.903,-0.428
1775850955277,0.003,-0.902,-0.433
1775850955296,0.001,-0.901,-0.437
1775850955316,0.006,-0.901,-0.440
1775850955336,0.009,-0.903,-0.439
1775850955356,0.007,-0.897,-0.442
1775850955376,0.008,-0.893,-0.433
1775850955395,0.010,-0.891,-0.428
1775850955415,0.005,-0.891,-0.430
1775850955435,0.009,-0.891,-0.433
1775850955455,0.002,-0.888,-0.437
1775850955474,0.001,-0.895,-0.438
1775850955494,0.004,-0.906,-0.437
1775850955514,-0.003,-0.880,-0.446
1775850955534,-0.007,-0.903,-0.449
1775850955553,-0.010,-0.905,-0.444
1775850955573,-0.013,-0.898,-0.454
1775850955593,-0.012,-0.904,-0.453
1775850955613,-0.014,-0.899,-0.445
1775850955632,-0.010,-0.889,-0.444
1775850955652,-0.009,-0.898,-0.447
1775850955672,-0.007,-0.887,-0.446
1775850955692,-0.009,-0.892,-0.449
1775850955711,-0.009,-0.896,-0.458
1775850955731,-0.015,-0.895,-0.458
1775850955751,-0.017,-0.898,-0.455
1775850955771,-0.017,-0.898,-0.445
1775850955791,-0.018,-0.897,-0.436
1775850955810,-0.013,-0.901,-0.433
1775850955830,-0.014,-0.903,-0.428
1775850955850,-0.014,-0.914,-0.431
1775850955870,-0.021,-0.898,-0.435
1775850955889,-0.022,-0.895,-0.443
1775850955909,-0.029,-0.916,-0.450
1775850955929,-0.038,-0.921,-0.450
1775850955949,-0.034,-0.924,-0.446
1775850955968,-0.030,-0.904,-0.434
1775850955988,-0.019,-0.899,-0.403
1775850956008,-0.014,-0.897,-0.390
1775850956028,-0.007,-0.896,-0.384
1775850956047,-0.004,-0.904,-0.393
1775850956067,0.004,-0.898,-0.423
1775850956087,0.002,-0.916,-0.438
1775850956107,-0.001,-0.914,-0.429
1775850956126,-0.008,-0.915,-0.414
1775850956146,-0.007,-0.910,-0.409
1775850956166,-0.006,-0.914,-0.394
1775850956186,-0.006,-0.915,-0.386
1775850956206,-0.001,-0.901,-0.393
1775850956225,0.015,-0.892,-0.413
1775850956245,0.033,-0.900,-0.455
1775850956265,0.044,-0.921,-0.563
1775850956285,0.059,-0.916,-0.608
1775850956304,0.053,-0.895,-0.499
1775850956324,0.042,-0.886,-0.367
1775850956344,0.037,-0.864,-0.331
1775850956364,0.021,-0.903,-0.326
1775850956383,-0.006,-0.923,-0.320
1775850956403,-0.021,-0.903,-0.356
1775850956423,-0.027,-0.949,-0.383
1775850956443,-0.026,-0.943,-0.350
1775850956462,-0.022,-0.919,-0.357
1775850956482,-0.015,-0.904,-0.406
1775850956502,-0.010,-0.896,-0.430
1775850956522,0.000,-0.903,-0.426
1775850956541,0.013,-0.902,-0.416
1775850956561,0.018,-0.891,-0.428
1775850956581,0.028,-0.891,-0.449
1775850956601,0.020,-0.895,-0.447
1775850956621,0.017,-0.909,-0.459
1775850956640,0.017,-0.935,-0.448
1775850956660,0.017,-0.927,-0.446
1775850956680,0.018,-0.918,-0.446
1775850956700,0.021,-0.929,-0.423
1775850956719,0.019,-0.892,-0.414
1775850956739,0.017,-0.886,-0.433
1775850956759,0.010,-0.895,-0.428
1775850956779,0.007,-0.890,-0.440
1775850956798,0.009,-0.898,-0.442
1775850956818,0.018,-0.880,-0.446
1775850956838,0.019,-0.884,-0.438
1775850956858,0.021,-0.883,-0.446
1775850956877,0.017,-0.888,-0.450
1775850956897,0.016,-0.900,-0.454
1775850956917,0.015,-0.897,-0.456
1775850956937,0.012,-0.893,-0.457
1775850956956,0.010,-0.900,-0.459
1775850956976,0.009,-0.896,-0.458
1775850956996,0.004,-0.898,-0.450
1775850957016,0.006,-0.891,-0.442
1775850957035,0.002,-0.889,-0.437
1775850957055,0.003,-0.890,-0.441
1775850957075,0.004,-0.898,-0.433
1775850957095,0.000,-0.898,-0.446
1775850957115,0.001,-0.895,-0.444
1775850957134,0.000,-0.897,-0.437
1775850957154,-0.005,-0.894,-0.438
1775850957174,-0.011,-0.901,-0.433
1775850957194,-0.013,-0.901,-0.432
1775850957213,-0.012,-0.895,-0.442
1775850957233,-0.011,-0.898,-0.441
1775850957253,-0.019,-0.899,-0.441
1775850957273,-0.011,-0.897,-0.439
1775850957292,-0.010,-0.905,-0.423
1775850957312,-0.010,-0.900,-0.433
1775850957332,-0.009,-0.884,-0.437
1775850957352,-0.011,-0.900,-0.437
1775850957371,-0.019,-0.892,-0.438
1775850957391,-0.020,-0.906,-0.443
1775850957411,-0.023,-0.903,-0.431
1775850957431,-0.023,-0.911,-0.420
1775850957450,-0.025,-0.910,-0.416
1775850957470,-0.029,-0.915,-0.418
1775850957490,-0.022,-0.902,-0.418
1775850957510,-0.021,-0.915,-0.426
1775850957530,-0.023,-0.908,-0.425
1775850957549,-0.026,-0.918,-0.427
1775850957569,-0.018,-0.913,-0.418
1775850957589,-0.016,-0.921,-0.408
1775850957609,-0.015,-0.941,-0.407
1775850957628,-0.018,-0.924,-0.419
1775850957648,-0.018,-0.918,-0.442
1775850957668,-0.021,-0.916,-0.453
1775850957688,-0.021,-0.906,-0.443
1775850957707,-0.023,-0.897,-0.440
1775850957727,-0.024,-0.889,-0.419
1775850957747,-0.019,-0.895,-0.412
1775850957767,-0.011,-0.898,-0.410
1775850957786,-0.009,-0.895,-0.412
1775850957806,-0.007,-0.900,-0.415
1775850957826,-0.003,-0.901,-0.423
1775850957846,-0.002,-0.899,-0.429
1775850957866,-0.002,-0.900,-0.425
1775850957885,-0.009,-0.903,-0.425
1775850957905,-0.002,-0.894,-0.422
1775850957925,-0.013,-0.883,-0.435
1775850957945,-0.021,-0.895,-0.433
1775850957964,-0.030,-0.891,-0.433
1775850957984,-0.031,-0.890,-0.448
1775850958004,-0.035,-0.898,-0.448
1775850958024,-0.038,-0.904,-0.420
1775850958043,-0.042,-0.904,-0.404
1775850958063,-0.042,-0.885,-0.447
1775850958083,-0.038,-0.879,-0.466
1775850958103,-0.041,-0.897,-0.420
1775850958122,-0.034,-0.887,-0.427
1775850958142,-0.024,-0.873,-0.473
1775850958162,-0.021,-0.860,-0.457
1775850958182,-0.020,-0.887,-0.452
1775850958201,-0.028,-0.916,-0.467
1775850958221,-0.042,-0.921,-0.444
1775850958241,-0.058,-0.944,-0.427
1775850958261,-0.077,-0.931,-0.423
1775850958280,-0.078,-0.929,-0.430
1775850958300,-0.079,-0.933,-0.422
1775850958320,-0.071,-0.927,-0.424
1775850958340,-0.069,-0.931,-0.401
1775850958360,-0.065,-0.934,-0.373
1775850958379,-0.049,-0.938,-0.338
1775850958399,-0.040,-0.936,-0.334
1775850958419,-0.033,-0.920,-0.353
1775850958439,-0.026,-0.928,-0.345
1775850958458,-0.013,-0.933,-0.336
1775850958478,0.004,-0.910,-0.361
1775850958498,0.022,-0.903,-0.414
1775850958518,0.049,-0.881,-0.468
1775850958537,0.065,-0.880,-0.505
1775850958557,0.083,-0.850,-0.552
1775850958577,0.093,-0.828,-0.585
1775850958597,0.090,-0.873,-0.552
1775850958616,0.083,-0.858,-0.505
1775850958636,0.075,-0.869,-0.497
1775850958656,0.063,-0.868,-0.477
1775850958676,0.054,-0.863,-0.454
1775850958695,0.035,-0.896,-0.439
1775850958715,0.037,-0.926,-0.400
1775850958735,0.038,-0.919,-0.383
1775850958755,0.048,-0.955,-0.398
1775850958774,0.076,-0.921,-0.379
1775850958794,0.100,-0.904,-0.393
1775850958814,0.116,-0.857,-0.454
1775850958834,0.129,-0.827,-0.485
1775850958853,0.131,-0.833,-0.481
1775850958873,0.121,-0.844,-0.464
1775850958893,0.102,-0.874,-0.443
1775850958913,0.073,-0.891,-0.409
1775850958933,0.042,-0.908,-0.403
1775850958952,0.027,-0.920,-0.374
1775850958972,0.011,-0.963,-0.335
1775850958992,0.015,-0.983,-0.317
1775850959012,0.012,-0.953,-0.343
1775850959031,0.020,-0.895,-0.380
1775850959051,0.019,-0.831,-0.428
1775850959071,-0.015,-0.839,-0.499
1775850959091,-0.048,-0.845,-0.514
1775850959110,-0.079,-0.800,-0.527
1775850959130,-0.124,-0.841,-0.536
1775850959150,-0.167,-0.884,-0.495
1775850959170,-0.192,-0.874,-0.502
1775850959189,-0.216,-0.855,-0.535
1775850959209,-0.224,-0.891,-0.521
1775850959229,-0.230,-0.936,-0.501
1775850959249,-0.209,-0.905,-0.513
1775850959269,-0.188,-0.869,-0.521
1775850959288,-0.173,-0.853,-0.506
1775850959308,-0.167,-0.867,-0.492
1775850959328,-0.158,-0.881,-0.480
1775850959348,-0.147,-0.865,-0.465
1775850959367,-0.163,-0.881,-0.446
1775850959387,-0.157,-0.859,-0.441
1775850959407,-0.176,-0.908,-0.429
1775850959427,-0.189,-0.989,-0.404
1775850959446,-0.172,-1.056,-0.393
1775850959466,-0.157,-0.990,-0.413
1775850959486,-0.108,-1.000,-0.422
1775850959506,-0.065,-0.916,-0.411
1775850959525,-0.012,-0.858,-0.449
1775850959545,0.034,-0.845,-0.490
1775850959565,0.073,-0.851,-0.492
1775850959585,0.106,-0.872,-0.474
1775850959605,0.145,-0.903,-0.484
1775850959624,0.176,-0.888,-0.499
1775850959644,0.212,-0.875,-0.500
1775850959664,0.233,-0.881,-0.492
1775850959684,0.253,-0.878,-0.491
1775850959703,0.266,-0.840,-0.500
1775850959723,0.268,-0.756,-0.521
1775850959743,0.261,-0.736,-0.546
1775850959763,0.250,-0.755,-0.538
1775850959782,0.223,-0.765,-0.549
1775850959802,0.200,-0.857,-0.554
1775850959822,0.165,-0.781,-0.569
1775850959842,0.156,-1.006,-0.547
1775850959861,0.131,-0.905,-0.482
1775850959881,0.122,-0.877,-0.480
1775850959901,0.106,-0.843,-0.468
1775850959921,0.095,-0.882,-0.442
1775850959940,0.085,-0.863,-0.437
1775850959960,0.079,-0.871,-0.450
1775850959980,0.070,-0.868,-0.431
1775850960000,0.064,-0.907,-0.424
1775850960020,0.076,-0.900,-0.430
1775850960039,0.076,-0.868,-0.446
1775850960059,0.082,-0.883,-0.450
1775850960079,0.083,-0.863,-0.461
1775850960099,0.084,-0.882,-0.468
1775850960118,0.079,-0.884,-0.466
1775850960138,0.080,-0.889,-0.465
1775850960158,0.078,-0.885,-0.465
1775850960178,0.075,-0.876,-0.466
1775850960197,0.071,-0.873,-0.464
1775850960217,0.059,-0.889,-0.458
1775850960237,0.055,-0.870,-0.453
1775850960257,0.043,-0.893,-0.443
1775850960276,0.031,-0.891,-0.429
1775850960296,0.034,-0.895,-0.427
1775850960316,0.024,-0.896,-0.433
1775850960336,0.024,-0.910,-0.433
1775850960356,0.024,-0.909,-0.432
1775850960375,0.027,-0.914,-0.430
1775850960395,0.029,-0.913,-0.426
1775850960415,0.029,-0.904,-0.429
1775850960435,0.027,-0.908,-0.431
1775850960454,0.031,-0.903,-0.424
1775850960474,0.037,-0.901,-0.425
1775850960494,0.040,-0.894,-0.425
1775850960514,0.043,-0.904,-0.431
1775850960533,0.048,-0.900,-0.425
1775850960553,0.052,-0.888,-0.430
1775850960573,0.049,-0.899,-0.436
1775850960593,0.045,-0.908,-0.421
1775850960612,0.044,-0.901,-0.423
1775850960632,0.043,-0.876,-0.440
1775850960652,0.041,-0.909,-0.453
1775850960672,0.031,-0.907,-0.441
1775850960691,0.034,-0.908,-0.440
1775850960711,0.032,-0.901,-0.434
1775850960731,0.032,-0.899,-0.428
1775850960751,0.034,-0.904,-0.426
1775850960771,0.036,-0.893,-0.439
1775850960790,0.042,-0.899,-0.451
1775850960810,0.044,-0.902,-0.434
1775850960830,0.043,-0.884,-0.432
1775850960850,0.045,-0.880,-0.444
1775850960869,0.041,-0.895,-0.448
1775850960889,0.043,-0.920,-0.431
1775850960909,0.037,-0.915,-0.410
1775850960929,0.045,-0.905,-0.416
1775850960948,0.047,-0.898,-0.415
1775850960968,0.041,-0.894,-0.421
1775850960988,0.044,-0.885,-0.440
1775850961008,0.045,-0.906,-0.438
1775850961028,0.037,-0.900,-0.431
1775850961047,0.036,-0.901,-0.437
1775850961067,0.041,-0.914,-0.434
1775850961087,0.043,-0.910,-0.431
1775850961107,0.046,-0.899,-0.440
1775850961126,0.050,-0.900,-0.432
1775850961146,0.049,-0.892,-0.427
1775850961166,0.053,-0.890,-0.437
1775850961186,0.049,-0.893,-0.437
1775850961205,0.058,-0.908,-0.427
1775850961225,0.051,-0.909,-0.421
1775850961245,0.059,-0.910,-0.411
1775850961265,0.068,-0.907,-0.401
1775850961284,0.075,-0.881,-0.402
1775850961304,0.094,-0.886,-0.425
1775850961324,0.089,-0.904,-0.421
1775850961344,0.095,-0.897,-0.443
1775850961364,0.111,-0.886,-0.499
1775850961383,0.110,-0.884,-0.481
1775850961403,0.094,-0.899,-0.433
1775850961423,0.075,-0.863,-0.440
1775850961443,0.067,-0.890,-0.461
1775850961462,0.036,-0.929,-0.415
1775850961482,0.011,-0.925,-0.355
1775850961502,-0.012,-0.928,-0.352
1775850961522,-0.031,-0.941,-0.338
1775850961541,-0.034,-0.943,-0.333
1775850961561,-0.037,-0.918,-0.354
1775850961581,-0.035,-0.922,-0.369
1775850961601,-0.034,-0.945,-0.366
1775850961621,-0.038,-0.930,-0.351
1775850961640,-0.036,-0.911,-0.365
1775850961660,-0.033,-0.872,-0.397
1775850961680,-0.034,-0.925,-0.398
1775850961700,-0.035,-0.912,-0.408
1775850961719,-0.044,-0.899,-0.527
1775850961739,-0.026,-0.981,-0.776
1775850961759,0.006,-1.070,-1.057
1775850961779,-0.003,-1.107,-1.053
1775850961798,-0.027,-1.010,-0.655
1775850961818,-0.015,-0.825,-0.235
1775850961838,0.000,-0.720,-0.006
1775850961858,0.020,-0.725,0.053
1775850961877,0.025,-0.783,0.102
1775850961897,0.024,-0.856,0.115
1775850961917,0.027,-0.962,-0.010
1775850961937,0.016,-0.998,-0.137
1775850961957,0.006,-0.962,-0.225
1775850961976,0.011,-0.999,-0.275
1775850961996,0.022,-1.024,-0.286
1775850962016,0.024,-1.025,-0.249
1775850962036,0.031,-1.008,-0.219
1775850962055,0.043,-0.960,-0.228
1775850962075,0.054,-0.977,-0.251
1775850962095,0.059,-0.997,-0.245
1775850962115,0.043,-0.994,-0.219
1775850962134,0.049,-0.992,-0.213
1775850962154,0.057,-0.938,-0.209
1775850962174,0.061,-0.968,-0.197
1775850962194,0.057,-0.964,-0.146
1775850962213,0.049,-0.944,-0.086
1775850962233,0.042,-0.943,-0.093
1775850962253,0.037,-0.939,-0.105
1775850962273,0.020,-0.940,-0.064
1775850962292,0.002,-0.921,-0.048
1775850962312,0.007,-0.891,-0.052
1775850962332,-0.002,-0.860,-0.049
1775850962352,-0.009,-0.809,-0.079
1775850962372,-0.005,-0.770,-0.132
1775850962391,-0.013,-0.734,-0.148
1775850962411,0.002,-0.622,-0.171
1775850962431,-0.014,-0.597,-0.174
1775850962451,-0.017,-0.628,-0.144
1775850962470,-0.018,-0.571,-0.214
1775850962490,-0.011,-0.589,-0.322
1775850962510,-0.012,-0.548,-0.340
1775850962530,-0.018,-0.551,-0.341
1775850962549,0.000,-0.667,-0.375
1775850962569,0.013,-0.719,-0.380
1775850962589,0.005,-0.672,-0.394
1775850962609,0.021,-0.712,-0.431
1775850962628,0.029,-0.773,-0.445
1775850962648,0.040,-0.809,-0.540
1775850962668,0.064,-0.775,-0.578
1775850962688,0.036,-0.763,-0.524
1775850962708,0.051,-0.798,-0.545
1775850962727,0.038,-0.829,-0.624
1775850962747,0.029,-0.760,-0.634
1775850962767,0.011,-0.747,-0.613
1775850962787,0.009,-0.815,-0.595
1775850962806,0.020,-0.870,-0.577
1775850962826,0.022,-0.778,-0.596
1775850962846,0.014,-0.759,-0.619
1775850962866,-0.015,-0.801,-0.622
1775850962885,-0.015,-0.834,-0.673
1775850962905,-0.013,-0.966,-0.666
1775850962925,-0.019,-0.852,-0.639
1775850962945,-0.035,-0.797,-0.653
1775850962964,-0.032,-0.817,-0.641
1775850962984,-0.013,-0.930,-0.714
1775850963004,-0.021,-0.929,-0.805
1775850963024,-0.004,-0.879,-0.732
1775850963044,-0.036,-0.793,-0.583
1775850963063,-0.023,-0.759,-0.629
1775850963083,-0.013,-0.955,-0.650
1775850963103,-0.001,-1.001,-0.608
1775850963123,0.024,-0.821,-0.702
1775850963142,0.040,-0.773,-0.803
1775850963162,0.019,-0.783,-0.751
1775850963182,-0.024,-0.904,-0.702
1775850963202,-0.016,-1.203,-0.716
1775850963221,0.034,-0.989,-0.856
1775850963241,0.073,-0.834,-0.893
1775850963261,-0.005,-0.897,-0.799
1775850963281,0.029,-1.112,-0.877
1775850963300,0.015,-1.084,-0.932
1775850963320,-0.040,-1.198,-0.864
1775850963340,-0.066,-1.165,-0.872
1775850963360,-0.052,-1.145,-1.066
1775850963380,-0.056,-1.281,-1.087
1775850963399,-0.067,-1.359,-0.995
1775850963419,-0.030,-1.269,-1.083
1775850963439,-0.012,-1.198,-1.133
1775850963459,-0.047,-1.309,-1.061
1775850963478,-0.069,-1.286,-0.952
1775850963498,-0.070,-1.264,-0.935
1775850963518,-0.050,-1.227,-0.944
1775850963538,-0.062,-1.212,-0.879
1775850963557,-0.064,-1.289,-0.847
1775850963577,-0.051,-1.184,-0.867
1775850963597,-0.027,-1.112,-0.922
1775850963617,0.003,-1.199,-0.905
1775850963637,-0.019,-1.152,-0.794
1775850963656,-0.013,-1.114,-0.725
1775850963676,0.040,-1.009,-0.619
1775850963696,0.028,-0.982,-0.545
1775850963716,0.030,-0.894,-0.520
1775850963755,0.029,-0.835,-0.391
1775850963775,0.011,-0.704,-0.351
1775850963795,0.000,-0.748,-0.288
1775850963814,-0.001,-0.605,-0.200
1775850963834,-0.009,-0.474,-0.194
1775850963854,-0.028,-0.403,-0.193
1775850963874,-0.011,-0.298,-0.195
1775850963893,0.003,-0.267,-0.190
1775850963913,0.011,-0.253,-0.101
1775850963933,-0.016,-0.209,-0.031
1775850963953,-0.040,-0.214,-0.099
1775850963973,-0.035,-0.333,-0.164
1775850963992,-0.025,-0.418,-0.121
1775850964012,-0.030,-0.415,-0.122
1775850964032,-0.019,-0.555,-0.240
1775850964052,-0.033,-0.693,-0.245
1775850964071,-0.058,-0.646,-0.172
1775850964091,-0.053,-0.768,-0.215
1775850964111,-0.064,-0.869,-0.320
1775850964131,-0.077,-0.986,-0.372
1775850964150,-0.083,-1.011,-0.344
1775850964170,-0.064,-0.969,-0.343
1775850964190,-0.057,-0.940,-0.392
1775850964210,-0.058,-0.919,-0.432
1775850964230,-0.058,-0.908,-0.435
1775850964249,-0.053,-0.895,-0.426
1775850964269,-0.046,-0.847,-0.416
1775850964289,-0.049,-0.788,-0.432
1775850964309,-0.051,-0.807,-0.425
1775850964328,-0.061,-0.801,-0.370
1775850964348,-0.062,-0.752,-0.339
1775850964368,-0.056,-0.720,-0.291
1775850964388,-0.067,-0.653,-0.229
1775850964407,-0.069,-0.719,-0.173
1775850964427,-0.054,-0.604,-0.150
1775850964447,-0.056,-0.470,-0.139
1775850964467,-0.046,-0.533,-0.097
1775850964486,-0.044,-0.449,-0.096
1775850964506,-0.041,-0.559,-0.122
1775850964526,-0.033,-0.558,-0.250
1775850964546,-0.025,-0.493,-0.333
1775850964565,-0.035,-0.488,-0.300
1775850964585,-0.034,-0.621,-0.319
1775850964605,-0.035,-0.708,-0.395
1775850964625,-0.015,-0.702,-0.450
1775850964645,-0.013,-0.719,-0.448
1775850964664,-0.015,-0.740,-0.468
1775850964684,-0.006,-0.717,-0.464
1775850964704,-0.017,-0.773,-0.521
1775850964724,-0.014,-0.877,-0.600
1775850964743,-0.007,-0.903,-0.508
1775850964763,-0.030,-0.800,-0.447
1775850964783,-0.026,-0.862,-0.659
1775850964803,-0.036,-0.931,-0.724
1775850964822,-0.065,-0.897,-0.585
1775850964842,-0.068,-1.014,-0.616
1775850964862,-0.073,-1.022,-0.716
1775850964882,-0.055,-0.928,-0.715
1775850964901,-0.047,-0.897,-0.642
1775850964921,-0.057,-0.987,-0.597
1775850964941,-0.034,-0.933,-0.626
1775850964961,-0.027,-0.872,-0.601
1775850964981,-0.022,-0.982,-0.535
1775850965000,-0.004,-0.980,-0.600
1775850965020,-0.004,-0.919,-0.682
1775850965040,-0.036,-0.887,-0.705
1775850965060,-0.034,-1.122,-0.700
1775850965079,-0.045,-0.983,-0.830
1775850965099,-0.027,-0.981,-0.806
1775850965119,-0.053,-0.928,-0.618
1775850965139,-0.070,-1.192,-0.717
1775850965158,-0.035,-1.042,-0.854
1775850965178,-0.085,-0.970,-0.906
1775850965198,-0.075,-1.199,-0.804
1775850965218,-0.058,-1.123,-0.872
1775850965237,-0.060,-1.185,-0.961
1775850965257,-0.100,-1.162,-0.883
1775850965277,-0.137,-1.272,-0.837
1775850965297,-0.114,-1.382,-0.924
1775850965316,-0.092,-1.364,-0.994
1775850965336,-0.094,-1.369,-0.924
1775850965356,-0.082,-1.407,-0.885
1775850965376,-0.033,-1.275,-0.979
1775850965396,-0.041,-1.267,-0.923
1775850965415,-0.062,-1.317,-0.847
1775850965435,-0.057,-1.152,-0.909
1775850965455,-0.051,-1.106,-0.990
1775850965475,-0.081,-1.180,-0.836
1775850965494,-0.088,-1.108,-0.763
1775850965514,-0.081,-1.113,-0.724
1775850965534,-0.066,-1.084,-0.636
1775850965554,-0.025,-0.976,-0.715
1775850965573,0.002,-0.984,-0.720
1775850965593,-0.011,-1.027,-0.584
1775850965613,0.000,-1.032,-0.586
1775850965633,0.008,-0.998,-0.631
1775850965652,-0.008,-0.970,-0.534
1775850965672,-0.020,-0.896,-0.472
1775850965692,-0.025,-0.851,-0.415
1775850965712,-0.025,-0.728,-0.323
1775850965732,-0.040,-0.674,-0.226
1775850965751,-0.054,-0.568,-0.148
1775850965771,-0.048,-0.502,-0.101
1775850965791,-0.051,-0.488,-0.068
1775850965811,-0.024,-0.418,-0.077
1775850965830,-0.001,-0.399,-0.112
1775850965850,0.007,-0.336,-0.090
1775850965870,0.004,-0.288,-0.071
1775850965890,-0.008,-0.309,-0.083
1775850965909,-0.028,-0.251,-0.120
1775850965929,-0.033,-0.289,-0.176
1775850965949,-0.040,-0.489,-0.254
1775850965969,-0.051,-0.588,-0.318
1775850965989,-0.080,-0.634,-0.312
1775850966008,-0.086,-0.767,-0.375
1775850966028,-0.059,-0.837,-0.423
1775850966048,-0.072,-0.891,-0.365
1775850966068,-0.079,-0.889,-0.408
1775850966087,-0.085,-0.915,-0.499
1775850966107,-0.083,-0.896,-0.481
1775850966127,-0.076,-0.855,-0.475
1775850966147,-0.076,-0.845,-0.475
1775850966166,-0.090,-0.841,-0.465
1775850966186,-0.087,-0.861,-0.468
1775850966206,-0.085,-0.853,-0.480
1775850966226,-0.078,-0.845,-0.472
1775850966246,-0.073,-0.822,-0.433
1775850966265,-0.071,-0.846,-0.417
1775850966285,-0.054,-0.844,-0.433
1775850966305,-0.051,-0.804,-0.441
1775850966325,-0.046,-0.839,-0.418
1775850966344,-0.056,-0.831,-0.385
1775850966364,-0.065,-0.836,-0.349
1775850966384,-0.064,-0.778,-0.278
1775850966404,-0.069,-0.720,-0.239
1775850966423,-0.077,-0.734,-0.193
1775850966443,-0.068,-0.625,-0.134
1775850966463,-0.070,-0.463,-0.096
1775850966483,-0.084,-0.547,-0.090
1775850966502,-0.094,-0.585,-0.141
1775850966522,-0.075,-0.554,-0.194
1775850966542,-0.064,-0.485,-0.213
1775850966562,-0.069,-0.569,-0.317
1775850966581,-0.040,-0.567,-0.372
1775850966601,-0.058,-0.546,-0.429
1775850966621,-0.041,-0.669,-0.448
1775850966641,-0.039,-0.731,-0.463
1775850966661,-0.017,-0.687,-0.487
1775850966680,-0.019,-0.754,-0.498
1775850966700,-0.008,-0.758,-0.568
1775850966720,-0.007,-0.819,-0.689
1775850966740,-0.005,-0.844,-0.700
1775850966759,-0.022,-0.773,-0.639
1775850966779,-0.038,-0.859,-0.661
1775850966799,-0.055,-0.887,-0.641
1775850966819,-0.055,-0.880,-0.592
1775850966838,-0.040,-0.817,-0.649
1775850966858,-0.044,-0.868,-0.673
1775850966878,-0.054,-0.868,-0.677
1775850966898,-0.040,-0.862,-0.682
1775850966917,-0.062,-0.830,-0.644
1775850966937,-0.067,-0.847,-0.670
1775850966957,-0.060,-0.849,-0.743
1775850966977,-0.068,-0.893,-0.771
1775850966996,-0.065,-0.908,-0.667
1775850967016,-0.060,-0.896,-0.589
1775850967036,-0.041,-0.920,-0.625
1775850967056,-0.013,-0.807,-0.715
1775850967076,-0.008,-0.801,-0.712
1775850967095,-0.005,-0.847,-0.643
1775850967115,-0.019,-0.800,-0.696
1775850967135,-0.030,-0.845,-0.769
1775850967155,-0.026,-1.038,-0.766
1775850967174,-0.010,-0.892,-0.782
1775850967194,-0.035,-0.786,-0.807
1775850967214,-0.049,-0.867,-0.834
1775850967234,-0.029,-0.978,-0.893
1775850967253,-0.047,-1.024,-0.872
1775850967273,-0.058,-1.059,-0.829
1775850967293,-0.064,-1.060,-0.876
1775850967313,-0.029,-1.047,-1.036
1775850967332,-0.076,-1.150,-1.050
1775850967352,-0.089,-1.233,-0.968
1775850967372,-0.081,-1.204,-1.081
1775850967392,-0.079,-1.221,-1.131
1775850967412,-0.072,-1.235,-1.032
1775850967431,-0.049,-1.200,-1.027
1775850967451,-0.014,-1.132,-1.077
1775850967471,-0.021,-1.137,-1.033
1775850967491,-0.021,-1.197,-0.991
1775850967510,-0.021,-1.129,-0.998
1775850967530,-0.028,-1.127,-0.957
1775850967550,-0.046,-1.124,-1.021
1775850967570,-0.051,-1.135,-0.948
1775850967589,-0.055,-1.141,-0.875
1775850967609,-0.042,-1.096,-0.873
1775850967629,-0.017,-1.067,-0.905
1775850967649,0.005,-1.042,-0.878
1775850967668,0.007,-1.010,-0.810
1775850967688,-0.007,-0.964,-0.746
1775850967708,-0.021,-0.969,-0.686
1775850967728,-0.020,-0.897,-0.570
1775850967747,-0.034,-0.752,-0.504
1775850967767,-0.061,-0.726,-0.587
1775850967787,-0.056,-0.749,-0.577
1775850967807,-0.090,-0.576,-0.417
1775850967827,-0.087,-0.479,-0.300
1775850967846,-0.086,-0.447,-0.168
1775850967866,-0.062,-0.378,-0.056
1775850967886,-0.050,-0.261,0.002
1775850967906,0.002,-0.164,-0.026
1775850967925,-0.021,-0.140,-0.064
1775850967945,-0.011,-0.223,-0.050
1775850967965,-0.015,-0.186,-0.048
1775850967985,-0.039,-0.241,-0.069
1775850968004,-0.061,-0.394,-0.084
1775850968024,-0.065,-0.530,-0.111
1775850968044,-0.058,-0.673,-0.181
1775850968064,-0.067,-0.748,-0.235
1775850968083,-0.060,-0.818,-0.294
1775850968103,-0.058,-0.895,-0.383
1775850968123,-0.056,-0.818,-0.451
1775850968143,-0.058,-0.895,-0.481
1775850968162,-0.073,-0.931,-0.485
1775850968182,-0.071,-0.864,-0.502
1775850968202,-0.080,-0.872,-0.511
1775850968222,-0.077,-0.900,-0.530
1775850968242,-0.071,-0.873,-0.605
1775850968261,-0.060,-0.836,-0.623
1775850968281,-0.068,-0.835,-0.578
1775850968301,-0.066,-0.855,-0.548
1775850968321,-0.069,-0.880,-0.511
1775850968340,-0.061,-0.873,-0.470
1775850968360,-0.064,-0.831,-0.434
1775850968380,-0.067,-0.822,-0.375
1775850968400,-0.065,-0.782,-0.303
1775850968419,-0.044,-0.683,-0.242
1775850968439,-0.040,-0.555,-0.190
1775850968459,-0.049,-0.543,-0.147
1775850968479,-0.042,-0.620,-0.120
1775850968498,-0.025,-0.472,-0.095
1775850968518,-0.034,-0.273,-0.088
1775850968538,-0.075,-0.304,-0.091
1775850968558,-0.030,-0.439,-0.125
1775850968578,-0.042,-0.274,-0.196
1775850968597,-0.042,-0.348,-0.285
1775850968617,-0.048,-0.440,-0.368
1775850968637,-0.054,-0.610,-0.433
1775850968657,-0.016,-0.659,-0.512
1775850968676,-0.029,-0.675,-0.514
1775850968696,-0.004,-0.827,-0.511
1775850968716,0.017,-0.695,-0.555
1775850968736,0.011,-0.770,-0.632
1775850968755,0.015,-0.726,-0.699
1775850968775,-0.027,-0.729,-0.772
1775850968795,-0.043,-0.815,-0.776
1775850968815,-0.057,-0.932,-0.740
1775850968834,-0.073,-1.074,-0.755
1775850968854,-0.070,-0.992,-0.747
1775850968874,-0.058,-0.927,-0.804
1775850968894,-0.041,-0.940,-0.874
1775850968913,-0.045,-0.975,-0.753
1775850968933,-0.022,-1.004,-0.769
1775850968953,-0.009,-0.954,-0.886
1775850968973,-0.021,-0.889,-0.888
1775850968993,-0.026,-0.784,-0.867
1775850969012,-0.035,-0.787,-0.858
1775850969032,-0.024,-0.844,-0.745
1775850969052,-0.024,-0.974,-0.672
1775850969072,0.003,-0.865,-0.756
1775850969091,-0.034,-0.719,-0.811
1775850969111,-0.044,-0.753,-0.811
1775850969131,-0.057,-0.836,-0.817
1775850969151,-0.053,-1.062,-0.806
1775850969170,-0.071,-0.978,-0.908
1775850969190,-0.061,-0.970,-1.061
1775850969210,-0.094,-1.106,-0.999
1775850969230,-0.125,-1.283,-1.017
1775850969249,-0.062,-1.148,-1.226
1775850969269,-0.054,-1.287,-1.281
1775850969289,-0.074,-1.351,-1.106
1775850969309,-0.078,-1.226,-1.159
1775850969328,-0.075,-1.218,-1.196
1775850969348,-0.088,-1.285,-1.066
1775850969368,-0.098,-1.330,-1.048
1775850969388,-0.108,-1.244,-1.059
1775850969407,-0.077,-1.192,-1.016
1775850969427,-0.071,-1.133,-1.033
1775850969447,-0.074,-1.169,-1.051
1775850969467,-0.092,-1.115,-0.948
1775850969486,-0.094,-1.161,-0.891
1775850969506,-0.085,-1.141,-0.874
1775850969526,-0.071,-1.041,-0.836
1775850969546,-0.048,-1.080,-0.772
1775850969565,-0.022,-0.958,-0.715
1775850969585,-0.036,-0.884,-0.731
1775850969605,-0.029,-0.881,-0.611
1775850969625,-0.042,-0.812,-0.510
1775850969645,-0.055,-0.688,-0.491
1775850969664,-0.057,-0.566,-0.466
1775850969684,-0.084,-0.649,-0.381
1775850969704,-0.088,-0.596,-0.235
1775850969724,-0.076,-0.492,-0.192
1775850969743,-0.073,-0.428,-0.188
1775850969763,-0.051,-0.350,-0.145
1775850969783,-0.042,-0.284,-0.097
1775850969803,-0.030,-0.250,-0.060
1775850969822,-0.024,-0.208,-0.051
1775850969842,-0.018,-0.194,-0.087
1775850969862,-0.017,-0.192,-0.116
1775850969882,-0.041,-0.287,-0.117
1775850969901,-0.057,-0.445,-0.147
1775850969921,-0.071,-0.573,-0.178
1775850969941,-0.075,-0.757,-0.212
1775850969961,-0.067,-0.850,-0.255
1775850969980,-0.082,-0.836,-0.257
1775850970000,-0.072,-0.921,-0.288
1775850970020,-0.080,-0.906,-0.337
1775850970040,-0.089,-0.889,-0.354
1775850970060,-0.100,-0.946,-0.397
1775850970079,-0.108,-0.867,-0.442
1775850970099,-0.115,-0.901,-0.439
1775850970119,-0.107,-0.921,-0.402
1775850970139,-0.084,-0.925,-0.438
1775850970158,-0.075,-0.863,-0.491
1775850970178,-0.064,-0.855,-0.464
1775850970198,-0.063,-0.872,-0.426
1775850970218,-0.061,-0.857,-0.442
1775850970237,-0.058,-0.872,-0.464
1775850970257,-0.062,-0.877,-0.460
1775850970277,-0.060,-0.878,-0.464
1775850970297,-0.065,-0.913,-0.452
1775850970317,-0.063,-0.884,-0.431
1775850970336,-0.061,-0.875,-0.419
1775850970356,-0.060,-0.873,-0.397
1775850970376,-0.064,-0.855,-0.337
1775850970396,-0.057,-0.830,-0.291
1775850970415,-0.055,-0.747,-0.252
1775850970435,-0.056,-0.715,-0.215
1775850970455,-0.047,-0.656,-0.187
1775850970475,-0.038,-0.534,-0.163
1775850970494,-0.042,-0.441,-0.154
1775850970514,-0.040,-0.492,-0.186
1775850970534,-0.044,-0.420,-0.191
1775850970554,-0.045,-0.468,-0.225
1775850970573,-0.034,-0.556,-0.295
1775850970593,-0.038,-0.487,-0.292
1775850970613,-0.034,-0.626,-0.272
1775850970633,-0.022,-0.493,-0.355
1775850970652,-0.028,-0.534,-0.437
1775850970672,-0.019,-0.582,-0.379
1775850970692,-0.025,-0.624,-0.332
1775850970712,-0.027,-0.705,-0.367
1775850970732,-0.018,-0.693,-0.439
1775850970751,-0.006,-0.725,-0.493
1775850970771,-0.002,-0.786,-0.559
1775850970791,-0.012,-0.820,-0.635
1775850970811,-0.022,-0.807,-0.641
1775850970830,-0.026,-0.878,-0.613
1775850970850,-0.032,-0.919,-0.624
1775850970870,-0.034,-0.853,-0.755
1775850970890,-0.034,-0.862,-0.872
1775850970909,-0.053,-0.914,-0.779
1775850970929,-0.061,-0.954,-0.721
1775850970949,-0.059,-0.979,-0.737
1775850970969,-0.062,-0.939,-0.839
1775850970988,-0.062,-0.955,-0.843
1775850971008,-0.060,-0.885,-0.725
1775850971028,-0.050,-0.963,-0.761
1775850971048,-0.053,-1.005,-0.821
1775850971068,-0.046,-0.947,-0.799
1775850971087,-0.028,-0.978,-0.857
1775850971107,-0.026,-1.015,-0.826
1775850971127,-0.019,-1.029,-0.750
1775850971147,-0.040,-1.061,-0.904
1775850971166,-0.025,-1.047,-1.071
1775850971186,-0.100,-1.227,-0.931
1775850971206,-0.105,-1.283,-0.872
1775850971226,-0.098,-1.247,-1.055
1775850971245,-0.109,-1.256,-1.043
1775850971265,-0.125,-1.323,-0.970
1775850971285,-0.104,-1.270,-1.040
1775850971305,-0.102,-1.242,-1.036
1775850971324,-0.117,-1.303,-0.940
1775850971344,-0.117,-1.294,-0.897
1775850971364,-0.103,-1.254,-0.907
1775850971384,-0.110,-1.161,-0.906
1775850971403,-0.133,-1.236,-0.933
1775850971423,-0.139,-1.204,-0.929
1775850971443,-0.144,-1.236,-0.873
1775850971463,-0.153,-1.193,-0.895
1775850971482,-0.158,-1.178,-0.870
1775850971502,-0.170,-1.255,-0.788
1775850971522,-0.162,-1.166,-0.715
1775850971542,-0.136,-1.070,-0.686
1775850971562,-0.124,-1.048,-0.733
1775850971581,-0.123,-0.982,-0.626
1775850971601,-0.116,-0.953,-0.547
1775850971621,-0.087,-0.797,-0.481
1775850971641,-0.066,-0.691,-0.372
1775850971660,-0.088,-0.641,-0.235
1775850971680,-0.106,-0.515,-0.191
1775850971700,-0.092,-0.362,-0.270
1775850971720,-0.083,-0.405,-0.262
1775850971739,-0.070,-0.367,-0.184
1775850971759,-0.051,-0.315,-0.165
1775850971779,-0.054,-0.230,-0.192
1775850971799,-0.051,-0.176,-0.204
1775850971818,-0.054,-0.207,-0.203
1775850971838,-0.061,-0.272,-0.191
1775850971858,-0.065,-0.389,-0.214
1775850971878,-0.074,-0.553,-0.271
1775850971898,-0.081,-0.540,-0.268
1775850971917,-0.086,-0.612,-0.264
1775850971937,-0.087,-0.720,-0.262
1775850971957,-0.082,-0.772,-0.290
1775850971977,-0.089,-0.809,-0.309
1775850971996,-0.095,-0.800,-0.322
1775850972016,-0.109,-0.834,-0.391
1775850972036,-0.117,-0.830,-0.448
1775850972056,-0.136,-0.859,-0.479
1775850972075,-0.132,-0.881,-0.515
1775850972095,-0.131,-0.889,-0.534
1775850972115,-0.129,-0.885,-0.526
1775850972135,-0.124,-0.853,-0.529
1775850972155,-0.103,-0.839,-0.529
1775850972174,-0.091,-0.822,-0.556
1775850972194,-0.084,-0.828,-0.573
1775850972214,-0.077,-0.859,-0.562
1775850972234,-0.068,-0.871,-0.543
1775850972253,-0.063,-0.842,-0.503
1775850972273,-0.058,-0.827,-0.438
1775850972293,-0.052,-0.792,-0.353
1775850972313,-0.051,-0.714,-0.285
1775850972332,-0.047,-0.685,-0.232
1775850972352,-0.047,-0.617,-0.192
1775850972372,-0.044,-0.546,-0.171
1775850972392,-0.054,-0.547,-0.166
1775850972412,-0.043,-0.517,-0.143
1775850972431,-0.067,-0.506,-0.152
1775850972451,-0.034,-0.598,-0.228
1775850972471,-0.051,-0.434,-0.275
1775850972491,-0.045,-0.531,-0.326
1775850972510,-0.029,-0.511,-0.315
1775850972530,-0.046,-0.533,-0.316
1775850972550,-0.046,-0.586,-0.433
1775850972570,-0.053,-0.598,-0.538
1775850972589,-0.055,-0.679,-0.467
1775850972609,-0.055,-0.707,-0.390
1775850972629,-0.044,-0.657,-0.414
1775850972649,-0.029,-0.736,-0.482
1775850972668,-0.027,-0.728,-0.492
1775850972688,-0.027,-0.765,-0.586
1775850972708,-0.022,-0.822,-0.632
1775850972728,-0.038,-0.797,-0.591
1775850972748,-0.033,-0.854,-0.659
1775850972767,-0.042,-0.848,-0.726
1775850972787,-0.032,-0.901,-0.736
1775850972807,-0.042,-0.886,-0.707
1775850972827,-0.039,-0.865,-0.720
1775850972846,-0.049,-0.878,-0.774
1775850972866,-0.047,-0.898,-0.784
1775850972886,-0.050,-0.888,-0.759
1775850972906,-0.038,-0.818,-0.778
1775850972925,-0.039,-0.879,-0.807
1775850972945,-0.027,-0.838,-0.849
1775850972965,-0.021,-0.852,-0.850
1775850972985,-0.039,-0.935,-0.803
1775850973005,-0.019,-0.855,-0.860
1775850973024,-0.013,-0.786,-0.916
1775850973044,-0.024,-0.867,-0.844
1775850973064,-0.008,-0.960,-0.782
1775850973084,-0.020,-0.958,-0.876
1775850973103,-0.006,-0.862,-0.972
1775850973123,-0.018,-0.974,-0.972
1775850973143,-0.010,-1.124,-0.954
1775850973163,0.003,-1.148,-1.046
1775850973182,0.014,-1.085,-1.158
1775850973202,-0.011,-1.131,-1.184
1775850973222,-0.039,-1.193,-1.218
1775850973242,-0.063,-1.320,-1.260
1775850973261,-0.092,-1.370,-1.252
1775850973281,-0.097,-1.241,-1.222
1775850973301,-0.093,-1.213,-1.241
1775850973321,-0.083,-1.237,-1.197
1775850973340,-0.079,-1.184,-1.141
1775850973360,-0.078,-1.166,-1.078
1775850973380,-0.073,-1.097,-1.051
1775850973400,-0.077,-1.090,-1.082
1775850973419,-0.063,-1.095,-1.054
1775850973439,-0.071,-1.088,-0.982
1775850973459,-0.050,-1.032,-0.950
1775850973479,-0.043,-0.990,-0.925
1775850973499,-0.063,-0.975,-0.821
1775850973518,-0.058,-0.841,-0.675
1775850973538,-0.041,-0.758,-0.606
1775850973558,-0.029,-0.654,-0.525
1775850973578,-0.037,-0.618,-0.424
1775850973597,-0.035,-0.522,-0.352
1775850973617,-0.044,-0.415,-0.332
1775850973637,-0.045,-0.377,-0.299
1775850973657,-0.040,-0.361,-0.228
1775850973676,-0.036,-0.291,-0.174
1775850973696,-0.025,-0.237,-0.149
1775850973716,-0.029,-0.198,-0.122
1775850973736,-0.032,-0.213,-0.111
1775850973755,-0.028,-0.315,-0.148
1775850973775,-0.031,-0.379,-0.213
1775850973795,-0.041,-0.359,-0.222
1775850973815,-0.054,-0.461,-0.212
1775850973834,-0.058,-0.634,-0.203
1775850973854,-0.072,-0.663,-0.207
1775850973874,-0.065,-0.717,-0.225
1775850973894,-0.070,-0.809,-0.248
1775850973914,-0.060,-0.790,-0.319
1775850973933,-0.073,-0.857,-0.354
1775850973953,-0.080,-0.923,-0.363
1775850973973,-0.081,-0.884,-0.423
1775850973993,-0.083,-0.855,-0.432
1775850974012,-0.103,-0.912,-0.406
1775850974032,-0.085,-0.889,-0.422
1775850974052,-0.085,-0.897,-0.445
1775850974072,-0.075,-0.903,-0.426
1775850974091,-0.069,-0.868,-0.440
1775850974111,-0.061,-0.846,-0.433
1775850974131,-0.064,-0.832,-0.403
1775850974151,-0.061,-0.846,-0.424
1775850974170,-0.061,-0.831,-0.450
1775850974190,-0.062,-0.820,-0.441
1775850974210,-0.076,-0.782,-0.425
1775850974230,-0.077,-0.726,-0.378
1775850974250,-0.082,-0.684,-0.303
1775850974269,-0.078,-0.666,-0.241
1775850974289,-0.069,-0.575,-0.201
1775850974309,-0.061,-0.515,-0.168
1775850974329,-0.043,-0.394,-0.147
1775850974348,-0.048,-0.374,-0.128
1775850974368,-0.045,-0.346,-0.136
1775850974388,-0.033,-0.338,-0.168
1775850974408,-0.025,-0.373,-0.218
1775850974427,-0.040,-0.496,-0.333
1775850974447,-0.056,-0.499,-0.396
1775850974467,-0.043,-0.606,-0.437
1775850974487,-0.045,-0.667,-0.522
1775850974507,-0.045,-0.662,-0.578
1775850974526,-0.037,-0.772,-0.537
1775850974546,-0.027,-0.813,-0.568
1775850974566,-0.020,-0.779,-0.672
1775850974586,-0.026,-0.789,-0.733
1775850974605,-0.029,-0.817,-0.695
1775850974625,-0.051,-0.852,-0.706
1775850974645,-0.046,-0.891,-0.811
1775850974665,-0.034,-0.886,-0.883
1775850974684,-0.039,-0.925,-0.803
1775850974704,-0.043,-0.901,-0.702
1775850974724,-0.032,-0.830,-0.742
1775850974744,-0.028,-0.848,-0.777
1775850974763,-0.030,-0.828,-0.756
1775850974783,-0.019,-0.865,-0.777
1775850974803,-0.023,-0.830,-0.846
1775850974823,-0.015,-0.802,-0.869
1775850974843,-0.009,-0.842,-0.828
1775850974862,0.001,-0.825,-0.743
1775850974882,0.016,-0.791,-0.786
1775850974902,0.003,-0.738,-0.870
1775850974922,0.002,-0.746,-0.865
1775850974941,0.006,-0.867,-0.845
1775850974961,0.020,-1.003,-0.837
1775850974981,-0.006,-0.784,-0.901
1775850975001,-0.012,-0.813,-0.955
1775850975020,-0.035,-0.890,-0.968
1775850975040,-0.027,-1.180,-0.974
1775850975060,-0.024,-1.076,-0.968
1775850975080,-0.029,-0.981,-1.174
1775850975099,-0.030,-0.966,-1.319
1775850975119,-0.067,-1.117,-1.322
1775850975139,-0.070,-1.246,-1.247
1775850975159,-0.079,-1.198,-1.220
1775850975179,-0.046,-1.095,-1.232
1775850975198,-0.019,-1.144,-1.200
1775850975218,-0.016,-1.098,-1.078
1775850975238,-0.014,-1.053,-1.051
1775850975258,-0.019,-1.035,-1.090
1775850975277,-0.030,-1.010,-1.083
1775850975297,-0.040,-1.047,-1.010
1775850975317,-0.074,-1.009,-1.022
1775850975337,-0.067,-1.066,-1.019
1775850975356,-0.063,-1.092,-0.954
1775850975376,-0.050,-1.103,-0.934
1775850975396,-0.028,-1.103,-0.895
1775850975416,-0.024,-1.025,-0.833
1775850975435,-0.001,-0.992,-0.737
1775850975455,-0.001,-0.916,-0.695
1775850975475,-0.019,-0.973,-0.747
1775850975495,-0.027,-0.880,-0.597
1775850975515,-0.035,-0.796,-0.470
1775850975534,-0.058,-0.650,-0.371
1775850975554,-0.071,-0.557,-0.292
1775850975574,-0.082,-0.439,-0.241
1775850975594,-0.089,-0.383,-0.195
1775850975613,-0.078,-0.355,-0.159
1775850975633,-0.070,-0.265,-0.129
1775850975653,-0.059,-0.263,-0.116
1775850975673,-0.052,-0.235,-0.099
1775850975692,-0.043,-0.149,-0.096
1775850975732,-0.054,-0.292,-0.077
1775850975752,-0.061,-0.375,-0.127
1775850975772,-0.068,-0.540,-0.195
1775850975791,-0.079,-0.610,-0.181
1775850975811,-0.085,-0.752,-0.207
1775850975831,-0.090,-0.798,-0.338
1775850975851,-0.081,-0.793,-0.436
1775850975870,-0.104,-0.892,-0.420
1775850975890,-0.108,-0.832,-0.429
1775850975910,-0.118,-0.851,-0.497
1775850975930,-0.128,-0.938,-0.471
1775850975949,-0.127,-0.926,-0.418
1775850975969,-0.116,-0.925,-0.413
1775850975989,-0.113,-0.948,-0.372
1775850976009,-0.102,-0.890,-0.350
1775850976029,-0.086,-0.863,-0.365
1775850976048,-0.072,-0.831,-0.361
1775850976068,-0.065,-0.808,-0.364
1775850976088,-0.059,-0.781,-0.363
1775850976108,-0.060,-0.751,-0.357
1775850976127,-0.055,-0.736,-0.338
1775850976147,-0.055,-0.698,-0.310
1775850976167,-0.058,-0.646,-0.275
1775850976187,-0.056,-0.684,-0.268
1775850976206,-0.055,-0.690,-0.297
1775850976226,-0.056,-0.572,-0.286
1775850976246,-0.050,-0.456,-0.240
1775850976266,-0.056,-0.347,-0.212
1775850976286,-0.038,-0.560,-0.253
1775850976305,-0.025,-0.502,-0.301
1775850976325,-0.033,-0.368,-0.317
1775850976345,-0.031,-0.311,-0.297
1775850976365,-0.045,-0.557,-0.350
1775850976384,-0.032,-0.585,-0.421
1775850976404,-0.042,-0.583,-0.525
1775850976424,-0.028,-0.670,-0.575
1775850976444,-0.017,-0.680,-0.541
1775850976463,-0.018,-0.707,-0.527
1775850976483,-0.021,-0.734,-0.606
1775850976503,-0.011,-0.702,-0.701
1775850976523,0.000,-0.824,-0.722
1775850976543,-0.020,-0.888,-0.687
1775850976562,-0.010,-0.857,-0.705
1775850976582,0.000,-0.826,-0.709
1775850976602,0.001,-0.885,-0.706
1775850976622,0.003,-0.820,-0.742
1775850976641,-0.004,-0.796,-0.800
1775850976661,-0.005,-0.857,-0.832
1775850976681,-0.015,-0.878,-0.804
1775850976701,-0.030,-0.843,-0.767
1775850976720,-0.028,-0.787,-0.793
1775850976740,-0.023,-0.838,-0.858
1775850976760,-0.013,-0.883,-0.831
1775850976780,-0.013,-0.847,-0.786
1775850976800,-0.014,-0.748,-0.826
1775850976819,-0.023,-0.720,-0.859
1775850976839,-0.018,-0.993,-0.897
1775850976859,-0.026,-0.858,-0.914
1775850976879,-0.026,-0.823,-0.936
1775850976898,-0.003,-0.880,-0.916
1775850976918,-0.023,-0.961,-0.919
1775850976938,0.018,-0.969,-1.007
1775850976958,-0.014,-0.880,-1.001
1775850976977,-0.019,-1.056,-0.932
1775850976997,-0.017,-1.024,-1.015
1775850977017,-0.016,-1.047,-1.108
1775850977037,-0.026,-1.098,-1.105
1775850977057,-0.041,-1.164,-1.063
1775850977076,-0.017,-1.114,-1.089
1775850977096,-0.008,-1.111,-1.129
1775850977116,-0.010,-1.155,-1.057
1775850977136,-0.015,-1.145,-1.029
1775850977155,-0.008,-1.110,-1.065
1775850977175,-0.005,-1.091,-1.063
1775850977195,-0.017,-1.080,-1.071
1775850977215,-0.040,-1.135,-1.024
1775850977234,-0.042,-1.075,-1.010
1775850977254,-0.042,-1.037,-1.042
1775850977274,-0.030,-1.102,-0.980
1775850977294,-0.038,-1.105,-0.942
1775850977314,-0.036,-1.083,-0.945
