absolute_timestamp,accel_x,accel_y,accel_z
1144785361.774,0.037764,-0.711126,-1.061451
1144785361.785,0.108386,-0.762012,-1.209715
1144785361.794,0.492889,-0.186613,-1.279945
1144785361.805,0.802845,0.717585,-1.279945
1144785361.815,1.034331,1.876211,-1.225322
1144785361.825,1.155959,3.136608,-1.100468
1144785361.835,1.069642,3.512379,-0.819547
1144785361.845,0.606670,2.181524,-0.952205
1144785361.855,0.559588,2.443781,-0.831253
1144785361.865,0.390878,2.666895,-0.811744
1144785361.875,0.324179,2.576866,-0.686890
1144785361.885,0.206474,2.056268,-0.569840
1144785361.895,-0.048553,1.238184,-0.464495
1144785361.905,-0.264345,0.134358,-0.382560
1144785361.916,-0.558607,-1.114297,-0.355248
1144785361.925,-0.833252,-2.351209,-0.390363
1144785361.935,-1.064738,-3.396320,-0.593250
1144785361.945,-1.178519,-4.065662,-0.846859
1144785361.955,-1.033350,-4.265290,-1.135583
1144785361.965,-0.664542,-3.928662,-1.400897
1144785361.975,-0.178028,-3.094921,-1.595981
1144785361.985,0.343796,-1.893238,-1.646703
1144785361.995,0.802845,-0.444955,-1.584276
1144785362.004,1.136341,1.105098,-1.408701
1144785362.014,1.308975,2.561209,-1.264339
1144785362.025,1.289358,3.657207,-1.139485
1144785362.035,1.144188,4.252177,-1.022435
1144785362.045,0.897008,4.228691,-0.893679
1144785362.055,0.598823,3.614150,-0.737612
1144785362.065,0.300638,2.435952,-0.558135
1144785362.075,-0.040706,0.948527,-0.444986
1144785362.086,-0.374203,-0.566298,-0.370854
1144785362.095,-0.688082,-2.100695,-0.366953
1144785362.105,-0.947033,-3.286720,-0.546430
1144785362.115,-1.088279,-4.010862,-0.932696
1144785362.125,-1.001962,-4.218319,-1.268240
1144785362.135,-0.711623,-4.014776,-1.525751
1144785362.145,-0.276116,-3.349349,-1.709130
1144785362.155,0.194703,-2.253352,-1.794967
1144785362.165,0.665522,-0.852040,-1.802770
1144785362.175,1.053948,0.615814,-1.615490
1144785362.185,1.269740,1.989725,-1.389192
1144785362.194,1.250123,3.257951,-1.237027
1144785362.205,1.053948,4.189548,-1.104370
1144785362.215,0.791074,4.584890,-0.967811
1144785362.225,0.485042,4.357862,-0.870269
1144785362.235,0.155468,3.582836,-0.800039
1144785362.245,-0.146641,2.455524,-0.663480
1144785362.255,-0.456596,1.073784,-0.487905
1144785362.265,-0.825405,-0.323613,-0.351346
1144785362.275,-1.166748,-1.681867,-0.331838
1144785362.285,-1.437469,-2.852236,-0.402068
1144785362.295,-1.582639,-3.650748,-0.608857
1144785362.305,-1.559098,-4.065662,-0.823449
1144785362.315,-1.323688,-3.952148,-1.162895
1144785362.325,-0.911721,-3.337606,-1.307257
1144785362.335,-0.433055,-2.327723,-1.400897
1144785362.345,0.033840,-1.047754,-1.471128
1144785362.355,0.414419,0.294843,-1.416504
1144785362.365,0.645905,1.586554,-1.244830
1144785362.375,0.724375,2.760838,-1.045845
1144785362.386,0.626287,3.684607,-0.897581
1144785362.395,0.437960,4.260005,-0.706399
1144785362.405,0.206474,4.256091,-0.530823
1144785362.415,-0.001471,3.598493,-0.484003
1144785362.425,-0.264345,2.447695,-0.378658
1144785362.435,-0.597842,1.069870,-0.277214
1144785362.445,-0.982344,-0.374498,-0.218689
1144785362.455,-1.272683,-1.740581,-0.203082
1144785362.465,-1.496322,-2.957921,-0.230394
1144785362.475,-1.665032,-3.838633,-0.484003
1144785362.486,-1.641491,-4.210490,-0.753219
1144785362.495,-1.359000,-4.132205,-1.034140
1144785362.505,-0.899951,-3.607691,-1.256535
1144785362.515,-0.362433,-2.672179,-1.396996
1144785362.525,0.112310,-1.403953,-1.404799
1144785362.535,0.496812,0.024758,-1.365782
1144785362.545,0.736145,1.418241,-1.276044
1144785362.555,0.861697,2.619924,-1.123878
1144785362.565,0.826385,3.571093,-1.022435
1144785362.575,0.661599,4.169977,-0.909286
1144785362.585,0.441883,4.306977,-0.823449
1144785362.595,0.186856,3.876406,-0.706399
1144785362.605,-0.068171,2.980037,-0.624464
1144785362.615,-0.370280,1.766611,-0.484003
1144785362.625,-0.680235,0.404443,-0.398166
1144785362.635,-0.994115,-1.000783,-0.398166
1144785362.645,-1.272683,-2.276837,-0.495708
1144785362.655,-1.476704,-3.255406,-0.679087
1144785362.667,-1.527710,-3.893434,-0.920991
1144785362.675,-1.382540,-4.050005,-1.186305
1144785362.685,-1.009809,-3.697720,-1.404799
1144785362.694,-0.527219,-2.836579,-1.564768
1144785362.705,-0.021089,-1.650553,-1.595981
1144785362.715,0.406572,-0.362756,-1.514046
1144785362.725,0.681216,0.999413,-1.428209
1144785362.735,0.814615,2.306781,-1.295552
1144785362.746,0.810692,3.394950,-1.147288
1144785362.756,0.669446,4.095606,-1.030238
1144785362.765,0.453654,4.303063,-0.905384
1144785362.775,0.135851,3.379293,-0.710300
1144785362.785,-0.083865,2.107153,-0.788334
1144785362.796,-0.197646,1.246012,-0.854663
1144785362.806,-0.287886,0.772385,-0.917089
1144785362.816,-0.283963,0.459243,-0.924893
1144785362.825,-0.385974,0.153929,-0.924893
1144785362.836,-0.440902,-0.073099,-0.940500
1144785362.846,-0.436979,-0.210099,-0.960008
1144785362.856,-0.413438,-0.214013,-0.999025
1144785362.866,-0.346739,-0.147470,-0.987320
1144785362.876,-0.307504,-0.030042,-0.991221
1144785362.886,-0.276116,0.075643,-0.987320
1144785362.896,-0.264345,0.114786,-0.995123
1144785362.906,-0.264345,0.099129,-0.979516
1144785362.916,-0.260422,0.048243,-0.956106
1144785362.926,-0.276116,0.020844,-0.936598
1144785362.936,-0.272192,0.013015,-0.960008
1144785362.947,-0.280039,0.044329,-0.971713
1144785362.956,-0.280039,0.056072,-0.979516
1144785362.966,-0.272192,0.071729,-0.987320
1144785362.976,-0.264345,0.067815,-0.936598
1144785362.986,-0.280039,0.067815,-0.920991
1144785362.996,-0.272192,0.048243,-0.917089
1144785363.005,-0.283963,0.028672,-0.917089
1144785363.016,-0.291810,0.005186,-0.893679
1144785363.025,-0.303580,-0.010471,-0.905384
1144785363.036,-0.311427,-0.006556,-0.881974
1144785363.046,-0.287886,0.013015,-0.835154
1144785363.056,-0.283963,0.032586,-0.811744
1144785363.066,-0.276116,0.052158,-0.823449
1144785363.076,-0.280039,0.059986,-0.811744
1144785363.086,-0.299657,0.048243,-0.807842
1144785363.096,-0.287886,0.024758,-0.811744
1144785363.106,-0.303580,-0.002642,-0.788334
1144785363.116,-0.299657,0.009101,-0.772727
1144785363.126,-0.291810,0.009101,-0.757121
1144785363.136,-0.299657,0.009101,-0.768826
1144785363.146,-0.303580,0.020844,-0.761022
1144785363.156,-0.272192,0.005186,-0.733711
1144785363.166,-0.244728,-0.030042,-0.682989
1144785363.176,-0.229034,-0.030042,-0.632267
1144785363.186,-0.248651,-0.014385,-0.601053
1144785363.195,-0.252575,0.032586,-0.589348
1144785363.206,-0.264345,0.067815,-0.643972
1144785363.216,-0.256498,0.071729,-0.636169
1144785363.226,-0.264345,0.028672,-0.612759
1144785363.236,-0.276116,-0.006556,-0.589348
1144785363.246,-0.291810,-0.002642,-0.577643
1144785363.256,-0.303580,0.024758,-0.573742
1144785363.266,-0.299657,0.063901,-0.593250
1144785363.276,-0.291810,0.091301,-0.585447
1144785363.286,-0.303580,0.083472,-0.589348
1144785363.296,-0.331045,0.059986,-0.616660
1144785363.306,-0.389897,0.044329,-0.640070
1144785363.316,-0.433055,0.040415,-0.686890
1144785363.326,-0.421285,-0.010471,-0.686890
1144785363.336,-0.421285,-0.049613,-0.706399
1144785363.346,-0.429132,-0.002642,-0.749317
1144785363.356,-0.425208,0.024758,-0.768826
1144785363.366,-0.405591,0.016929,-0.792236
1144785363.376,-0.417361,0.024758,-0.803941
1144785363.386,-0.436979,0.005186,-0.823449
1144785363.396,-0.487984,-0.014385,-0.803941
1144785363.406,-0.499755,-0.002642,-0.831253
1144785363.417,-0.476214,-0.006556,-0.823449
1144785363.426,-0.472290,0.016929,-0.846859
1144785363.436,-0.452673,0.024758,-0.850761
1144785363.446,-0.429132,0.001272,-0.850761
1144785363.456,-0.417361,-0.018299,-0.850761
1144785363.466,-0.436979,0.005186,-0.862466
1144785363.476,-0.425208,0.028672,-0.878073
1144785363.486,-0.425208,-0.010471,-0.893679
1144785363.496,-0.440902,-0.014385,-0.913188
1144785363.506,-0.429132,-0.010471,-0.932696
1144785363.516,-0.401668,-0.069185,-0.893679
1144785363.526,-0.393821,-0.123985,-0.866368
1144785363.536,-0.393821,-0.100499,-0.889778
1144785363.546,-0.389897,-0.053528,-0.940500
1144785363.556,-0.350662,-0.069185,-0.913188
1144785363.566,-0.342815,-0.061356,-0.893679
1144785363.576,-0.346739,-0.026128,-0.913188
1144785363.586,-0.350662,-0.002642,-0.940500
1144785363.596,-0.358509,0.005186,-0.960008
1144785363.606,-0.378127,-0.018299,-0.971713
1144785363.616,-0.382050,-0.037871,-0.975615
1144785363.626,-0.389897,-0.018299,-0.967811
1144785363.636,-0.413438,-0.010471,-0.979516
1144785363.646,-0.444826,-0.045699,-0.936598
1144785363.656,-0.476214,-0.065271,-0.948303
1144785363.666,-0.484061,-0.100499,-0.924893
1144785363.676,-0.452673,-0.080928,-0.932696
1144785363.686,-0.448749,-0.073099,-0.944401
1144785363.698,-0.448749,-0.084842,-0.963910
1144785363.706,-0.476214,-0.120070,-0.967811
1144785363.716,-0.476214,-0.123985,-0.975615
1144785363.726,-0.503678,-0.139642,-1.010730
1144785363.736,-0.523296,-0.143556,-1.018533
1144785363.746,-0.523296,-0.151385,-1.030238
1144785363.756,-0.535066,-0.151385,-1.006828
1144785363.766,-0.554684,-0.186613,-0.932696
1144785363.776,-0.558607,-0.194442,-0.920991
1144785363.786,-0.535066,-0.139642,-0.920991
1144785363.796,-0.487984,-0.112242,-0.905384
1144785363.806,-0.440902,-0.131813,-0.854663
1144785363.816,-0.448749,-0.135728,-0.831253
1144785363.827,-0.456596,-0.104413,-0.878073
1144785363.836,-0.476214,-0.073099,-0.897581
1144785363.846,-0.487984,-0.088756,-0.885876
1144785363.856,-0.511525,-0.135728,-0.928794
1144785363.867,-0.546837,-0.116156,-0.932696
1144785363.877,-0.542913,-0.120070,-0.944401
1144785363.887,-0.507602,-0.108328,-0.913188
1144785363.897,-0.491908,-0.100499,-0.940500
1144785363.907,-0.495831,-0.120070,-0.991221
1144785363.917,-0.452673,-0.167042,-1.022435
1144785363.927,-0.456596,-0.163127,-1.034140
1144785363.937,-0.468367,-0.147470,-1.045845
1144785363.947,-0.487984,-0.163127,-1.034140
1144785363.957,-0.515449,-0.202270,-1.053648
1144785363.967,-0.558607,-0.221842,-1.100468
1144785363.977,-0.586072,-0.249242,-1.143387
1144785363.987,-0.601766,-0.280556,-1.162895
1144785363.997,-0.633154,-0.253156,-1.178502
1144785364.006,-0.664542,-0.194442,-1.213617
1144785364.017,-0.668465,-0.190527,-1.248732
1144785364.027,-0.656694,-0.202270,-1.256535
1144785364.037,-0.641000,-0.186613,-1.233125
1144785364.047,-0.641000,-0.167042,-1.233125
1144785364.057,-0.676312,-0.163127,-1.252634
1144785364.067,-0.684159,-0.178785,-1.240929
1144785364.077,-0.727317,-0.206185,-1.256535
1144785364.088,-0.770476,-0.198356,-1.357979
1144785364.097,-0.762629,-0.225756,-1.389192
1144785364.107,-0.739088,-0.245327,-1.428209
1144785364.117,-0.758705,-0.245327,-1.416504
1144785364.127,-0.778323,-0.233584,-1.381389
1144785364.137,-0.801864,-0.237499,-1.369684
1144785364.147,-0.813634,-0.292299,-1.381389
1144785364.157,-0.817558,-0.319699,-1.381389
1144785364.167,-0.825405,-0.315784,-1.373586
1144785364.177,-0.852869,-0.288384,-1.400897
1144785364.187,-0.829328,-0.221842,-1.389192
1144785364.196,-0.825405,-0.159213,-1.404799
1144785364.207,-0.833252,-0.155299,-1.404799
1144785364.217,-0.833252,-0.174870,-1.408701
1144785364.227,-0.833252,-0.202270,-1.393094
1144785364.237,-0.782246,-0.245327,-1.350176
1144785364.247,-0.754782,-0.210099,-1.385291
1144785364.257,-0.750858,-0.214013,-1.365782
1144785364.267,-0.743011,-0.280556,-1.357979
1144785364.277,-0.750858,-0.300127,-1.346274
1144785364.287,-0.762629,-0.276641,-1.350176
1144785364.297,-0.746935,-0.245327,-1.361881
1144785364.307,-0.727317,-0.229670,-1.389192
1144785364.317,-0.723394,-0.249242,-1.365782
1144785364.327,-0.699853,-0.253156,-1.357979
1144785364.337,-0.648848,-0.260984,-1.338471
1144785364.347,-0.641000,-0.257070,-1.268240
1144785364.357,-0.637077,-0.257070,-1.221420
1144785364.367,-0.648848,-0.233584,-1.213617
1144785364.377,-0.637077,-0.241413,-1.155092
1144785364.387,-0.617460,-0.249242,-1.182403
1144785364.397,-0.609613,-0.253156,-1.190207
1144785364.407,-0.601766,-0.268813,-1.190207
1144785364.417,-0.621383,-0.280556,-1.147288
1144785364.427,-0.597842,-0.288384,-1.135583
1144785364.437,-0.570378,-0.319699,-1.041943
1144785364.448,-0.542913,-0.327527,-0.913188
1144785364.457,-0.550760,-0.292299,-0.839056
1144785364.467,-0.538990,-0.264899,-0.803941
1144785364.477,-0.487984,-0.225756,-0.800039
1144785364.487,-0.480137,-0.178785,-0.772727
1144785364.497,-0.491908,-0.135728,-0.776629
1144785364.507,-0.495831,-0.135728,-0.788334
1144785364.517,-0.495831,-0.178785,-0.745416
1144785364.527,-0.480137,-0.198356,-0.651775
1144785364.537,-0.484061,-0.163127,-0.608857
1144785364.547,-0.452673,-0.108328,-0.554233
1144785364.557,-0.448749,-0.108328,-0.503512
1144785364.567,-0.433055,-0.123985,-0.495708
1144785364.577,-0.413438,-0.120070,-0.468396
1144785364.587,-0.382050,-0.092670,-0.433281
1144785364.597,-0.311427,-0.084842,-0.405970
1144785364.607,-0.248651,-0.135728,-0.351346
1144785364.617,-0.209416,-0.167042,-0.316231
1144785364.627,-0.205493,-0.194442,-0.304526
1144785364.637,-0.193722,-0.245327,-0.327936
1144785364.647,-0.209416,-0.264899,-0.327936
1144785364.657,-0.209416,-0.257070,-0.316231
1144785364.667,-0.209416,-0.276641,-0.273313
1144785364.677,-0.181952,-0.249242,-0.257706
1144785364.687,-0.166258,-0.174870,-0.230394
1144785364.697,-0.154487,-0.120070,-0.191377
1144785364.707,-0.134870,-0.123985,-0.160164
1144785364.717,-0.158411,-0.170956,-0.230394
1144785364.729,-0.146641,-0.210099,-0.285018
1144785364.737,-0.123100,-0.288384,-0.277214
1144785364.747,-0.123100,-0.268813,-0.269411
1144785364.757,-0.162334,-0.217927,-0.281116
1144785364.767,-0.205493,-0.206185,-0.304526
1144785364.777,-0.232957,-0.253156,-0.343543
1144785364.787,-0.264345,-0.323613,-0.386461
1144785364.797,-0.291810,-0.378413,-0.448888
1144785364.807,-0.331045,-0.366670,-0.523020
1144785364.818,-0.342815,-0.315784,-0.585447
1144785364.827,-0.342815,-0.264899,-0.643972
1144785364.838,-0.331045,-0.276641,-0.710300
1144785364.848,-0.327121,-0.323613,-0.745416
1144785364.858,-0.362433,-0.354927,-0.761022
1144785364.868,-0.401668,-0.405813,-0.784432
1144785364.878,-0.448749,-0.441041,-0.800039
1144785364.888,-0.472290,-0.452784,-0.815646
1144785364.898,-0.480137,-0.433213,-0.874171
1144785364.908,-0.464443,-0.382327,-0.893679
1144785364.918,-0.444826,-0.362756,-0.893679
1144785364.928,-0.468367,-0.386241,-0.897581
1144785364.938,-0.503678,-0.401898,-0.905384
1144785364.948,-0.531143,-0.397984,-0.878073
1144785364.958,-0.523296,-0.405813,-0.866368
1144785364.968,-0.511525,-0.382327,-0.878073
1144785364.978,-0.503678,-0.323613,-0.850761
1144785364.988,-0.503678,-0.292299,-0.846859
1144785364.998,-0.495831,-0.288384,-0.846859
1144785365.008,-0.487984,-0.280556,-0.819547
1144785365.018,-0.464443,-0.276641,-0.788334
1144785365.028,-0.460520,-0.315784,-0.753219
1144785365.038,-0.440902,-0.339270,-0.753219
1144785365.048,-0.433055,-0.307956,-0.702497
1144785365.058,-0.401668,-0.280556,-0.682989
1144785365.068,-0.405591,-0.268813,-0.667382
1144785365.078,-0.401668,-0.292299,-0.702497
1144785365.088,-0.409515,-0.292299,-0.679087
1144785365.098,-0.393821,-0.268813,-0.671284
1144785365.108,-0.354586,-0.253156,-0.647874
1144785365.118,-0.319274,-0.304041,-0.601053
1144785365.128,-0.295733,-0.343184,-0.585447
1144785365.138,-0.264345,-0.351013,-0.577643
1144785365.148,-0.256498,-0.358841,-0.530823
1144785365.158,-0.252575,-0.358841,-0.534725
1144785365.168,-0.268269,-0.327527,-0.503512
1144785365.178,-0.280039,-0.296213,-0.480101
1144785365.188,-0.268269,-0.257070,-0.452790
1144785365.198,-0.232957,-0.272727,-0.421576
1144785365.208,-0.217263,-0.272727,-0.398166
1144785365.218,-0.213340,-0.268813,-0.409871
1144785365.228,-0.248651,-0.245327,-0.405970
1144785365.238,-0.264345,-0.245327,-0.402068
1144785365.248,-0.248651,-0.245327,-0.378658
1144785365.258,-0.283963,-0.257070,-0.363051
1144785365.268,-0.323198,-0.229670,-0.366953
1144785365.278,-0.350662,-0.233584,-0.351346
1144785365.288,-0.319274,-0.253156,-0.374756
1144785365.298,-0.311427,-0.217927,-0.421576
1144785365.308,-0.315351,-0.202270,-0.448888
1144785365.318,-0.331045,-0.214013,-0.511315
1144785365.328,-0.331045,-0.217927,-0.550332
1144785365.338,-0.334968,-0.214013,-0.515217
1144785365.348,-0.327121,-0.186613,-0.550332
1144785365.358,-0.350662,-0.155299,-0.562037
1144785365.368,-0.382050,-0.167042,-0.601053
1144785365.378,-0.401668,-0.202270,-0.675185
1144785365.388,-0.389897,-0.198356,-0.733711
1144785365.398,-0.382050,-0.206185,-0.733711
1144785365.408,-0.374203,-0.241413,-0.780531
1144785365.418,-0.382050,-0.268813,-0.842958
1144785365.428,-0.397744,-0.280556,-0.823449
1144785365.438,-0.436979,-0.288384,-0.800039
1144785365.448,-0.468367,-0.264899,-0.823449
1144785365.458,-0.460520,-0.253156,-0.854663
1144785365.468,-0.444826,-0.245327,-0.897581
1144785365.480,-0.440902,-0.237499,-0.936598
1144785365.488,-0.452673,-0.233584,-0.963910
1144785365.498,-0.460520,-0.257070,-0.960008
1144785365.508,-0.472290,-0.276641,-0.936598
1144785365.518,-0.495831,-0.304041,-0.917089
1144785365.528,-0.523296,-0.315784,-0.913188
1144785365.538,-0.542913,-0.292299,-0.917089
1144785365.548,-0.538990,-0.241413,-0.944401
1144785365.558,-0.507602,-0.241413,-0.960008
1144785365.568,-0.487984,-0.292299,-0.979516
1144785365.578,-0.499755,-0.292299,-1.022435
1144785365.588,-0.531143,-0.249242,-1.022435
1144785365.598,-0.535066,-0.257070,-0.999025
1144785365.608,-0.503678,-0.280556,-0.987320
1144785365.618,-0.499755,-0.241413,-1.010730
1144785365.629,-0.487984,-0.233584,-1.002926
1144785365.639,-0.491908,-0.233584,-1.014631
1144785365.649,-0.511525,-0.245327,-1.026336
1144785365.659,-0.535066,-0.233584,-1.030238
1144785365.669,-0.550760,-0.253156,-0.991221
1144785365.679,-0.558607,-0.253156,-0.987320
1144785365.689,-0.542913,-0.280556,-0.936598
1144785365.699,-0.523296,-0.288384,-0.920991
1144785365.709,-0.507602,-0.292299,-0.932696
1144785365.719,-0.546837,-0.292299,-0.940500
1144785365.729,-0.593919,-0.296213,-0.963910
1144785365.739,-0.625306,-0.280556,-0.963910
1144785365.749,-0.617460,-0.237499,-0.940500
1144785365.760,-0.625306,-0.186613,-0.967811
1144785365.769,-0.613536,-0.190527,-0.975615
1144785365.778,-0.601766,-0.225756,-0.999025
1144785365.789,-0.566454,-0.245327,-0.987320
1144785365.799,-0.578225,-0.253156,-0.944401
1144785365.809,-0.660618,-0.229670,-0.963910
1144785365.819,-0.684159,-0.241413,-0.991221
1144785365.829,-0.656694,-0.217927,-1.010730
1144785365.839,-0.637077,-0.186613,-1.026336
1144785365.849,-0.660618,-0.178785,-1.041943
1144785365.859,-0.688082,-0.178785,-1.104370
1144785365.869,-0.699853,-0.214013,-1.100468
1144785365.879,-0.680235,-0.225756,-1.158993
1144785365.889,-0.692006,-0.202270,-1.186305
1144785365.899,-0.707700,-0.221842,-1.135583
1144785365.909,-0.684159,-0.304041,-1.069255
1144785365.919,-0.668465,-0.327527,-1.018533
1144785365.929,-0.672388,-0.253156,-1.061451
1144785365.939,-0.668465,-0.237499,-1.151190
1144785365.949,-0.660618,-0.284470,-1.233125
1144785365.959,-0.676312,-0.288384,-1.295552
1144785365.969,-0.672388,-0.253156,-1.330667
1144785365.979,-0.664542,-0.272727,-1.303355
1144785365.989,-0.715547,-0.300127,-1.299454
1144785365.999,-0.797940,-0.362756,-1.248732
1144785366.009,-0.856793,-0.405813,-1.190207
1144785366.019,-0.896027,-0.370584,-1.217519
1144785366.029,-0.899951,-0.296213,-1.287749
1144785366.039,-0.903874,-0.280556,-1.354077
1144785366.049,-0.868563,-0.300127,-1.416504
1144785366.059,-0.876410,-0.304041,-1.424307
1144785366.068,-0.888181,-0.284470,-1.459423
1144785366.079,-0.884257,-0.327527,-1.443816
1144785366.090,-0.872486,-0.397984,-1.365782
1144785366.099,-0.864640,-0.429298,-1.248732
1144785366.109,-0.872486,-0.397984,-1.256535
1144785366.119,-0.856793,-0.386241,-1.295552
1144785366.129,-0.852869,-0.390156,-1.322864
1144785366.139,-0.880334,-0.366670,-1.357979
1144785366.149,-0.876410,-0.319699,-1.377487
1144785366.159,-0.825405,-0.292299,-1.315060
1144785366.169,-0.821481,-0.249242,-1.291650
1144785366.179,-0.825405,-0.217927,-1.248732
1144785366.189,-0.829328,-0.245327,-1.237027
1144785366.199,-0.813634,-0.241413,-1.190207
1144785366.209,-0.758705,-0.221842,-1.178502
1144785366.219,-0.692006,-0.198356,-1.155092
1144785366.230,-0.672388,-0.237499,-1.155092
1144785366.239,-0.668465,-0.276641,-1.178502
1144785366.249,-0.664542,-0.288384,-1.147288
1144785366.259,-0.648848,-0.292299,-1.112173
1144785366.270,-0.601766,-0.331441,-1.108272
1144785366.280,-0.593919,-0.351013,-1.096566
1144785366.290,-0.637077,-0.343184,-1.045845
1144785366.300,-0.664542,-0.315784,-1.006828
1144785366.310,-0.680235,-0.315784,-1.030238
1144785366.320,-0.609613,-0.358841,-1.002926
1144785366.330,-0.546837,-0.292299,-1.022435
1144785366.340,-0.542913,-0.217927,-1.045845
1144785366.350,-0.538990,-0.280556,-1.034140
1144785366.360,-0.566454,-0.343184,-1.006828
1144785366.370,-0.589995,-0.311870,-0.987320
1144785366.380,-0.586072,-0.276641,-0.967811
1144785366.390,-0.535066,-0.249242,-0.991221
1144785366.400,-0.491908,-0.229670,-0.956106
1144785366.410,-0.476214,-0.264899,-0.917089
1144785366.420,-0.507602,-0.284470,-0.858564
1144785366.430,-0.538990,-0.276641,-0.800039
1144785366.440,-0.546837,-0.264899,-0.776629
1144785366.450,-0.499755,-0.268813,-0.737612
1144785366.460,-0.511525,-0.229670,-0.722005
1144785366.470,-0.515449,-0.206185,-0.710300
1144785366.480,-0.476214,-0.229670,-0.671284
1144785366.490,-0.436979,-0.214013,-0.675185
1144785366.500,-0.421285,-0.182699,-0.659579
1144785366.511,-0.389897,-0.198356,-0.573742
1144785366.520,-0.350662,-0.210099,-0.515217
1144785366.530,-0.315351,-0.190527,-0.444986
1144785366.540,-0.315351,-0.147470,-0.417675
1144785366.550,-0.319274,-0.127899,-0.343543
1144785366.560,-0.299657,-0.112242,-0.363051
1144785366.570,-0.280039,-0.170956,-0.343543
1144785366.580,-0.232957,-0.221842,-0.324034
1144785366.590,-0.240804,-0.214013,-0.316231
1144785366.600,-0.252575,-0.178785,-0.320133
1144785366.610,-0.221187,-0.194442,-0.285018
1144785366.620,-0.181952,-0.233584,-0.226492
1144785366.630,-0.193722,-0.225756,-0.175771
1144785366.640,-0.213340,-0.167042,-0.175771
1144785366.650,-0.229034,-0.108328,-0.171869
1144785366.660,-0.236881,-0.069185,-0.203082
1144785366.669,-0.260422,-0.037871,-0.234296
1144785366.680,-0.276116,-0.088756,-0.253804
1144785366.690,-0.283963,-0.170956,-0.288919
1144785366.700,-0.303580,-0.178785,-0.327936
1144785366.710,-0.315351,-0.182699,-0.324034
1144785366.720,-0.346739,-0.206185,-0.355248
1144785366.730,-0.358509,-0.284470,-0.386461
1144785366.740,-0.378127,-0.354927,-0.417675
1144785366.750,-0.429132,-0.362756,-0.476200
1144785366.760,-0.472290,-0.331441,-0.519118
1144785366.770,-0.495831,-0.358841,-0.569840
1144785366.780,-0.495831,-0.382327,-0.628365
1144785366.791,-0.511525,-0.382327,-0.663480
1144785366.800,-0.531143,-0.358841,-0.714202
1144785366.810,-0.554684,-0.319699,-0.772727
1144785366.820,-0.535066,-0.296213,-0.803941
1144785366.830,-0.538990,-0.311870,-0.862466
1144785366.840,-0.538990,-0.331441,-0.854663
1144785366.850,-0.562531,-0.331441,-0.858564
1144785366.860,-0.570378,-0.307956,-0.885876
1144785366.870,-0.558607,-0.311870,-0.870269
1144785366.880,-0.535066,-0.315784,-0.842958
1144785366.890,-0.527219,-0.307956,-0.842958
1144785366.900,-0.538990,-0.304041,-0.811744
1144785366.910,-0.546837,-0.304041,-0.842958
1144785366.920,-0.535066,-0.307956,-0.823449
1144785366.930,-0.535066,-0.300127,-0.800039
1144785366.940,-0.550760,-0.280556,-0.780531
1144785366.950,-0.542913,-0.276641,-0.753219
1144785366.960,-0.538990,-0.276641,-0.768826
1144785366.970,-0.523296,-0.257070,-0.768826
1144785366.980,-0.519372,-0.249242,-0.772727
1144785366.990,-0.507602,-0.264899,-0.772727
1144785367.000,-0.515449,-0.272727,-0.753219
1144785367.010,-0.527219,-0.268813,-0.737612
1144785367.020,-0.523296,-0.288384,-0.725907
1144785367.030,-0.515449,-0.292299,-0.718104
1144785367.040,-0.515449,-0.288384,-0.722005
1144785367.051,-0.507602,-0.264899,-0.710300
1144785367.060,-0.499755,-0.268813,-0.714202
1144785367.070,-0.495831,-0.292299,-0.694694
1144785367.080,-0.499755,-0.292299,-0.702497
1144785367.090,-0.499755,-0.311870,-0.725907
1144785367.100,-0.491908,-0.315784,-0.722005
1144785367.110,-0.487984,-0.323613,-0.706399
1144785367.120,-0.476214,-0.335356,-0.663480
1144785367.130,-0.452673,-0.347098,-0.659579
1144785367.140,-0.448749,-0.339270,-0.659579
1144785367.150,-0.433055,-0.347098,-0.624464
1144785367.160,-0.413438,-0.358841,-0.593250
1144785367.171,-0.425208,-0.358841,-0.562037
1144785367.180,-0.409515,-0.339270,-0.530823
1144785367.190,-0.378127,-0.347098,-0.480101
1144785367.200,-0.370280,-0.339270,-0.491807
1144785367.210,-0.350662,-0.300127,-0.472298
1144785367.220,-0.323198,-0.288384,-0.448888
1144785367.230,-0.291810,-0.300127,-0.429380
1144785367.240,-0.295733,-0.280556,-0.421576
1144785367.250,-0.319274,-0.241413,-0.386461
1144785367.261,-0.331045,-0.225756,-0.390363
1144785367.270,-0.331045,-0.198356,-0.390363
1144785367.280,-0.350662,-0.167042,-0.402068
1144785367.290,-0.374203,-0.155299,-0.390363
1144785367.300,-0.378127,-0.163127,-0.425478
1144785367.311,-0.346739,-0.167042,-0.437183
1144785367.320,-0.319274,-0.151385,-0.456691
1144785367.330,-0.311427,-0.127899,-0.472298
1144785367.341,-0.319274,-0.151385,-0.503512
1144785367.350,-0.354586,-0.178785,-0.530823
1144785367.360,-0.370280,-0.182699,-0.550332
1144785367.371,-0.429132,-0.139642,-0.585447
1144785367.381,-0.448749,-0.100499,-0.620562
1144785367.391,-0.460520,-0.123985,-0.690792
1144785367.401,-0.460520,-0.167042,-0.776629
1144785367.411,-0.468367,-0.198356,-0.815646
1144785367.421,-0.480137,-0.190527,-0.850761
1144785367.431,-0.456596,-0.217927,-0.846859
1144785367.441,-0.452673,-0.268813,-0.823449
1144785367.450,-0.472290,-0.284470,-0.788334
1144785367.461,-0.515449,-0.245327,-0.831253
1144785367.471,-0.527219,-0.221842,-0.839056
1144785367.481,-0.527219,-0.190527,-0.874171
1144785367.491,-0.531143,-0.167042,-0.913188
1144785367.501,-0.538990,-0.151385,-0.928794
1144785367.511,-0.531143,-0.151385,-0.963910
1144785367.521,-0.511525,-0.178785,-0.963910
1144785367.531,-0.519372,-0.245327,-0.948303
1144785367.542,-0.535066,-0.288384,-0.944401
1144785367.550,-0.558607,-0.253156,-0.952205
1144785367.561,-0.566454,-0.237499,-0.944401
1144785367.571,-0.562531,-0.260984,-0.963910
1144785367.581,-0.542913,-0.296213,-0.944401
1144785367.591,-0.542913,-0.300127,-0.917089
1144785367.601,-0.574301,-0.284470,-0.913188
1144785367.611,-0.570378,-0.307956,-0.866368
1144785367.621,-0.605689,-0.335356,-0.850761
1144785367.631,-0.641000,-0.307956,-0.885876
1144785367.641,-0.633154,-0.288384,-0.885876
1144785367.650,-0.609613,-0.237499,-0.928794
1144785367.661,-0.582148,-0.178785,-0.924893
1144785367.671,-0.582148,-0.178785,-0.940500
1144785367.681,-0.586072,-0.198356,-0.960008
1144785367.691,-0.601766,-0.167042,-0.999025
1144785367.701,-0.589995,-0.155299,-0.960008
1144785367.710,-0.578225,-0.186613,-0.944401
1144785367.721,-0.566454,-0.190527,-0.936598
1144785367.731,-0.558607,-0.186613,-0.909286
1144785367.741,-0.546837,-0.167042,-0.913188
1144785367.750,-0.546837,-0.163127,-0.917089
1144785367.760,-0.558607,-0.178785,-0.901483
1144785367.771,-0.562531,-0.217927,-0.897581
1144785367.781,-0.558607,-0.206185,-0.874171
1144785367.791,-0.574301,-0.182699,-0.917089
1144785367.801,-0.558607,-0.214013,-0.917089
1144785367.811,-0.554684,-0.217927,-0.920991
1144785367.823,-0.554684,-0.221842,-0.924893
1144785367.831,-0.562531,-0.206185,-0.920991
1144785367.841,-0.558607,-0.206185,-0.913188
1144785367.850,-0.546837,-0.214013,-0.932696
1144785367.861,-0.538990,-0.198356,-0.928794
1144785367.871,-0.550760,-0.190527,-0.913188
1144785367.881,-0.578225,-0.178785,-0.963910
1144785367.891,-0.574301,-0.186613,-0.960008
1144785367.901,-0.582148,-0.186613,-0.963910
1144785367.911,-0.601766,-0.194442,-0.963910
1144785367.921,-0.609613,-0.178785,-0.967811
1144785367.931,-0.597842,-0.155299,-0.952205
1144785367.941,-0.605689,-0.159213,-0.960008
1144785367.950,-0.609613,-0.147470,-1.010730
1144785367.961,-0.641000,-0.139642,-1.014631
1144785367.971,-0.652771,-0.151385,-1.049746
1144785367.981,-0.652771,-0.139642,-1.057550
1144785367.991,-0.641000,-0.143556,-1.049746
1144785368.000,-0.664542,-0.159213,-1.069255
1144785368.011,-0.688082,-0.182699,-1.108272
1144785368.021,-0.680235,-0.182699,-1.139485
1144785368.031,-0.695929,-0.198356,-1.174600
1144785368.041,-0.707700,-0.194442,-1.209715
1144785368.051,-0.715547,-0.170956,-1.237027
1144785368.061,-0.743011,-0.147470,-1.260437
1144785368.071,-0.770476,-0.159213,-1.272142
1144785368.081,-0.786170,-0.182699,-1.272142
1144785368.092,-0.790093,-0.182699,-1.330667
1144785368.101,-0.805787,-0.174870,-1.381389
1144785368.111,-0.805787,-0.194442,-1.404799
1144785368.121,-0.809711,-0.221842,-1.420406
1144785368.131,-0.833252,-0.249242,-1.439914
1144785368.141,-0.856793,-0.253156,-1.436013
1144785368.152,-0.876410,-0.272727,-1.447717
1144785368.161,-0.888181,-0.272727,-1.443816
1144785368.171,-0.892104,-0.268813,-1.412602
1144785368.181,-0.876410,-0.280556,-1.361881
1144785368.191,-0.856793,-0.276641,-1.338471
1144785368.201,-0.841099,-0.253156,-1.338471
1144785368.211,-0.841099,-0.245327,-1.315060
1144785368.221,-0.852869,-0.229670,-1.326766
1144785368.231,-0.880334,-0.190527,-1.326766
1144785368.241,-0.880334,-0.155299,-1.326766
1144785368.252,-0.864640,-0.143556,-1.318962
1144785368.261,-0.829328,-0.108328,-1.342372
1144785368.271,-0.786170,-0.100499,-1.279945
1144785368.281,-0.766552,-0.120070,-1.252634
1144785368.292,-0.782246,-0.123985,-1.194109
1144785368.301,-0.762629,-0.147470,-1.198010
1144785368.311,-0.715547,-0.159213,-1.194109
1144785368.321,-0.676312,-0.174870,-1.178502
1144785368.331,-0.664542,-0.206185,-1.151190
1144785368.341,-0.664542,-0.241413,-1.162895
1144785368.352,-0.672388,-0.268813,-1.151190
1144785368.361,-0.684159,-0.257070,-1.158993
1144785368.371,-0.695929,-0.257070,-1.139485
1144785368.381,-0.672388,-0.272727,-1.119977
1144785368.391,-0.688082,-0.264899,-1.147288
1144785368.401,-0.723394,-0.253156,-1.174600
1144785368.411,-0.680235,-0.288384,-1.198010
1144785368.421,-0.644924,-0.284470,-1.182403
1144785368.431,-0.637077,-0.288384,-1.155092
1144785368.441,-0.613536,-0.311870,-1.170698
1144785368.452,-0.597842,-0.315784,-1.112173
1144785368.461,-0.574301,-0.288384,-1.057550
1144785368.472,-0.570378,-0.245327,-1.022435
1144785368.482,-0.578225,-0.210099,-0.971713
1144785368.492,-0.589995,-0.167042,-0.881974
1144785368.502,-0.589995,-0.123985,-0.827351
1144785368.511,-0.582148,-0.108328,-0.792236
1144785368.522,-0.519372,-0.123985,-0.780531
1144785368.532,-0.460520,-0.116156,-0.737612
1144785368.542,-0.436979,-0.112242,-0.640070
1144785368.551,-0.401668,-0.163127,-0.601053
1144785368.562,-0.366356,-0.210099,-0.530823
1144785368.573,-0.342815,-0.221842,-0.480101
1144785368.582,-0.323198,-0.202270,-0.448888
1144785368.592,-0.311427,-0.170956,-0.441085
1144785368.602,-0.248651,-0.120070,-0.433281
1144785368.612,-0.221187,-0.104413,-0.409871
1144785368.622,-0.205493,-0.104413,-0.394265
1144785368.632,-0.213340,-0.131813,-0.382560
1144785368.642,-0.213340,-0.147470,-0.347444
1144785368.652,-0.205493,-0.143556,-0.296723
1144785368.662,-0.181952,-0.151385,-0.253804
1144785368.672,-0.138794,-0.155299,-0.230394
1144785368.682,-0.134870,-0.147470,-0.277214
1144785368.692,-0.115253,-0.167042,-0.292821
1144785368.702,-0.107406,-0.194442,-0.288919
1144785368.712,-0.111329,-0.190527,-0.249902
1144785368.722,-0.119176,-0.194442,-0.242099
1144785368.732,-0.138794,-0.174870,-0.253804
1144785368.742,-0.162334,-0.167042,-0.265509
1144785368.752,-0.193722,-0.182699,-0.269411
1144785368.762,-0.225110,-0.170956,-0.277214
1144785368.772,-0.260422,-0.139642,-0.296723
1144785368.782,-0.287886,-0.143556,-0.335739
1144785368.792,-0.303580,-0.178785,-0.374756
1144785368.802,-0.334968,-0.229670,-0.409871
1144785368.812,-0.366356,-0.257070,-0.472298
1144785368.822,-0.370280,-0.280556,-0.503512
1144785368.832,-0.382050,-0.323613,-0.530823
1144785368.842,-0.382050,-0.374498,-0.534725
1144785368.852,-0.397744,-0.386241,-0.577643
1144785368.862,-0.429132,-0.390156,-0.640070
1144785368.872,-0.417361,-0.413641,-0.663480
1144785368.882,-0.425208,-0.433213,-0.679087
1144785368.892,-0.452673,-0.421470,-0.710300
1144785368.902,-0.472290,-0.413641,-0.718104
1144785368.912,-0.480137,-0.425384,-0.749317
1144785368.922,-0.491908,-0.433213,-0.784432
1144785368.932,-0.519372,-0.413641,-0.827351
1144785368.942,-0.515449,-0.405813,-0.835154
1144785368.952,-0.503678,-0.394070,-0.850761
1144785368.962,-0.503678,-0.386241,-0.854663
1144785368.972,-0.531143,-0.374498,-0.862466
1144785368.982,-0.542913,-0.362756,-0.874171
1144785368.992,-0.546837,-0.339270,-0.889778
1144785369.002,-0.523296,-0.300127,-0.909286
1144785369.012,-0.499755,-0.311870,-0.866368
1144785369.022,-0.503678,-0.319699,-0.881974
1144785369.032,-0.515449,-0.307956,-0.885876
1144785369.042,-0.531143,-0.319699,-0.881974
1144785369.052,-0.531143,-0.335356,-0.870269
1144785369.062,-0.523296,-0.347098,-0.831253
1144785369.072,-0.531143,-0.335356,-0.800039
1144785369.082,-0.523296,-0.315784,-0.780531
1144785369.093,-0.519372,-0.311870,-0.776629
1144785369.102,-0.531143,-0.319699,-0.776629
1144785369.112,-0.542913,-0.339270,-0.772727
1144785369.122,-0.538990,-0.331441,-0.800039
1144785369.132,-0.519372,-0.331441,-0.784432
1144785369.142,-0.491908,-0.327527,-0.737612
1144785369.152,-0.464443,-0.335356,-0.690792
1144785369.162,-0.444826,-0.362756,-0.636169
1144785369.172,-0.421285,-0.378413,-0.608857
1144785369.182,-0.382050,-0.370584,-0.581545
1144785369.192,-0.346739,-0.339270,-0.534725
1144785369.202,-0.319274,-0.339270,-0.487905
1144785369.212,-0.307504,-0.358841,-0.456691
1144785369.222,-0.299657,-0.319699,-0.421576
1144785369.232,-0.311427,-0.304041,-0.374756
1144785369.242,-0.307504,-0.264899,-0.343543
1144785369.252,-0.287886,-0.257070,-0.312329
1144785369.262,-0.260422,-0.257070,-0.316231
1144785369.272,-0.201569,-0.245327,-0.312329
1144785369.282,-0.178028,-0.237499,-0.269411
1144785369.292,-0.150564,-0.233584,-0.261607
1144785369.302,-0.154487,-0.241413,-0.218689
1144785369.312,-0.178028,-0.198356,-0.218689
1144785369.324,-0.205493,-0.167042,-0.234296
1144785369.333,-0.193722,-0.147470,-0.257706
1144785369.343,-0.170181,-0.147470,-0.257706
1144785369.353,-0.193722,-0.151385,-0.273313
1144785369.362,-0.236881,-0.163127,-0.320133
1144785369.373,-0.280039,-0.174870,-0.366953
1144785369.382,-0.323198,-0.178785,-0.433281
1144785369.393,-0.354586,-0.202270,-0.460593
1144785369.403,-0.354586,-0.233584,-0.519118
1144785369.413,-0.350662,-0.253156,-0.573742
1144785369.423,-0.374203,-0.221842,-0.597152
1144785369.433,-0.378127,-0.221842,-0.636169
1144785369.443,-0.397744,-0.276641,-0.632267
1144785369.453,-0.421285,-0.268813,-0.663480
1144785369.463,-0.436979,-0.233584,-0.710300
1144785369.473,-0.460520,-0.194442,-0.796137
1144785369.483,-0.444826,-0.167042,-0.889778
1144785369.493,-0.436979,-0.167042,-0.967811
1144785369.503,-0.444826,-0.194442,-1.022435
1144785369.513,-0.460520,-0.233584,-1.018533
1144785369.523,-0.499755,-0.225756,-0.991221
1144785369.533,-0.538990,-0.245327,-0.948303
1144785369.543,-0.550760,-0.253156,-0.963910
1144785369.553,-0.546837,-0.284470,-0.936598
1144785369.563,-0.562531,-0.284470,-0.932696
1144785369.573,-0.578225,-0.284470,-0.963910
1144785369.583,-0.593919,-0.268813,-0.991221
1144785369.593,-0.609613,-0.288384,-1.022435
1144785369.604,-0.633154,-0.304041,-1.022435
1144785369.613,-0.668465,-0.331441,-1.053648
1144785369.623,-0.676312,-0.343184,-1.041943
1144785369.633,-0.664542,-0.347098,-1.038041
1144785369.643,-0.660618,-0.343184,-1.030238
1144785369.653,-0.664542,-0.300127,-1.038041
1144785369.663,-0.664542,-0.264899,-1.057550
1144785369.673,-0.652771,-0.268813,-1.038041
1144785369.683,-0.668465,-0.225756,-1.069255
1144785369.693,-0.656694,-0.206185,-1.084862
1144785369.703,-0.625306,-0.170956,-1.077058
1144785369.712,-0.597842,-0.178785,-1.077058
1144785369.723,-0.597842,-0.214013,-1.049746
1144785369.733,-0.609613,-0.241413,-1.049746
1144785369.743,-0.578225,-0.268813,-1.014631
1144785369.753,-0.589995,-0.241413,-0.979516
1144785369.763,-0.629230,-0.221842,-0.987320
1144785369.773,-0.648848,-0.198356,-1.002926
1144785369.783,-0.625306,-0.186613,-1.026336
1144785369.793,-0.601766,-0.186613,-1.002926
1144785369.803,-0.582148,-0.194442,-1.010730
1144785369.813,-0.593919,-0.194442,-0.999025
1144785369.823,-0.617460,-0.194442,-1.022435
1144785369.833,-0.593919,-0.229670,-1.038041
1144785369.843,-0.586072,-0.217927,-1.041943
1144785369.853,-0.578225,-0.217927,-0.987320
1144785369.863,-0.593919,-0.229670,-0.975615
1144785369.873,-0.601766,-0.202270,-0.995123
1144785369.883,-0.593919,-0.151385,-1.030238
1144785369.893,-0.566454,-0.139642,-1.002926
1144785369.903,-0.582148,-0.143556,-1.045845
1144785369.913,-0.637077,-0.151385,-1.041943
1144785369.923,-0.688082,-0.182699,-1.088763
1144785369.933,-0.703776,-0.190527,-1.143387
1144785369.943,-0.695929,-0.194442,-1.147288
1144785369.953,-0.711623,-0.194442,-1.186305
1144785369.963,-0.723394,-0.249242,-1.186305
1144785369.973,-0.719470,-0.229670,-1.256535
1144785369.983,-0.727317,-0.174870,-1.338471
1144785369.993,-0.746935,-0.155299,-1.455521
1144785370.003,-0.770476,-0.167042,-1.537456
1144785370.013,-0.778323,-0.178785,-1.634998
1144785370.023,-0.766552,-0.221842,-1.631096
1144785370.033,-0.746935,-0.292299,-1.595981
1144785370.043,-0.770476,-0.288384,-1.603785
1144785370.053,-0.778323,-0.288384,-1.611588
1144785370.064,-0.805787,-0.323613,-1.611588
1144785370.074,-0.837175,-0.339270,-1.631096
1144785370.083,-0.864640,-0.319699,-1.634998
1144785370.094,-0.892104,-0.264899,-1.634998
1144785370.104,-0.880334,-0.214013,-1.580375
1144785370.113,-0.868563,-0.194442,-1.506243
1144785370.124,-0.896027,-0.198356,-1.471128
1144785370.134,-0.899951,-0.217927,-1.412602
1144785370.144,-0.860716,-0.229670,-1.361881
1144785370.154,-0.817558,-0.233584,-1.287749
1144785370.164,-0.794017,-0.186613,-1.311159
1144785370.174,-0.770476,-0.151385,-1.311159
1144785370.184,-0.723394,-0.159213,-1.283847
1144785370.194,-0.680235,-0.147470,-1.260437
1144785370.204,-0.664542,-0.143556,-1.252634
1144785370.214,-0.641000,-0.163127,-1.194109
1144785370.224,-0.633154,-0.206185,-1.178502
1144785370.233,-0.648848,-0.225756,-1.186305
1144785370.244,-0.644924,-0.229670,-1.213617
1144785370.254,-0.597842,-0.268813,-1.198010
1144785370.264,-0.554684,-0.300127,-1.166797
1144785370.274,-0.546837,-0.327527,-1.174600
1144785370.284,-0.535066,-0.315784,-1.182403
1144785370.294,-0.507602,-0.264899,-1.147288
1144785370.304,-0.487984,-0.221842,-1.038041
1144785370.314,-0.499755,-0.178785,-0.999025
1144785370.324,-0.527219,-0.135728,-0.999025
1144785370.334,-0.531143,-0.088756,-1.018533
1144785370.344,-0.487984,-0.077013,-1.002926
1144785370.355,-0.440902,-0.084842,-0.963910
1144785370.364,-0.444826,-0.084842,-0.932696
1144785370.374,-0.425208,-0.151385,-0.901483
1144785370.384,-0.405591,-0.217927,-0.854663
1144785370.394,-0.405591,-0.206185,-0.811744
1144785370.404,-0.440902,-0.202270,-0.792236
1144785370.414,-0.452673,-0.206185,-0.807842
1144785370.424,-0.444826,-0.143556,-0.823449
1144785370.434,-0.413438,-0.104413,-0.807842
1144785370.444,-0.334968,-0.104413,-0.803941
1144785370.454,-0.331045,-0.096585,-0.737612
1144785370.464,-0.342815,-0.112242,-0.702497
1144785370.474,-0.334968,-0.163127,-0.624464
1144785370.484,-0.303580,-0.194442,-0.569840
1144785370.494,-0.280039,-0.170956,-0.495708
1144785370.504,-0.244728,-0.170956,-0.386461
1144785370.514,-0.193722,-0.155299,-0.351346
1144785370.524,-0.162334,-0.163127,-0.304526
1144785370.534,-0.158411,-0.198356,-0.273313
1144785370.544,-0.174105,-0.210099,-0.261607
1144785370.554,-0.193722,-0.167042,-0.253804
1144785370.564,-0.217263,-0.084842,-0.308428
1144785370.574,-0.158411,-0.065271,-0.331838
1144785370.584,-0.091712,-0.073099,-0.339641
1144785370.594,-0.079941,-0.069185,-0.316231
1144785370.604,-0.099559,-0.092670,-0.296723
1144785370.614,-0.130947,-0.182699,-0.261607
1144785370.624,-0.150564,-0.272727,-0.273313
1144785370.636,-0.158411,-0.319699,-0.246001
1144785370.644,-0.170181,-0.288384,-0.249902
1144785370.654,-0.170181,-0.241413,-0.308428
1144785370.664,-0.170181,-0.198356,-0.347444
1144785370.674,-0.217263,-0.170956,-0.425478
1144785370.684,-0.272192,-0.170956,-0.452790
1144785370.694,-0.280039,-0.167042,-0.487905
1144785370.704,-0.307504,-0.174870,-0.526922
1144785370.714,-0.334968,-0.210099,-0.581545
1144785370.724,-0.370280,-0.276641,-0.608857
1144785370.734,-0.393821,-0.300127,-0.651775
1144785370.744,-0.405591,-0.276641,-0.698595
1144785370.755,-0.397744,-0.288384,-0.733711
1144785370.764,-0.389897,-0.307956,-0.757121
1144785370.774,-0.401668,-0.304041,-0.815646
1144785370.784,-0.433055,-0.296213,-0.846859
1144785370.794,-0.433055,-0.296213,-0.889778
1144785370.804,-0.429132,-0.260984,-0.928794
1144785370.815,-0.476214,-0.245327,-0.909286
1144785370.825,-0.495831,-0.237499,-0.940500
1144785370.835,-0.503678,-0.206185,-0.952205
1144785370.845,-0.499755,-0.174870,-0.952205
1144785370.855,-0.460520,-0.182699,-0.936598
1144785370.865,-0.452673,-0.217927,-0.936598
1144785370.875,-0.456596,-0.257070,-0.956106
1144785370.885,-0.456596,-0.288384,-0.920991
1144785370.895,-0.472290,-0.280556,-0.932696
1144785370.905,-0.464443,-0.272727,-0.917089
1144785370.915,-0.448749,-0.260984,-0.893679
1144785370.925,-0.448749,-0.237499,-0.913188
1144785370.935,-0.448749,-0.198356,-0.901483
1144785370.945,-0.460520,-0.186613,-0.893679
1144785370.955,-0.464443,-0.198356,-0.870269
1144785370.965,-0.464443,-0.206185,-0.862466
1144785370.975,-0.495831,-0.182699,-0.870269
1144785370.985,-0.511525,-0.202270,-0.842958
1144785370.995,-0.495831,-0.198356,-0.846859
1144785371.005,-0.480137,-0.178785,-0.842958
1144785371.015,-0.480137,-0.155299,-0.850761
1144785371.025,-0.480137,-0.143556,-0.835154
1144785371.035,-0.484061,-0.135728,-0.846859
1144785371.044,-0.476214,-0.139642,-0.854663
1144785371.055,-0.487984,-0.127899,-0.842958
1144785371.065,-0.476214,-0.116156,-0.870269
1144785371.075,-0.464443,-0.127899,-0.854663
1144785371.085,-0.472290,-0.135728,-0.854663
1144785371.095,-0.452673,-0.143556,-0.831253
1144785371.105,-0.436979,-0.167042,-0.807842
1144785371.115,-0.436979,-0.198356,-0.807842
1144785371.125,-0.436979,-0.214013,-0.811744
1144785371.135,-0.440902,-0.225756,-0.800039
1144785371.145,-0.436979,-0.229670,-0.776629
1144785371.155,-0.429132,-0.217927,-0.776629
1144785371.165,-0.389897,-0.241413,-0.725907
1144785371.175,-0.370280,-0.253156,-0.702497
1144785371.185,-0.382050,-0.272727,-0.675185
1144785371.195,-0.358509,-0.280556,-0.636169
1144785371.205,-0.338892,-0.300127,-0.612759
1144785371.215,-0.331045,-0.284470,-0.573742
1144785371.225,-0.331045,-0.260984,-0.562037
1144785371.235,-0.319274,-0.249242,-0.542528
1144785371.245,-0.268269,-0.237499,-0.565938
1144785371.255,-0.229034,-0.206185,-0.530823
1144785371.265,-0.217263,-0.186613,-0.495708
1144785371.275,-0.217263,-0.190527,-0.460593
1144785371.285,-0.213340,-0.214013,-0.409871
1144785371.295,-0.248651,-0.206185,-0.394265
1144785371.305,-0.260422,-0.151385,-0.405970
1144785371.315,-0.264345,-0.127899,-0.390363
1144785371.325,-0.264345,-0.108328,-0.378658
1144785371.335,-0.287886,-0.096585,-0.386461
1144785371.345,-0.307504,-0.092670,-0.405970
1144785371.355,-0.323198,-0.104413,-0.429380
1144785371.365,-0.342815,-0.123985,-0.437183
1144785371.375,-0.366356,-0.120070,-0.460593
1144785371.386,-0.389897,-0.108328,-0.472298
1144785371.395,-0.401668,-0.112242,-0.491807
1144785371.405,-0.385974,-0.131813,-0.507413
1144785371.415,-0.382050,-0.143556,-0.534725
1144785371.425,-0.393821,-0.127899,-0.562037
1144785371.435,-0.405591,-0.108328,-0.554233
1144785371.445,-0.401668,-0.116156,-0.577643
1144785371.455,-0.409515,-0.127899,-0.632267
1144785371.465,-0.421285,-0.112242,-0.682989
1144785371.475,-0.417361,-0.108328,-0.698595
1144785371.485,-0.421285,-0.139642,-0.675185
1144785371.495,-0.452673,-0.155299,-0.682989
1144785371.505,-0.507602,-0.147470,-0.698595
1144785371.515,-0.538990,-0.151385,-0.729809
1144785371.525,-0.558607,-0.131813,-0.749317
1144785371.535,-0.562531,-0.080928,-0.796137
1144785371.545,-0.535066,-0.061356,-0.839056
1144785371.555,-0.515449,-0.080928,-0.885876
1144785371.565,-0.503678,-0.116156,-0.948303
1144785371.575,-0.515449,-0.116156,-0.960008
1144785371.585,-0.546837,-0.096585,-0.975615
1144785371.595,-0.538990,-0.104413,-0.944401
1144785371.605,-0.527219,-0.120070,-0.913188
1144785371.615,-0.535066,-0.080928,-0.936598
1144785371.625,-0.542913,-0.037871,-1.002926
1144785371.635,-0.550760,-0.010471,-1.038041
1144785371.645,-0.566454,-0.041785,-1.092665
1144785371.655,-0.586072,-0.069185,-1.100468
1144785371.667,-0.582148,-0.073099,-1.080960
1144785371.675,-0.593919,-0.057442,-1.049746
1144785371.685,-0.582148,-0.041785,-1.038041
1144785371.695,-0.578225,-0.077013,-1.034140
1144785371.705,-0.593919,-0.139642,-1.018533
1144785371.715,-0.652771,-0.147470,-1.022435
1144785371.725,-0.660618,-0.163127,-1.010730
1144785371.735,-0.644924,-0.155299,-1.030238
1144785371.745,-0.597842,-0.135728,-1.022435
1144785371.755,-0.574301,-0.167042,-1.030238
1144785371.765,-0.613536,-0.147470,-1.069255
1144785371.775,-0.609613,-0.139642,-1.061451
1144785371.785,-0.605689,-0.123985,-1.038041
1144785371.795,-0.625306,-0.092670,-1.061451
1144785371.805,-0.656694,-0.100499,-1.073157
1144785371.815,-0.680235,-0.092670,-1.096566
1144785371.825,-0.703776,-0.084842,-1.092665
1144785371.835,-0.699853,-0.077013,-1.080960
1144785371.845,-0.664542,-0.080928,-1.080960
1144785371.855,-0.629230,-0.084842,-1.073157
1144785371.865,-0.633154,-0.077013,-1.084862
1144785371.875,-0.637077,-0.065271,-1.092665
1144785371.885,-0.648848,-0.080928,-1.123878
1144785371.895,-0.652771,-0.080928,-1.162895
1144785371.905,-0.656694,-0.077013,-1.151190
1144785371.915,-0.707700,-0.096585,-1.174600
1144785371.925,-0.739088,-0.123985,-1.201912
1144785371.935,-0.774399,-0.155299,-1.252634
1144785371.945,-0.794017,-0.194442,-1.264339
1144785371.955,-0.817558,-0.198356,-1.330667
1144785371.965,-0.825405,-0.147470,-1.393094
1144785371.975,-0.813634,-0.143556,-1.389192
1144785371.985,-0.801864,-0.131813,-1.459423
1144785371.995,-0.829328,-0.088756,-1.490636
1144785372.005,-0.841099,-0.053528,-1.482833
1144785372.015,-0.841099,-0.037871,-1.490636
1144785372.025,-0.852869,-0.057442,-1.514046
1144785372.035,-0.860716,-0.104413,-1.537456
1144785372.045,-0.860716,-0.108328,-1.506243
1144785372.056,-0.829328,-0.120070,-1.451619
1144785372.066,-0.821481,-0.116156,-1.428209
1144785372.076,-0.813634,-0.108328,-1.381389
1144785372.086,-0.813634,-0.120070,-1.381389
1144785372.097,-0.805787,-0.127899,-1.357979
1144785372.106,-0.801864,-0.131813,-1.350176
1144785372.116,-0.805787,-0.127899,-1.357979
1144785372.126,-0.801864,-0.139642,-1.361881
1144785372.136,-0.778323,-0.131813,-1.315060
1144785372.146,-0.754782,-0.104413,-1.279945
1144785372.156,-0.750858,-0.116156,-1.244830
1144785372.166,-0.746935,-0.123985,-1.240929
1144785372.176,-0.735164,-0.088756,-1.252634
1144785372.186,-0.692006,-0.073099,-1.252634
1144785372.196,-0.664542,-0.080928,-1.244830
1144785372.206,-0.644924,-0.104413,-1.186305
1144785372.216,-0.672388,-0.104413,-1.268240
1144785372.226,-0.633154,-0.053528,-1.268240
1144785372.236,-0.582148,-0.065271,-1.205813
1144785372.246,-0.578225,-0.057442,-1.147288
1144785372.256,-0.586072,-0.018299,-1.155092
1144785372.266,-0.570378,-0.018299,-1.182403
1144785372.276,-0.527219,-0.041785,-1.229224
1144785372.286,-0.519372,-0.033956,-1.283847
1144785372.296,-0.527219,-0.033956,-1.268240
1144785372.306,-0.511525,-0.041785,-1.213617
1144785372.316,-0.468367,-0.033956,-1.174600
1144785372.326,-0.456596,-0.002642,-1.108272
1144785372.336,-0.456596,0.009101,-1.053648
1144785372.346,-0.436979,0.005186,-0.991221
1144785372.356,-0.456596,0.001272,-0.936598
1144785372.366,-0.472290,0.013015,-0.952205
1144785372.376,-0.460520,0.067815,-0.960008
1144785372.386,-0.421285,0.138272,-0.905384
1144785372.396,-0.385974,0.161757,-0.913188
1144785372.406,-0.346739,0.138272,-0.940500
1144785372.417,-0.276116,0.099129,-0.979516
1144785372.426,-0.209416,0.032586,-0.909286
1144785372.436,-0.201569,-0.057442,-0.819547
1144785372.446,-0.217263,-0.123985,-0.757121
1144785372.456,-0.229034,-0.170956,-0.675185
1144785372.466,-0.217263,-0.178785,-0.589348
1144785372.476,-0.189799,-0.151385,-0.534725
1144785372.486,-0.189799,-0.088756,-0.507413
1144785372.496,-0.205493,0.005186,-0.460593
1144785372.505,-0.193722,0.059986,-0.417675
1144785372.516,-0.174105,0.059986,-0.374756
1144785372.526,-0.174105,0.024758,-0.417675
1144785372.536,-0.181952,0.001272,-0.425478
1144785372.546,-0.162334,-0.010471,-0.433281
1144785372.556,-0.138794,0.001272,-0.351346
1144785372.566,-0.107406,0.009101,-0.288919
1144785372.576,-0.111329,-0.006556,-0.261607
1144785372.586,-0.127023,-0.045699,-0.257706
1144785372.596,-0.130947,-0.065271,-0.304526
1144785372.606,-0.123100,-0.061356,-0.269411
1144785372.616,-0.142717,-0.037871,-0.281116
1144785372.626,-0.174105,-0.041785,-0.304526
1144785372.636,-0.185875,-0.080928,-0.312329
1144785372.646,-0.225110,-0.139642,-0.335739
1144785372.656,-0.291810,-0.147470,-0.359149
1144785372.666,-0.334968,-0.104413,-0.378658
1144785372.676,-0.378127,-0.123985,-0.409871
1144785372.686,-0.401668,-0.151385,-0.487905
1144785372.696,-0.417361,-0.143556,-0.554233
1144785372.706,-0.487984,-0.143556,-0.628365
1144785372.716,-0.546837,-0.151385,-0.663480
1144785372.726,-0.554684,-0.139642,-0.710300
1144785372.736,-0.554684,-0.104413,-0.776629
1144785372.746,-0.574301,-0.077013,-0.831253
1144785372.756,-0.562531,-0.080928,-0.881974
1144785372.766,-0.554684,-0.053528,-0.940500
1144785372.776,-0.554684,-0.018299,-0.960008
1144785372.786,-0.542913,0.009101,-0.983418
1144785372.796,-0.542913,0.032586,-1.002926
1144785372.806,-0.515449,0.083472,-1.026336
1144785372.816,-0.487984,0.169586,-1.018533
1144785372.827,-0.448749,0.181329,-1.030238
1144785372.836,-0.436979,0.169586,-1.034140
1144785372.846,-0.433055,0.130443,-1.018533
1144785372.856,-0.433055,0.106958,-0.936598
1144785372.866,-0.436979,0.103043,-0.897581
1144785372.876,-0.440902,0.122615,-0.893679
1144785372.886,-0.444826,0.114786,-0.854663
1144785372.896,-0.444826,0.114786,-0.866368
1144785372.906,-0.456596,0.142186,-0.885876
1144785372.916,-0.452673,0.138272,-0.905384
1144785372.926,-0.436979,0.099129,-0.932696
1144785372.936,-0.433055,0.095215,-0.893679
1144785372.946,-0.452673,0.075643,-0.874171
1144785372.956,-0.460520,0.059986,-0.866368
1144785372.966,-0.444826,0.063901,-0.862466
1144785372.976,-0.436979,0.095215,-0.850761
1144785372.986,-0.436979,0.114786,-0.893679
1144785372.996,-0.444826,0.146100,-0.917089
1144785373.006,-0.468367,0.146100,-0.924893
1144785373.016,-0.480137,0.118700,-0.936598
1144785373.026,-0.468367,0.095215,-0.893679
1144785373.036,-0.468367,0.083472,-0.870269
1144785373.046,-0.484061,0.059986,-0.819547
1144785373.056,-0.491908,0.044329,-0.792236
1144785373.066,-0.484061,0.020844,-0.753219
1144785373.077,-0.452673,-0.002642,-0.710300
1144785373.086,-0.425208,-0.033956,-0.682989
1144785373.096,-0.413438,-0.073099,-0.671284
1144785373.107,-0.405591,-0.088756,-0.643972
1144785373.116,-0.421285,-0.088756,-0.620562
1144785373.127,-0.405591,-0.053528,-0.593250
1144785373.137,-0.366356,-0.041785,-0.573742
1144785373.147,-0.346739,-0.037871,-0.542528
1144785373.157,-0.327121,-0.033956,-0.503512
1144785373.168,-0.315351,-0.037871,-0.472298
1144785373.176,-0.307504,-0.014385,-0.468396
1144785373.187,-0.303580,0.005186,-0.448888
1144785373.197,-0.303580,0.036501,-0.421576
1144785373.207,-0.303580,0.083472,-0.409871
1144785373.217,-0.323198,0.106958,-0.370854
1144785373.227,-0.354586,0.118700,-0.413773
1144785373.237,-0.362433,0.110872,-0.421576
1144785373.247,-0.319274,0.083472,-0.421576
1144785373.257,-0.295733,0.091301,-0.468396
1144785373.267,-0.287886,0.067815,-0.452790
1144785373.277,-0.295733,-0.002642,-0.460593
1144785373.287,-0.287886,-0.030042,-0.472298
1144785373.297,-0.287886,-0.030042,-0.444986
1144785373.307,-0.327121,0.016929,-0.487905
1144785373.317,-0.350662,0.024758,-0.484003
1144785373.327,-0.378127,0.044329,-0.534725
1144785373.337,-0.401668,0.048243,-0.612759
1144785373.347,-0.374203,-0.022214,-0.663480
1144785373.357,-0.397744,0.013015,-0.694694
1144785373.367,-0.397744,0.013015,-0.659579
1144785373.377,-0.397744,-0.018299,-0.663480
1144785373.387,-0.382050,-0.045699,-0.694694
1144785373.397,-0.425208,-0.006556,-0.737612
1144785373.407,-0.456596,0.052158,-0.772727
1144785373.417,-0.491908,0.083472,-0.815646
1144785373.427,-0.507602,0.110872,-0.835154
1144785373.437,-0.538990,0.134358,-0.827351
1144785373.448,-0.582148,0.157843,-0.874171
1144785373.457,-0.593919,0.169586,-0.858564
1144785373.467,-0.605689,0.146100,-0.854663
1144785373.477,-0.621383,0.130443,-0.874171
1144785373.487,-0.641000,0.110872,-0.839056
1144785373.497,-0.601766,0.095215,-0.831253
1144785373.507,-0.562531,0.110872,-0.811744
1144785373.517,-0.546837,0.153929,-0.862466
1144785373.527,-0.523296,0.146100,-0.905384
1144785373.537,-0.558607,0.122615,-0.917089
1144785373.547,-0.597842,0.130443,-0.932696
1144785373.557,-0.641000,0.130443,-0.944401
1144785373.567,-0.637077,0.161757,-0.952205
1144785373.577,-0.617460,0.173500,-1.002926
1144785373.587,-0.597842,0.173500,-0.975615
1144785373.597,-0.586072,0.146100,-0.936598
1144785373.607,-0.578225,0.118700,-0.940500
1144785373.617,-0.589995,0.126529,-0.928794
1144785373.627,-0.593919,0.106958,-0.948303
1144785373.637,-0.601766,0.130443,-0.948303
1144785373.647,-0.617460,0.177415,-0.940500
1144785373.657,-0.641000,0.247872,-0.979516
1144785373.667,-0.601766,0.232215,-0.999025
1144785373.677,-0.582148,0.185243,-1.006828
1144785373.687,-0.597842,0.161757,-1.034140
1144785373.697,-0.621383,0.169586,-0.987320
1144785373.707,-0.668465,0.185243,-0.971713
1144785373.717,-0.668465,0.216557,-0.932696
1144785373.727,-0.637077,0.240043,-0.948303
1144785373.737,-0.609613,0.263529,-0.975615
1144785373.747,-0.617460,0.275272,-0.999025
1144785373.757,-0.641000,0.263529,-1.049746
1144785373.767,-0.688082,0.267443,-1.092665
1144785373.777,-0.707700,0.236129,-1.116075
1144785373.787,-0.676312,0.240043,-1.147288
1144785373.797,-0.633154,0.240043,-1.123878
1144785373.807,-0.593919,0.263529,-1.139485
1144785373.817,-0.538990,0.259614,-1.084862
1144785373.827,-0.519372,0.251786,-1.041943
1144785373.837,-0.546837,0.236129,-1.049746
1144785373.847,-0.605689,0.204815,-1.069255
1144785373.857,-0.676312,0.196986,-1.100468
1144785373.867,-0.707700,0.212643,-1.104370
1144785373.877,-0.711623,0.224386,-1.088763
1144785373.887,-0.707700,0.220472,-1.100468
1144785373.897,-0.739088,0.208729,-1.116075
1144785373.907,-0.746935,0.157843,-1.127780
1144785373.918,-0.770476,0.185243,-1.143387
1144785373.927,-0.801864,0.243957,-1.194109
1144785373.937,-0.805787,0.267443,-1.248732
1144785373.947,-0.829328,0.298757,-1.354077
1144785373.957,-0.841099,0.322243,-1.400897
1144785373.967,-0.860716,0.353557,-1.490636
1144785373.977,-0.852869,0.365300,-1.521849
1144785373.987,-0.837175,0.373128,-1.580375
1144785373.997,-0.829328,0.404443,-1.638900
1144785374.007,-0.809711,0.365300,-1.595981
1144785374.017,-0.809711,0.318329,-1.584276
1144785374.027,-0.805787,0.275272,-1.541358
1144785374.037,-0.797940,0.290929,-1.506243
1144785374.047,-0.794017,0.283100,-1.490636
1144785374.057,-0.801864,0.251786,-1.447717
1144785374.067,-0.797940,0.232215,-1.432111
1144785374.077,-0.786170,0.255700,-1.432111
1144785374.087,-0.782246,0.263529,-1.404799
1144785374.098,-0.790093,0.263529,-1.377487
1144785374.107,-0.794017,0.259614,-1.326766
1144785374.117,-0.801864,0.275272,-1.276044
1144785374.127,-0.782246,0.290929,-1.264339
1144785374.137,-0.735164,0.306586,-1.264339
1144785374.147,-0.746935,0.322243,-1.248732
1144785374.157,-0.727317,0.369214,-1.264339
1144785374.167,-0.719470,0.400528,-1.256535
1144785374.177,-0.664542,0.412271,-1.244830
1144785374.187,-0.617460,0.400528,-1.240929
1144785374.198,-0.617460,0.373128,-1.248732
1144785374.207,-0.621383,0.310500,-1.194109
1144785374.217,-0.621383,0.259614,-1.182403
1144785374.228,-0.633154,0.243957,-1.151190
1144785374.238,-0.621383,0.247872,-1.127780
1144785374.248,-0.593919,0.243957,-1.108272
1144785374.258,-0.589995,0.251786,-1.073157
1144785374.268,-0.586072,0.275272,-1.073157
1144785374.278,-0.574301,0.275272,-1.053648
1144785374.288,-0.562531,0.298757,-1.080960
1144785374.298,-0.535066,0.333986,-1.026336
1144785374.308,-0.503678,0.330071,-0.999025
1144785374.318,-0.480137,0.330071,-0.932696
1144785374.328,-0.436979,0.294843,-0.885876
1144785374.338,-0.393821,0.267443,-0.796137
1144785374.348,-0.362433,0.247872,-0.714202
1144785374.358,-0.346739,0.216557,-0.659579
1144785374.368,-0.338892,0.150015,-0.577643
1144785374.378,-0.334968,0.095215,-0.526922
1144785374.388,-0.350662,0.052158,-0.460593
1144785374.398,-0.354586,0.044329,-0.523020
1144785374.408,-0.287886,0.075643,-0.519118
1144785374.418,-0.240804,0.056072,-0.480101
1144785374.428,-0.221187,0.059986,-0.491807
1144785374.437,-0.213340,0.048243,-0.456691
1144785374.448,-0.213340,-0.006556,-0.433281
1144785374.458,-0.189799,-0.022214,-0.402068
1144785374.468,-0.150564,-0.037871,-0.378658
1144785374.479,-0.142717,-0.030042,-0.343543
1144785374.488,-0.119176,-0.026128,-0.324034
1144785374.498,-0.115253,-0.022214,-0.285018
1144785374.508,-0.111329,-0.022214,-0.273313
1144785374.518,-0.103482,-0.018299,-0.269411
1144785374.528,-0.115253,-0.041785,-0.273313
1144785374.538,-0.130947,-0.049613,-0.249902
1144785374.548,-0.142717,-0.053528,-0.226492
1144785374.558,-0.178028,-0.057442,-0.242099
1144785374.568,-0.205493,-0.061356,-0.246001
1144785374.578,-0.248651,-0.061356,-0.249902
1144785374.588,-0.303580,-0.014385,-0.308428
1144785374.598,-0.350662,-0.010471,-0.351346
1144785374.608,-0.358509,-0.022214,-0.374756
1144785374.618,-0.425208,-0.022214,-0.429380
1144785374.628,-0.476214,-0.018299,-0.448888
1144785374.638,-0.487984,-0.061356,-0.484003
1144785374.648,-0.507602,-0.049613,-0.558135
1144785374.658,-0.523296,-0.033956,-0.628365
1144785374.668,-0.515449,-0.037871,-0.694694
1144785374.678,-0.538990,-0.065271,-0.725907
1144785374.688,-0.570378,-0.069185,-0.784432
1144785374.698,-0.566454,-0.053528,-0.800039
1144785374.708,-0.578225,-0.033956,-0.823449
1144785374.718,-0.589995,0.020844,-0.885876
1144785374.728,-0.570378,0.067815,-0.956106
1144785374.738,-0.546837,0.118700,-1.018533
1144785374.748,-0.527219,0.153929,-1.041943
1144785374.758,-0.480137,0.153929,-1.006828
1144785374.768,-0.464443,0.146100,-0.975615
1144785374.777,-0.448749,0.110872,-0.948303
1144785374.788,-0.444826,0.110872,-0.928794
1144785374.798,-0.440902,0.087386,-0.885876
1144785374.808,-0.444826,0.087386,-0.885876
1144785374.818,-0.464443,0.095215,-0.858564
1144785374.828,-0.476214,0.103043,-0.858564
1144785374.838,-0.487984,0.095215,-0.846859
1144785374.848,-0.495831,0.091301,-0.815646
1144785374.858,-0.519372,0.106958,-0.846859
1144785374.868,-0.519372,0.122615,-0.862466
1144785374.878,-0.495831,0.118700,-0.839056
1144785374.888,-0.484061,0.114786,-0.831253
1144785374.898,-0.491908,0.126529,-0.800039
1144785374.908,-0.487984,0.122615,-0.831253
1144785374.918,-0.487984,0.118700,-0.800039
1144785374.928,-0.480137,0.114786,-0.800039
1144785374.938,-0.491908,0.126529,-0.784432
1144785374.949,-0.523296,0.106958,-0.780531
1144785374.958,-0.519372,0.099129,-0.819547
1144785374.968,-0.531143,0.110872,-0.823449
1144785374.978,-0.507602,0.091301,-0.803941
1144785374.988,-0.491908,0.056072,-0.772727
1144785374.998,-0.495831,0.048243,-0.761022
1144785375.008,-0.487984,0.036501,-0.718104
1144785375.018,-0.464443,0.016929,-0.675185
1144785375.028,-0.413438,-0.022214,-0.659579
1144785375.038,-0.389897,-0.045699,-0.636169
1144785375.048,-0.366356,-0.065271,-0.608857
1144785375.058,-0.350662,-0.104413,-0.581545
1144785375.068,-0.350662,-0.112242,-0.558135
1144785375.078,-0.311427,-0.088756,-0.538627
1144785375.088,-0.303580,-0.045699,-0.499610
1144785375.098,-0.268269,-0.026128,-0.468396
1144785375.108,-0.236881,-0.030042,-0.444986
1144785375.118,-0.221187,-0.022214,-0.413773
1144785375.128,-0.201569,-0.010471,-0.390363
1144785375.138,-0.205493,-0.002642,-0.382560
1144785375.148,-0.193722,0.016929,-0.378658
1144785375.158,-0.201569,0.044329,-0.370854
1144785375.168,-0.197646,0.036501,-0.343543
1144785375.178,-0.193722,0.016929,-0.320133
1144785375.188,-0.217263,0.040415,-0.335739
1144785375.198,-0.240804,0.048243,-0.339641
1144785375.208,-0.260422,0.024758,-0.363051
1144785375.218,-0.299657,0.036501,-0.402068
1144785375.230,-0.354586,0.048243,-0.429380
1144785375.238,-0.417361,0.075643,-0.503512
1144785375.248,-0.464443,0.106958,-0.581545
1144785375.258,-0.507602,0.130443,-0.663480
1144785375.268,-0.507602,0.134358,-0.718104
1144785375.278,-0.468367,0.110872,-0.803941
1144785375.288,-0.464443,0.075643,-0.870269
1144785375.298,-0.464443,0.071729,-0.905384
1144785375.308,-0.499755,0.040415,-0.905384
1144785375.318,-0.523296,0.009101,-0.897581
1144785375.328,-0.535066,0.075643,-0.920991
1144785375.338,-0.531143,0.153929,-0.952205
1144785375.348,-0.511525,0.161757,-0.987320
1144785375.358,-0.519372,0.153929,-1.038041
1144785375.368,-0.558607,0.157843,-1.010730
1144785375.378,-0.578225,0.134358,-0.987320
1144785375.388,-0.570378,0.087386,-0.928794
1144785375.398,-0.570378,0.083472,-0.924893
1144785375.408,-0.582148,0.063901,-0.917089
1144785375.418,-0.566454,0.032586,-0.905384
1144785375.428,-0.562531,0.048243,-0.924893
1144785375.438,-0.558607,0.063901,-0.932696
1144785375.448,-0.527219,0.036501,-1.002926
1144785375.458,-0.535066,0.024758,-1.022435
1144785375.468,-0.558607,-0.006556,-1.034140
1144785375.478,-0.566454,-0.037871,-1.030238
1144785375.488,-0.570378,-0.033956,-1.002926
1144785375.498,-0.566454,-0.014385,-0.975615
1144785375.508,-0.586072,0.005186,-0.967811
1144785375.518,-0.593919,0.071729,-0.975615
1144785375.528,-0.605689,0.099129,-0.979516
1144785375.538,-0.644924,0.091301,-1.018533
1144785375.548,-0.648848,0.083472,-1.010730
1144785375.558,-0.597842,0.071729,-0.975615
1144785375.568,-0.570378,0.052158,-0.948303
1144785375.578,-0.593919,0.056072,-0.940500
1144785375.588,-0.601766,0.024758,-0.975615
1144785375.598,-0.601766,0.028672,-0.987320
1144785375.608,-0.621383,0.079558,-0.999025
1144785375.618,-0.613536,0.106958,-0.987320
1144785375.628,-0.597842,0.118700,-0.971713
1144785375.638,-0.589995,0.103043,-0.963910
1144785375.648,-0.601766,0.083472,-0.975615
1144785375.658,-0.633154,0.099129,-0.991221
1144785375.668,-0.641000,0.091301,-0.999025
1144785375.678,-0.617460,0.091301,-1.018533
1144785375.688,-0.593919,0.106958,-1.026336
1144785375.699,-0.582148,0.083472,-1.057550
1144785375.708,-0.558607,0.052158,-1.045845
1144785375.718,-0.570378,0.001272,-1.053648
1144785375.728,-0.601766,-0.002642,-1.053648
1144785375.738,-0.613536,-0.006556,-1.045845
1144785375.748,-0.641000,-0.006556,-1.045845
1144785375.758,-0.648848,0.005186,-1.034140
1144785375.768,-0.664542,-0.002642,-1.034140
1144785375.778,-0.688082,0.032586,-1.065353
1144785375.788,-0.715547,0.052158,-1.100468
1144785375.798,-0.715547,0.044329,-1.104370
1144785375.808,-0.723394,0.052158,-1.151190
1144785375.818,-0.766552,0.103043,-1.174600
1144785375.828,-0.782246,0.099129,-1.213617
1144785375.838,-0.762629,0.095215,-1.256535
1144785375.849,-0.727317,0.134358,-1.272142
1144785375.858,-0.754782,0.153929,-1.334569
1144785375.868,-0.758705,0.153929,-1.354077
1144785375.878,-0.794017,0.157843,-1.408701
1144785375.888,-0.813634,0.173500,-1.443816
1144785375.898,-0.794017,0.181329,-1.482833
1144785375.908,-0.782246,0.185243,-1.525751
1144785375.918,-0.778323,0.130443,-1.549161
1144785375.928,-0.766552,0.059986,-1.537456
1144785375.938,-0.778323,-0.014385,-1.506243
1144785375.948,-0.805787,-0.033956,-1.498439
1144785375.958,-0.786170,-0.045699,-1.467226
1144785375.969,-0.782246,-0.018299,-1.459423
1144785375.980,-0.782246,-0.006556,-1.428209
1144785375.988,-0.794017,0.009101,-1.428209
1144785375.998,-0.813634,0.032586,-1.408701
1144785376.008,-0.817558,0.071729,-1.432111
1144785376.018,-0.809711,0.083472,-1.424307
1144785376.028,-0.782246,0.079558,-1.420406
1144785376.038,-0.786170,0.087386,-1.396996
1144785376.048,-0.762629,0.071729,-1.357979
1144785376.058,-0.723394,0.067815,-1.283847
1144785376.068,-0.715547,0.067815,-1.260437
1144785376.078,-0.703776,0.087386,-1.248732
1144785376.089,-0.648848,0.079558,-1.252634
1144785376.099,-0.609613,0.075643,-1.237027
1144785376.108,-0.617460,0.067815,-1.233125
1144785376.119,-0.633154,0.056072,-1.272142
1144785376.129,-0.644924,0.052158,-1.244830
1144785376.139,-0.652771,0.075643,-1.225322
1144785376.149,-0.652771,0.079558,-1.209715
1144785376.159,-0.652771,0.095215,-1.170698
1144785376.169,-0.644924,0.087386,-1.135583
1144785376.178,-0.656694,0.091301,-1.162895
1144785376.189,-0.656694,0.067815,-1.135583
1144785376.199,-0.672388,0.071729,-1.123878
1144785376.208,-0.664542,0.091301,-1.096566
1144785376.219,-0.644924,0.091301,-1.065353
1144785376.229,-0.605689,0.095215,-1.057550
1144785376.239,-0.562531,0.063901,-1.034140
1144785376.249,-0.511525,0.028672,-0.952205
1144785376.259,-0.476214,0.001272,-0.889778
1144785376.269,-0.468367,-0.022214,-0.819547
1144785376.279,-0.456596,-0.022214,-0.780531
1144785376.289,-0.448749,0.009101,-0.729809
1144785376.299,-0.382050,0.032586,-0.694694
1144785376.309,-0.354586,0.075643,-0.636169
1144785376.319,-0.334968,0.126529,-0.585447
1144785376.328,-0.327121,0.142186,-0.534725
1144785376.339,-0.319274,0.114786,-0.515217
1144785376.349,-0.323198,0.075643,-0.484003
1144785376.359,-0.327121,0.044329,-0.437183
1144785376.369,-0.307504,0.013015,-0.390363
1144785376.379,-0.291810,-0.041785,-0.343543
1144785376.389,-0.260422,-0.096585,-0.335739
1144785376.399,-0.232957,-0.080928,-0.390363
1144785376.409,-0.174105,-0.077013,-0.429380
1144785376.419,-0.146641,-0.088756,-0.402068
1144785376.429,-0.123100,-0.096585,-0.370854
1144785376.439,-0.134870,-0.131813,-0.339641
1144785376.449,-0.127023,-0.139642,-0.292821
1144785376.459,-0.119176,-0.127899,-0.261607
1144785376.469,-0.123100,-0.096585,-0.246001
1144785376.479,-0.103482,-0.077013,-0.277214
1144785376.489,-0.103482,-0.100499,-0.296723
1144785376.499,-0.103482,-0.123985,-0.327936
1144785376.509,-0.142717,-0.116156,-0.343543
1144785376.519,-0.170181,-0.123985,-0.359149
1144785376.529,-0.197646,-0.151385,-0.363051
1144785376.539,-0.252575,-0.151385,-0.378658
1144785376.549,-0.315351,-0.163127,-0.413773
1144785376.559,-0.334968,-0.182699,-0.472298
1144785376.569,-0.358509,-0.147470,-0.511315
1144785376.579,-0.425208,-0.108328,-0.558135
1144785376.589,-0.456596,-0.096585,-0.593250
1144785376.599,-0.472290,-0.127899,-0.628365
1144785376.609,-0.487984,-0.143556,-0.725907
1144785376.619,-0.511525,-0.139642,-0.792236
1144785376.629,-0.511525,-0.131813,-0.835154
1144785376.639,-0.535066,-0.084842,-0.901483
1144785376.649,-0.550760,-0.037871,-0.932696
1144785376.659,-0.531143,-0.018299,-0.963910
1144785376.669,-0.515449,-0.002642,-0.983418
1144785376.679,-0.511525,0.016929,-1.006828
1144785376.689,-0.523296,0.028672,-1.026336
1144785376.699,-0.511525,0.016929,-1.038041
1144785376.709,-0.503678,0.016929,-1.030238
1144785376.719,-0.511525,0.024758,-0.991221
1144785376.730,-0.519372,0.013015,-0.991221
1144785376.739,-0.523296,0.040415,-0.963910
1144785376.749,-0.491908,0.052158,-0.917089
1144785376.759,-0.491908,0.040415,-0.889778
1144785376.773,-0.499755,0.040415,-0.878073
1144785376.781,-0.507602,0.032586,-0.829302
1144785376.791,-0.501717,0.014972,-0.807842
1144785376.801,-0.497793,0.013015,-0.776629
1144785376.811,-0.503678,0.014972,-0.761022
1144785376.823,-0.499755,0.018886,-0.739563
1144785376.831,-0.474252,0.007144,-0.692743
1144785376.841,-0.474252,-0.012428,-0.673235
1144785376.852,-0.470329,-0.028085,-0.700546
1144785376.861,-0.433055,-0.057442,-0.704448
1144785376.871,-0.415400,-0.059399,-0.682989
1144785376.881,-0.423247,-0.035913,-0.677136
1144785376.891,-0.433055,-0.047656,-0.642021
1144785376.901,-0.429132,-0.051571,-0.659579
1144785376.911,-0.407553,-0.018299,-0.663480
1144785376.921,-0.382050,-0.002642,-0.659579
1144785376.931,-0.376165,0.009101,-0.661529
1144785376.941,-0.356547,0.003229,-0.681038
1144785376.950,-0.333006,-0.016342,-0.634218
1144785376.961,-0.329083,-0.041785,-0.597152
1144785376.971,-0.350662,-0.051571,-0.556184
1144785376.981,-0.374203,-0.047656,-0.536676
1144785376.991,-0.385974,-0.041785,-0.526922
1144785377.000,-0.370280,-0.010471,-0.530823
1144785377.011,-0.342815,0.030629,-0.534725
1144785377.021,-0.319274,0.038458,-0.521069
1144785377.031,-0.274154,-0.014385,-0.497659
1144785377.041,-0.254537,-0.033956,-0.487905
1144785377.050,-0.244728,-0.033956,-0.448888
1144785377.061,-0.256498,-0.024171,-0.392314
1144785377.071,-0.280039,-0.024171,-0.394265
1144785377.081,-0.311427,-0.004599,-0.433281
1144785377.091,-0.323198,0.020844,-0.427429
1144785377.100,-0.319274,0.058029,-0.433281
1144785377.110,-0.282001,0.048243,-0.448888
1144785377.120,-0.250613,0.042372,-0.464495
1144785377.130,-0.242766,0.052158,-0.485954
1144785377.140,-0.242766,0.018886,-0.464495
1144785377.150,-0.268269,0.001272,-0.472298
1144785377.160,-0.327121,-0.008514,-0.501561
1144785377.169,-0.391859,0.001272,-0.554233
1144785377.180,-0.431094,0.028672,-0.601053
1144785377.190,-0.423247,0.036501,-0.645923
1144785377.200,-0.397744,0.058029,-0.681038
1144785377.210,-0.374203,0.077601,-0.739563
1144785377.220,-0.336930,0.061943,-0.821498
1144785377.230,-0.285925,0.020844,-0.878073
1144785377.240,-0.272192,-0.039828,-0.858564
1144785377.250,-0.317312,-0.067228,-0.854663
1144785377.260,-0.366356,-0.055485,-0.881974
1144785377.270,-0.385974,-0.043742,-0.876122
1144785377.344,-0.395782,0.013015,-0.907335
1144785377.344,-0.423247,0.091301,-0.971713
1144785377.345,-0.427170,0.087386,-1.002926
1144785377.345,-0.429132,0.048243,-1.043894
1144785377.345,-0.446788,0.058029,-1.061451
1144785377.346,-0.435017,0.044329,-1.022435
1144785377.346,-0.427170,0.003229,-0.985369
1144785377.350,-0.433055,-0.028085,-0.975615
1144785377.360,-0.452673,-0.024171,-0.981467
1144785377.370,-0.462482,0.014972,-0.993172
1144785377.380,-0.454635,0.069772,-1.008779
1144785377.390,-0.446788,0.087386,-1.014631
1144785377.399,-0.448749,0.075643,-1.016582
1144785377.409,-0.464443,0.059986,-1.032189
1144785377.419,-0.458558,0.026715,-1.043894
1144785377.429,-0.446788,0.018886,-1.043894
1144785377.439,-0.442864,0.026715,-1.049746
1144785377.449,-0.440902,0.038458,-1.043894
1144785377.459,-0.438941,0.048243,-1.034140
1144785377.469,-0.425208,0.046286,-1.014631
1144785377.480,-0.413438,0.079558,-1.020484
1144785377.489,-0.423247,0.101086,-1.020484
1144785377.499,-0.415400,0.058029,-1.024386
1144785377.509,-0.429132,0.022801,-1.043894
1144785377.519,-0.452673,0.022801,-1.045845
1144785377.529,-0.456596,0.052158,-1.036091
1144785377.539,-0.462482,0.059986,-1.026336
1144785377.549,-0.474252,0.059986,-1.018533
1144785377.559,-0.493870,0.069772,-1.020484
1144785377.569,-0.486023,0.063901,-1.032189
1144785377.579,-0.466405,0.059986,-1.038041
1144785377.589,-0.438941,0.063901,-1.049746
1144785377.599,-0.433055,0.038458,-1.045845
1144785377.609,-0.460520,0.020844,-1.071206
1144785377.619,-0.509563,0.014972,-1.065353
1144785377.629,-0.546837,0.028672,-1.047795
1144785377.639,-0.537028,0.044329,-1.057550
1144785377.649,-0.523296,0.071729,-1.084862
1144785377.659,-0.511525,0.091301,-1.106321
1144785377.669,-0.513487,0.089343,-1.131682
1144785377.678,-0.529181,0.073686,-1.143387
1144785377.688,-0.531143,0.059986,-1.135583
1144785377.698,-0.568416,0.085429,-1.143387
1144785377.708,-0.621383,0.122615,-1.164846
1144785377.718,-0.641000,0.136315,-1.192158
1144785377.728,-0.621383,0.126529,-1.242879
1144785377.738,-0.570378,0.128486,-1.276044
1144785377.748,-0.560569,0.136315,-1.270191
1144785377.758,-0.574301,0.118700,-1.252634
1144785377.768,-0.597842,0.093258,-1.264339
1144785377.778,-0.627268,0.108915,-1.274093
1144785377.788,-0.652771,0.148058,-1.334569
1144785377.798,-0.654733,0.153929,-1.340421
1144785377.808,-0.639039,0.151972,-1.328716
1144785377.818,-0.664542,0.167629,-1.367733
1144785377.828,-0.670427,0.151972,-1.395045
1144785377.838,-0.674350,0.138272,-1.437963
1144785377.848,-0.668465,0.116743,-1.453570
1144785377.858,-0.648848,0.114786,-1.457472
1144785377.868,-0.641000,0.122615,-1.443816
1144785377.878,-0.642962,0.148058,-1.441865
1144785377.888,-0.641000,0.148058,-1.457472
1144785377.898,-0.635115,0.130443,-1.439914
1144785377.908,-0.642962,0.110872,-1.467226
1144785377.918,-0.650809,0.095215,-1.449669
1144785377.928,-0.662580,0.083472,-1.412602
1144785377.938,-0.642962,0.095215,-1.398947
1144785377.949,-0.642962,0.097172,-1.365782
1144785377.958,-0.646886,0.085429,-1.318962
1144785377.967,-0.642962,0.083472,-1.293601
1144785377.977,-0.615498,0.089343,-1.303355
1144785377.987,-0.580186,0.099129,-1.303355
1144785377.997,-0.580186,0.091301,-1.277994
1144785378.007,-0.580186,0.065858,-1.244830
1144785378.017,-0.597842,0.050201,-1.242879
1144785378.027,-0.597842,0.081515,-1.244830
1144785378.037,-0.570378,0.093258,-1.227273
1144785378.047,-0.558607,0.091301,-1.223371
1144785378.057,-0.574301,0.091301,-1.221420
1144785378.067,-0.599804,0.069772,-1.223371
1144785378.077,-0.591957,0.048243,-1.277994
1144785378.087,-0.580186,0.048243,-1.242879
1144785378.098,-0.578225,0.024758,-1.219469
1144785378.107,-0.586072,-0.012428,-1.178502
1144785378.117,-0.597842,-0.014385,-1.178502
1144785378.127,-0.601766,-0.002642,-1.143387
1144785378.137,-0.589995,0.042372,-1.141436
1144785378.147,-0.554684,0.083472,-1.141436
1144785378.157,-0.560569,0.118700,-1.133632
1144785378.167,-0.544875,0.128486,-1.121927
1144785378.177,-0.517410,0.118700,-1.088763
1144785378.187,-0.491908,0.095215,-1.059501
1144785378.197,-0.484061,0.071729,-1.002926
1144785378.207,-0.470329,0.028672,-0.952205
1144785378.217,-0.433055,-0.000685,-0.895630
1144785378.227,-0.411476,-0.000685,-0.846859
1144785378.237,-0.378127,0.032586,-0.807842
1144785378.247,-0.350662,0.052158,-0.741514
1144785378.257,-0.329083,0.059986,-0.704448
1144785378.266,-0.323198,0.077601,-0.679087
1144785378.276,-0.293771,0.103043,-0.643972
1144785378.286,-0.244728,0.106958,-0.622513
1144785378.296,-0.223149,0.093258,-0.599103
1144785378.306,-0.203531,0.063901,-0.542528
1144785378.316,-0.191761,0.042372,-0.503512
1144785378.326,-0.178028,0.018886,-0.458642
1144785378.336,-0.146641,0.003229,-0.415724
1144785378.346,-0.115253,-0.020256,-0.378658
1144785378.356,-0.107406,-0.035913,-0.333789
1144785378.366,-0.128985,-0.030042,-0.273313
1144785378.376,-0.142717,-0.030042,-0.261607
1144785378.386,-0.125061,-0.051571,-0.234296
1144785378.396,-0.125061,-0.077013,-0.242099
1144785378.406,-0.130947,-0.041785,-0.273313
1144785378.417,-0.125061,-0.024171,-0.302575
1144785378.425,-0.101520,-0.049613,-0.304526
1144785378.436,-0.089750,-0.075056,-0.314280
1144785378.446,-0.093673,-0.096585,-0.296723
1144785378.456,-0.117214,-0.123985,-0.271362
1144785378.466,-0.150564,-0.170956,-0.249902
1144785378.476,-0.181952,-0.192485,-0.275263
1144785378.486,-0.227072,-0.206185,-0.292821
1144785378.496,-0.256498,-0.196399,-0.320133
1144785378.506,-0.289848,-0.202270,-0.351346
1144785378.516,-0.354586,-0.198356,-0.417675
1144785378.526,-0.417361,-0.163127,-0.489856
1144785378.535,-0.468367,-0.139642,-0.575693
1144785378.545,-0.497793,-0.120070,-0.643972
1144785378.555,-0.525257,-0.125942,-0.684940
1144785378.565,-0.535066,-0.139642,-0.706399
1144785378.575,-0.517410,-0.161170,-0.702497
1144785378.585,-0.493870,-0.155299,-0.702497
1144785378.595,-0.495831,-0.092670,-0.766875
1144785378.605,-0.495831,-0.055485,-0.821498
1144785378.615,-0.472290,-0.071142,-0.891729
1144785378.625,-0.472290,-0.084842,-0.920991
1144785378.635,-0.505640,-0.065271,-0.934647
1144785378.645,-0.519372,-0.022214,-0.926844
1144785378.655,-0.497793,-0.006556,-0.919040
1144785378.665,-0.472290,-0.016342,-0.907335
1144785378.675,-0.456596,-0.018299,-0.876122
1144785378.685,-0.448749,-0.028085,-0.895630
1144785378.695,-0.436979,-0.033956,-0.880023
1144785378.705,-0.409515,-0.063313,-0.854663
1144785378.715,-0.409515,-0.057442,-0.854663
1144785378.725,-0.425208,-0.018299,-0.872220
1144785378.735,-0.411476,0.007144,-0.887827
1144785378.745,-0.399706,0.020844,-0.895630
1144785378.755,-0.409515,0.040415,-0.874171
1144785378.765,-0.405591,0.042372,-0.866368
1144785378.775,-0.417361,0.028672,-0.856613
1144785378.785,-0.427170,-0.000685,-0.852712
1144785378.795,-0.429132,-0.022214,-0.864417
1144785378.805,-0.421285,-0.018299,-0.860515
1144785378.815,-0.427170,0.016929,-0.862466
1144785378.825,-0.417361,0.038458,-0.852712
1144785378.834,-0.415400,0.044329,-0.854663
1144785378.844,-0.436979,0.048243,-0.874171
1144785378.854,-0.427170,0.052158,-0.883925
1144785378.864,-0.411476,0.048243,-0.878073
1144785378.874,-0.403629,0.054115,-0.858564
1144785378.886,-0.403629,0.042372,-0.860515
1144785378.894,-0.401668,0.018886,-0.841007
1144785378.904,-0.399706,-0.008514,-0.827351
1144785378.914,-0.378127,-0.030042,-0.807842
1144785378.924,-0.376165,-0.031999,-0.796137
1144785378.934,-0.380088,-0.053528,-0.770777
1144785378.944,-0.384012,-0.088756,-0.762973
1144785378.954,-0.384012,-0.108328,-0.764924
1144785378.964,-0.380088,-0.116156,-0.731760
1144785378.974,-0.362433,-0.108328,-0.686890
1144785378.984,-0.366356,-0.112242,-0.659579
1144785378.994,-0.358509,-0.112242,-0.640070
1144785379.004,-0.334968,-0.118113,-0.593250
1144785379.014,-0.303580,-0.102456,-0.583496
1144785379.024,-0.301618,-0.080928,-0.546430
1144785379.034,-0.309465,-0.075056,-0.523020
1144785379.044,-0.299657,-0.067228,-0.499610
1144785379.054,-0.291810,-0.067228,-0.439134
1144785379.064,-0.282001,-0.059399,-0.415724
1144785379.074,-0.280039,-0.037871,-0.400117
1144785379.084,-0.260422,-0.024171,-0.384510
1144785379.094,-0.256498,-0.043742,-0.380609
1144785379.104,-0.258460,-0.026128,-0.374756
1144785379.113,-0.229034,-0.018299,-0.374756
1144785379.123,-0.219225,-0.020256,-0.345494
1144785379.133,-0.227072,-0.014385,-0.345494
1144785379.143,-0.230996,0.028672,-0.370854
1144785379.153,-0.260422,0.059986,-0.409871
1144785379.163,-0.285925,0.056072,-0.437183
1144785379.173,-0.293771,0.038458,-0.468396
1144785379.183,-0.323198,0.081515,-0.548381
1144785379.193,-0.333006,0.089343,-0.565938
1144785379.203,-0.297695,0.073686,-0.659579
1144785379.213,-0.282001,0.077601,-0.718104
1144785379.223,-0.299657,0.108915,-0.759072
1144785379.233,-0.319274,0.108915,-0.770777
1144785379.243,-0.340853,0.101086,-0.811744
1144785379.253,-0.374203,0.083472,-0.870269
1144785379.263,-0.366356,0.089343,-0.922942
1144785379.273,-0.344777,0.120658,-0.977565
1144785379.283,-0.319274,0.177415,-0.989270
1144785379.293,-0.299657,0.200900,-0.965860
1144785379.303,-0.303580,0.214600,-0.934647
1144785379.313,-0.333006,0.200900,-0.940500
1144785379.323,-0.360471,0.200900,-0.967811
1144785379.333,-0.374203,0.187200,-0.942450
1144785379.343,-0.376165,0.169586,-0.924893
1144785379.353,-0.393821,0.179372,-0.893679
1144785379.363,-0.405591,0.171543,-0.887827
1144785379.373,-0.405591,0.161757,-0.885876
1144785379.382,-0.429132,0.148058,-0.887827
1144785379.393,-0.438941,0.130443,-0.905384
1144785379.402,-0.440902,0.126529,-0.909286
1144785379.412,-0.436979,0.112829,-0.895630
1144785379.422,-0.429132,0.103043,-0.889778
1144785379.432,-0.450711,0.110872,-0.878073
1144785379.442,-0.474252,0.134358,-0.909286
1144785379.452,-0.472290,0.163715,-0.954155
1144785379.462,-0.468367,0.181329,-0.997074
1144785379.472,-0.468367,0.196986,-1.030238
1144785379.482,-0.474252,0.173500,-1.051697
1144785379.492,-0.464443,0.163715,-1.034140
1144785379.502,-0.468367,0.169586,-1.039992
1144785379.512,-0.458558,0.165672,-1.004877
1144785379.522,-0.454635,0.150015,-0.985369
1144785379.532,-0.454635,0.167629,-1.014631
1144785379.543,-0.499755,0.171543,-1.036091
1144785379.552,-0.511525,0.161757,-1.051697
1144785379.562,-0.493870,0.171543,-1.071206
1144785379.572,-0.486023,0.210686,-1.075107
1144785379.582,-0.464443,0.236129,-1.071206
1144785379.592,-0.442864,0.198943,-1.080960
1144785379.602,-0.442864,0.165672,-1.088763
1144785379.612,-0.456596,0.150015,-1.096566
1144785379.622,-0.484061,0.157843,-1.098518
1144785379.632,-0.501717,0.181329,-1.112173
1144785379.642,-0.503678,0.200900,-1.151190
1144785379.651,-0.489946,0.228300,-1.162895
1144785379.662,-0.470329,0.234172,-1.180453
1144785379.672,-0.474252,0.234172,-1.178502
1144785379.681,-0.493870,0.198943,-1.151190
1144785379.691,-0.537028,0.204815,-1.145337
1144785379.701,-0.562531,0.206772,-1.137534
1144785379.711,-0.593919,0.214600,-1.145337
1144785379.721,-0.591957,0.208729,-1.145337
1144785379.731,-0.576263,0.224386,-1.158993
1144785379.741,-0.570378,0.247872,-1.168748
1144785379.750,-0.580186,0.242000,-1.190207
1144785379.761,-0.591957,0.230257,-1.215568
1144785379.771,-0.582148,0.196986,-1.205813
1144785379.781,-0.595880,0.214600,-1.215568
1144785379.791,-0.601766,0.273314,-1.217519
1144785379.801,-0.617460,0.265486,-1.217519
1144785379.811,-0.650809,0.257657,-1.252634
1144785379.821,-0.682197,0.273314,-1.317011
1144785379.831,-0.664542,0.271357,-1.326766
1144785379.841,-0.650809,0.275272,-1.361881
1144785379.851,-0.642962,0.290929,-1.359930
1144785379.861,-0.639039,0.265486,-1.303355
1144785379.871,-0.658656,0.238086,-1.277994
1144785379.881,-0.690044,0.242000,-1.279945
1144785379.891,-0.709662,0.251786,-1.340421
1144785379.901,-0.709662,0.234172,-1.398947
1144785379.911,-0.711623,0.228300,-1.445767
1144785379.921,-0.703776,0.232215,-1.453570
1144785379.931,-0.690044,0.208729,-1.443816
1144785379.941,-0.707700,0.183286,-1.416504
1144785379.950,-0.746935,0.153929,-1.383340
1144785379.961,-0.760667,0.130443,-1.393094
1144785379.971,-0.748897,0.138272,-1.389192
1144785379.981,-0.733203,0.151972,-1.342372
1144785379.990,-0.713585,0.173500,-1.340421
1144785380.000,-0.686121,0.196986,-1.301405
1144785380.011,-0.678274,0.189157,-1.303355
1144785380.020,-0.678274,0.179372,-1.318962
1144785380.030,-0.692006,0.200900,-1.313110
1144785380.040,-0.662580,0.216557,-1.322864
1144785380.050,-0.635115,0.222429,-1.320913
1144785380.060,-0.627268,0.226343,-1.334569
1144785380.070,-0.603727,0.202857,-1.305306
1144785380.080,-0.556645,0.161757,-1.264339
1144785380.091,-0.535066,0.110872,-1.215568
1144785380.100,-0.531143,0.058029,-1.172649
1144785380.110,-0.540952,0.048243,-1.137534
1144785380.120,-0.552722,0.061943,-1.104370
1144785380.130,-0.550760,0.093258,-1.102419
1144785380.140,-0.538990,0.122615,-1.057550
1144785380.150,-0.542913,0.140229,-1.022435
1144785380.160,-0.556645,0.146100,-0.989270
1144785380.170,-0.574301,0.155886,-0.997074
1144785380.180,-0.564492,0.169586,-0.958057
1144785380.190,-0.544875,0.181329,-0.909286
1144785380.200,-0.533104,0.185243,-0.878073
1144785380.210,-0.527219,0.177415,-0.862466
1144785380.220,-0.507602,0.132400,-0.856613
1144785380.229,-0.450711,0.091301,-0.862466
1144785380.240,-0.425208,0.059986,-0.835154
1144785380.250,-0.409515,0.014972,-0.778580
1144785380.260,-0.384012,-0.053528,-0.733711
1144785380.270,-0.358509,-0.086799,-0.677136
1144785380.280,-0.315351,-0.094628,-0.593250
1144785380.290,-0.307504,-0.055485,-0.585447
1144785380.300,-0.287886,0.013015,-0.583496
1144785380.310,-0.260422,0.059986,-0.542528
1144785380.320,-0.225110,0.087386,-0.501561
1144785380.330,-0.217263,0.089343,-0.444986
1144785380.340,-0.207455,0.079558,-0.441085
1144785380.349,-0.195684,0.052158,-0.427429
1144785380.359,-0.195684,0.020844,-0.398166
1144785380.369,-0.189799,-0.014385,-0.370854
1144785380.379,-0.189799,-0.035913,-0.368904
1144785380.389,-0.189799,-0.018299,-0.374756
1144785380.399,-0.150564,-0.024171,-0.359149
1144785380.409,-0.130947,-0.075056,-0.345494
1144785380.419,-0.123100,-0.090713,-0.339641
1144785380.429,-0.127023,-0.092670,-0.322084
1144785380.439,-0.140755,-0.118113,-0.300624
1144785380.449,-0.152526,-0.159213,-0.269411
1144785380.459,-0.154487,-0.176827,-0.294772
1144785380.469,-0.170181,-0.157256,-0.302575
1144785380.480,-0.199608,-0.125942,-0.325985
1144785380.489,-0.229034,-0.102456,-0.363051
1144785380.499,-0.285925,-0.098542,-0.372805
1144785380.509,-0.315351,-0.100499,-0.398166
1144785380.519,-0.368318,-0.104413,-0.427429
1144785380.529,-0.403629,-0.104413,-0.482052
1144785380.539,-0.431094,-0.092670,-0.540577
1144785380.549,-0.442864,-0.080928,-0.591299
1144785380.559,-0.440902,-0.092670,-0.626414
1144785380.569,-0.454635,-0.086799,-0.675185
1144785380.579,-0.468367,-0.082885,-0.708350
1144785380.589,-0.487984,-0.077013,-0.733711
1144785380.599,-0.476214,-0.071142,-0.749317
1144785380.609,-0.495831,-0.031999,-0.790285
1144785380.619,-0.484061,0.020844,-0.850761
1144785380.629,-0.458558,0.042372,-0.901483
1144785380.639,-0.446788,0.050201,-0.940500
1144785380.648,-0.458558,0.050201,-0.977565
1144785380.658,-0.470329,0.063901,-0.971713
1144785380.668,-0.442864,0.054115,-0.950254
1144785380.678,-0.421285,0.056072,-0.934647
1144785380.688,-0.407553,0.046286,-0.926844
1144785380.698,-0.405591,0.026715,-0.895630
1144785380.708,-0.423247,0.030629,-0.899532
1144785380.718,-0.431094,0.058029,-0.917089
1144785380.728,-0.431094,0.087386,-0.895630
1144785380.738,-0.421285,0.112829,-0.897581
1144785380.748,-0.413438,0.112829,-0.901483
1144785380.758,-0.423247,0.106958,-0.885876
1144785380.768,-0.415400,0.089343,-0.878073
1144785380.777,-0.413438,0.083472,-0.878073
1144785380.788,-0.411476,0.071729,-0.868318
1144785380.798,-0.407553,0.059986,-0.878073
1144785380.808,-0.397744,0.067815,-0.868318
1144785380.818,-0.403629,0.083472,-0.864417
1144785380.828,-0.399706,0.075643,-0.868318
1144785380.838,-0.399706,0.071729,-0.878073
1144785380.848,-0.401668,0.071729,-0.887827
1144785380.858,-0.399706,0.083472,-0.891729
1144785380.868,-0.389897,0.061943,-0.880023
1144785380.878,-0.393821,0.054115,-0.872220
1144785380.888,-0.401668,0.048243,-0.872220
1144785380.898,-0.399706,0.042372,-0.883925
1144785380.908,-0.399706,0.028672,-0.893679
1144785380.918,-0.403629,0.011058,-0.893679
1144785380.928,-0.405591,-0.000685,-0.897581
1144785380.938,-0.405591,-0.010471,-0.870269
1144785380.949,-0.391859,-0.016342,-0.852712
1144785380.957,-0.399706,-0.026128,-0.837105
1144785380.967,-0.427170,-0.033956,-0.833203
1144785380.977,-0.427170,-0.031999,-0.821498
1144785380.987,-0.421285,-0.028085,-0.805892
1144785380.997,-0.419323,-0.014385,-0.821498
1144785381.007,-0.405591,-0.006556,-0.815646
1144785381.017,-0.399706,-0.035913,-0.770777
1144785381.027,-0.391859,-0.059399,-0.741514
1144785381.037,-0.384012,-0.071142,-0.714202
1144785381.047,-0.366356,-0.080928,-0.684940
1144785381.057,-0.354586,-0.082885,-0.651775
1144785381.067,-0.329083,-0.082885,-0.608857
1144785381.077,-0.313389,-0.073099,-0.569840
1144785381.087,-0.291810,-0.084842,-0.515217
1144785381.097,-0.264345,-0.102456,-0.460593
1144785381.107,-0.256498,-0.116156,-0.429380
1144785381.117,-0.254537,-0.110285,-0.384510
1144785381.127,-0.234919,-0.094628,-0.341592
1144785381.137,-0.215302,-0.082885,-0.314280
1144785381.147,-0.191761,-0.084842,-0.285018
1144785381.157,-0.164296,-0.090713,-0.265509
1144785381.167,-0.189799,-0.065271,-0.224542
1144785381.177,-0.223149,-0.024171,-0.234296
1144785381.187,-0.254537,0.001272,-0.255755
1144785381.197,-0.278077,-0.006556,-0.257706
1144785381.207,-0.282001,-0.035913,-0.283067
1144785381.217,-0.282001,-0.031999,-0.306477
1144785381.227,-0.305542,0.018886,-0.343543
1144785381.237,-0.333006,0.065858,-0.380609
1144785381.247,-0.360471,0.073686,-0.407920
1144785381.257,-0.399706,0.073686,-0.456691
1144785381.267,-0.448749,0.099129,-0.513266
1144785381.277,-0.486023,0.110872,-0.599103
1144785381.287,-0.438941,0.075643,-0.681038
1144785381.297,-0.387935,0.038458,-0.727858
1144785381.307,-0.364394,0.009101,-0.772727
1144785381.317,-0.366356,-0.012428,-0.794187
1144785381.327,-0.391859,-0.063313,-0.753219
1144785381.337,-0.458558,-0.082885,-0.796137
1144785381.347,-0.531143,-0.055485,-0.862466
1144785381.357,-0.556645,-0.000685,-0.936598
1144785381.367,-0.537028,0.071729,-1.004877
1144785381.377,-0.503678,0.114786,-1.063402
1144785381.387,-0.458558,0.122615,-1.055599
1144785381.397,-0.436979,0.083472,-1.028287
1144785381.407,-0.442864,0.056072,-0.991221
1144785381.418,-0.466405,0.036501,-0.961959
1144785381.426,-0.519372,0.016929,-1.000975
1144785381.436,-0.550760,0.028672,-1.038041
1144785381.446,-0.548798,0.058029,-1.057550
1144785381.456,-0.542913,0.101086,-1.084862
1144785381.466,-0.525257,0.155886,-1.114124
1144785381.476,-0.519372,0.151972,-1.121927
1144785381.486,-0.515449,0.106958,-1.121927
1144785381.496,-0.517410,0.065858,-1.096566
1144785381.506,-0.517410,0.048243,-1.086812
1144785381.516,-0.517410,0.054115,-1.086812
1144785381.526,-0.509563,0.065858,-1.100468
1144785381.536,-0.509563,0.101086,-1.119977
1144785381.546,-0.486023,0.120658,-1.100468
1144785381.556,-0.480137,0.122615,-1.069255
1144785381.566,-0.495831,0.122615,-1.063402
1144785381.576,-0.511525,0.112829,-1.061451
1144785381.586,-0.509563,0.091301,-1.077058
1144785381.596,-0.513487,0.075643,-1.082911
1144785381.606,-0.505640,0.065858,-1.096566
1144785381.616,-0.489946,0.063901,-1.075107
1144785381.626,-0.464443,0.089343,-1.077058
1144785381.636,-0.468367,0.077601,-1.006828
1144785381.646,-0.476214,0.054115,-1.010730
1144785381.655,-0.501717,0.063901,-1.008779
1144785381.666,-0.501717,0.081515,-1.010730
1144785381.676,-0.493870,0.077601,-1.018533
1144785381.686,-0.484061,0.085429,-1.020484
1144785381.696,-0.487984,0.085429,-0.997074
1144785381.706,-0.513487,0.073686,-0.991221
1144785381.716,-0.525257,0.059986,-0.985369
1144785381.726,-0.523296,0.073686,-0.979516
1144785381.736,-0.538990,0.093258,-0.973664
1144785381.746,-0.544875,0.116743,-1.000975
1144785381.756,-0.548798,0.134358,-1.012680
1144785381.766,-0.570378,0.159800,-1.071206
1144785381.776,-0.576263,0.163715,-1.112173
1144785381.785,-0.584110,0.181329,-1.153141
1144785381.795,-0.601766,0.193072,-1.182403
1144785381.805,-0.572339,0.202857,-1.219469
1144785381.815,-0.554684,0.202857,-1.238978
1144785381.825,-0.554684,0.198943,-1.238978
1144785381.835,-0.586072,0.181329,-1.227273
1144785381.845,-0.627268,0.165672,-1.256535
1144785381.855,-0.678274,0.193072,-1.307257
1144785381.865,-0.693968,0.228300,-1.303355
1144785381.875,-0.682197,0.261572,-1.317011
1144785381.887,-0.668465,0.242000,-1.317011
1144785381.895,-0.682197,0.224386,-1.309208
1144785381.905,-0.701815,0.179372,-1.311159
1144785381.915,-0.690044,0.128486,-1.328716
1144785381.925,-0.707700,0.110872,-1.328716
1144785381.935,-0.705738,0.124572,-1.342372
1144785381.945,-0.711623,0.151972,-1.357979
1144785381.955,-0.711623,0.144143,-1.393094
1144785381.965,-0.723394,0.136315,-1.424307
1144785381.975,-0.774399,0.148058,-1.461373
1144785381.985,-0.782246,0.165672,-1.500390
1144785381.995,-0.768514,0.163715,-1.510144
1144785382.005,-0.760667,0.157843,-1.488685
1144785382.015,-0.756744,0.146100,-1.488685
1144785382.025,-0.754782,0.099129,-1.463324
1144785382.035,-0.746935,0.093258,-1.434062
1144785382.044,-0.754782,0.108915,-1.406750
1144785382.055,-0.752820,0.132400,-1.400897
1144785382.065,-0.717509,0.165672,-1.391143
1144785382.075,-0.682197,0.181329,-1.393094
1144785382.085,-0.670427,0.171543,-1.359930
1144785382.094,-0.682197,0.136315,-1.350176
1144785382.104,-0.690044,0.108915,-1.356028
1144785382.114,-0.672388,0.089343,-1.352127
1144785382.124,-0.658656,0.095215,-1.350176
1144785382.134,-0.660618,0.095215,-1.328716
1144785382.144,-0.648848,0.087386,-1.283847
1144785382.154,-0.639039,0.081515,-1.287749
1144785382.164,-0.619421,0.103043,-1.287749
1144785382.174,-0.593919,0.103043,-1.244830
1144785382.184,-0.574301,0.101086,-1.201912
1144785382.194,-0.564492,0.093258,-1.141436
1144785382.204,-0.576263,0.071729,-1.075107
1144785382.214,-0.582148,0.065858,-1.016582
1144785382.224,-0.599804,0.106958,-0.975615
1144785382.234,-0.603727,0.161757,-0.983418
1144785382.244,-0.550760,0.165672,-0.979516
1144785382.254,-0.491908,0.148058,-0.989270
1144785382.264,-0.456596,0.118700,-0.977565
1144785382.274,-0.403629,0.065858,-0.930745
1144785382.284,-0.384012,-0.018299,-0.844908
1144785382.294,-0.356547,-0.094628,-0.751268
1144785382.304,-0.333006,-0.122028,-0.647874
1144785382.314,-0.315351,-0.100499,-0.601053
1144785382.324,-0.285925,-0.082885,-0.536676
1144785382.334,-0.274154,-0.051571,-0.519118
1144785382.344,-0.254537,0.003229,-0.519118
1144785382.355,-0.221187,0.032586,-0.487905
1144785382.364,-0.183914,0.046286,-0.480101
1144785382.374,-0.134870,0.063901,-0.489856
1144785382.384,-0.101520,0.030629,-0.444986
1144785382.394,-0.085826,-0.000685,-0.361100
1144785382.414,-0.099559,-0.051571,-0.167967
1144785382.424,-0.113291,-0.096585,-0.105540
1144785382.433,-0.130947,-0.098542,-0.048966
1144785382.443,-0.152526,-0.106370,-0.033359
1144785382.453,-0.166258,-0.106370,-0.043114
1144785382.463,-0.170181,-0.096585,-0.109442
1144785382.473,-0.168220,-0.100499,-0.142606
1144785382.483,-0.174105,-0.094628,-0.164066
1144785382.493,-0.172143,-0.114199,-0.201131
1144785382.503,-0.197646,-0.145513,-0.247952
1144785382.513,-0.189799,-0.159213,-0.304526
1144785382.523,-0.197646,-0.172913,-0.300624
1144785382.533,-0.232957,-0.170956,-0.327936
1144785382.543,-0.258460,-0.184656,-0.396215
1144785382.553,-0.256498,-0.262942,-0.429380
1144785382.563,-0.264345,-0.321656,-0.474249
1144785382.573,-0.240804,-0.339270,-0.523020
1144785382.583,-0.234919,-0.315784,-0.567889
1144785382.593,-0.287886,-0.259027,-0.651775
1144785382.603,-0.352624,-0.204227,-0.743465
1144785382.613,-0.391859,-0.204227,-0.778580
1144785382.623,-0.411476,-0.233584,-0.833203
1144785382.633,-0.435017,-0.217927,-0.862466
1144785382.643,-0.470329,-0.200313,-0.893679
1144785382.653,-0.511525,-0.217927,-0.897581
1144785382.663,-0.531143,-0.227713,-0.922942
1144785382.673,-0.562531,-0.184656,-0.928794
1144785382.683,-0.552722,-0.122028,-0.944401
1144785382.693,-0.533104,-0.073099,-0.977565
1144785382.703,-0.519372,-0.012428,-1.000975
1144785382.712,-0.505640,0.026715,-1.016582
1144785382.723,-0.493870,0.038458,-1.020484
1144785382.733,-0.497793,0.044329,-0.993172
1144785382.743,-0.507602,0.059986,-0.989270
1144785382.752,-0.487984,0.067815,-0.946352
1144785382.763,-0.462482,0.040415,-0.895630
1144785382.772,-0.458558,0.013015,-0.850761
1144785382.782,-0.468367,-0.022214,-0.821498
1144785382.793,-0.466405,-0.030042,-0.803941
1144785382.802,-0.448749,-0.010471,-0.809793
1144785382.812,-0.433055,0.003229,-0.794187
1144785382.824,-0.444826,-0.016342,-0.790285
1144785382.832,-0.464443,-0.004599,-0.813695
1144785382.842,-0.474252,0.026715,-0.798088
1144785382.852,-0.452673,0.020844,-0.768826
1144785382.862,-0.436979,0.005186,-0.801990
1144785382.872,-0.440902,0.003229,-0.811744
1144785382.882,-0.440902,0.014972,-0.842958
1144785382.892,-0.440902,0.013015,-0.846859
1144785382.902,-0.438941,-0.030042,-0.829302
1144785382.912,-0.450711,-0.045699,-0.837105
1144785382.922,-0.466405,-0.012428,-0.848810
1144785382.932,-0.448749,0.005186,-0.860515
1144785382.942,-0.415400,0.020844,-0.891729
1144785382.952,-0.409515,0.022801,-0.893679
1144785382.962,-0.425208,0.014972,-0.905384
1144785382.972,-0.442864,0.001272,-0.885876
1144785382.982,-0.433055,-0.024171,-0.878073
1144785382.991,-0.431094,-0.016342,-0.866368
1144785383.001,-0.433055,-0.008514,-0.866368
1144785383.011,-0.435017,-0.004599,-0.872220
1144785383.022,-0.440902,-0.004599,-0.872220
1144785383.032,-0.450711,0.005186,-0.878073
1144785383.042,-0.444826,0.014972,-0.897581
1144785383.052,-0.421285,0.003229,-0.895630
1144785383.062,-0.419323,-0.016342,-0.899532
1144785383.072,-0.440902,-0.030042,-0.899532
1144785383.082,-0.448749,-0.033956,-0.887827
1144785383.092,-0.435017,-0.039828,-0.872220
1144785383.102,-0.427170,-0.022214,-0.878073
1144785383.111,-0.429132,0.018886,-0.872220
1144785383.121,-0.435017,0.024758,-0.868318
1144785383.131,-0.435017,0.014972,-0.874171
1144785383.141,-0.444826,0.026715,-0.881974
1144785383.152,-0.450711,0.032586,-0.872220
1144785383.161,-0.446788,0.028672,-0.872220
1144785383.172,-0.442864,0.028672,-0.883925
1144785383.181,-0.425208,0.024758,-0.881974
1144785383.191,-0.436979,0.016929,-0.893679
1144785383.201,-0.433055,0.003229,-0.887827
1144785383.211,-0.431094,-0.006556,-0.883925
1144785383.221,-0.433055,-0.022214,-0.876122
1144785383.231,-0.433055,-0.020256,-0.878073
1144785383.241,-0.436979,-0.016342,-0.883925
1144785383.250,-0.442864,-0.006556,-0.889778
1144785383.261,-0.444826,0.003229,-0.881974
1144785383.271,-0.442864,0.003229,-0.887827
1144785383.281,-0.444826,0.013015,-0.880023
1144785383.292,-0.450711,0.014972,-0.880023
1144785383.301,-0.450711,-0.000685,-0.878073
1144785383.311,-0.438941,-0.002642,-0.889778
1144785383.321,-0.448749,0.007144,-0.878073
1144785383.331,-0.446788,0.013015,-0.889778
1144785383.341,-0.444826,0.011058,-0.889778
1144785383.350,-0.444826,0.013015,-0.881974
1144785383.361,-0.440902,0.024758,-0.881974
1144785383.371,-0.436979,0.030629,-0.895630
1144785383.381,-0.438941,0.024758,-0.866368
1144785383.391,-0.444826,0.016929,-0.870269
1144785383.401,-0.446788,0.007144,-0.876122
1144785383.411,-0.440902,0.001272,-0.870269
1144785383.421,-0.435017,-0.012428,-0.860515
1144785383.430,-0.448749,-0.020256,-0.846859
1144785383.440,-0.454635,-0.010471,-0.862466
1144785383.450,-0.452673,0.001272,-0.866368
1144785383.460,-0.433055,0.009101,-0.870269
1144785383.470,-0.417361,0.011058,-0.850761
1144785383.480,-0.431094,0.007144,-0.874171
1144785383.490,-0.450711,0.009101,-0.880023
1144785383.500,-0.452673,0.001272,-0.893679
1144785383.510,-0.448749,0.003229,-0.874171
1144785383.520,-0.442864,0.011058,-0.897581
1144785383.530,-0.448749,0.013015,-0.887827
1144785383.540,-0.448749,0.005186,-0.874171
1144785383.550,-0.456596,-0.000685,-0.872220
1144785383.560,-0.452673,0.001272,-0.880023
1144785383.570,-0.442864,-0.002642,-0.874171
1144785383.580,-0.442864,-0.006556,-0.864417
1144785383.590,-0.438941,-0.002642,-0.876122
1144785383.600,-0.440902,-0.008514,-0.885876
1144785383.610,-0.448749,-0.018299,-0.874171
1144785383.620,-0.456596,-0.026128,-0.880023
1144785383.630,-0.462482,-0.018299,-0.858564
1144785383.640,-0.458558,-0.010471,-0.872220
1144785383.650,-0.458558,-0.002642,-0.876122
1144785383.660,-0.456596,-0.000685,-0.870269
1144785383.669,-0.450711,0.009101,-0.862466
1144785383.680,-0.460520,0.003229,-0.868318
1144785383.690,-0.466405,0.009101,-0.883925
1144785383.700,-0.460520,0.016929,-0.880023
1144785383.710,-0.456596,0.011058,-0.866368
1144785383.720,-0.456596,0.003229,-0.846859
1144785383.730,-0.450711,-0.004599,-0.876122
1144785383.740,-0.470329,0.003229,-0.880023
1144785383.750,-0.454635,0.013015,-0.874171
1144785383.761,-0.446788,-0.000685,-0.858564
1144785383.769,-0.460520,0.018886,-0.862466
1144785383.778,-0.454635,0.026715,-0.864417
1144785383.789,-0.456596,0.022801,-0.881974
1144785383.799,-0.448749,-0.002642,-0.872220
1144785383.809,-0.450711,-0.002642,-0.880023
1144785383.819,-0.454635,0.001272,-0.862466
1144785383.829,-0.452673,-0.000685,-0.860515
1144785383.839,-0.454635,-0.004599,-0.868318
1144785383.849,-0.460520,-0.006556,-0.868318
1144785383.859,-0.446788,-0.014385,-0.842958
1144785383.869,-0.456596,-0.030042,-0.860515
1144785383.879,-0.452673,-0.008514,-0.880023
1144785383.889,-0.446788,-0.002642,-0.860515
1144785383.899,-0.444826,-0.000685,-0.876122
1144785383.909,-0.450711,0.009101,-0.893679
1144785383.919,-0.438941,0.011058,-0.887827
1144785383.929,-0.435017,0.007144,-0.889778
1144785383.939,-0.444826,-0.002642,-0.874171
1144785383.949,-0.454635,0.003229,-0.885876
1144785383.959,-0.462482,-0.002642,-0.881974
1144785383.969,-0.450711,0.003229,-0.880023
1144785383.979,-0.440902,0.007144,-0.891729
1144785383.989,-0.438941,0.005186,-0.872220
1144785383.999,-0.442864,0.009101,-0.872220
1144785384.009,-0.456596,0.005186,-0.881974
1144785384.019,-0.458558,-0.000685,-0.878073
1144785384.029,-0.450711,-0.000685,-0.887827
1144785384.039,-0.442864,0.001272,-0.856613
1144785384.049,-0.456596,0.014972,-0.856613
1144785384.059,-0.462482,0.018886,-0.854663
1144785384.069,-0.460520,0.005186,-0.878073
1144785384.079,-0.466405,0.013015,-0.891729
1144785384.088,-0.454635,0.028672,-0.868318
1144785384.098,-0.442864,0.022801,-0.878073
1144785384.108,-0.440902,0.016929,-0.878073
1144785384.118,-0.456596,-0.002642,-0.880023
1144785384.128,-0.456596,-0.000685,-0.881974
1144785384.138,-0.464443,0.014972,-0.891729
1144785384.148,-0.446788,0.020844,-0.874171
1144785384.158,-0.452673,0.013015,-0.874171
1144785384.168,-0.444826,0.018886,-0.860515
1144785384.178,-0.458558,0.014972,-0.856613
1144785384.188,-0.446788,0.007144,-0.881974
1144785384.198,-0.452673,0.009101,-0.870269
1144785384.208,-0.452673,0.005186,-0.858564
1144785384.218,-0.454635,0.009101,-0.878073
1144785384.230,-0.450711,0.001272,-0.852712
1144785384.238,-0.464443,-0.000685,-0.870269
1144785384.248,-0.468367,0.003229,-0.872220
1144785384.258,-0.454635,0.005186,-0.870269
1144785384.268,-0.452673,-0.000685,-0.864417
1144785384.278,-0.460520,-0.002642,-0.864417
1144785384.288,-0.466405,-0.004599,-0.866368
1144785384.298,-0.460520,-0.008514,-0.862466
1144785384.308,-0.448749,-0.012428,-0.862466
1144785384.318,-0.450711,0.001272,-0.854663
1144785384.328,-0.458558,0.014972,-0.844908
1144785384.338,-0.454635,0.014972,-0.841007
1144785384.347,-0.456596,0.014972,-0.860515
1144785384.358,-0.466405,0.028672,-0.897581
1144785384.368,-0.452673,0.032586,-0.885876
1144785384.378,-0.442864,0.026715,-0.860515
1144785384.388,-0.442864,0.018886,-0.835154
1144785384.398,-0.444826,0.007144,-0.825400
1144785384.408,-0.452673,-0.000685,-0.837105
1144785384.418,-0.448749,-0.004599,-0.823449
1144785384.427,-0.454635,-0.006556,-0.829302
1144785384.437,-0.468367,0.009101,-0.805892
1144785384.447,-0.472290,0.009101,-0.813695
1144785384.457,-0.476214,-0.008514,-0.809793
1144785384.467,-0.460520,-0.020256,-0.800039
1144785384.477,-0.462482,-0.014385,-0.809793
1144785384.487,-0.454635,-0.004599,-0.811744
1144785384.497,-0.427170,-0.008514,-0.803941
1144785384.507,-0.409515,0.016929,-0.792236
1144785384.517,-0.391859,0.007144,-0.803941
1144785384.527,-0.385974,-0.012428,-0.792236
1144785384.537,-0.387935,-0.033956,-0.803941
1144785384.547,-0.395782,-0.018299,-0.805892
1144785384.557,-0.393821,-0.024171,-0.792236
1144785384.567,-0.399706,-0.035913,-0.782481
1144785384.577,-0.411476,-0.014385,-0.764924
1144785384.587,-0.419323,0.003229,-0.755170
1144785384.597,-0.405591,-0.006556,-0.747366
1144785384.607,-0.407553,-0.016342,-0.747366
1144785384.617,-0.393821,0.003229,-0.714202
1144785384.627,-0.372241,-0.000685,-0.677136
1144785384.637,-0.360471,0.013015,-0.671284
1144785384.647,-0.364394,0.032586,-0.686890
1144785384.657,-0.384012,0.013015,-0.686890
1144785384.667,-0.391859,0.001272,-0.704448
1144785384.677,-0.389897,0.028672,-0.712251
1144785384.687,-0.374203,0.069772,-0.690792
1144785384.698,-0.348700,0.067815,-0.663480
1144785384.707,-0.331045,0.056072,-0.661529
1144785384.716,-0.319274,0.056072,-0.688841
1144785384.726,-0.327121,0.063901,-0.714202
1144785384.736,-0.327121,0.075643,-0.745416
1144785384.746,-0.334968,0.069772,-0.766875
1144785384.756,-0.352624,0.058029,-0.753219
1144785384.766,-0.423247,0.093258,-0.798088
1144785384.776,-0.529181,0.148058,-0.860515
1144785384.786,-0.635115,0.177415,-0.932696
1144785384.796,-0.662580,0.210686,-1.061451
1144785384.806,-0.578225,0.267443,-1.184354
1144785384.816,-0.493870,0.326157,-1.225322
1144785384.827,-0.452673,0.369214,-1.233125
1144785384.836,-0.446788,0.324200,-1.262388
1144785384.846,-0.482099,0.261572,-1.279945
1144785384.856,-0.531143,0.245914,-1.291650
1144785384.866,-0.542913,0.263529,-1.299454
1144785384.876,-0.521334,0.275272,-1.262388
1144785384.887,-0.489946,0.314414,-1.219469
1144785384.896,-0.499755,0.347686,-1.194109
1144785384.906,-0.523296,0.318329,-1.176551
1144785384.916,-0.537028,0.253743,-1.143387
1144785384.926,-0.554684,0.232215,-1.116075
1144785384.936,-0.554684,0.249829,-1.071206
1144785384.946,-0.525257,0.259614,-1.016582
1144785384.956,-0.497793,0.273314,-0.987320
1144785384.966,-0.478176,0.275272,-0.969762
1144785384.976,-0.476214,0.273314,-0.915139
1144785384.986,-0.482099,0.255700,-0.915139
1144785384.996,-0.470329,0.251786,-0.899532
1144785385.006,-0.458558,0.240043,-0.897581
1144785385.016,-0.446788,0.247872,-0.889778
1144785385.026,-0.427170,0.240043,-0.881974
1144785385.036,-0.427170,0.243957,-0.883925
1144785385.045,-0.413438,0.243957,-0.864417
1144785385.055,-0.401668,0.245914,-0.868318
1144785385.065,-0.405591,0.224386,-0.870269
1144785385.075,-0.411476,0.206772,-0.885876
1144785385.085,-0.411476,0.177415,-0.870269
1144785385.095,-0.409515,0.169586,-0.872220
1144785385.105,-0.401668,0.171543,-0.878073
1144785385.115,-0.393821,0.155886,-0.870269
1144785385.125,-0.399706,0.106958,-0.846859
1144785385.135,-0.403629,0.106958,-0.850761
1144785385.145,-0.411476,0.101086,-0.842958
1144785385.155,-0.411476,0.106958,-0.864417
1144785385.165,-0.395782,0.093258,-0.848810
1144785385.175,-0.391859,0.089343,-0.862466
1144785385.185,-0.399706,0.105000,-0.872220
1144785385.195,-0.393821,0.105000,-0.844908
1144785385.205,-0.391859,0.106958,-0.837105
1144785385.215,-0.405591,0.103043,-0.833203
1144785385.225,-0.405591,0.108915,-0.837105
1144785385.235,-0.407553,0.106958,-0.833203
1144785385.245,-0.411476,0.103043,-0.817597
1144785385.255,-0.411476,0.106958,-0.817597
1144785385.265,-0.417361,0.106958,-0.823449
1144785385.274,-0.421285,0.103043,-0.827351
1144785385.285,-0.423247,0.103043,-0.798088
1144785385.295,-0.427170,0.099129,-0.794187
1144785385.305,-0.442864,0.105000,-0.782481
1144785385.315,-0.440902,0.108915,-0.770777
1144785385.325,-0.433055,0.118700,-0.764924
1144785385.335,-0.440902,0.134358,-0.762973
1144785385.345,-0.438941,0.153929,-0.759072
1144785385.356,-0.425208,0.155886,-0.759072
1144785385.365,-0.411476,0.122615,-0.745416
1144785385.375,-0.419323,0.097172,-0.759072
1144785385.385,-0.415400,0.097172,-0.784432
1144785385.394,-0.409515,0.114786,-0.778580
1144785385.404,-0.384012,0.103043,-0.772727
1144785385.415,-0.380088,0.085429,-0.786383
1144785385.424,-0.401668,0.085429,-0.794187
1144785385.434,-0.421285,0.081515,-0.778580
1144785385.444,-0.409515,0.081515,-0.768826
1144785385.454,-0.397744,0.071729,-0.762973
1144785385.464,-0.395782,0.083472,-0.753219
1144785385.474,-0.397744,0.063901,-0.720055
1144785385.484,-0.405591,0.056072,-0.720055
1144785385.494,-0.399706,0.048243,-0.712251
1144785385.504,-0.393821,0.052158,-0.702497
1144785385.514,-0.395782,0.056072,-0.688841
1144785385.524,-0.376165,0.059986,-0.665431
1144785385.534,-0.352624,0.067815,-0.669333
1144785385.544,-0.329083,0.073686,-0.645923
1144785385.554,-0.293771,0.069772,-0.603004
1144785385.564,-0.264345,0.059986,-0.587398
1144785385.574,-0.252575,0.032586,-0.569840
1144785385.584,-0.238843,0.020844,-0.511315
1144785385.594,-0.240804,0.013015,-0.489856
1144785385.604,-0.246690,0.014972,-0.452790
1144785385.614,-0.240804,0.038458,-0.448888
1144785385.624,-0.221187,0.050201,-0.390363
1144785385.634,-0.217263,0.056072,-0.366953
1144785385.644,-0.230996,0.075643,-0.345494
1144785385.654,-0.260422,0.087386,-0.359149
1144785385.664,-0.272192,0.101086,-0.368904
1144785385.674,-0.293771,0.105000,-0.407920
1144785385.693,-0.354586,0.136315,-0.472298
1144785385.703,-0.368318,0.124572,-0.493757
1144785385.713,-0.372241,0.146100,-0.544479
1144785385.723,-0.399706,0.175457,-0.624464
1144785385.733,-0.395782,0.146100,-0.628365
1144785385.743,-0.385974,0.122615,-0.690792
1144785385.753,-0.423247,0.146100,-0.770777
1144785385.763,-0.466405,0.179372,-0.784432
1144785385.773,-0.491908,0.208729,-0.856613
1144785385.783,-0.509563,0.261572,-0.942450
1144785385.793,-0.511525,0.283100,-1.004877
1144785385.803,-0.480137,0.300714,-1.063402
1144785385.813,-0.456596,0.310500,-1.123878
1144785385.824,-0.478176,0.300714,-1.182403
1144785385.833,-0.513487,0.290929,-1.250683
1144785385.843,-0.537028,0.285057,-1.279945
1144785385.853,-0.542913,0.287014,-1.311159
1144785385.863,-0.531143,0.285057,-1.338471
1144785385.873,-0.499755,0.292886,-1.338471
1144785385.883,-0.472290,0.308543,-1.346274
1144785385.893,-0.470329,0.339857,-1.387242
1144785385.903,-0.476214,0.318329,-1.402848
1144785385.913,-0.511525,0.292886,-1.437963
1144785385.923,-0.570378,0.261572,-1.457472
1144785385.933,-0.617460,0.261572,-1.451619
1144785385.943,-0.656694,0.285057,-1.463324
1144785385.953,-0.672388,0.333986,-1.471128
1144785385.963,-0.660618,0.380957,-1.476980
1144785385.973,-0.635115,0.394657,-1.510144
1144785385.983,-0.625306,0.400528,-1.570620
1144785385.993,-0.650809,0.416186,-1.609637
1144785386.002,-0.678274,0.416186,-1.672064
1144785386.013,-0.668465,0.400528,-1.699376
1144785386.022,-0.639039,0.392700,-1.687671
1144785386.032,-0.605689,0.412271,-1.674015
1144785386.042,-0.576263,0.418143,-1.664261
1144785386.052,-0.566454,0.414228,-1.633047
1144785386.062,-0.552722,0.377043,-1.615490
1144785386.073,-0.568416,0.339857,-1.566719
1144785386.082,-0.584110,0.302671,-1.514046
1144785386.092,-0.572339,0.287014,-1.457472
1144785386.102,-0.564492,0.267443,-1.375536
1144785386.112,-0.548798,0.271357,-1.295552
1144785386.122,-0.538990,0.257657,-1.229224
1144785386.132,-0.521334,0.257657,-1.176551
1144785386.142,-0.499755,0.247872,-1.106321
1144785386.152,-0.486023,0.228300,-1.049746
1144785386.162,-0.480137,0.228300,-0.985369
1144785386.172,-0.464443,0.218515,-0.915139
1144785386.182,-0.436979,0.220472,-0.837105
1144785386.192,-0.397744,0.210686,-0.788334
1144785386.202,-0.387935,0.243957,-0.768826
1144785386.212,-0.376165,0.269400,-0.745416
1144785386.222,-0.362433,0.267443,-0.723956
1144785386.232,-0.333006,0.273314,-0.729809
1144785386.242,-0.329083,0.279186,-0.720055
1144785386.251,-0.287886,0.269400,-0.698595
1144785386.262,-0.264345,0.243957,-0.677136
1144785386.272,-0.264345,0.212643,-0.643972
1144785386.282,-0.248651,0.177415,-0.608857
1144785386.293,-0.230996,0.151972,-0.575693
1144785386.302,-0.213340,0.134358,-0.534725
1144785386.311,-0.213340,0.118700,-0.491807
1144785386.321,-0.225110,0.095215,-0.470347
1144785386.331,-0.248651,0.079558,-0.470347
1144785386.341,-0.229034,0.085429,-0.507413
1144785386.352,-0.205493,0.081515,-0.513266
1144785386.361,-0.189799,0.085429,-0.521069
1144785386.371,-0.179990,0.099129,-0.501561
1144785386.381,-0.172143,0.085429,-0.487905
1144785386.391,-0.203531,0.034544,-0.478151
1144785386.401,-0.268269,-0.010471,-0.507413
1144785386.411,-0.291810,-0.022214,-0.583496
1144785386.421,-0.285925,-0.049613,-0.612759
1144785386.431,-0.264345,-0.078971,-0.626414
1144785386.441,-0.260422,-0.088756,-0.673235
1144785386.451,-0.272192,-0.092670,-0.665431
1144785386.461,-0.289848,-0.129856,-0.657628
1144785386.471,-0.311427,-0.151385,-0.681038
1144785386.481,-0.344777,-0.137685,-0.718104
1144785386.491,-0.384012,-0.090713,-0.770777
1144785386.501,-0.391859,-0.065271,-0.780531
1144785386.511,-0.401668,-0.059399,-0.794187
1144785386.521,-0.407553,-0.030042,-0.805892
1144785386.531,-0.436979,-0.008514,-0.772727
1144785386.541,-0.466405,0.003229,-0.774678
1144785386.550,-0.476214,0.026715,-0.807842
1144785386.561,-0.472290,0.032586,-0.827351
1144785386.571,-0.464443,0.058029,-0.881974
1144785386.581,-0.446788,0.069772,-0.909286
1144785386.591,-0.450711,0.091301,-0.897581
1144785386.601,-0.450711,0.083472,-0.891729
1144785386.611,-0.444826,0.091301,-0.901483
1144785386.621,-0.411476,0.132400,-0.899532
1144785386.631,-0.382050,0.153929,-0.887827
1144785386.641,-0.350662,0.132400,-0.876122
1144785386.650,-0.348700,0.116743,-0.858564
1144785386.661,-0.366356,0.128486,-0.883925
1144785386.671,-0.356547,0.130443,-0.874171
1144785386.680,-0.338892,0.095215,-0.874171
1144785386.690,-0.344777,0.085429,-0.856613
1144785386.700,-0.348700,0.073686,-0.827351
1144785386.710,-0.346739,0.050201,-0.807842
1144785386.720,-0.352624,0.059986,-0.782481
1144785386.730,-0.350662,0.067815,-0.798088
1144785386.740,-0.356547,0.069772,-0.770777
1144785386.750,-0.368318,0.069772,-0.782481
1144785386.762,-0.362433,0.077601,-0.786383
1144785386.770,-0.362433,0.081515,-0.809793
1144785386.780,-0.364394,0.099129,-0.815646
1144785386.790,-0.366356,0.108915,-0.803941
1144785386.800,-0.378127,0.089343,-0.798088
1144785386.810,-0.387935,0.069772,-0.790285
1144785386.820,-0.399706,0.081515,-0.807842
1144785386.830,-0.380088,0.099129,-0.809793
1144785386.840,-0.385974,0.097172,-0.811744
1144785386.850,-0.397744,0.099129,-0.803941
1144785386.860,-0.417361,0.122615,-0.813695
1144785386.870,-0.417361,0.138272,-0.790285
1144785386.880,-0.395782,0.132400,-0.776629
1144785386.890,-0.382050,0.112829,-0.766875
1144785386.900,-0.374203,0.087386,-0.747366
1144785386.910,-0.378127,0.059986,-0.735661
1144785386.920,-0.389897,0.028672,-0.745416
1144785386.930,-0.368318,0.007144,-0.706399
1144785386.940,-0.329083,-0.033956,-0.665431
1144785386.950,-0.311427,-0.045699,-0.616660
1144785386.960,-0.325159,-0.031999,-0.589348
1144785386.970,-0.350662,-0.033956,-0.571791
1144785386.980,-0.374203,-0.024171,-0.554233
1144785386.990,-0.391859,-0.008514,-0.558135
1144785386.999,-0.372241,0.038458,-0.544479
1144785387.010,-0.350662,0.054115,-0.524971
1144785387.019,-0.338892,0.044329,-0.523020
1144785387.029,-0.348700,0.056072,-0.563988
1144785387.039,-0.362433,0.058029,-0.579594
1144785387.049,-0.372241,0.083472,-0.573742
1144785387.059,-0.376165,0.106958,-0.599103
1144785387.069,-0.366356,0.110872,-0.593250
1144785387.079,-0.356547,0.124572,-0.616660
1144785387.089,-0.348700,0.159800,-0.606906
1144785387.099,-0.323198,0.191115,-0.601053
1144785387.109,-0.287886,0.210686,-0.620562
1144785387.119,-0.295733,0.257657,-0.636169
1144785387.129,-0.321236,0.308543,-0.669333
1144785387.139,-0.354586,0.333986,-0.704448
1144785387.149,-0.352624,0.341814,-0.745416
1144785387.159,-0.329083,0.343771,-0.761022
1144785387.169,-0.327121,0.355514,-0.792236
1144785387.179,-0.285925,0.375086,-0.807842
1144785387.189,-0.268269,0.379000,-0.829302
1144785387.199,-0.262384,0.355514,-0.821498
1144785387.209,-0.301618,0.328114,-0.874171
1144785387.219,-0.344777,0.333986,-0.901483
1144785387.230,-0.364394,0.355514,-0.926844
1144785387.239,-0.358509,0.404443,-0.971713
1144785387.249,-0.311427,0.424014,-0.993172
1144785387.259,-0.291810,0.394657,-1.006828
1144785387.269,-0.307504,0.347686,-1.061451
1144785387.279,-0.338892,0.281143,-1.092665
1144785387.289,-0.336930,0.234172,-1.110222
1144785387.299,-0.354586,0.196986,-1.077058
1144785387.309,-0.417361,0.198943,-1.057550
1144785387.319,-0.511525,0.200900,-1.059501
1144785387.329,-0.568416,0.187200,-1.110222
1144785387.339,-0.597842,0.210686,-1.157042
1144785387.349,-0.584110,0.247872,-1.188256
1144785387.359,-0.574301,0.269400,-1.213617
1144785387.369,-0.607651,0.279186,-1.217519
1144785387.379,-0.686121,0.292886,-1.209715
1144785387.389,-0.778323,0.285057,-1.235076
1144785387.399,-0.843060,0.296800,-1.305306
1144785387.409,-0.876410,0.357471,-1.383340
1144785387.419,-0.894066,0.429885,-1.480882
1144785387.429,-0.888181,0.541442,-1.590129
1144785387.438,-0.827366,0.617771,-1.660359
1144785387.449,-0.750858,0.606028,-1.648654
1144785387.458,-0.674350,0.531657,-1.627195
1144785387.468,-0.662580,0.470985,-1.613539
1144785387.478,-0.648848,0.431843,-1.580375
1144785387.488,-0.607651,0.412271,-1.556965
1144785387.498,-0.544875,0.416186,-1.539407
1144785387.508,-0.482099,0.429885,-1.506243
1144785387.518,-0.433055,0.455328,-1.476980
1144785387.528,-0.407553,0.488600,-1.445767
1144785387.538,-0.370280,0.502300,-1.424307
1144785387.548,-0.321236,0.488600,-1.356028
1144785387.558,-0.278077,0.433800,-1.268240
1144785387.568,-0.266307,0.394657,-1.182403
1144785387.578,-0.283963,0.363343,-1.123878
1144785387.588,-0.307504,0.347686,-1.088763
1144785387.598,-0.323198,0.388786,-1.059501
1144785387.608,-0.309465,0.431843,-1.028287
1144785387.618,-0.250613,0.457285,-0.991221
1144785387.628,-0.179990,0.441628,-0.948303
1144785387.638,-0.178028,0.390743,-0.919040
1144785387.648,-0.227072,0.314414,-0.885876
1144785387.658,-0.285925,0.224386,-0.893679
1144785387.668,-0.297695,0.163715,-0.842958
1144785387.677,-0.268269,0.116743,-0.764924
1144785387.688,-0.240804,0.106958,-0.722005
1144785387.699,-0.256498,0.122615,-0.669333
1144785387.708,-0.285925,0.124572,-0.640070
1144785387.718,-0.364394,0.126529,-0.622513
1144785387.728,-0.411476,0.151972,-0.603004
1144785387.738,-0.429132,0.171543,-0.626414
1144785387.748,-0.419323,0.175457,-0.626414
1144785387.758,-0.405591,0.183286,-0.659579
1144785387.768,-0.393821,0.169586,-0.677136
1144785387.778,-0.397744,0.136315,-0.655677
1144785387.788,-0.409515,0.083472,-0.643972
1144785387.798,-0.433055,0.011058,-0.585447
1144785387.808,-0.450711,-0.020256,-0.575693
1144785387.818,-0.438941,0.020844,-0.581545
1144785387.828,-0.403629,0.067815,-0.599103
1144785387.838,-0.360471,0.106958,-0.653726
1144785387.848,-0.340853,0.151972,-0.700546
1144785387.858,-0.315351,0.198943,-0.745416
1144785387.868,-0.289848,0.232215,-0.764924
1144785387.877,-0.260422,0.257657,-0.739563
1144785387.887,-0.258460,0.263529,-0.716153
1144785387.897,-0.250613,0.240043,-0.696645
1144785387.907,-0.236881,0.226343,-0.698595
1144785387.917,-0.221187,0.232215,-0.755170
1144785387.927,-0.203531,0.226343,-0.796137
1144785387.937,-0.181952,0.210686,-0.790285
1144785387.947,-0.183914,0.179372,-0.792236
1144785387.957,-0.201569,0.128486,-0.778580
1144785387.967,-0.211378,0.069772,-0.796137
1144785387.977,-0.219225,0.030629,-0.829302
1144785387.987,-0.209416,0.016929,-0.825400
1144785387.997,-0.195684,-0.039828,-0.786383
1144785388.007,-0.199608,-0.102456,-0.766875
1144785388.017,-0.185875,-0.155299,-0.796137
1144785388.027,-0.160373,-0.219885,-0.841007
1144785388.037,-0.136832,-0.251199,-0.870269
1144785388.047,-0.152526,-0.231627,-0.897581
1144785388.057,-0.162334,-0.223799,-0.866368
1144785388.068,-0.205493,-0.259027,-0.829302
1144785388.077,-0.258460,-0.266856,-0.790285
1144785388.087,-0.333006,-0.239456,-0.770777
1144785388.097,-0.389897,-0.168999,-0.766875
1144785388.107,-0.446788,-0.055485,-0.784432
1144785388.117,-0.509563,0.046286,-0.817597
1144785388.127,-0.578225,0.095215,-0.805892
1144785388.137,-0.674350,0.134358,-0.813695
1144785388.147,-0.756744,0.167629,-0.815646
1144785388.157,-0.803825,0.150015,-0.786383
1144785388.168,-0.825405,0.124572,-0.745416
1144785388.247,-0.852869,0.099129,-0.688841
1144785388.250,-0.831290,0.089343,-0.632267
1144785388.251,-0.856793,0.085429,-0.622513
1144785388.251,-0.848946,0.091301,-0.649824
1144785388.251,-0.815596,0.089343,-0.651775
1144785388.252,-0.790093,0.089343,-0.679087
1144785388.253,-0.754782,0.075643,-0.723956
1144785388.253,-0.707700,0.075643,-0.747366
1144785388.258,-0.672388,0.048243,-0.753219
1144785388.268,-0.644924,0.040415,-0.761022
1144785388.278,-0.597842,0.016929,-0.741514
1144785388.288,-0.582148,-0.006556,-0.757121
1144785388.298,-0.535066,0.005186,-0.800039
1144785388.308,-0.511525,0.032586,-0.827351
1144785388.318,-0.476214,0.059986,-0.854663
1144785388.329,-0.440902,0.063901,-0.897581
1144785388.339,-0.401668,0.040415,-0.897581
1144785388.349,-0.378127,0.028672,-0.905384
1144785388.359,-0.382050,-0.014385,-0.936598
1144785388.368,-0.358509,-0.045699,-0.920991
1144785388.379,-0.319274,-0.077013,-0.920991
1144785388.389,-0.299657,-0.100499,-0.885876
1144785388.399,-0.276116,-0.116156,-0.874171
1144785388.409,-0.268269,-0.100499,-0.874171
1144785388.419,-0.256498,-0.096585,-0.893679
1144785388.429,-0.260422,-0.100499,-0.881974
1144785388.439,-0.280039,-0.100499,-0.893679
1144785388.449,-0.323198,-0.100499,-0.870269
1144785388.459,-0.354586,-0.112242,-0.870269
1144785388.469,-0.397744,-0.080928,-0.858564
1144785388.479,-0.440902,-0.057442,-0.862466
1144785388.489,-0.472290,-0.045699,-0.846859
1144785388.499,-0.480137,-0.030042,-0.862466
1144785388.509,-0.523296,-0.010471,-0.819547
1144785388.519,-0.582148,-0.002642,-0.807842
1144785388.529,-0.625306,-0.002642,-0.800039
1144785388.539,-0.641000,-0.002642,-0.827351
1144785388.549,-0.668465,0.024758,-0.823449
1144785388.559,-0.676312,0.036501,-0.823449
1144785388.569,-0.676312,0.048243,-0.839056
1144785388.579,-0.652771,0.059986,-0.811744
1144785388.589,-0.641000,0.056072,-0.772727
1144785388.599,-0.609613,0.044329,-0.757121
1144785388.609,-0.582148,0.005186,-0.686890
1144785388.619,-0.558607,-0.022214,-0.686890
1144785388.629,-0.550760,-0.030042,-0.675185
1144785388.639,-0.546837,-0.045699,-0.651775
1144785388.649,-0.519372,-0.022214,-0.675185
1144785388.659,-0.476214,-0.006556,-0.655677
1144785388.669,-0.436979,-0.014385,-0.624464
1144785388.679,-0.413438,-0.026128,-0.601053
1144785388.689,-0.433055,-0.018299,-0.608857
1144785388.699,-0.425208,-0.026128,-0.643972
1144785388.709,-0.382050,-0.033956,-0.643972
1144785388.720,-0.342815,-0.022214,-0.651775
