absolute_timestamp,accel_x,accel_y,accel_z
1775850913776831668,1.076770,3.665804,5.771488
1775850913778993178,0.914058,3.589234,5.627919
1775850913781153907,0.751346,3.574877,5.560920
1775850913783314532,0.607777,3.637090,5.594419
1775850913785475262,0.488136,3.641876,5.670990
1775850913787635939,0.421137,3.646662,5.627919
1775850913789796616,0.368495,3.761517,5.551349
1775850913791957293,0.325424,3.895515,5.536992
1775850913794117970,0.287139,4.058227,5.618348
1775850913796278699,0.258425,4.235296,5.714060
1775850913798439376,0.220140,4.441079,5.862415
1775850913800600053,0.191426,4.661219,5.996414
1775850913802760678,0.143569,4.857430,6.144769
1775850913804921407,0.133998,5.096712,6.336195
1775850913807082084,0.090927,5.273781,6.546763
1775850913809242762,0.076570,5.484350,6.766902
1775850913811403439,0.052642,5.675776,7.006185
1775850913813564116,0.038285,5.838487,7.240681
1775850913815724845,0.019143,5.991628,7.436893
1775850913817885522,-0.009571,6.135197,7.628319
1775850913820046199,-0.038285,6.254838,7.795816
1775850913822206876,-0.086142,6.350551,7.925029
1775850913824367553,-0.100499,6.427122,8.020741
1775850913826528230,-0.133998,6.484550,8.063812
1775850913828688959,-0.129212,6.537191,8.097312
1775850913830849637,-0.143569,6.546763,8.092526
1775850913833010314,-0.133998,6.551548,8.106883
1775850913835170991,-0.110070,6.537191,8.092526
1775850913837331668,-0.071785,6.532406,8.111669
1775850913839492345,-0.043071,6.508478,8.121240
1775850913841653022,0.014357,6.455835,8.145168
1775850913843813699,0.057428,6.427122,8.154739
1775850913845974376,0.090927,6.355337,8.183454
1775850913848135053,0.138784,6.297909,8.202596
1775850913850295730,0.177069,6.221339,8.221739
1775850913852456459,0.181855,6.144769,8.269595
1775850913854617137,0.186640,6.072984,8.303095
1775850913856777814,0.224925,5.972486,8.346166
1775850913858938491,0.215354,5.881558,8.374879
1775850913861099220,0.220140,5.790631,8.441878
1775850913863259845,0.220140,5.680561,8.470592
1775850913865420574,0.234497,5.594419,8.528020
1775850913867581251,0.229711,5.503492,8.528020
1775850913869741928,0.224925,5.398208,8.575876
1775850913871902605,0.234497,5.312066,8.542377
1775850913874063282,0.224925,5.216353,8.528020
1775850913876223959,0.224925,5.149354,8.494520
1775850913878384637,0.229711,5.077569,8.441878
1775850913880545314,0.244068,5.020142,8.379665
1775850913882706043,0.248854,4.972285,8.307880
1775850913884866720,0.244068,4.938786,8.207381
1775850913887027397,0.258425,4.929214,8.135597
1775850913889188074,0.263211,4.938786,8.025527
1775850913891348751,0.263211,4.943572,7.905886
1775850913893509480,0.296710,4.957929,7.805387
1775850913895670105,0.301496,5.000999,7.709674
1775850913897830834,0.320638,5.029713,7.642675
1775850913899991512,0.334995,5.077569,7.575676
1775850913902152189,0.339781,5.149354,7.523035
1775850913904312866,0.354138,5.221139,7.489535
1775850913906473543,0.392423,5.283352,7.479964
1775850913908634272,0.401994,5.331209,7.451250
1775850913910794949,0.411565,5.402994,7.460821
1775850913912955626,0.459422,5.465207,7.484749
1775850913915116251,0.478565,5.503492,7.499106
1775850913917276980,0.507278,5.541777,7.513463
1775850913919437657,0.526421,5.580062,7.561319
1775850913921598334,0.555135,5.623133,7.628319
1775850913923759012,0.579063,5.661418,7.695318
1775850913925919689,0.612563,5.670990,7.767102
1775850913928080366,0.626920,5.699704,7.838887
1775850913930241095,0.636491,5.718846,7.934600
1775850913932401772,0.646062,5.742774,8.011170
1775850913934562449,0.646062,5.757131,8.063812
1775850913936723126,0.641276,5.790631,8.102098
1775850913938883803,0.646062,5.800202,8.149954
1775850913941044480,0.641276,5.804988,8.159525
1775850913943205209,0.631705,5.819345,8.164310
1775850913945365887,0.622134,5.800202,8.169097
1775850913947526564,0.607777,5.776274,8.140383
1775850913949687241,0.602991,5.776274,8.126026
1775850913951847918,0.579063,5.737988,8.111669
1775850913954008595,0.555135,5.714060,8.092526
1775850913956169272,0.516850,5.694918,8.054241
1775850913958329949,0.502493,5.666204,8.025527
1775850913960490678,0.459422,5.613562,7.992028
1775850913962651355,0.435494,5.556134,8.001599
1775850913964812032,0.401994,5.517849,7.992028
1775850913966972709,0.368495,5.498706,7.977671
1775850913969133387,0.339781,5.469993,8.001599
1775850913971294064,0.301496,5.455636,7.972885
1775850913973454793,0.263211,5.441278,7.953743
1775850913975615418,0.234497,5.407779,7.972885
1775850913977776147,0.200997,5.398208,7.977671
1775850913979936824,0.181855,5.383851,7.977671
1775850913982097501,0.143569,5.388637,7.972885
1775850913984258178,0.124427,5.398208,8.001599
1775850913986418855,0.100499,5.388637,7.948957
1775850913988579532,0.105284,5.402994,7.948957
1775850913990740209,0.114855,5.422136,7.953743
1775850913992900939,0.100499,5.412565,7.968100
1775850913995061616,0.114855,5.441278,7.982456
1775850913997222293,0.114855,5.460421,7.982456
1775850913999382970,0.129212,5.479564,7.982456
1775850914001543647,0.143569,5.517849,8.006385
1775850914003704376,0.186640,5.527421,7.992028
1775850914005865001,0.205783,5.565705,8.015956
1775850914008025678,0.239282,5.603991,8.044670
1775850914010186407,0.272782,5.618348,8.078169
1775850914012347084,0.287139,5.623133,8.068598
1775850914014507762,0.325424,5.647061,8.097312
1775850914016668439,0.349352,5.680561,8.116454
1775850914018829116,0.387637,5.670990,8.126026
1775850914020989845,0.425922,5.685347,8.102098
1775850914023150470,0.449851,5.685347,8.102098
1775850914025311199,0.459422,5.680561,8.073383
1775850914027471876,0.473779,5.675776,8.035098
1775850914029632553,0.483350,5.680561,8.006385
1775850914031793230,0.516850,5.656633,7.977671
1775850914033953907,0.526421,5.647061,7.939385
1775850914036114637,0.540778,5.651847,7.944171
1775850914038275262,0.516850,5.632705,7.891529
1775850914040435939,0.497707,5.608776,7.848458
1775850914042596668,0.459422,5.584848,7.834101
1775850914044757345,0.440279,5.560920,7.800602
1775850914046918022,0.425922,5.556134,7.781459
1775850914049078699,0.397209,5.541777,7.771888
1775850914051239376,0.368495,5.493921,7.752745
1775850914053400105,0.349352,5.493921,7.767102
1775850914055560782,0.320638,5.489135,7.738389
1775850914057721407,0.291924,5.484350,7.752745
1775850914059882137,0.287139,5.484350,7.762317
1775850914062042814,0.272782,5.484350,7.733603
1775850914064203491,0.267996,5.493921,7.733603
1775850914066364168,0.253639,5.517849,7.728817
1775850914068524845,0.248854,5.551349,7.743174
1775850914070685522,0.239282,5.575277,7.752745
1775850914072846251,0.229711,5.594419,7.762317
1775850914075006928,0.244068,5.627919,7.786245
1775850914077167605,0.234497,5.642276,7.810173
1775850914079328282,0.224925,5.690132,7.858029
1775850914081488959,0.205783,5.694918,7.872386
1775850914083649637,0.191426,5.709275,7.915457
1775850914085810314,0.186640,5.709275,7.977671
1775850914087971043,0.196211,5.690132,8.030313
1775850914090131720,0.191426,5.656633,8.044670
1775850914092292397,0.196211,5.632705,8.121240
1775850914094453074,0.234497,5.584848,8.169097
1775850914096613751,0.267996,5.522635,8.226524
1775850914098774428,0.311067,5.508278,8.283952
1775850914100935105,0.363709,5.484350,8.365308
1775850914103095782,0.406780,5.474778,8.465807
1775850914105256459,0.464208,5.446064,8.528020
1775850914107417189,0.502493,5.441278,8.590233
1775850914109577814,0.540778,5.426922,8.623733
1775850914111738543,0.569492,5.422136,8.652447
1775850914113899220,0.593420,5.383851,8.685946
1775850914116059897,0.598206,5.369494,8.681161
1775850914118220574,0.607777,5.312066,8.719446
1775850914120381251,0.622134,5.268995,8.709874
1775850914122541980,0.607777,5.225924,8.719446
1775850914124702657,0.579063,5.178068,8.719446
1775850914126863334,0.569492,5.134997,8.719446
1775850914129024012,0.564706,5.087141,8.724232
1775850914131184689,0.521635,5.087141,8.743374
1775850914133345366,0.507278,5.072784,8.767303
1775850914135506043,0.483350,5.063213,8.762517
1775850914137666772,0.440279,5.044070,8.786445
1775850914139827449,0.397209,5.010571,8.757730
1775850914141988126,0.358923,4.977071,8.786445
1775850914144148803,0.311067,4.938786,8.762517
1775850914146309480,0.258425,4.890930,8.748159
1775850914148470157,0.191426,4.862216,8.700303
1775850914150630834,0.110070,4.833502,8.671589
1775850914152791564,0.033500,4.823930,8.628518
1775850914154952241,-0.038285,4.785645,8.571091
1775850914157112918,-0.138784,4.790431,8.547162
1775850914159273595,-0.215354,4.843073,8.528020
1775850914161434272,-0.282353,4.886144,8.518449
1775850914163594949,-0.363709,4.962714,8.523234
1775850914165755626,-0.430708,5.005785,8.537591
1775850914167916303,-0.512064,5.024928,8.556734
1775850914170076980,-0.555135,5.091927,8.547162
1775850914172237709,-0.602991,5.149354,8.504091
1775850914174398387,-0.650848,5.192425,8.475378
1775850914176559064,-0.736989,5.197211,8.489735
1775850914178719741,-0.789631,5.173283,8.528020
1775850914180880418,-0.827917,5.158926,8.523234
1775850914183041095,-0.880559,5.125426,8.499306
1775850914185201824,-0.880559,5.077569,8.451449
1775850914187362449,-0.866202,5.044070,8.370093
1775850914189523178,-0.823131,5.010571,8.288737
1775850914191683803,-0.751346,5.000999,8.236095
1775850914193844532,-0.727418,5.010571,8.212168
1775850914196005209,-0.746561,5.000999,8.226524
1775850914198165887,-0.794417,4.986642,8.269595
1775850914200326564,-0.818345,4.943572,8.269595
1775850914202487241,-0.842274,4.876573,8.274381
1775850914204647970,-0.875773,4.814359,8.236095
1775850914206808647,-0.856631,4.766503,8.173882
1775850914208969324,-0.890130,4.704289,8.116454
1775850914211130001,-0.890130,4.646862,8.059027
1775850914213290678,-0.856631,4.618148,7.944171
1775850914215451355,-0.827917,4.579863,7.862815
1775850914217612084,-0.746561,4.546363,7.810173
1775850914219772709,-0.708275,4.508078,7.728817
1775850914221933387,-0.674776,4.498507,7.685746
1775850914224094116,-0.626920,4.493721,7.637890
1775850914226254793,-0.598206,4.469793,7.575676
1775850914228415470,-0.559920,4.460221,7.542177
1775850914230576147,-0.540778,4.445865,7.479964
1775850914232736824,-0.526421,4.445865,7.479964
1775850914234897553,-0.516850,4.465007,7.446464
1775850914237058230,-0.502493,4.455436,7.460821
1775850914239218907,-0.507278,4.460221,7.465607
1775850914241379584,-0.516850,4.479364,7.518249
1775850914243540262,-0.540778,4.484149,7.537391
1775850914245700939,-0.569492,4.508078,7.628319
1775850914247861616,-0.626920,4.551149,7.676175
1775850914250022293,-0.655633,4.560720,7.743174
1775850914252183022,-0.713061,4.579863,7.834101
1775850914254343647,-0.775275,4.622933,7.925029
1775850914256504376,-0.818345,4.646862,8.044670
1775850914258665053,-0.813560,4.675575,8.121240
1775850914260825730,-0.827917,4.704289,8.245667
1775850914262986407,-0.837488,4.747360,8.303095
1775850914265147084,-0.847059,4.771288,8.370093
1775850914267307814,-0.856631,4.790431,8.432307
1775850914269468491,-0.880559,4.804788,8.441878
1775850914271629116,-0.942772,4.833502,8.480164
1775850914273789845,-1.000200,4.852644,8.499306
1775850914275950522,-1.062413,4.881358,8.494520
1775850914278111199,-1.138984,4.890930,8.513663
1775850914280271876,-1.172483,4.895715,8.537591
1775850914282432553,-1.215554,4.910072,8.513663
1775850914284593282,-1.292124,4.943572,8.499306
1775850914286753959,-1.335195,4.953143,8.475378
1775850914288914637,-1.406980,4.957929,8.437093
1775850914291075314,-1.435694,4.972285,8.374879
1775850914293235991,-1.483550,4.991428,8.331808
1775850914295396668,-1.531407,4.991428,8.307880
1775850914297557345,-1.584049,5.015356,8.269595
1775850914299718022,-1.655833,5.034499,8.250452
1775850914301878751,-1.670190,5.063213,8.207381
1775850914304039376,-1.703690,5.101498,8.202596
1775850914306200053,-1.718047,5.134997,8.197810
1775850914308360782,-1.727618,5.144569,8.221739
1775850914310521459,-1.775474,5.144569,8.226524
1775850914312682189,-1.804188,5.149354,8.236095
1775850914314842814,-1.861616,5.120640,8.303095
1775850914317003543,-1.885544,5.149354,8.379665
1775850914319164220,-1.909472,5.225924,8.504091
1775850914321324897,-1.938186,5.268995,8.609376
1775850914323485574,-1.966900,5.254639,8.714660
1775850914325646251,-1.971686,5.211568,8.762517
1775850914327806928,-1.971686,5.163711,8.767303
1775850914329967605,-1.933401,5.091927,8.714660
1775850914332128282,-1.885544,4.981857,8.604590
1775850914334288959,-1.804188,4.814359,8.465807
1775850914336449689,-1.689333,4.517649,8.255239
1775850914338610366,-1.607977,4.264010,8.097312
1775850914340771043,-1.517050,4.130012,7.996813
1775850914342931720,-1.435694,4.063013,7.948957
1775850914345092397,-1.349552,4.019942,7.915457
1775850914347253074,-1.277767,3.976871,7.934600
1775850914349413803,-1.182054,3.957729,8.001599
1775850914351574428,-1.115055,3.943372,8.097312
1775850914353735157,-1.038485,3.948157,8.221739
1775850914355895834,-0.961915,3.996014,8.384451
1775850914358056512,-0.885344,4.000800,8.528020
1775850914360217189,-0.813560,4.015156,8.709874
1775850914362377866,-0.789631,4.019942,8.843872
1775850914364538543,-0.736989,4.043870,8.930014
1775850914366699272,-0.693919,4.058227,9.030513
1775850914368859949,-0.650848,4.039084,9.064013
1775850914371020574,-0.617348,4.043870,9.054440
1775850914373181303,-0.574277,4.063013,9.054440
1775850914375341980,-0.521635,4.058227,9.011370
1775850914377502657,-0.492921,4.034299,8.939586
1775850914379663334,-0.445065,4.000800,8.829515
1775850914381824064,-0.397209,3.967300,8.748159
1775850914383984689,-0.363709,3.952943,8.733803
1775850914386145418,-0.330210,3.952943,8.695518
1775850914388306095,-0.311067,3.976871,8.700303
1775850914390466772,-0.301496,4.000800,8.709874
1775850914392627449,-0.272782,4.043870,8.714660
1775850914394788126,-0.205783,4.096512,8.738588
1775850914396948803,-0.138784,4.163511,8.810373
1775850914399109480,-0.066999,4.220939,8.891729
1775850914401270157,0.019143,4.268795,9.020942
1775850914403430887,0.138784,4.345366,9.126225
1775850914405591564,0.248854,4.426722,9.260223
1775850914407752241,0.358923,4.493721,9.346365
1775850914409912918,0.454636,4.546363,9.499506
1775850914412073595,0.512064,4.599005,9.614362
1775850914414234272,0.569492,4.637290,9.710074
1775850914416394949,0.617348,4.599005,9.786645
1775850914418555678,0.674776,4.532006,9.824930
1775850914420716355,0.703490,4.469793,9.834501
1775850914422877032,0.717847,4.398008,9.863214
1775850914425037709,0.732204,4.316652,9.887143
1775850914427198387,0.689133,4.225725,9.901500
1775850914429359064,0.650848,4.110869,9.934999
1775850914431519741,0.574277,3.991228,9.963714
1775850914433680470,0.478565,3.852444,10.025927
1775850914435841147,0.358923,3.689733,10.068997
1775850914438001824,0.220140,3.541378,10.112068
1775850914440162501,0.129212,3.426522,10.145568
1775850914442323178,0.009571,3.268596,10.126426
1775850914444483855,-0.086142,3.158526,10.121640
1775850914446644532,-0.191426,3.081956,10.131211
1775850914448805209,-0.301496,3.019742,10.174282
1775850914450965939,-0.411565,2.995814,10.207782
1775850914453126616,-0.521635,3.005385,10.231709
1775850914455287293,-0.617348,3.014956,10.250853
1775850914457447970,-0.698704,3.024528,10.226924
1775850914459608647,-0.775275,3.081956,10.236495
1775850914461769324,-0.827917,3.153740,10.159925
1775850914463930001,-0.851845,3.215954,10.045070
1775850914466090730,-0.880559,3.297310,9.863214
1775850914468251407,-0.880559,3.359523,9.647861
1775850914470412032,-0.904487,3.421736,9.556933
1775850914472572762,-0.937986,3.522235,9.719646
1775850914474733439,-0.909273,3.751946,9.877572
1775850914476894116,-0.827917,3.976871,9.872787
1775850914479054793,-0.693919,4.240082,9.724431
1775850914481215470,-0.564706,4.450650,9.427721
1775850914483376147,-0.440279,4.603791,9.011370
1775850914485536876,-0.339781,4.780859,8.676374
1775850914487697553,-0.205783,4.756931,8.322237
1775850914489858230,-0.129212,4.709075,7.886744
1775850914492018907,-0.119641,4.646862,7.456035
1775850914494179584,-0.071785,4.594220,7.159325
1775850914496340262,-0.033500,4.536792,6.972685
1775850914498500939,-0.014357,4.474578,6.857830
1775850914500661668,-0.004786,4.455436,6.805188
1775850914502822293,0.004786,4.436293,6.762117
1775850914504983022,0.004786,4.436293,6.723832
1775850914507143699,0.000000,4.417150,6.719046
1775850914509304376,-0.014357,4.441079,6.747760
1775850914511465053,-0.033500,4.450650,6.809973
1775850914513625730,-0.009571,4.445865,6.929615
1775850914515786459,-0.028714,4.460221,7.010970
1775850914517947137,-0.009571,4.450650,7.101898
1775850914520107814,-0.019143,4.441079,7.235896
1775850914522268491,-0.009571,4.436293,7.365108
1775850914524429168,-0.023928,4.426722,7.518249
1775850914526589845,-0.014357,4.383651,7.637890
1775850914528750522,-0.004786,4.369294,7.738389
1775850914530911199,0.047856,4.316652,7.776674
1775850914533071876,0.114855,4.240082,7.829316
1775850914535232605,0.177069,4.168297,7.848458
1775850914537393282,0.239282,4.086941,7.881958
1775850914539553959,0.311067,4.034299,7.968100
1775850914541714637,0.368495,4.010371,8.078169
1775850914543875314,0.382852,4.039084,8.212168
1775850914546035991,0.378066,4.077370,8.365308
1775850914548196668,0.334995,4.192225,8.547162
1775850914550357345,0.287139,4.331009,8.657232
1775850914552518074,0.215354,4.465007,8.729017
1775850914554678751,0.148355,4.570291,8.743374
1775850914556839428,0.081356,4.651647,8.690732
1775850914559000105,0.028714,4.728218,8.609376
1775850914561160782,-0.033500,4.756931,8.508878
1775850914563321459,-0.095713,4.771288,8.432307
1775850914565482189,-0.157926,4.785645,8.379665
1775850914567642866,-0.215354,4.780859,8.398808
1775850914569803543,-0.277567,4.756931,8.446664
1775850914571964220,-0.311067,4.608576,8.475378
1775850914574124897,-0.215354,4.211368,8.350951
1775850914576285574,-0.263211,4.048656,8.489735
1775850914578446251,-0.411565,4.115655,8.748159
1775850914580606928,-0.564706,4.206582,9.102298
1775850914582767657,-0.741775,4.311866,9.451650
1775850914584928334,-0.890130,4.436293,9.743574
1775850914587089012,-1.062413,4.532006,9.963714
1775850914589249689,-1.225125,4.575077,10.030712
1775850914591410366,-1.373480,4.618148,10.116854
1775850914593571043,-1.459622,4.656433,10.236495
1775850914595731720,-1.521835,4.689932,10.269995
1775850914597892397,-1.502693,4.685147,10.212567
1775850914600053074,-1.469193,4.646862,10.083355
1775850914602213803,-1.397408,4.632504,9.805787
1775850914604374480,-1.320838,4.642076,9.537791
1775850914606535157,-1.205983,4.646862,9.231510
1775850914608695834,-1.076770,4.627719,8.882157
1775850914610856512,-0.966700,4.603791,8.532805
1775850914613017189,-0.866202,4.594220,8.173882
1775850914615177918,-0.732204,4.575077,7.905886
1775850914617338595,-0.617348,4.527220,7.661818
1775850914619499272,-0.545564,4.603791,7.470392
1775850914621659949,-0.445065,4.752146,7.475178
1775850914623820626,-0.373280,5.115855,7.791030
1775850914625981355,-0.210568,5.666204,7.939385
1775850914628141980,0.076570,6.202196,7.628319
1775850914630302657,0.440279,6.628119,6.790831
1775850914632463334,0.799203,6.939186,5.857630
1775850914634624064,1.143769,7.173682,5.249853
1775850914636784741,1.397408,7.293324,5.005785
1775850914638945418,1.349552,7.355537,5.187640
1775850914641106095,1.057628,7.274181,5.627919
1775850914643266772,0.583849,6.666404,5.824131
1775850914645427449,0.110070,5.986842,5.814559
1775850914647588126,-0.210568,5.584848,5.747560
1775850914649748855,-0.445065,5.484350,5.728417
1775850914651909532,-0.655633,5.632705,5.771488
1775850914654070209,-0.775275,5.690132,5.781060
1775850914656230887,-0.952343,5.804988,5.838487
1775850914658391564,-1.076770,5.910272,5.996414
1775850914660552241,-1.076770,5.862415,6.092126
1775850914662712918,-1.076770,5.761917,6.307480
1775850914664873595,-1.129412,5.704489,6.599405
1775850914667034272,-1.162912,5.651847,6.838687
1775850914669195001,-1.196411,5.623133,7.087541
1775850914671355678,-1.220340,5.647061,7.360322
1775850914673516355,-1.229911,5.690132,7.599605
1775850914675677032,-1.249053,5.771488,7.814959
1775850914677837709,-1.191626,5.814559,7.958528
1775850914679998387,-1.095913,5.795416,8.011170
1775850914682159064,-0.957129,5.699704,8.039884
1775850914684319741,-0.770489,5.556134,8.346166
1775850914686480470,-0.535992,5.374279,8.494520
1775850914688641147,-0.373280,5.302495,8.571091
1775850914690801824,-0.162712,5.182854,8.719446
1775850914692962501,0.028714,5.072784,8.953942
1775850914695123178,0.220140,5.048856,9.097511
1775850914697283855,0.392423,5.077569,9.221938
1775850914699444584,0.550349,5.154140,9.341579
1775850914701605262,0.660419,5.240282,9.489935
1775850914703765939,0.746561,5.297709,9.628718
1775850914705926616,0.808774,5.335995,9.748360
1775850914708087293,0.823131,5.374279,9.848858
1775850914710247970,0.813560,5.388637,9.973285
1775850914712408647,0.746561,5.369494,10.078569
1775850914714569324,0.674776,5.321638,10.131211
1775850914716730053,0.583849,5.254639,10.183853
1775850914718890730,0.502493,5.240282,10.169497
1775850914721051407,0.392423,5.206782,10.121640
1775850914723212084,0.277567,5.168497,10.073783
1775850914725372762,0.143569,5.106284,10.016356
1775850914727533439,0.023928,5.053641,9.872787
1775850914729694116,-0.110070,4.967500,9.714860
1775850914731854793,-0.277567,4.890930,9.590433
1775850914734015522,-0.478565,4.790431,9.566504
1775850914736176199,-0.722632,4.642076,9.556933
1775850914738336876,-0.823131,4.508078,9.461221
1775850914740497553,-0.885344,4.345366,9.317652
1775850914742658230,-0.914058,4.144369,9.207582
1775850914744818907,-0.923630,3.881158,9.111869
1775850914746979637,-1.024128,3.771089,9.207582
1775850914749140262,-1.134198,3.742375,9.308080
1775850914751300991,-1.186840,3.742375,9.298509
1775850914753461668,-1.191626,3.809374,9.198010
1775850914755622345,-1.071985,3.742375,8.982656
1775850914757783022,-1.081556,3.919444,9.020942
1775850914759943699,-1.052842,4.048656,9.107083
1775850914762104428,-0.976272,4.220939,9.054440
1775850914764265053,-0.899701,4.359723,8.992228
1775850914766425782,-0.837488,4.417150,8.949157
1775850914768586459,-0.794417,4.498507,8.953942
1775850914770747137,-0.794417,4.551149,9.044869
1775850914772907814,-0.799203,4.651647,9.121440
1775850914775068491,-0.827917,4.747360,9.145369
1775850914777229168,-0.875773,4.847859,9.169296
1775850914779389897,-0.899701,4.938786,9.131011
1775850914781550574,-0.904487,5.015356,9.121440
1775850914783711251,-0.918844,5.067998,9.169296
1775850914785871928,-0.904487,5.072784,9.260223
1775850914788032605,-0.894916,5.130212,9.379865
1775850914790193282,-0.823131,5.245067,9.480363
1775850914792353959,-0.775275,5.508278,9.576077
1775850914794514637,-0.665205,5.919843,9.705289
1775850914796675366,-0.512064,6.288338,9.600004
1775850914798835991,-0.406780,6.412765,9.480363
1775850914800996720,-0.387637,6.355337,9.384650
1775850914803157397,-0.401994,6.254838,9.308080
1775850914805318074,-0.411565,6.072984,9.006584
1775850914807478751,-0.516850,5.852844,8.738588
1775850914809639428,-0.669990,5.723632,8.939586
1775850914811800105,-0.890130,5.618348,9.121440
1775850914813960782,-1.115055,5.484350,9.121440
1775850914816121512,-1.296910,5.350351,9.064013
1775850914818282189,-1.483550,5.201996,8.848659
1775850914820442866,-1.593620,5.067998,8.628518
1775850914822603543,-1.660619,4.924429,8.571091
1775850914824764272,-1.775474,4.867001,8.499306
1775850914826924897,-1.928615,4.934000,8.633304
1775850914829085574,-2.029114,4.991428,8.834301
1775850914831246303,-2.076970,4.986642,8.882157
1775850914833406980,-2.110470,4.948357,8.834301
1775850914835567657,-2.100898,4.804788,8.551949
1775850914837728334,-2.043471,4.589434,8.283952
1775850914839889012,-2.072184,4.551149,8.269595
1775850914842049689,-2.134398,4.608576,8.322237
1775850914844210366,-2.182254,4.651647,8.283952
1775850914846371043,-2.191826,4.689932,8.145168
1775850914848531772,-2.177469,4.756931,7.977671
1775850914850692449,-2.100898,4.828716,7.786245
1775850914852853126,-2.072184,4.981857,7.719246
1775850914855013803,-2.043471,5.182854,7.685746
1775850914857174480,-2.062613,5.369494,7.671390
1775850914859335209,-2.067399,5.474778,7.633104
1775850914861495887,-2.086541,5.556134,7.613962
1775850914863656512,-2.091327,5.589633,7.570891
1775850914865817189,-2.096113,5.584848,7.508677
1775850914867977918,-2.105684,5.570491,7.508677
1775850914870138595,-2.129612,5.599205,7.484749
1775850914872299272,-2.110470,5.541777,7.451250
1775850914874459949,-2.100898,5.498706,7.441679
1775850914876620678,-2.120041,5.436493,7.432107
1775850914878781355,-2.124826,5.388637,7.384251
1775850914880942032,-2.120041,5.369494,7.302895
1775850914883102709,-2.081756,5.359923,7.197610
1775850914885263387,-2.019542,5.407779,7.034899
1775850914887424064,-1.928615,5.599205,6.829116
1775850914889584741,-1.665405,5.962914,6.451050
1775850914891745418,-1.387837,6.063413,6.360123
1775850914893906095,-1.158126,6.087341,6.427122
1775850914896066772,-0.966700,6.058627,6.585048
1775850914898227501,-0.741775,6.005985,6.604190
1775850914900388178,-0.512064,5.972486,6.647261
1775850914902548855,-0.497707,6.077769,6.857830
1775850914904709532,-0.425922,6.206982,7.097112
1775850914906870209,-0.263211,6.312266,7.235896
1775850914909030887,-0.090927,6.451050,7.341180
1775850914911191564,0.105284,6.585048,7.393822
1775850914913352293,0.320638,6.675975,7.374680
1775850914915512970,0.454636,6.628119,7.322037
1775850914917673647,0.593420,6.537191,7.288538
1775850914919834324,0.732204,6.474978,7.317252
1775850914921995001,0.856631,6.393622,7.350751
1775850914924155678,0.923630,6.259624,7.479964
1775850914926316355,0.981057,6.202196,7.685746
1775850914928477084,1.000200,6.173482,7.905886
1775850914930637709,1.000200,6.116055,8.111669
1775850914932798439,0.985843,6.130412,8.350951
1775850914934959116,0.985843,6.183053,8.551949
1775850914937119793,1.000200,6.230910,8.709874
1775850914939280470,0.985843,6.206982,8.829515
1775850914941441147,0.976272,6.173482,8.882157
1775850914943601824,0.981057,6.163911,8.977871
1775850914945762553,0.995414,6.120841,8.973084
1775850914947923230,0.995414,6.082555,8.958728
1775850914950083855,1.004985,6.010770,8.953942
1775850914952244584,1.004985,5.948557,8.925228
1775850914954405262,1.004985,5.891129,8.934800
1775850914956565939,0.990629,5.838487,8.925228
1775850914958726616,0.976272,5.790631,8.963513
1775850914960887293,0.942772,5.737988,9.016156
1775850914963047970,0.942772,5.680561,9.083155
1775850914965208699,0.918844,5.623133,9.150154
1775850914967369376,0.899701,5.536992,9.207582
1775850914969530053,0.899701,5.474778,9.250652
1775850914971690730,0.894916,5.407779,9.317652
1775850914973851407,0.866202,5.331209,9.332008
1775850914976012084,0.861416,5.307281,9.322437
1775850914978172762,0.909273,5.264210,9.284152
1775850914980333439,0.928415,5.245067,9.212367
1775850914982494116,0.957129,5.245067,9.150154
1775850914984654793,0.995414,5.254639,9.102298
1775850914986815522,1.043271,5.302495,9.102298
1775850914988976199,1.067199,5.364708,9.111869
1775850914991136876,1.119841,5.422136,9.107083
1775850914993297605,1.124627,5.465207,9.083155
1775850914995458230,1.158126,5.489135,9.020942
1775850914997618959,1.182054,5.536992,8.877372
1775850914999779637,1.205983,5.580062,8.690732
1775850915001940314,1.239482,5.651847,8.475378
1775850915004100991,1.258625,5.737988,8.317451
1775850915006261668,1.272982,5.843273,8.173882
1775850915008422345,1.301695,5.943771,8.054241
1775850915010583022,1.282553,6.034698,7.944171
1775850915012743699,1.258625,6.092126,7.853244
1775850915014904428,1.244268,6.101698,7.805387
1775850915017065105,1.225125,6.063413,7.728817
1775850915019225782,1.201197,6.010770,7.666604
1775850915021386459,1.196411,5.953343,7.618747
1775850915023547137,1.167697,5.905486,7.590034
1775850915025707814,1.172483,5.809773,7.566105
1775850915027868491,1.177269,5.752346,7.585248
1775850915030029220,1.225125,5.704489,7.599605
1775850915032189897,1.268196,5.642276,7.685746
1775850915034350574,1.320838,5.618348,7.805387
1775850915036511251,1.373480,5.618348,7.944171
1775850915038671928,1.416551,5.613562,8.116454
1775850915040832605,1.488336,5.647061,8.288737
1775850915042993282,1.540978,5.666204,8.437093
1775850915045154012,1.603191,5.694918,8.595019
1775850915047314689,1.689333,5.723632,8.767303
1775850915049475366,1.765903,5.733203,8.863015
1775850915051636043,1.861616,5.728417,8.987442
1775850915053796720,1.919044,5.714060,9.083155
1775850915055957397,1.986043,5.670990,9.159725
1775850915058118074,2.033899,5.627919,9.250652
1775850915060278751,2.038685,5.575277,9.312865
1775850915062439428,2.057827,5.527421,9.384650
1775850915064600105,2.024328,5.465207,9.408579
1775850915066760834,2.043471,5.383851,9.427721
1775850915068921512,2.009971,5.345566,9.427721
1775850915071082189,1.990828,5.335995,9.360723
1775850915073242866,1.981257,5.331209,9.274581
1775850915075403543,1.962115,5.335995,9.207582
1775850915077564220,1.957329,5.355137,9.126225
1775850915079724897,1.928615,5.340780,9.049655
1775850915081885626,1.880759,5.331209,9.040084
1775850915084046303,1.789831,5.307281,9.064013
1775850915086206980,1.713261,5.288138,9.102298
1775850915088367657,1.560120,5.235496,9.174082
1775850915090528334,1.459622,5.201996,9.183653
1775850915092689012,1.344766,5.149354,9.188439
1775850915094849689,1.253839,5.101498,9.126225
1775850915097010418,1.191626,5.015356,9.054440
1775850915099171095,1.143769,4.962714,8.944371
1775850915101331720,1.091127,4.924429,8.853444
1775850915103492449,1.033699,4.881358,8.805588
1775850915105653126,1.009771,4.862216,8.743374
1775850915107813803,0.952343,4.871787,8.700303
1775850915109974480,0.937986,4.886144,8.647661
1775850915112135209,0.933201,4.924429,8.642876
1775850915114295887,0.899701,4.972285,8.618947
1775850915116456564,0.899701,4.996214,8.585447
1775850915118617241,0.914058,5.029713,8.528020
1775850915120777918,0.937986,5.053641,8.446664
1775850915122938595,0.947558,5.063213,8.336594
1775850915125099272,0.971486,5.120640,8.193025
1775850915127260001,1.009771,5.158926,8.035098
1775850915129420678,1.028914,5.211568,7.853244
1775850915131581355,1.071985,5.273781,7.676175
1775850915133742032,1.086342,5.340780,7.503892
1775850915135902709,1.105484,5.402994,7.326823
1775850915138063387,1.124627,5.489135,7.221539
1775850915140224064,1.143769,5.541777,7.082755
1775850915142384793,1.182054,5.613562,6.963114
1775850915144545418,1.220340,5.642276,6.843473
1775850915146706095,1.272982,5.685347,6.752545
1775850915148866824,1.311267,5.718846,6.675975
1775850915151027501,1.349552,5.737988,6.642476
1775850915153188178,1.383052,5.766703,6.575477
1775850915155348855,1.411765,5.809773,6.570691
1775850915157509532,1.411765,5.867201,6.628119
1775850915159670209,1.435694,5.891129,6.685546
1775850915161830939,1.450050,5.919843,6.776474
1775850915163991564,1.440479,5.958128,6.853044
1775850915166152293,1.445265,5.962914,6.939186
1775850915168312970,1.430908,5.953343,7.001399
1775850915170473647,1.440479,5.938986,7.068398
1775850915172634324,1.459622,5.905486,7.097112
1775850915174795001,1.478764,5.862415,7.149754
1775850915176955678,1.483550,5.852844,7.173682
1775850915179116407,1.493121,5.838487,7.202396
1775850915181277084,1.526621,5.838487,7.245467
1775850915183437762,1.545763,5.867201,7.250253
1775850915185598439,1.545763,5.900701,7.269395
1775850915187759116,1.550549,5.900701,7.317252
1775850915189919793,1.521835,5.943771,7.336394
1775850915192080470,1.497907,5.953343,7.360322
1775850915194241147,1.488336,5.953343,7.365108
1775850915196401876,1.440479,5.953343,7.317252
1775850915198562553,1.387837,5.934200,7.255038
1775850915200723230,1.354338,5.929415,7.168897
1775850915202883907,1.287339,5.943771,7.121040
1775850915205044584,1.234697,5.948557,7.049255
1775850915207205262,1.167697,5.934200,7.015756
1775850915209365939,1.105484,5.919843,6.972685
1775850915211526616,1.019342,5.919843,6.958328
1775850915213687293,0.957129,5.871987,6.910472
1775850915215848022,0.904487,5.828916,6.867401
1775850915218008699,0.803988,5.800202,6.838687
1775850915220169376,0.775275,5.742774,6.809973
1775850915222330053,0.698704,5.704489,6.776474
1775850915224490730,0.636491,5.642276,6.733403
1775850915226651407,0.574277,5.608776,6.690332
1775850915228812084,0.526421,5.584848,6.690332
1775850915230972762,0.492921,5.551349,6.695118
1775850915233133491,0.464208,5.522635,6.704689
1775850915235294168,0.464208,5.493921,6.733403
1775850915237454845,0.454636,5.479564,6.742974
1775850915239615522,0.464208,5.465207,6.819544
1775850915241776199,0.512064,5.436493,6.838687
1775850915243936928,0.583849,5.412565,6.853044
1775850915246097605,0.703490,5.393422,6.891329
1775850915248258282,0.803988,5.407779,6.943971
1775850915250418959,0.976272,5.441278,6.982256
1775850915252579637,1.115055,5.522635,7.025327
1775850915254740314,1.268196,5.637490,7.097112
1775850915256900991,1.421337,5.771488,7.168897
1775850915259061668,1.555335,5.905486,7.221539
1775850915261222345,1.684547,6.044270,7.288538
1775850915263383074,1.813760,6.168697,7.331609
1775850915265543751,1.914258,6.293124,7.355537
1775850915267704428,2.005185,6.436693,7.384251
1775850915269865105,2.081756,6.527620,7.393822
1775850915272025782,2.134398,6.618547,7.393822
1775850915274186459,2.172683,6.690332,7.441679
1775850915276347137,2.215754,6.738189,7.456035
1775850915278507814,2.206182,6.738189,7.489535
1775850915280668491,2.187040,6.742974,7.561319
1775850915282829220,2.153540,6.704689,7.604390
1775850915284989897,2.062613,6.632905,7.700103
1775850915287150574,1.957329,6.551548,7.771888
1775850915289311251,1.832902,6.474978,7.877172
1775850915291471928,1.670190,6.355337,7.944171
1775850915293632605,1.512264,6.259624,8.020741
1775850915295793334,1.373480,6.125626,8.087741
1775850915297954012,1.253839,6.005985,8.116454
1775850915300114689,1.110270,5.867201,8.149954
1775850915302275366,0.971486,5.714060,8.164310
1775850915304436043,0.885344,5.575277,8.140383
1775850915306596720,0.799203,5.450850,8.102098
1775850915308757397,0.713061,5.321638,8.111669
1775850915310918074,0.622134,5.197211,8.078169
1775850915313078751,0.564706,5.106284,8.030313
1775850915315239480,0.512064,5.010571,7.996813
1775850915317400157,0.459422,4.924429,7.953743
1775850915319560834,0.387637,4.886144,7.939385
1775850915321721512,0.378066,4.843073,7.853244
1775850915323882189,0.401994,4.785645,7.819745
1775850915326042866,0.430708,4.766503,7.838887
1775850915328203543,0.478565,4.790431,7.877172
1775850915330364272,0.579063,4.828716,7.925029
1775850915332524949,0.693919,4.905286,7.987242
1775850915334685626,0.823131,4.991428,8.092526
1775850915336846303,0.933201,5.096712,8.145168
1775850915339006980,1.081556,5.221139,8.197810
1775850915341167657,1.234697,5.364708,8.250452
1775850915343328334,1.383052,5.460421,8.298309
1775850915345489064,1.540978,5.551349,8.350951
1775850915347649689,1.694118,5.618348,8.408379
1775850915349810418,1.866402,5.642276,8.470592
1775850915351971095,2.014757,5.661418,8.566305
1775850915354131772,2.158326,5.680561,8.666803
1775850915356292449,2.306681,5.680561,8.824730
1775850915358453126,2.426322,5.685347,9.011370
1775850915360613855,2.502892,5.709275,9.221938
1775850915362774532,2.584249,5.747560,9.442079
1775850915364935209,2.636891,5.776274,9.609575
1775850915367095887,2.660819,5.781060,9.753145
1775850915369256564,2.694318,5.781060,9.863214
1775850915371417241,2.694318,5.771488,9.920643
1775850915373577918,2.713461,5.752346,9.930214
1775850915375738595,2.727818,5.742774,9.949356
1775850915377899324,2.742175,5.714060,9.906285
1775850915380060001,2.766103,5.680561,9.877572
1775850915382220626,2.770889,5.666204,9.858429
1775850915384381355,2.751746,5.680561,9.820144
1775850915386542032,2.732604,5.714060,9.767502
1775850915388702709,2.708675,5.747560,9.743574
1775850915390863439,2.656033,5.785845,9.681360
1775850915393024064,2.603391,5.804988,9.604790
1775850915395184793,2.531606,5.824131,9.509077
1775850915397345418,2.498107,5.828916,9.389436
1775850915399506147,2.455036,5.828916,9.260223
1775850915401666824,2.435894,5.852844,9.131011
1775850915403827501,2.411965,5.848059,8.973084
1775850915405988178,2.397608,5.871987,8.867801
1775850915408148855,2.359323,5.891129,8.748159
1775850915410309584,2.335395,5.919843,8.638090
1775850915412470262,2.282753,5.924629,8.590233
1775850915414630939,2.220539,5.943771,8.518449
1775850915416791616,2.129612,5.919843,8.441878
1775850915418952293,2.038685,5.915058,8.394022
1775850915421112970,1.909472,5.867201,8.317451
1775850915423273647,1.770689,5.804988,8.240881
1775850915425434324,1.612762,5.723632,8.145168
1775850915427595053,1.488336,5.670990,8.078169
1775850915429755730,1.316052,5.603991,8.006385
1775850915431916407,1.148555,5.541777,7.934600
1775850915434077084,0.995414,5.474778,7.858029
1775850915436237762,0.827917,5.407779,7.795816
1775850915438398439,0.660419,5.340780,7.762317
1775850915440559116,0.526421,5.278567,7.690532
1775850915442719793,0.373280,5.201996,7.618747
1775850915444880522,0.277567,5.130212,7.523035
1775850915447041147,0.162712,5.077569,7.403393
1775850915449201876,0.071785,4.996214,7.298109
1775850915451362553,-0.009571,4.981857,7.202396
1775850915453523230,-0.090927,4.977071,7.116254
1775850915455683907,-0.177069,4.977071,7.025327
1775850915457844584,-0.244068,4.996214,6.996614
1775850915460005262,-0.330210,5.024928,6.953543
1775850915462165991,-0.387637,5.044070,6.915257
1775850915464326616,-0.406780,5.087141,6.876972
1775850915466487345,-0.430708,5.130212,6.843473
1775850915468648022,-0.421137,5.149354,6.824330
1775850915470808699,-0.373280,5.206782,6.766902
1775850915472969376,-0.330210,5.240282,6.690332
1775850915475130053,-0.272782,5.273781,6.647261
1775850915477290730,-0.177069,5.307281,6.551548
1775850915479451407,-0.086142,5.359923,6.441479
1775850915481612137,0.019143,5.426922,6.364908
1775850915483772814,0.129212,5.527421,6.317052
1775850915485933491,0.253639,5.647061,6.240481
1775850915488094168,0.382852,5.800202,6.216553
1775850915490254845,0.516850,5.934200,6.216553
1775850915492415522,0.631705,6.072984,6.206982
1775850915494576251,0.770489,6.187840,6.235696
1775850915496736928,0.870987,6.317052,6.264410
1775850915498897605,0.961915,6.422336,6.297909
1775850915501058282,1.014557,6.503692,6.326623
1775850915503218959,1.062413,6.580262,6.336195
1775850915505379637,1.057628,6.652047,6.350551
1775850915507540314,1.033699,6.690332,6.388836
1775850915509701043,0.995414,6.709475,6.379265
1775850915511861668,0.952343,6.699903,6.360123
1775850915514022397,0.856631,6.671189,6.321837
1775850915516183074,0.808774,6.628119,6.226124
1775850915518343751,0.765703,6.546763,6.135197
1775850915520504428,0.713061,6.489335,5.996414
1775850915522665105,0.708275,6.407979,5.848059
1775850915524825834,0.722632,6.345766,5.718846
1775850915526986512,0.727418,6.321837,5.575277
1775850915529147189,0.736989,6.312266,5.489135
1775850915531307866,0.756132,6.326623,5.436493
1775850915533468543,0.775275,6.364908,5.422136
1775850915535629220,0.818345,6.398408,5.436493
1775850915537789949,0.890130,6.436693,5.441278
1775850915539950574,0.971486,6.489335,5.469993
1775850915542111251,1.071985,6.522834,5.498706
1775850915544271980,1.182054,6.575477,5.536992
1775850915546432657,1.253839,6.623333,5.580062
1775850915548593334,1.344766,6.685546,5.666204
1775850915550754012,1.421337,6.747760,5.742774
1775850915552914689,1.464407,6.795616,5.843273
1775850915555075366,1.488336,6.790831,5.986842
1775850915557236095,1.469193,6.771688,6.144769
1775850915559396720,1.430908,6.766902,6.254838
1775850915561557449,1.392623,6.709475,6.393622
1775850915563718126,1.339981,6.618547,6.503692
1775850915565878803,1.272982,6.513263,6.599405
1775850915568039480,1.225125,6.407979,6.680761
1775850915570200157,1.153340,6.321837,6.757331
1775850915572360834,1.062413,6.250053,6.790831
1775850915574521564,1.000200,6.178268,6.805188
1775850915576682189,0.890130,6.149554,6.814759
1775850915578842918,0.799203,6.125626,6.833901
1775850915581003595,0.679562,6.111269,6.867401
1775850915583164272,0.574277,6.063413,6.848258
1775850915585324949,0.478565,5.996414,6.843473
1775850915587485626,0.411565,5.924629,6.771688
1775850915589646303,0.363709,5.852844,6.719046
1775850915591807032,0.320638,5.804988,6.671189
1775850915593967657,0.272782,5.747560,6.690332
1775850915596128387,0.239282,5.723632,6.723832
1775850915598289064,0.181855,5.666204,6.757331
1775850915600449741,0.133998,5.613562,6.795616
1775850915602610418,0.066999,5.570491,6.838687
1775850915604771095,0.004786,5.493921,6.843473
1775850915606931772,-0.062213,5.412565,6.876972
1775850915609092501,-0.105284,5.326423,6.876972
1775850915611253126,-0.157926,5.283352,6.838687
1775850915613413855,-0.200997,5.206782,6.795616
1775850915615574532,-0.220140,5.163711,6.752545
1775850915617735209,-0.205783,5.125426,6.714260
1775850915619895887,-0.186640,5.082355,6.695118
1775850915622056616,-0.177069,5.091927,6.652047
1775850915624217293,-0.177069,5.091927,6.675975
1775850915626377970,-0.157926,5.139783,6.709475
1775850915628538647,-0.157926,5.211568,6.742974
1775850915630699324,-0.157926,5.268995,6.752545
1775850915632860001,-0.129212,5.340780,6.709475
1775850915635020678,-0.100499,5.422136,6.604190
1775850915637181355,-0.052642,5.479564,6.513263
1775850915639342084,-0.028714,5.575277,6.407979
1775850915641502709,-0.004786,5.680561,6.293124
1775850915643663439,0.000000,5.785845,6.221339
1775850915645824116,-0.028714,5.886343,6.206982
1775850915647984793,-0.071785,5.972486,6.211768
1775850915650145470,-0.129212,6.034698,6.235696
1775850915652306147,-0.210568,6.072984,6.254838
1775850915654466824,-0.287139,6.072984,6.283552
1775850915656627553,-0.339781,6.049056,6.317052
1775850915658788230,-0.411565,6.001199,6.350551
1775850915660948907,-0.488136,5.972486,6.374479
1775850915663109584,-0.559920,5.915058,6.407979
1775850915665270262,-0.626920,5.862415,6.436693
1775850915667430939,-0.693919,5.828916,6.527620
1775850915669591616,-0.784846,5.776274,6.608976
1775850915671752293,-0.856631,5.752346,6.695118
1775850915673913022,-0.914058,5.690132,6.762117
1775850915676073699,-0.976272,5.613562,6.805188
1775850915678234376,-1.033699,5.527421,6.853044
1775850915680395053,-1.062413,5.412565,6.843473
1775850915682555730,-1.067199,5.297709,6.843473
1775850915684716407,-1.067199,5.201996,6.891329
1775850915686877084,-1.105484,5.115855,6.943971
1775850915689037814,-1.105484,5.058427,7.054041
1775850915691198491,-1.110270,5.010571,7.202396
1775850915693359168,-1.081556,4.986642,7.345965
1775850915695519845,-1.057628,4.977071,7.470392
1775850915697680522,-0.957129,4.967500,7.590034
1775850915699841199,-0.890130,4.972285,7.700103
1775850915702001876,-0.765703,4.991428,7.805387
1775850915704162605,-0.646062,5.044070,7.920243
1775850915706323282,-0.531207,5.096712,8.039884
1775850915708483959,-0.425922,5.182854,8.149954
1775850915710644637,-0.349352,5.297709,8.236095
1775850915712805314,-0.287139,5.393422,8.336594
1775850915714965991,-0.215354,5.493921,8.394022
1775850915717126668,-0.133998,5.570491,8.451449
1775850915719287345,-0.038285,5.651847,8.451449
1775850915721448074,0.076570,5.723632,8.422736
1775850915723608751,0.181855,5.781060,8.379665
1775850915725769428,0.301496,5.848059,8.331808
1775850915727930105,0.406780,5.900701,8.303095
1775850915730090782,0.502493,5.982057,8.240881
1775850915732251459,0.588634,6.092126,8.193025
1775850915734412137,0.650848,6.183053,8.173882
1775850915736572866,0.708275,6.264410,8.102098
1775850915738733543,0.708275,6.326623,8.068598
1775850915740894168,0.736989,6.360123,8.001599
1775850915743054897,0.756132,6.379265,7.934600
1775850915745215574,0.765703,6.360123,7.877172
1775850915747376251,0.746561,6.336195,7.834101
1775850915749536980,0.727418,6.321837,7.848458
1775850915751697605,0.698704,6.288338,7.858029
1775850915753858282,0.650848,6.278767,7.862815
1775850915756019012,0.593420,6.250053,7.901100
1775850915758179689,0.526421,6.206982,7.939385
1775850915760340366,0.425922,6.144769,7.968100
1775850915762501043,0.301496,6.106483,7.972885
1775850915764661720,0.229711,6.029913,7.982456
1775850915766822397,0.124427,5.972486,7.972885
1775850915768983074,0.033500,5.919843,7.920243
1775850915771143751,-0.043071,5.852844,7.838887
1775850915773304480,-0.143569,5.843273,7.800602
1775850915775465157,-0.215354,5.824131,7.738389
1775850915777625834,-0.291924,5.848059,7.690532
1775850915779786512,-0.349352,5.881558,7.666604
1775850915781947189,-0.406780,5.886343,7.657032
1775850915784107918,-0.421137,5.881558,7.652247
1775850915786268595,-0.421137,5.886343,7.599605
1775850915788429220,-0.416351,5.862415,7.527820
1775850915790589949,-0.392423,5.828916,7.398608
1775850915792750626,-0.363709,5.804988,7.293324
1775850915794911303,-0.325424,5.804988,7.168897
1775850915797071980,-0.311067,5.804988,7.082755
1775850915799232657,-0.267996,5.809773,7.034899
1775850915801393387,-0.248854,5.843273,7.020542
1775850915803554012,-0.200997,5.862415,7.015756
1775850915805714741,-0.181855,5.900701,7.006185
1775850915807875418,-0.119641,5.938986,7.020542
1775850915810036095,-0.057428,5.962914,7.030113
1775850915812196772,0.019143,5.982057,7.044470
1775850915814357501,0.124427,5.982057,7.030113
1775850915816518126,0.234497,5.996414,6.991828
1775850915818678855,0.406780,6.020342,6.939186
1775850915820839532,0.555135,6.058627,6.867401
1775850915823000209,0.760918,6.116055,6.819544
1775850915825160887,0.961915,6.226124,6.814759
1775850915827321564,1.148555,6.369694,6.838687
1775850915829482241,1.325624,6.513263,6.872187
1775850915831642918,1.445265,6.680761,6.972685
1775850915833803647,1.555335,6.824330,7.092326
1775850915835964324,1.674976,6.958328,7.211967
1775850915838125001,1.756332,7.039684,7.341180
1775850915840285678,1.794617,7.092326,7.475178
1775850915842446355,1.847259,7.135397,7.637890
1775850915844607032,1.880759,7.164111,7.738389
1775850915846767709,1.909472,7.116254,7.853244
1775850915848928387,1.885544,7.049255,7.939385
1775850915851089116,1.842473,6.963114,7.996813
1775850915853249793,1.775474,6.891329,8.020741
1775850915855410470,1.684547,6.805188,7.987242
1775850915857571147,1.584049,6.675975,8.020741
1775850915859731824,1.416551,6.546763,8.054241
1775850915861892501,1.272982,6.403193,8.049456
1775850915864053178,1.119841,6.264410,8.059027
1775850915866213855,0.952343,6.101698,8.054241
1775850915868374532,0.784846,5.972486,8.039884
1775850915870535262,0.631705,5.848059,8.044670
1775850915872695939,0.468993,5.752346,8.044670
1775850915874856616,0.325424,5.642276,8.049456
1775850915877017293,0.133998,5.560920,8.063812
1775850915879177970,-0.028714,5.469993,8.068598
1775850915881338647,-0.167498,5.407779,8.073383
1775850915883499376,-0.282353,5.331209,8.068598
1775850915885660001,-0.368495,5.259424,8.030313
1775850915887820730,-0.416351,5.206782,8.006385
1775850915889981407,-0.459422,5.168497,7.925029
1775850915892142084,-0.459422,5.158926,7.838887
1775850915894302762,-0.468993,5.149354,7.757531
1775850915896463439,-0.473779,5.182854,7.690532
1775850915898624116,-0.445065,5.235496,7.657032
1775850915900784845,-0.445065,5.307281,7.666604
1775850915902945522,-0.445065,5.417350,7.666604
1775850915905106199,-0.430708,5.489135,7.676175
1775850915907266876,-0.421137,5.599205,7.671390
1775850915909427553,-0.401994,5.714060,7.666604
1775850915911588230,-0.358923,5.800202,7.680961
1775850915913748907,-0.349352,5.924629,7.666604
1775850915915909584,-0.325424,6.010770,7.695318
1775850915918070314,-0.296710,6.087341,7.733603
1775850915920230991,-0.277567,6.125626,7.747960
1775850915922391668,-0.277567,6.144769,7.747960
1775850915924552345,-0.263211,6.130412,7.733603
1775850915926713022,-0.282353,6.116055,7.709674
1775850915928873699,-0.315853,6.096912,7.657032
1775850915931034428,-0.344566,6.082555,7.623533
1775850915933195053,-0.368495,6.072984,7.561319
1775850915935355782,-0.397209,6.049056,7.422536
1775850915937516459,-0.421137,6.049056,7.322037
1775850915939677137,-0.425922,6.058627,7.178468
1775850915941837814,-0.430708,6.087341,6.991828
1775850915943998491,-0.401994,6.120841,6.800402
1775850915946159168,-0.354138,6.192625,6.594619
1775850915948319845,-0.287139,6.254838,6.427122
1775850915950480522,-0.215354,6.355337,6.307480
1775850915952641251,-0.133998,6.455835,6.221339
1775850915954801928,-0.052642,6.580262,6.192625
1775850915956962605,0.043071,6.704689,6.187840
1775850915959123282,0.119641,6.795616,6.206982
1775850915961283959,0.181855,6.853044,6.230910
1775850915963444637,0.253639,6.881758,6.273981
1775850915965605314,0.325424,6.924829,6.254838
1775850915967766043,0.378066,6.948757,6.273981
1775850915969926720,0.421137,6.972685,6.254838
1775850915972087397,0.449851,7.006185,6.259624
1775850915974248074,0.445065,7.044470,6.250053
1775850915976408751,0.449851,7.077970,6.293124
1775850915978569428,0.445065,7.121040,6.331409
1775850915980730157,0.425922,7.164111,6.364908
1775850915982890834,0.406780,7.164111,6.451050
1775850915985051512,0.373280,7.183254,6.551548
1775850915987212189,0.344566,7.164111,6.599405
1775850915989372866,0.301496,7.111469,6.680761
1775850915991533543,0.258425,7.058827,6.781260
1775850915993694272,0.191426,6.972685,6.905686
1775850915995854897,0.133998,6.910472,7.015756
1775850915998015574,0.081356,6.833901,7.116254
1775850916000176303,0.004786,6.752545,7.207182
1775850916002336980,-0.047856,6.699903,7.336394
1775850916004497657,-0.133998,6.656833,7.403393
1775850916006658334,-0.177069,6.589834,7.489535
1775850916008819012,-0.239282,6.594619,7.546963
1775850916010979689,-0.311067,6.551548,7.628319
1775850916013140366,-0.320638,6.551548,7.671390
1775850916015301095,-0.344566,6.527620,7.690532
1775850916017461772,-0.358923,6.527620,7.733603
1775850916019622449,-0.344566,6.541977,7.757531
1775850916021783126,-0.339781,6.541977,7.781459
1775850916023943803,-0.330210,6.551548,7.843673
1775850916026104480,-0.315853,6.565906,7.939385
1775850916028265209,-0.272782,6.570691,8.006385
1775850916030425834,-0.205783,6.570691,8.073383
1775850916032586564,-0.148355,6.532406,8.164310
1775850916034747241,-0.100499,6.508478,8.245667
1775850916036907918,-0.019143,6.470192,8.283952
1775850916039068595,0.066999,6.460621,8.355737
1775850916041229272,0.172283,6.455835,8.379665
1775850916043389949,0.267996,6.455835,8.398808
1775850916045550678,0.378066,6.460621,8.422736
1775850916047711355,0.492921,6.498906,8.441878
1775850916049872032,0.612563,6.527620,8.475378
1775850916052032709,0.698704,6.575477,8.537591
1775850916054193387,0.803988,6.618547,8.618947
1775850916056354064,0.909273,6.671189,8.662018
1775850916058514793,1.019342,6.695118,8.714660
1775850916060675470,1.134198,6.742974,8.705089
1775850916062836147,1.244268,6.809973,8.700303
1775850916064996824,1.363909,6.843473,8.681161
1775850916067157501,1.483550,6.896115,8.652447
1775850916069318178,1.574477,6.977471,8.638090
1775850916071478855,1.875973,6.977471,8.078169
1775850916073639532,2.316252,6.891329,6.757331
1775850916075800262,2.809174,7.044470,5.627919
1775850916077960939,3.105884,7.298109,4.967500
1775850916080121616,2.871387,7.532606,5.067998
1775850916082282293,2.340181,7.714460,5.742774
1775850916084442970,1.914258,7.858029,6.537191
1775850916086603647,1.722832,7.905886,7.144969
1775850916088764324,1.761117,7.853244,7.446464
1775850916090925001,1.899901,7.714460,7.508677
1775850916093085730,2.110470,7.523035,7.379465
1775850916095246407,2.249253,7.293324,7.221539
1775850916097407084,2.325824,7.058827,7.030113
1775850916099567762,2.368894,6.896115,6.905686
1775850916101728439,2.354537,6.757331,6.848258
1775850916103889116,2.321038,6.652047,6.891329
1775850916106049793,2.244468,6.556334,6.963114
1775850916108210522,2.115255,6.451050,7.125826
1775850916110371199,1.938186,6.307480,7.326823
1775850916112531876,1.722832,6.135197,7.585248
1775850916114692553,1.473979,5.962914,7.886744
1775850916116853230,1.191626,5.752346,8.135597
1775850916119013907,0.923630,5.551349,8.293523
1775850916121174584,0.689133,5.335995,8.465807
1775850916123335314,0.468993,5.173283,8.528020
1775850916125495991,0.320638,5.000999,8.556734
1775850916127656668,0.239282,4.862216,8.542377
1775850916129817345,0.172283,4.761717,8.456235
1775850916131978022,0.162712,4.680361,8.398808
1775850916134138699,0.162712,4.651647,8.317451
1775850916136299376,0.196211,4.661219,8.250452
1775850916138460053,0.234497,4.713861,8.183454
1775850916140620730,0.315853,4.804788,8.121240
1775850916142781459,0.406780,4.929214,8.059027
1775850916144942137,0.550349,5.082355,8.039884
1775850916147102814,0.727418,5.268995,7.996813
1775850916149263491,0.933201,5.479564,7.972885
1775850916151424168,1.153340,5.656633,7.929814
1775850916153584845,1.383052,5.843273,7.853244
1775850916155745574,1.588834,6.029913,7.838887
1775850916157906199,1.770689,6.216553,7.810173
1775850916160066928,1.947758,6.407979,7.786245
1775850916162227605,2.115255,6.546763,7.800602
1775850916164388282,2.263610,6.652047,7.781459
1775850916166548959,2.354537,6.742974,7.752745
1775850916168709637,2.440679,6.786045,7.685746
1775850916170870314,2.474179,6.790831,7.633104
1775850916173031043,2.488536,6.805188,7.594819
1775850916175191720,2.445465,6.805188,7.546963
1775850916177352397,2.431108,6.795616,7.527820
1775850916179513074,2.359323,6.776474,7.456035
1775850916181673751,2.268396,6.733403,7.384251
1775850916183834428,2.167897,6.699903,7.336394
1775850916185995105,2.057827,6.661618,7.255038
1775850916188155834,1.952543,6.618547,7.202396
1775850916190316512,1.852045,6.585048,7.154540
1775850916192477189,1.751546,6.546763,7.101898
1775850916194637866,1.646262,6.518049,7.049255
1775850916196798543,1.555335,6.460621,6.996614
1775850916198959220,1.454836,6.412765,6.963114
1775850916201119897,1.383052,6.360123,6.876972
1775850916203280574,1.325624,6.317052,6.771688
1775850916205441303,1.282553,6.288338,6.704689
1775850916207601980,1.258625,6.259624,6.666404
1775850916209762657,1.258625,6.273981,6.594619
1775850916211923334,1.316052,6.288338,6.522834
1775850916214084012,1.430908,6.350551,6.446264
1775850916216244689,1.612762,6.427122,6.360123
1775850916218405418,1.866402,6.503692,6.264410
1775850916220566043,2.120041,6.604190,6.178268
1775850916222726772,2.392823,6.675975,6.130412
1775850916224887449,2.627319,6.762117,6.092126
1775850916227048126,2.828316,6.848258,6.130412
1775850916229208803,2.976671,6.867401,6.206982
1775850916231369480,3.101098,6.876972,6.340980
1775850916233530209,3.254239,6.805188,6.518049
1775850916235690834,3.349952,6.704689,6.733403
1775850916237851564,3.412165,6.522834,6.929615
1775850916240012241,3.474379,6.288338,7.259824
1775850916242172918,3.474379,6.125626,7.585248
1775850916244333595,3.402594,6.053841,7.910672
1775850916246494272,3.330809,6.049056,8.063812
1775850916248654949,3.278167,5.986842,8.221739
1775850916250815626,3.211168,5.919843,8.365308
1775850916252976355,3.163311,5.857630,8.470592
1775850916255137032,3.034099,5.809773,8.523234
1775850916257297709,2.785246,5.747560,8.508878
1775850916259458387,2.459822,5.685347,8.446664
1775850916261619064,1.990828,5.618348,8.370093
1775850916263779741,1.473979,5.527421,8.312666
1775850916265940418,1.028914,5.369494,8.216953
1775850916268101147,0.799203,5.331209,8.082955
1775850916270261824,0.698704,5.331209,7.929814
1775850916272422501,0.646062,5.398208,7.733603
1775850916274583178,0.583849,5.493921,7.503892
1775850916276743855,0.507278,5.580062,7.331609
1775850916278904532,0.387637,5.623133,7.178468
1775850916281065209,0.296710,5.661418,7.082755
1775850916283225939,0.224925,5.714060,7.001399
1775850916285386616,0.215354,5.804988,6.929615
1775850916287547293,0.234497,5.867201,6.853044
1775850916289707970,0.258425,5.943771,6.790831
1775850916291868647,0.301496,6.005985,6.771688
1775850916294029324,0.349352,6.063413,6.738189
1775850916296190001,0.459422,6.130412,6.699903
1775850916298350730,0.583849,6.178268,6.666404
1775850916300511407,0.756132,6.183053,6.565906
1775850916302672084,0.952343,6.206982,6.412765
1775850916304832762,1.134198,6.202196,6.245267
1775850916306993439,1.359123,6.211768,5.833702
1775850916309154116,1.550549,6.168697,5.273781
1775850916311314793,1.698904,6.154340,4.809574
1775850916313475522,1.823331,6.159125,4.374080
1775850916315636199,1.909472,6.135197,4.000800
1775850916317796876,1.990828,6.087341,3.751946
1775850916319957553,1.971686,6.025127,3.699304
1775850916322118230,1.957329,5.948557,3.885944
1775850916324278907,1.875973,5.852844,4.321438
1775850916326439584,1.765903,5.723632,4.924429
1775850916328600262,1.679762,5.584848,5.594419
1775850916330760991,1.636691,5.446064,6.226124
1775850916332921668,1.660619,5.292923,6.747760
1775850916335082345,1.703690,5.149354,7.154540
1775850916337243022,1.770689,5.029713,7.398608
1775850916339403699,1.890330,4.953143,7.441679
1775850916341564376,2.057827,4.953143,7.417750
1775850916343725105,2.225325,5.000999,7.298109
1775850916345885730,2.407180,5.096712,7.087541
1775850916348046407,2.608177,5.230711,6.929615
1775850916350207137,2.761317,5.402994,6.757331
1775850916352367814,2.914458,5.589633,6.647261
1775850916354528491,3.043670,5.804988,6.628119
1775850916356689220,3.153740,6.001199,6.642476
1775850916358849845,3.282953,6.178268,6.733403
1775850916361010522,3.359523,6.331409,6.920043
1775850916363171251,3.469593,6.398408,7.077970
1775850916365331928,3.622734,6.460621,7.226325
1775850916367492605,3.790231,6.494121,7.341180
1775850916369653282,3.905087,6.503692,7.451250
1775850916371814012,3.986443,6.427122,7.503892
1775850916373974689,4.034299,6.331409,7.599605
1775850916376135366,3.991228,6.202196,7.685746
1775850916378296043,3.943372,6.053841,7.791030
1775850916380456720,3.871587,5.910272,7.829316
1775850916382617397,3.737589,5.742774,7.858029
1775850916384778074,3.560520,5.589633,7.977671
1775850916386938751,3.388237,5.426922,8.049456
1775850916389099480,3.196811,5.283352,8.092526
1775850916391260157,3.024528,5.178068,8.183454
1775850916393420834,2.876173,5.106284,8.212168
1775850916395581512,2.809174,5.058427,8.221739
1775850916397742189,2.737389,5.039285,8.216953
1775850916399902866,2.689533,5.048856,8.140383
1775850916402063543,2.622534,5.082355,8.140383
1775850916404224220,2.569891,5.115855,8.111669
1775850916406384949,2.526821,5.125426,8.063812
1775850916408545626,2.488536,5.168497,7.977671
1775850916410706303,2.493321,5.197211,7.905886
1775850916412866980,2.560320,5.235496,7.853244
1775850916415027657,2.665604,5.302495,7.814959
1775850916417188334,2.885744,5.379066,7.771888
1775850916419349012,3.134598,5.474778,7.757531
1775850916421509741,3.436093,5.603991,7.791030
1775850916423670418,3.732803,5.752346,7.848458
1775850916425831095,4.048656,5.919843,7.915457
1775850916427991772,4.364509,6.087341,8.001599
1775850916430152449,4.646862,6.245267,8.111669
1775850916432313126,4.890930,6.388836,8.269595
1775850916434473803,5.034499,6.513263,8.417950
1775850916436634532,5.106284,6.570691,8.566305
1775850916438795209,5.144569,6.575477,8.719446
1775850916440955887,5.134997,6.551548,8.805588
1775850916443116564,5.096712,6.460621,8.901300
1775850916445277241,4.962714,6.331409,8.896515
1775850916447437970,4.800002,6.163911,8.791230
1775850916449598595,4.608576,6.001199,8.566305
1775850916451759324,4.374080,5.838487,8.288737
1775850916453920001,4.101298,5.685347,8.039884
1775850916456080678,3.804588,5.536992,7.781459
1775850916458241355,3.517449,5.398208,7.503892
1775850916460402032,3.278167,5.283352,7.264609
1775850916462562762,3.091527,5.230711,7.101898
1775850916464723439,2.928815,5.221139,6.963114
1775850916466884116,2.823531,5.225924,6.939186
1775850916469044793,2.761317,5.259424,6.943971
1775850916471205470,2.737389,5.316852,7.015756
1775850916473366147,2.746960,5.374279,7.025327
1775850916475526824,2.780460,5.407779,7.015756
1775850916477687501,2.857030,5.450850,6.972685
1775850916479848230,2.938386,5.551349,6.867401
1775850916482008907,3.038885,5.661418,6.752545
1775850916484169584,3.110669,5.800202,6.637690
1775850916486330262,3.163311,5.924629,6.541977
1775850916488490939,3.177669,6.034698,6.508478
1775850916490651616,3.158526,6.096912,6.446264
1775850916492812345,3.139383,6.087341,6.403193
1775850916494972970,3.081956,6.053841,6.412765
1775850916497133647,3.058027,6.029913,6.403193
1775850916499294376,3.053242,6.025127,6.417551
1775850916501455053,3.086741,6.001199,6.422336
1775850916503615730,3.120241,6.025127,6.484550
1775850916505776407,3.120241,6.063413,6.599405
1775850916507937084,3.105884,6.106483,6.714260
1775850916510097762,3.086741,6.125626,6.814759
1775850916512258439,3.058027,6.125626,6.896115
1775850916514419168,3.005385,6.125626,6.943971
1775850916516579845,2.943172,6.087341,7.006185
1775850916518740522,2.857030,6.096912,6.963114
1775850916520901199,2.737389,6.087341,6.958328
1775850916523061928,2.593820,6.044270,7.144969
1775850916525222605,2.531606,6.020342,7.336394
1775850916527383282,2.493321,5.982057,7.465607
1775850916529543959,2.522035,5.986842,7.503892
1775850916531704637,2.536392,6.029913,7.532606
1775850916533865314,2.622534,6.068198,7.594819
1775850916536025991,2.775674,6.154340,7.647461
1775850916538186668,2.976671,6.250053,7.757531
1775850916540347397,3.206382,6.364908,7.910672
1775850916542508074,3.426522,6.518049,8.035098
1775850916544668751,3.627519,6.675975,8.121240
1775850916546829428,3.799802,6.824330,8.188239
1775850916548990105,3.962514,6.977471,8.159525
1775850916551150782,4.063013,7.125826,8.111669
1775850916553311512,4.139583,7.255038,8.015956
1775850916555472189,4.225725,7.374680,7.915457
1775850916557632814,4.297510,7.494320,7.762317
1775850916559793543,4.364509,7.561319,7.628319
1775850916561954220,4.450650,7.609176,7.456035
1775850916564114897,4.503292,7.633104,7.379465
1775850916566275574,4.565506,7.613962,7.288538
1775850916568436303,4.646862,7.604390,7.116254
1775850916570596980,4.632504,7.566105,6.929615
1775850916572757657,4.551149,7.436893,6.881758
1775850916574918334,4.460221,7.302895,6.910472
1775850916577079012,4.398008,7.154540,6.886544
1775850916579239689,4.331009,7.068398,6.824330
1775850916581400418,4.254439,6.977471,6.752545
1775850916583561043,4.197011,6.915257,6.671189
1775850916585721772,4.134798,6.886544,6.623333
1775850916587882449,4.106084,6.876972,6.565906
1775850916590043126,4.086941,6.905686,6.561120
1775850916592203803,4.063013,6.939186,6.589834
1775850916594364480,4.053442,6.953543,6.661618
1775850916596525157,4.082155,6.987042,6.704689
1775850916598685834,4.130012,7.030113,6.747760
1775850916600846564,4.230510,7.049255,6.771688
1775850916603007241,4.316652,7.058827,6.814759
1775850916605167918,4.383651,7.049255,6.896115
1775850916607328595,4.460221,7.001399,7.030113
1775850916609489272,4.555934,6.982256,7.197610
1775850916611650001,4.666004,6.963114,7.317252
1775850916613810626,4.718646,6.972685,7.432107
1775850916615971355,4.814359,6.982256,7.527820
1775850916618132032,4.881358,6.996614,7.580462
1775850916620292709,4.919643,7.020542,7.570891
1775850916622453387,4.934000,7.049255,7.532606
1775850916624614064,4.924429,7.092326,7.475178
1775850916626774741,4.919643,7.111469,7.417750
1775850916628935470,4.895715,7.101898,7.365108
1775850916631096095,4.847859,7.092326,7.302895
1775850916633256824,4.780859,7.034899,7.221539
1775850916635417501,4.694718,6.977471,7.144969
1775850916637578178,4.613362,6.905686,7.044470
1775850916639738855,4.498507,6.829116,6.929615
1775850916641899532,4.354937,6.757331,6.742974
1775850916644060262,4.240082,6.699903,6.585048
1775850916646220939,4.192225,6.666404,6.465407
1775850916648381616,4.182654,6.714260,6.250053
1775850916650542293,4.182654,6.714260,6.025127
1775850916652702970,4.153940,6.781260,5.800202
1775850916654863647,4.063013,7.020542,5.575277
1775850916657024376,4.096512,7.216753,5.417350
1775850916659185053,4.211368,7.322037,5.259424
1775850916661345730,4.340580,7.331609,5.182854
1775850916663506407,4.469793,7.350751,5.087141
1775850916665667084,4.584648,7.412964,4.977071
1775850916667827762,5.024928,7.862815,4.890930
1775850916669988439,5.422136,7.858029,5.029713
1775850916672149116,5.651847,7.389036,5.158926
1775850916674309845,5.843273,6.838687,5.158926
1775850916676470522,6.010770,6.369694,5.106284
1775850916678631199,6.144769,5.948557,5.115855
1775850916680791876,6.206982,5.666204,5.225924
1775850916682952553,6.149554,5.474778,5.331209
1775850916685113230,6.087341,5.455636,5.412565
1775850916687273959,6.001199,5.541777,5.551349
1775850916689434637,5.891129,5.694918,5.661418
1775850916691595314,5.800202,5.938986,5.704489
1775850916693755991,5.704489,6.173482,5.675776
1775850916695916668,5.651847,6.441479,5.560920
1775850916698077397,5.603991,6.709475,5.460421
1775850916700238022,5.551349,6.934400,5.331209
1775850916702398751,5.517849,7.125826,5.211568
1775850916704559428,5.493921,7.240681,5.096712
1775850916706720105,5.508278,7.317252,4.967500
1775850916708880782,5.513063,7.345965,4.843073
1775850916711041459,5.513063,7.322037,4.733003
1775850916713202137,5.513063,7.245467,4.642076
1775850916715362866,5.541777,7.106683,4.527220
1775850916717523543,5.522635,6.972685,4.450650
1775850916719684220,5.508278,6.838687,4.378865
1775850916721844897,5.513063,6.671189,4.321438
1775850916724005574,5.522635,6.580262,4.273581
1775850916726166251,5.517849,6.522834,4.254439
1775850916728326980,5.570491,6.589834,4.287938
1775850916730487657,5.651847,6.857830,4.307081
1775850916732648334,5.814559,7.302895,4.311866
1775850916734809012,5.828916,7.255038,4.134798
1775850916736969689,5.742774,6.905686,3.933800
1775850916739130418,5.733203,6.551548,3.785445
1775850916741291095,5.752346,6.211768,3.742375
1775850916743451772,5.790631,5.938986,3.751946
1775850916745612449,5.838487,5.704489,3.799802
1775850916747773126,5.900701,5.560920,3.823730
1775850916749933803,5.938986,5.450850,3.862016
1775850916752094480,6.020342,5.422136,3.905087
1775850916754255157,6.087341,5.426922,3.952943
1775850916756415887,6.159125,5.469993,3.929015
1775850916758576564,6.211768,5.536992,3.924229
1775850916760737241,6.250053,5.623133,3.838088
1775850916762897918,6.326623,5.704489,3.756732
1775850916765058595,6.345766,5.795416,3.656233
1775850916767219324,6.331409,5.843273,3.546163
1775850916769379949,6.283552,5.881558,3.469593
1775850916771540678,6.250053,5.977271,3.354737
1775850916773701355,6.254838,6.187840,3.311666
1775850916775862032,6.675975,7.173682,2.842673
1775850916778022709,6.733403,7.350751,2.694318
1775850916780183387,6.594619,7.140183,2.732604
1775850916782344064,6.518049,6.857830,2.761317
1775850916784504793,6.422336,6.556334,2.656033
1775850916786665418,6.340980,6.221339,2.603391
1775850916788826147,6.240481,5.915058,2.612962
1775850916790986824,6.168697,5.623133,2.627319
1775850916793147501,6.072984,5.340780,2.737389
1775850916795308178,5.986842,5.039285,2.847459
1775850916797468907,5.924629,4.819145,3.000600
1775850916799629584,5.871987,4.656433,3.215954
1775850916801790262,5.828916,4.498507,3.393023
1775850916803950939,5.776274,4.345366,3.541378
1775850916806111616,5.747560,4.197011,3.493521
1775850916808272345,5.761917,4.086941,3.364309
1775850916810433022,5.795416,4.005585,3.306881
1775850916812593699,5.862415,3.933800,3.235096
1775850916814754376,5.929415,3.857230,3.158526
1775850916816915053,6.015556,3.795017,3.110669
1775850916819075782,6.101698,3.761517,3.000600
1775850916821236407,6.187840,3.756732,2.880959
1775850916823397137,6.288338,3.775874,2.794817
1775850916825557814,6.369694,3.790231,2.718246
1775850916827718491,6.441479,3.795017,2.627319
1775850916829879168,6.518049,3.799802,2.656033
1775850916832039845,6.580262,3.747160,2.660819
1775850916834200522,6.628119,3.708875,2.718246
1775850916836361199,6.666404,3.675375,2.799603
1775850916838521928,6.704689,3.713661,2.895315
1775850916840682605,6.776474,3.756732,2.957529
1775850916842843282,6.848258,3.828516,3.014956
1775850916845003959,6.963114,3.919444,3.062813
1775850916847164637,7.073184,4.110869,3.144169
1775850916849325366,7.245467,4.268795,3.225525
1775850916851486043,7.365108,4.374080,3.278167
1775850916853646720,7.422536,4.374080,3.340380
1775850916855807397,7.436893,4.321438,3.402594
1775850916857968074,7.441679,4.254439,3.436093
1775850916860128751,7.384251,4.177868,3.488735
1775850916862289428,7.322037,4.024728,3.445665
1775850916864450157,7.245467,3.890730,3.345166
1775850916866610834,7.164111,3.704089,3.244668
1775850916868771512,7.082755,3.488735,3.192025
1775850916870932189,6.991828,3.254239,3.105884
1775850916873092866,6.910472,3.048456,3.048456
1775850916875253595,6.910472,2.967100,2.904887
1775850916877414272,6.943971,2.924029,2.775674
1775850916879574949,7.020542,2.981457,2.622534
1775850916881735626,7.173682,3.172883,2.440679
1775850916883896355,7.374680,3.421736,2.215754
1775850916886056980,7.594819,3.790231,1.957329
1775850916888217709,7.853244,4.158726,1.651048
1775850916890378387,8.030313,4.350152,1.459622
1775850916892539064,8.126026,4.407579,1.397408
1775850916894699741,8.135597,3.962514,1.306481
1775850916896860418,8.097312,3.349952,1.225125
1775850916899021095,8.006385,3.010171,1.172483
1775850916901181824,7.905886,3.010171,1.177269
1775850916903342501,7.795816,3.096313,1.229911
1775850916905503178,7.690532,3.201597,1.349552
1775850916907663855,7.623533,3.268596,1.440479
1775850916909824532,7.623533,3.440879,1.536192
1775850916911985209,7.633104,3.488735,1.627119
1775850916914145939,7.685746,3.397808,1.732404
1775850916916306616,7.795816,3.278167,1.842473
1775850916918467293,7.881958,3.101098,1.986043
1775850916920627970,7.992028,2.900101,2.057827
1775850916922788647,8.049456,2.723032,2.143969
1775850916924949376,8.097312,2.574677,2.234896
1775850916927110053,8.111669,2.450250,2.297110
1775850916929270730,8.116454,2.383251,2.368894
1775850916931431407,8.130812,2.330609,2.402394
1775850916933592084,8.130812,2.301895,2.464607
1775850916935752762,8.126026,2.292324,2.402394
1775850916937913491,8.116454,2.287539,2.297110
1775850916940074168,8.111669,2.287539,2.206182
1775850916942234845,8.121240,2.297110,2.167897
1775850916944395522,8.140383,2.321038,2.124826
1775850916946556199,8.178668,2.306681,2.110470
1775850916948716928,8.207381,2.301895,2.072184
1775850916950877553,8.255239,2.263610,2.000400
1775850916953038282,8.317451,2.234896,1.880759
1775850916955198959,8.398808,2.215754,1.756332
1775850916957359637,8.489735,2.177469,1.703690
1775850916959520314,8.585447,2.148755,1.627119
1775850916961681043,8.709874,2.148755,1.550549
1775850916963841720,8.848659,2.148755,1.502693
1775850916966002397,9.025727,2.191826,1.411765
1775850916968163074,9.169296,2.225325,1.339981
1775850916970323751,9.332008,2.249253,1.225125
1775850916972484428,9.427721,2.230111,1.201197
1775850916974645105,9.475577,2.201397,1.292124
1775850916976805834,9.499506,2.143969,1.464407
1775850916978966512,9.537791,2.091327,1.684547
1775850916981127189,9.580862,2.038685,1.880759
1775850916983287866,9.633504,2.024328,2.057827
1775850916985448543,9.667004,2.005185,2.220539
1775850916987609220,9.729217,2.005185,2.335395
1775850916989769949,9.743574,1.971686,2.431108
1775850916991930626,9.753145,1.971686,2.531606
1775850916994091303,9.757931,2.000400,2.632105
1775850916996251980,9.748360,2.014757,2.742175
1775850916998412709,9.748360,2.019542,2.857030
1775850917000573334,9.724431,2.033899,3.019742
1775850917002734064,9.695718,2.019542,3.153740
1775850917004894741,9.676575,2.029114,3.259024
1775850917007055418,9.662218,2.019542,3.316452
1775850917009216095,9.657433,1.976472,3.330809
1775850917011376824,9.647861,1.923829,3.369094
1775850917013537501,9.614362,1.847259,3.388237
1775850917015698178,9.619147,1.761117,3.397808
1775850917017858855,9.595219,1.670190,3.421736
1775850917020019532,9.552148,1.584049,3.436093
1775850917022180209,9.499506,1.502693,3.440879
1775850917024340939,9.499506,1.450050,3.464807
1775850917026501564,9.533006,1.397408,3.469593
1775850917028662293,9.518648,1.344766,3.455236
1775850917030822970,9.518648,1.311267,3.460021
1775850917032983647,9.523434,1.296910,3.426522
1775850917035144324,9.547362,1.287339,3.369094
1775850917037305001,9.571291,1.306481,3.244668
1775850917039465730,9.628718,1.335195,3.144169
1775850917041626407,9.710074,1.392623,3.010171
1775850917043787084,9.757931,1.450050,2.895315
1775850917045947762,9.810573,1.564906,2.794817
1775850917048108439,9.863214,1.703690,2.770889
1775850917050269168,9.954143,1.842473,2.770889
1775850917052429845,10.068997,1.995614,2.833102
1775850917054590522,10.246066,2.115255,2.890530
1775850917056751199,10.389636,2.210968,3.000600
1775850917058911876,10.537991,2.254039,3.120241
1775850917061072605,10.662417,2.297110,3.287738
1775850917063233282,10.710274,2.301895,3.445665
1775850917065393959,10.758131,2.254039,3.579663
1775850917067554637,10.724631,2.201397,3.694518
1775850917069715314,10.643275,2.072184,3.833302
1775850917071876043,10.533205,1.947758,3.924229
1775850917074036720,10.418350,1.799403,4.058227
1775850917076197397,10.269995,1.631905,4.163511
1775850917078358126,10.116854,1.411765,4.297510
1775850917080518751,9.963714,1.210768,4.369294
1775850917082679428,9.863214,1.038485,4.364509
1775850917084840157,9.810573,0.890130,4.369294
1775850917087000834,9.762716,0.765703,4.369294
1775850917089161512,9.748360,0.669990,4.359723
1775850917091322189,9.738789,0.631705,4.345366
1775850917093482918,9.700503,0.598206,4.326223
1775850917095643595,9.676575,0.617348,4.302295
1775850917097804272,9.633504,0.650848,4.302295
1775850917099964949,9.566504,0.708275,4.292724
1775850917102125626,9.518648,0.784846,4.216154
1775850917104286303,9.504292,0.847059,4.139583
1775850917106447032,9.494720,0.899701,4.082155
1775850917108607709,9.499506,0.937986,4.005585
1775850917110768387,9.485149,0.952343,3.885944
1775850917112929064,9.494720,0.952343,3.766303
1775850917115089793,9.451650,0.942772,3.699304
1775850917117250470,9.418150,0.904487,3.641876
1775850917119411147,9.355937,0.866202,3.603591
1775850917121571824,9.308080,0.823131,3.613162
1775850917123732501,9.236296,0.794417,3.651447
1775850917125893178,9.193225,0.775275,3.699304
1775850917128053907,9.198010,0.808774,3.756732
1775850917130214584,9.231510,0.851845,3.804588
1775850917132375262,9.279366,0.894916,3.833302
1775850917134535939,9.360723,0.966700,3.852444
1775850917136696616,9.418150,1.024128,3.900301
1775850917138857345,9.504292,1.038485,3.933800
1775850917141018022,9.552148,1.048056,3.962514
1775850917143178699,9.595219,1.043271,3.957729
1775850917145339376,9.652647,1.038485,3.948157
1775850917147500053,9.681360,1.024128,3.933800
1775850917149660782,9.690931,1.019342,3.919444
1775850917151821407,9.676575,1.038485,3.895515
1775850917153982137,9.676575,1.076770,3.881158
1775850917156142814,9.657433,1.062413,3.881158
1775850917158303491,9.628718,1.067199,3.814159
1775850917160464168,9.633504,1.062413,3.718446
1775850917162624897,9.619147,1.048056,3.713661
1775850917164785574,9.652647,1.019342,3.694518
1775850917166946251,9.705289,1.024128,3.613162
1775850917169106928,9.796216,1.071985,3.469593
1775850917171267605,9.901500,1.158126,3.364309
1775850917173428334,10.001999,1.268196,3.254239
1775850917175589012,10.064212,1.406980,3.177669
1775850917177749689,10.102497,1.517050,3.153740
1775850917179910366,10.126426,1.593620,3.110669
1775850917182071095,10.112068,1.641476,3.115455
1775850917184231772,10.097712,1.674976,3.134598
1775850917186392449,10.064212,1.679762,3.139383
1775850917188553126,10.030712,1.698904,3.163311
1775850917190713803,10.030712,1.708475,3.182454
1775850917192874480,10.016356,1.746760,3.220739
1775850917195035157,10.011570,1.818545,3.311666
1775850917197195887,10.030712,1.890330,3.393023
1775850917199356564,10.030712,1.990828,3.498307
1775850917201517241,10.064212,2.086541,3.589234
1775850917203677918,10.064212,2.143969,3.661019
1775850917205838595,10.030712,2.187040,3.732803
1775850917207999324,9.982856,2.187040,3.823730
1775850917210160001,9.949356,2.167897,3.924229
1775850917212320678,9.863214,2.110470,3.996014
1775850917214481355,9.777073,2.038685,4.096512
1775850917216642032,9.681360,1.957329,4.168297
1775850917218802762,9.566504,1.842473,4.278367
1775850917220963439,9.466006,1.737189,4.388437
1775850917223124116,9.341579,1.598405,4.479364
1775850917225284793,9.236296,1.478764,4.589434
1775850917227445522,9.121440,1.373480,4.642076
1775850917229606199,9.035298,1.282553,4.694718
1775850917231766876,8.934800,1.177269,4.747360
1775850917233927553,8.843872,1.091127,4.780859
1775850917236088230,8.738588,1.014557,4.800002
1775850917238248907,8.662018,0.914058,4.785645
1775850917240409637,8.604590,0.847059,4.761717
1775850917242570314,8.542377,0.784846,4.680361
1775850917244730991,8.513663,0.722632,4.608576
1775850917246891720,8.484949,0.674776,4.512864
1775850917249052345,8.465807,0.631705,4.421936
1775850917251213074,8.480164,0.598206,4.316652
1775850917253373751,8.528020,0.612563,4.173083
1775850917255534428,8.609376,0.626920,4.063013
1775850917257695105,8.729017,0.674776,3.943372
1775850917259855834,8.867801,0.756132,3.790231
1775850917262016512,8.992228,0.837488,3.613162
1775850917264177189,9.097511,0.937986,3.474379
1775850917266337918,9.174082,1.019342,3.412165
1775850917268498543,9.255438,1.119841,3.369094
1775850917270659272,9.312865,1.205983,3.297310
1775850917272819949,9.379865,1.253839,3.235096
1775850917274980626,9.456435,1.339981,3.125026
1775850917277141303,9.523434,1.378266,3.010171
1775850917279302032,9.566504,1.402194,2.885744
1775850917281462709,9.647861,1.445265,2.790031
1775850917283623387,9.734002,1.502693,2.694318
1775850917285784064,9.786645,1.521835,2.603391
1775850917287944793,9.848858,1.560120,2.612962
1775850917290105418,9.906285,1.588834,2.689533
1775850917292266147,9.992428,1.631905,2.804388
1775850917294426824,10.068997,1.665405,2.904887
1775850917296587501,10.155139,1.732404,3.038885
1775850917298748178,10.241281,1.828117,3.081956
1775850917300908855,10.265209,1.890330,3.072384
1775850917303069584,10.289138,1.928615,3.029314
1775850917305230262,10.279566,1.919044,2.938386
1775850917307390939,10.284351,1.880759,2.866601
1775850917309551668,10.284351,1.804188,2.852245
1775850917311712345,10.284351,1.727618,2.861816
1775850917313873022,10.289138,1.627119,2.909672
1775850917316033699,10.265209,1.540978,2.914458
1775850917318194376,10.246066,1.464407,2.962314
1775850917320355105,10.217353,1.421337,3.005385
1775850917322515782,10.217353,1.383052,3.014956
1775850917324676459,10.202995,1.349552,3.101098
1775850917326837137,10.207782,1.301695,3.148955
1775850917328997814,10.193424,1.277767,3.168097
1775850917331158543,10.188639,1.249053,3.192025
1775850917333319220,10.202995,1.220340,3.177669
1775850917335479897,10.222138,1.205983,3.125026
1775850917337640574,10.212567,1.220340,3.110669
1775850917339801251,10.212567,1.268196,3.077170
1775850917341961980,10.250853,1.296910,3.101098
1775850917344122657,10.246066,1.349552,3.091527
1775850917346283334,10.202995,1.373480,3.134598
1775850917348444064,10.183853,1.411765,3.244668
1775850917350604741,10.126426,1.440479,3.326024
1775850917352765418,10.045070,1.459622,3.407379
1775850917354926095,9.978070,1.459622,3.493521
1775850917357086772,9.882358,1.454836,3.560520
1775850917359247501,9.796216,1.416551,3.608377
1775850917361408178,9.729217,1.411765,3.641876
1775850917363568855,9.657433,1.392623,3.646662
1775850917365729532,9.609575,1.363909,3.675375
1775850917367890209,9.556933,1.339981,3.680161
1775850917370050939,9.509077,1.306481,3.680161
1775850917372211616,9.466006,1.258625,3.699304
1775850917374372293,9.413364,1.234697,3.694518
1775850917376532970,9.375079,1.225125,3.723232
1775850917378693647,9.308080,1.186840,3.804588
1775850917380854376,9.269794,1.167697,3.881158
1775850917383015053,9.217153,1.177269,3.996014
1775850917385175730,9.198010,1.186840,4.106084
1775850917387336459,9.159725,1.205983,4.197011
1775850917389497137,9.107083,1.263410,4.259224
1775850917391657814,9.068798,1.301695,4.307081
1775850917393818491,9.025727,1.368695,4.311866
1775850917395979168,9.001799,1.440479,4.264010
1775850917398139845,8.944371,1.488336,4.211368
1775850917400300574,8.901300,1.555335,4.125226
1775850917402461251,8.843872,1.612762,4.053442
1775850917404621928,8.796016,1.694118,3.962514
1775850917406782657,8.762517,1.761117,3.929015
1775850917408943334,8.729017,1.837688,3.885944
1775850917411104012,8.685946,1.914258,3.847659
1775850917413264741,8.690732,1.942972,3.852444
1775850917415425366,8.700303,1.995614,3.790231
1775850917417586043,8.748159,2.000400,3.751946
1775850917419746772,8.772088,2.005185,3.723232
1775850917421907449,8.819944,1.986043,3.670590
1775850917424068178,8.877372,1.990828,3.598805
1775850917426228855,8.920443,2.000400,3.541378
1775850917428389480,8.949157,1.986043,3.541378
1775850917430550209,8.992228,1.981257,3.527021
1775850917432710887,9.040084,1.995614,3.546163
1775850917434871564,9.059227,1.986043,3.584448
1775850917437032293,9.044869,1.986043,3.632305
1775850917439192970,9.044869,1.962115,3.670590
1775850917441353699,9.044869,1.942972,3.723232
1775850917443514324,9.025727,1.928615,3.795017
1775850917445675053,9.016156,1.923829,3.862016
1775850917447835730,8.997013,1.947758,3.924229
1775850917449996407,8.968299,1.966900,3.924229
1775850917452157084,8.930014,2.005185,3.900301
1775850917454317762,8.934800,2.038685,3.857230
1775850917456478491,8.953942,2.110470,3.766303
1775850917458639168,8.977871,2.148755,3.665804
1775850917460799897,9.030513,2.201397,3.603591
1775850917462960522,9.054440,2.239682,3.565306
1775850917465121251,9.078369,2.301895,3.550949
1775850917467281928,9.097511,2.340181,3.546163
1775850917469442605,9.097511,2.407180,3.531806
1775850917471603334,9.092726,2.459822,3.493521
1775850917473764012,9.049655,2.512464,3.460021
1775850917475924689,8.977871,2.555535,3.426522
1775850917478085366,8.906086,2.593820,3.326024
1775850917480246095,8.843872,2.617748,3.220739
1775850917482406720,8.834301,2.608177,3.086741
1775850917484567449,8.752945,2.579463,2.991028
1775850917486728126,8.618947,2.522035,2.914458
1775850917488888803,8.461020,2.459822,2.837888
1775850917491049532,8.236095,2.416751,2.813959
1775850917493210209,7.992028,2.383251,2.770889
1775850917495370887,7.791030,2.354537,2.727818
1775850917497531564,7.690532,2.354537,2.699104
1775850917499692293,7.623533,2.301895,2.660819
1775850917501852918,7.623533,2.273181,2.617748
1775850917504013647,7.599605,2.196611,2.541178
1775850917506174324,7.609176,2.129612,2.502892
1775850917508335053,7.666604,2.067399,2.459822
1775850917510495730,7.747960,2.019542,2.469393
1775850917512656407,7.834101,2.000400,2.517249
1775850917514817084,7.915457,1.990828,2.617748
1775850917516977814,7.996813,2.009971,2.732604
1775850917519138491,8.044670,2.000400,2.866601
1775850917521299168,8.073383,2.000400,2.976671
1775850917523459897,8.082955,2.005185,3.062813
1775850917525620574,8.035098,1.966900,3.110669
1775850917527781251,8.011170,1.938186,3.172883
1775850917529941928,7.953743,1.885544,3.192025
1775850917532102605,7.896315,1.828117,3.244668
1775850917534263334,7.829316,1.770689,3.278167
1775850917536424012,7.747960,1.698904,3.340380
1775850917538584689,7.685746,1.646262,3.388237
1775850917540745366,7.599605,1.588834,3.383451
1775850917542906043,7.523035,1.560120,3.378666
1775850917545066720,7.494320,1.555335,3.369094
1775850917547227449,7.503892,1.569692,3.340380
1775850917549388126,7.537391,1.607977,3.340380
1775850917551548855,7.561319,1.588834,3.345166
1775850917553709532,7.561319,1.579263,3.349952
1775850917555870209,7.590034,1.555335,3.359523
1775850917558030887,7.594819,1.545763,3.373880
1775850917560191616,7.599605,1.550549,3.364309
1775850917562352293,7.623533,1.617548,3.388237
1775850917564512970,7.666604,1.713261,3.407379
1775850917566673647,7.728817,1.813760,3.436093
1775850917568834324,7.781459,1.923829,3.479164
1775850917570995053,7.819745,1.990828,3.517449
1775850917573155730,7.867601,2.029114,3.570091
1775850917575316407,7.891529,2.048256,3.603591
1775850917577477137,7.915457,2.048256,3.651447
1775850917579637814,7.968100,2.029114,3.689733
1775850917581798491,8.020741,1.962115,3.713661
1775850917583959168,8.092526,1.890330,3.771089
1775850917586119845,8.183454,1.823331,3.866802
1775850917588280574,8.260024,1.765903,3.909872
1775850917590441251,8.355737,1.698904,4.010371
1775850917592601980,8.441878,1.598405,4.058227
1775850917594762605,8.542377,1.497907,4.058227
1775850917596923334,8.609376,1.421337,4.072584
1775850917599084012,8.705089,1.325624,4.063013
1775850917601244689,8.776874,1.292124,4.019942
1775850917603405366,8.901300,1.249053,3.976871
1775850917605566095,9.011370,1.234697,3.938586
1775850917607726772,9.145369,1.253839,3.914658
1775850917609887449,9.298509,1.268196,3.881158
1775850917612048126,9.446864,1.292124,3.785445
1775850917614208855,9.614362,1.325624,3.680161
1775850917616369532,9.748360,1.406980,3.555734
1775850917618530209,9.896714,1.517050,3.460021
1775850917620690939,10.040284,1.651048,3.431308
1775850917622851616,10.198210,1.804188,3.426522
1775850917625012293,10.336994,1.990828,3.402594
1775850917627173022,10.466207,2.187040,3.402594
1775850917629333699,10.571490,2.368894,3.397808
1775850917631494376,10.624132,2.531606,3.340380
1775850917633655053,10.667203,2.651248,3.268596
1775850917635815730,10.676775,2.713461,3.192025
1775850917637976459,10.624132,2.737389,3.139383
1775850917640137137,10.528419,2.699104,3.072384
1775850917642297814,10.375279,2.670390,3.048456
1775850917644458543,10.217353,2.636891,3.067599
1775850917646619220,10.068997,2.598605,3.120241
1775850917648779897,9.997213,2.536392,3.235096
1775850917650940626,9.925428,2.435894,3.388237
1775850917653101251,9.882358,2.301895,3.445665
1775850917655261980,9.848858,2.143969,3.335595
1775850917657422657,9.801002,1.966900,3.215954
1775850917659583334,9.738789,1.799403,3.144169
1775850917661744064,9.657433,1.684547,3.163311
1775850917663904741,9.537791,1.584049,3.196811
1775850917666065418,9.470792,1.536192,3.306881
1775850917668226147,9.360723,1.521835,3.373880
1775850917670386824,9.241081,1.517050,3.474379
1775850917672547501,9.202796,1.603191,3.622734
1775850917674708178,9.131011,1.670190,3.675375
1775850917676868855,8.997013,1.689333,3.670590
1775850917679029584,8.896515,1.722832,3.694518
1775850917681190262,8.886943,1.794617,3.761517
1775850917683350939,8.896515,1.832902,3.737589
1775850917685511668,8.848659,1.852045,3.627519
1775850917687672345,8.819944,1.861616,3.517449
1775850917689833022,8.800801,1.866402,3.397808
1775850917691993751,8.848659,1.890330,3.306881
1775850917694154428,9.020942,1.914258,3.225525
1775850917696315105,9.116654,1.933401,3.048456
1775850917698475782,9.226724,1.933401,2.880959
1775850917700636459,9.384650,1.919044,2.751746
1775850917702797189,9.542577,1.904687,2.608177
1775850917704957866,9.619147,1.837688,2.397608
1775850917707118543,9.676575,1.765903,2.215754
1775850917709279220,9.743574,1.727618,2.067399
1775850917711439949,9.801002,1.694118,2.000400
1775850917713600626,9.781859,1.655833,1.923829
1775850917715761355,9.772287,1.665405,1.852045
1775850917717922032,9.791430,1.684547,1.799403
1775850917720082709,9.824930,1.684547,1.698904
1775850917722243387,9.844072,1.646262,1.536192
1775850917724404116,9.853643,1.569692,1.335195
1775850917726564793,9.939785,1.497907,1.153340
1775850917728725470,9.992428,1.426122,0.947558
1775850917730886147,10.059426,1.363909,0.784846
1775850917733046876,10.155139,1.335195,0.703490
1775850917735207553,10.217353,1.339981,0.660419
1775850917737368230,10.246066,1.373480,0.646062
1775850917739528959,10.274780,1.440479,0.679562
1775850917741689637,10.322637,1.488336,0.722632
1775850917743850314,10.346565,1.560120,0.827917
1775850917746010991,10.408778,1.622334,0.899701
1775850917748171720,10.423136,1.655833,0.923630
1775850917750332397,10.437492,1.641476,0.990629
1775850917752493126,10.490134,1.622334,1.081556
1775850917754653803,10.542776,1.550549,1.234697
1775850917756814480,10.528419,1.450050,1.397408
1775850917758975157,10.499705,1.301695,1.569692
1775850917761135887,10.418350,1.148555,1.785046
1775850917763296564,10.327422,0.995414,1.976472
1775850917765457241,10.217353,0.832702,2.148755
1775850917767617918,10.035499,0.636491,2.258825
1775850917769778595,9.887143,0.464208,2.330609
1775850917771939324,9.705289,0.296710,2.421536
1775850917774100001,9.533006,0.153141,2.498107
1775850917776260730,9.375079,0.033500,2.517249
1775850917778421407,9.255438,-0.057428,2.522035
1775850917780582084,9.159725,-0.143569,2.469393
1775850917782742762,9.121440,-0.186640,2.378466
1775850917784903491,9.126225,-0.177069,2.254039
1775850917787064168,9.174082,-0.100499,2.148755
1775850917789224845,9.236296,-0.023928,2.029114
1775850917791385574,9.317652,0.062213,1.904687
1775850917793546251,9.384650,0.138784,1.828117
1775850917795706928,9.422935,0.220140,1.722832
1775850917797867605,9.475577,0.253639,1.689333
1775850917800028282,9.509077,0.282353,1.641476
1775850917802189012,9.523434,0.315853,1.536192
1775850917804349689,9.533006,0.373280,1.488336
1775850917806510418,9.542577,0.435494,1.450050
1775850917808671095,9.576077,0.502493,1.454836
1775850917810831772,9.619147,0.555135,1.473979
1775850917812992501,9.667004,0.588634,1.459622
1775850917815153178,9.700503,0.579063,1.459622
1775850917817313855,9.734002,0.569492,1.469193
1775850917819474532,9.724431,0.540778,1.473979
1775850917821635262,9.714860,0.526421,1.488336
1775850917823795939,9.686146,0.516850,1.512264
1775850917825956616,9.667004,0.526421,1.502693
1775850917828117345,9.647861,0.531207,1.526621
1775850917830278022,9.647861,0.540778,1.531407
1775850917832438699,9.643075,0.583849,1.540978
1775850917834599376,9.657433,0.612563,1.545763
1775850917836760105,9.657433,0.669990,1.555335
1775850917838920782,9.657433,0.708275,1.550549
1775850917841081512,9.652647,0.736989,1.569692
1775850917843242189,9.662218,0.756132,1.555335
1775850917845402866,9.671789,0.756132,1.550549
1775850917847563543,9.671789,0.756132,1.612762
1775850917849724272,9.700503,0.780060,1.612762
1775850917851884949,9.767502,0.818345,1.579263
1775850917854045626,9.848858,0.851845,1.555335
1775850917856206303,9.934999,0.890130,1.464407
1775850917858367032,9.997213,0.894916,1.402194
1775850917860527709,10.030712,0.914058,1.292124
1775850917862688387,10.064212,0.914058,1.225125
1775850917864849116,10.064212,0.923630,1.182054
1775850917867009793,10.059426,0.966700,1.153340
1775850917869170470,10.049855,1.024128,1.134198
1775850917871331147,10.073783,1.076770,1.138984
1775850917873491876,10.088140,1.153340,1.119841
1775850917875652553,10.097712,1.229911,1.153340
1775850917877813230,10.049855,1.287339,1.143769
1775850917879973959,10.001999,1.359123,1.162912
1775850917882134637,9.939785,1.421337,1.129412
1775850917884295314,9.911072,1.464407,1.143769
1775850917886455991,9.887143,1.493121,1.134198
1775850917888616720,9.863214,1.517050,1.138984
1775850917890777397,9.863214,1.536192,1.138984
1775850917892938126,9.872787,1.574477,1.205983
1775850917895098803,9.858429,1.593620,1.282553
1775850917897259480,9.829716,1.584049,1.373480
1775850917899420157,9.815358,1.607977,1.469193
1775850917901580887,9.805787,1.598405,1.593620
1775850917903741564,9.786645,1.588834,1.694118
1775850917905902241,9.743574,1.574477,1.799403
1775850917908062970,9.714860,1.540978,1.875973
1775850917910223647,9.676575,1.545763,1.962115
1775850917912384376,9.619147,1.502693,2.009971
1775850917914545053,9.600004,1.473979,2.086541
1775850917916705730,9.571291,1.430908,2.134398
1775850917918866407,9.580862,1.397408,2.215754
1775850917921027084,9.576077,1.339981,2.244468
1775850917923187814,9.571291,1.268196,2.306681
1775850917925348491,9.590433,1.220340,2.344966
1775850917927509168,9.566504,1.162912,2.383251
1775850917929669897,9.542577,1.100698,2.411965
1775850917931830574,9.509077,1.048056,2.426322
1775850917933991251,9.518648,1.014557,2.383251
1775850917936151980,9.552148,1.019342,2.373680
1775850917938312657,9.576077,1.000200,2.344966
1775850917940473334,9.600004,0.981057,2.301895
1775850917942634064,9.638289,0.981057,2.239682
1775850917944794741,9.695718,0.966700,2.220539
1775850917946955418,9.762716,0.952343,2.153540
1775850917949116147,9.839287,0.947558,2.086541
1775850917951276824,9.930214,0.923630,2.019542
1775850917953437501,9.978070,0.894916,1.981257
1775850917955598230,10.006784,0.866202,1.957329
1775850917957758907,9.987641,0.851845,1.933401
1775850917959919584,9.982856,0.861416,1.933401
1775850917962080314,9.968499,0.890130,1.933401
1775850917964240991,10.001999,0.918844,1.952543
1775850917966401720,10.040284,0.947558,1.942972
1775850917968562397,10.083355,0.990629,1.899901
1775850917970723074,10.112068,1.009771,1.847259
1775850917972883751,10.116854,1.033699,1.813760
1775850917975044480,10.140782,1.019342,1.761117
1775850917977205157,10.150353,1.033699,1.770689
1775850917979365887,10.126426,1.043271,1.741975
1775850917981526512,10.112068,1.033699,1.765903
1775850917983687241,10.083355,1.024128,1.732404
1775850917985847970,10.040284,1.009771,1.703690
1775850917988008647,9.939785,0.966700,1.665405
1775850917990169324,9.853643,0.933201,1.646262
1775850917992330001,9.757931,0.909273,1.593620
1775850917994490730,9.705289,0.890130,1.569692
1775850917996651407,9.662218,0.899701,1.540978
1775850917998812084,9.628718,0.894916,1.483550
1775850918000972814,9.614362,0.914058,1.440479
1775850918003133491,9.609575,0.933201,1.402194
1775850918005294168,9.585648,0.952343,1.378266
1775850918007454897,9.528220,0.966700,1.335195
1775850918009615574,9.456435,0.971486,1.306481
1775850918011776251,9.370294,1.009771,1.287339
1775850918013936928,9.312865,1.028914,1.210768
1775850918016097657,9.255438,1.033699,1.191626
1775850918018258334,9.236296,1.043271,1.143769
1775850918020419064,9.250652,1.067199,1.100698
1775850918022579741,9.274581,1.081556,1.048056
1775850918024740418,9.332008,1.110270,0.990629
1775850918026901095,9.375079,1.119841,0.942772
1775850918029061824,9.408579,1.115055,0.928415
1775850918031222501,9.432507,1.100698,0.914058
1775850918033383178,9.418150,1.071985,0.928415
1775850918035543907,9.437292,1.048056,0.957129
1775850918037704584,9.418150,1.062413,0.976272
1775850918039865314,9.365508,1.086342,1.000200
1775850918042025991,9.332008,1.071985,1.014557
1775850918044186668,9.322437,1.024128,0.976272
1775850918046347345,9.332008,0.971486,0.985843
1775850918048508074,9.351151,0.928415,0.985843
1775850918050668751,9.370294,0.866202,0.995414
1775850918052829480,9.399008,0.794417,0.976272
1775850918054990157,9.399008,0.713061,0.957129
1775850918057150834,9.365508,0.631705,0.942772
1775850918059311564,9.284152,0.540778,0.904487
1775850918061472241,9.183653,0.449851,0.918844
1775850918063632918,9.087940,0.373280,0.923630
1775850918065793647,8.963513,0.315853,0.947558
1775850918067954324,8.910872,0.296710,0.995414
1775850918070115001,8.863015,0.263211,1.033699
1775850918072275730,8.848659,0.234497,1.100698
1775850918074436407,8.839087,0.234497,1.115055
1775850918076597084,8.877372,0.220140,1.143769
1775850918078757762,8.920443,0.205783,1.115055
1775850918080918491,8.977871,0.244068,1.105484
1775850918083079168,9.020942,0.306281,1.148555
1775850918085239845,9.068798,0.421137,1.196411
1775850918087400574,9.083155,0.512064,1.196411
1775850918089561251,9.107083,0.540778,1.210768
1775850918091721980,9.092726,0.531207,1.253839
1775850918093882657,9.087940,0.512064,1.287339
1775850918096043387,9.140582,0.488136,1.277767
1775850918098204064,9.212367,0.368495,1.296910
1775850918100364741,9.231510,0.258425,1.320838
1775850918102525418,9.231510,0.124427,1.387837
1775850918104686147,9.207582,0.033500,1.459622
1775850918106846824,9.183653,0.004786,1.584049
1775850918109007501,9.121440,0.038285,1.732404
1775850918111168230,9.087940,0.095713,1.871187
1775850918113328907,9.030513,0.205783,2.019542
1775850918115489637,9.001799,0.339781,2.120041
1775850918117650314,8.934800,0.464208,2.215754
1775850918119810991,8.882157,0.579063,2.206182
1775850918121971720,8.848659,0.698704,2.177469
1775850918124132397,8.819944,0.794417,2.129612
1775850918126293074,8.819944,0.875773,2.091327
1775850918128453803,8.834301,0.952343,2.076970
1775850918130614480,8.867801,1.043271,2.019542
1775850918132775209,8.915657,1.115055,1.966900
1775850918134935834,8.934800,1.134198,1.852045
1775850918137096564,9.006584,1.138984,1.770689
1775850918139257293,9.164511,1.167697,1.746760
1775850918141417970,9.437292,1.186840,1.646262
1775850918143578647,9.667004,1.272982,1.627119
1775850918145739324,9.824930,1.426122,1.646262
1775850918147900053,9.958928,1.579263,1.631905
1775850918150060730,10.112068,1.737189,1.612762
1775850918152221407,10.303494,1.852045,1.603191
1775850918154382137,10.475778,1.933401,1.526621
1775850918156542866,10.676775,1.971686,1.459622
1775850918158703543,10.801202,1.957329,1.406980
1775850918160864220,10.896914,1.923829,1.330409
1775850918163024897,10.930414,1.871187,1.239482
1775850918165185626,10.930414,1.823331,1.048056
1775850918167346303,10.844273,1.794617,0.722632
1775850918169506980,10.686346,1.751546,0.354138
1775850918171667709,10.518848,1.775474,0.014357
1775850918173828387,10.336994,1.799403,-0.263211
1775850918175989116,10.159925,1.828117,-0.421137
1775850918178149793,9.958928,1.885544,-0.497707
1775850918180310522,9.767502,1.976472,-0.464208
1775850918182471199,9.595219,2.105684,-0.378066
1775850918184631876,9.466006,2.230111,-0.296710
1775850918186792605,9.370294,2.388037,-0.220140
1775850918188953282,9.260223,2.536392,-0.248854
1775850918191113959,9.174082,2.665604,-0.315853
1775850918193274689,9.097511,2.790031,-0.421137
1775850918195435366,9.049655,2.871387,-0.535992
1775850918197596043,9.035298,2.971886,-0.660419
1775850918199756772,9.025727,3.038885,-0.775275
1775850918201917449,9.025727,3.129812,-0.870987
1775850918204078126,9.092726,3.225525,-0.976272
1775850918206238855,9.169296,3.311666,-1.143769
1775850918208399584,9.265009,3.402594,-1.349552
1775850918210560262,9.360723,3.498307,-1.564906
1775850918212720939,9.456435,3.613162,-1.708475
1775850918214881668,9.509077,3.708875,-1.828117
1775850918217042345,9.528220,3.804588,-1.947758
1775850918219203022,9.518648,3.890730,-2.062613
1775850918221363751,9.432507,3.967300,-2.143969
1775850918223524428,9.346365,4.015156,-2.187040
1775850918225685105,9.178867,4.043870,-2.268396
1775850918227845782,9.040084,4.048656,-2.340181
1775850918230006512,8.934800,4.053442,-2.421536
1775850918232167189,8.839087,4.072584,-2.478964
1775850918234327918,8.748159,4.086941,-2.550749
1775850918236488595,8.681161,4.072584,-2.550749
1775850918238649324,8.647661,4.058227,-2.536392
1775850918240810001,8.618947,3.991228,-2.498107
1775850918242970678,8.604590,3.905087,-2.397608
1775850918245131355,8.595019,3.795017,-2.244468
1775850918247292084,8.638090,3.670590,-2.100898
1775850918249452814,8.700303,3.546163,-1.990828
1775850918251613491,8.776874,3.402594,-1.899901
1775850918253774168,8.867801,3.282953,-1.885544
1775850918255934897,8.987442,3.220739,-1.890330
1775850918258095574,9.049655,3.201597,-1.904687
1775850918260256251,9.116654,3.182454,-1.919044
1775850918262416980,9.145369,3.196811,-1.919044
1775850918264577657,9.140582,3.192025,-1.842473
1775850918266738387,9.102298,3.163311,-1.746760
1775850918268899064,9.064013,3.105884,-1.651048
1775850918271059741,9.040084,3.019742,-1.536192
1775850918273220418,9.025727,2.909672,-1.435694
1775850918275381147,8.987442,2.766103,-1.378266
1775850918277541876,8.939586,2.593820,-1.349552
1775850918279702553,8.834301,2.426322,-1.344766
1775850918281863230,8.690732,2.254039,-1.359123
1775850918284023907,8.532805,2.124826,-1.363909
1775850918286184637,8.398808,2.024328,-1.378266
1775850918288345314,8.303095,2.024328,-1.397408
1775850918290506043,8.236095,2.053042,-1.454836
1775850918292666720,8.183454,2.148755,-1.497907
1775850918294827397,8.111669,2.254039,-1.564906
1775850918296988126,8.035098,2.373680,-1.588834
1775850918299148803,7.915457,2.445465,-1.579263
1775850918301309532,7.848458,2.411965,-1.832902
1775850918303470209,7.901100,2.474179,-2.105684
1775850918305630939,7.987242,2.603391,-2.057827
1775850918307791616,8.087741,2.742175,-1.986043
1775850918309952293,8.260024,2.895315,-2.014757
1775850918312113022,8.451449,2.991028,-2.110470
1775850918314273699,8.676374,3.038885,-2.316252
1775850918316434376,8.843872,3.072384,-2.555535
1775850918318595105,8.997013,3.058027,-2.790031
1775850918320755782,9.107083,3.077170,-2.943172
1775850918322916512,9.154940,3.120241,-3.043670
1775850918325077189,9.145369,3.172883,-3.096313
1775850918327237866,9.092726,3.225525,-3.077170
1775850918329398595,9.035298,3.292524,-3.101098
1775850918331559272,8.987442,3.345166,-3.077170
1775850918333720001,8.973084,3.359523,-3.091527
1775850918335880678,8.977871,3.369094,-3.072384
1775850918338041355,9.011370,3.369094,-3.081956
1775850918340202084,9.025727,3.335595,-3.153740
1775850918342362762,9.025727,3.287738,-3.192025
1775850918344523439,9.011370,3.225525,-3.220739
1775850918346684168,9.001799,3.172883,-3.220739
1775850918348844845,8.939586,3.110669,-3.187240
1775850918351005574,8.896515,3.034099,-3.129812
1775850918353166251,8.839087,2.986243,-3.110669
1775850918355326928,8.791230,2.914458,-3.058027
1775850918357487657,8.748159,2.880959,-3.029314
1775850918359648334,8.705089,2.809174,-2.991028
1775850918361809064,8.657232,2.756532,-2.943172
1775850918363969741,8.614161,2.684747,-2.876173
1775850918366130470,8.561520,2.627319,-2.809174
1775850918368291147,8.475378,2.589034,-2.756532
1775850918370451876,8.456235,2.622534,-2.694318
1775850918372612553,8.465807,2.727818,-2.632105
1775850918374773230,8.508878,2.861816,-2.569891
1775850918376933959,8.551949,2.976671,-2.584249
1775850918379094637,8.571091,3.048456,-2.579463
1775850918381255366,8.547162,3.081956,-2.593820
1775850918383416043,8.513663,3.081956,-2.627319
1775850918385576720,8.422736,3.077170,-2.651248
1775850918387737449,8.355737,3.110669,-2.694318
1775850918389898126,8.360522,3.182454,-2.665604
1775850918392058803,8.446664,3.278167,-2.665604
1775850918394219532,8.571091,3.340380,-2.675176
1775850918396380209,8.690732,3.335595,-2.746960
1775850918398540939,8.767303,3.316452,-2.847459
1775850918400701616,8.810373,3.249453,-2.981457
1775850918402862345,8.815159,3.187240,-3.110669
1775850918405023022,8.767303,3.115455,-3.235096
1775850918407183751,8.705089,3.072384,-3.220739
1775850918409344428,8.647661,3.053242,-3.187240
1775850918411505105,8.590233,3.058027,-3.101098
1775850918413665782,8.556734,3.048456,-3.005385
1775850918415826512,8.585447,3.077170,-2.962314
1775850918417987241,8.642876,3.115455,-2.952743
1775850918420147918,8.729017,3.182454,-2.981457
1775850918422308595,8.786445,3.259024,-3.053242
1775850918424469324,8.843872,3.316452,-3.158526
1775850918426630001,8.863015,3.359523,-3.220739
1775850918428790730,8.839087,3.359523,-3.282953
1775850918430951407,8.805588,3.345166,-3.292524
1775850918433112084,8.752945,3.302095,-3.254239
1775850918435272814,8.700303,3.278167,-3.182454
1775850918437433491,8.647661,3.239882,-3.129812
1775850918439594220,8.609376,3.215954,-3.086741
1775850918441754897,8.595019,3.220739,-3.053242
1775850918443915574,8.628518,3.225525,-2.986243
1775850918446076303,8.642876,3.230311,-2.924029
1775850918448236980,8.676374,3.225525,-2.866601
1775850918450397709,8.700303,3.215954,-2.823531
1775850918452558387,8.719446,3.158526,-2.756532
1775850918454719116,8.705089,3.105884,-2.804388
1775850918456879793,8.676374,3.072384,-2.861816
1775850918459040470,8.647661,3.062813,-2.938386
1775850918461201199,8.638090,3.096313,-2.909672
1775850918463361876,8.638090,3.101098,-2.823531
1775850918465522605,8.652447,3.091527,-2.723032
1775850918467683282,8.618947,3.048456,-2.684747
1775850918469843959,8.599805,3.014956,-2.636891
1775850918472004689,8.618947,3.000600,-2.622534
1775850918474165366,8.695518,3.005385,-2.684747
1775850918476326095,8.786445,3.000600,-2.761317
1775850918478486772,8.891729,2.962314,-2.857030
1775850918480647501,9.006584,2.914458,-2.900101
1775850918482808178,9.040084,2.880959,-2.876173
1775850918484968907,9.025727,2.847459,-2.885744
1775850918487129584,9.006584,2.828316,-2.919244
1775850918489290262,8.968299,2.809174,-2.976671
1775850918491450991,8.920443,2.790031,-3.038885
1775850918493611668,8.858230,2.770889,-3.014956
1775850918495772397,8.824730,2.780460,-2.986243
1775850918497933074,8.796016,2.785246,-2.995814
1775850918500093751,8.762517,2.799603,-3.000600
1775850918502254480,8.719446,2.794817,-3.019742
1775850918504415157,8.642876,2.794817,-3.058027
1775850918506575887,8.556734,2.790031,-3.110669
1775850918508736564,8.441878,2.785246,-3.153740
1775850918510897293,8.350951,2.818745,-3.220739
1775850918513057970,8.269595,2.852245,-3.302095
1775850918515218647,8.226524,2.876173,-3.364309
1775850918517379376,8.193025,2.924029,-3.440879
1775850918519540053,8.169097,2.952743,-3.517449
1775850918521700782,8.216953,2.995814,-3.637090
1775850918523861459,8.231310,3.072384,-3.728018
1775850918526022189,8.255239,3.125026,-3.728018
1775850918528182866,8.283952,3.172883,-3.684947
1775850918530343595,8.298309,3.182454,-3.584448
1775850918532504272,8.274381,3.144169,-3.507878
1775850918534664949,8.240881,3.120241,-3.474379
1775850918536825678,8.164310,3.077170,-3.431308
1775850918538986407,8.116454,3.019742,-3.402594
1775850918541147084,8.049456,2.991028,-3.388237
1775850918543307814,8.025527,2.967100,-3.349952
1775850918545468491,7.996813,2.952743,-3.311666
1775850918547629168,8.001599,2.933601,-3.292524
1775850918549789897,8.011170,2.962314,-3.254239
1775850918551950574,8.044670,3.000600,-3.192025
1775850918554111303,8.097312,3.029314,-3.187240
1775850918556271980,8.135597,3.053242,-3.125026
1775850918558432657,8.183454,3.110669,-3.120241
1775850918560593387,8.207381,3.153740,-3.096313
1775850918562754064,8.231310,3.168097,-3.086741
1775850918564914793,8.240881,3.187240,-3.081956
1775850918567075470,8.250452,3.192025,-3.067599
1775850918569236199,8.279166,3.192025,-3.043670
1775850918571396876,8.283952,3.182454,-2.995814
1775850918573557605,8.293523,3.139383,-2.981457
1775850918575718282,8.322237,3.110669,-2.952743
1775850918577878959,8.350951,3.086741,-2.967100
1775850918580039689,8.451449,3.120241,-2.971886
1775850918582200366,8.595019,3.148955,-2.900101
1775850918584361095,8.705089,3.110669,-2.823531
1775850918586521772,8.810373,3.053242,-2.780460
1775850918588682501,8.920443,2.976671,-2.718246
1775850918590843178,9.040084,2.914458,-2.632105
1775850918593003907,9.145369,2.857030,-2.507678
1775850918595164584,9.265009,2.804388,-2.378466
1775850918597325314,9.341579,2.708675,-2.297110
1775850918599485991,9.408579,2.646462,-2.220539
1775850918601646720,9.451650,2.579463,-2.172683
1775850918603807397,9.480363,2.536392,-2.120041
1775850918605968074,9.518648,2.512464,-2.053042
1775850918608128803,9.556933,2.507678,-2.019542
1775850918610289480,9.556933,2.502892,-2.005185
1775850918612450157,9.504292,2.522035,-1.995614
1775850918614610887,9.451650,2.555535,-1.952543
1775850918616771616,9.422935,2.555535,-1.885544
1775850918618932293,9.466006,2.550749,-1.780260
1775850918621092970,9.470792,2.531606,-1.689333
1775850918623253699,9.489935,2.498107,-1.607977
1775850918625414376,9.499506,2.469393,-1.579263
1775850918627575105,9.537791,2.455036,-1.512264
1775850918629735782,9.604790,2.455036,-1.469193
1775850918631896512,9.695718,2.455036,-1.397408
1775850918634057189,9.815358,2.478964,-1.339981
1775850918636217918,9.915857,2.474179,-1.268196
1775850918638378595,10.025927,2.474179,-1.258625
1775850918640539324,10.092926,2.459822,-1.234697
1775850918642700001,10.135997,2.445465,-1.191626
1775850918644860678,10.155139,2.416751,-1.148555
1775850918647021407,10.159925,2.407180,-1.100698
1775850918649182084,10.145568,2.416751,-1.033699
1775850918651342814,10.102497,2.426322,-0.966700
1775850918653503491,10.049855,2.435894,-0.904487
1775850918655664220,9.968499,2.455036,-0.823131
1775850918657824949,9.906285,2.431108,-0.722632
1775850918659985626,9.829716,2.416751,-0.655633
1775850918662146303,9.801002,2.416751,-0.612563
1775850918664307032,9.762716,2.368894,-0.579063
1775850918666467709,9.738789,2.335395,-0.574277
1775850918668628439,9.690931,2.273181,-0.540778
1775850918670789116,9.643075,2.230111,-0.559920
1775850918672949793,9.609575,2.206182,-0.540778
1775850918675110522,9.576077,2.191826,-0.545564
1775850918677271251,9.537791,2.191826,-0.574277
1775850918679431928,9.518648,2.187040,-0.588634
1775850918681592657,9.518648,2.210968,-0.555135
1775850918683753334,9.528220,2.234896,-0.540778
1775850918685914064,9.547362,2.244468,-0.497707
1775850918688074741,9.542577,2.225325,-0.459422
1775850918690235418,9.552148,2.210968,-0.454636
1775850918692396147,9.533006,2.143969,-0.483350
1775850918694556824,9.499506,2.120041,-0.531207
1775850918696717553,9.456435,2.043471,-0.612563
1775850918698878230,9.394221,1.995614,-0.655633
1775850918701038959,9.346365,1.952543,-0.679562
1775850918703199637,9.303294,1.928615,-0.631705
1775850918705360366,9.265009,1.914258,-0.569492
1775850918707521043,9.207582,1.904687,-0.531207
1775850918709681772,9.154940,1.919044,-0.512064
1775850918711842449,9.083155,1.928615,-0.488136
1775850918714003126,9.001799,1.962115,-0.507278
1775850918716163855,8.891729,1.947758,-0.574277
1775850918718324584,8.853444,1.971686,-0.579063
1775850918720485262,8.977871,2.057827,-0.387637
1775850918722645939,9.188439,2.139184,-0.210568
1775850918724806668,9.394221,2.225325,-0.124427
1775850918726967397,9.537791,2.297110,-0.157926
1775850918729128074,9.643075,2.368894,-0.167498
1775850918731288751,9.753145,2.445465,-0.148355
1775850918733449480,9.868001,2.512464,-0.110070
1775850918735610157,9.992428,2.565106,-0.062213
1775850918737770887,10.059426,2.617748,-0.033500
1775850918739931616,10.179068,2.660819,0.004786
1775850918742092293,10.269995,2.694318,0.000000
1775850918744252970,10.351351,2.756532,0.009571
1775850918746413699,10.447063,2.818745,0.014357
1775850918748574428,10.547563,2.847459,-0.028714
1775850918750735105,10.619347,2.842673,-0.076570
1775850918752895834,10.676775,2.837888,-0.129212
1775850918755056512,10.715060,2.852245,-0.124427
1775850918757217189,10.762917,2.900101,-0.062213
1775850918759377918,10.758131,2.947958,-0.004786
1775850918761538595,10.791630,3.038885,0.043071
1775850918763699272,10.834701,3.158526,0.095713
1775850918765860001,10.853844,3.235096,0.105284
1775850918768020730,10.906486,3.326024,0.119641
1775850918770181459,10.935200,3.426522,0.119641
1775850918772342137,10.925629,3.498307,0.162712
1775850918774502814,10.887343,3.541378,0.239282
1775850918776663543,10.834701,3.546163,0.334995
1775850918778824220,10.772488,3.512664,0.368495
1775850918780984949,10.695917,3.469593,0.445065
1775850918783145626,10.609776,3.402594,0.464208
1775850918785306355,10.514063,3.311666,0.468993
1775850918787467032,10.432707,3.215954,0.445065
1775850918789627709,10.351351,3.105884,0.478565
1775850918791788439,10.269995,3.029314,0.468993
1775850918793949168,10.198210,2.947958,0.540778
1775850918796109845,10.164711,2.904887,0.569492
1775850918798270574,10.155139,2.866601,0.669990
1775850918800431251,10.159925,2.813959,0.713061
1775850918802591980,10.159925,2.746960,0.751346
1775850918804752657,10.121640,2.660819,0.780060
1775850918806913387,10.097712,2.584249,0.794417
1775850918809074064,10.073783,2.507678,0.794417
1775850918811234793,10.030712,2.450250,0.808774
1775850918813395470,10.011570,2.383251,0.823131
1775850918815556199,9.982856,2.311467,0.842274
1775850918817716876,9.934999,2.239682,0.880559
1775850918819877605,9.901500,2.191826,0.928415
1775850918822038282,9.858429,2.163112,0.985843
1775850918824199012,9.848858,2.143969,1.048056
1775850918826359689,9.805787,2.143969,1.119841
1775850918828520418,9.743574,2.143969,1.162912
1775850918830681147,9.676575,2.148755,1.215554
1775850918832841824,9.595219,2.206182,1.292124
1775850918835002501,9.509077,2.316252,1.325624
1775850918837163230,9.403793,2.397608,1.296910
1775850918839323907,9.332008,2.512464,1.282553
1775850918841484637,9.269794,2.617748,1.239482
1775850918843645314,9.198010,2.713461,1.167697
1775850918845806043,9.131011,2.770889,1.071985
1775850918847966720,9.083155,2.804388,0.918844
1775850918850127449,9.068798,2.842673,0.765703
1775850918852288126,9.078369,2.880959,0.650848
1775850918854448855,9.102298,2.933601,0.545564
1775850918856609532,9.178867,2.991028,0.483350
1775850918858770262,9.260223,3.053242,0.449851
1775850918860930939,9.375079,3.115455,0.440279
1775850918863091668,9.489935,3.168097,0.440279
1775850918865252345,9.638289,3.239882,0.392423
1775850918867413074,9.781859,3.287738,0.334995
1775850918869573751,9.954143,3.359523,0.296710
1775850918871734480,10.131211,3.426522,0.248854
1775850918873895157,10.293923,3.503092,0.181855
1775850918876055887,10.418350,3.541378,0.100499
1775850918878216564,10.514063,3.598805,-0.038285
1775850918880377293,10.581061,3.603591,-0.138784
1775850918882537970,10.609776,3.560520,-0.210568
1775850918884698699,10.638490,3.479164,-0.229711
1775850918886859376,10.624132,3.373880,-0.215354
1775850918889020105,10.633704,3.254239,-0.181855
1775850918891180782,10.609776,3.134598,-0.157926
1775850918893341512,10.571490,3.005385,-0.095713
1775850918895502189,10.509277,2.880959,-0.057428
1775850918897662918,10.370493,2.790031,-0.009571
1775850918899823595,10.212567,2.718246,0.066999
1775850918901984324,10.035499,2.660819,0.114855
1775850918904145001,9.920643,2.598605,0.153141
1775850918906305730,9.781859,2.502892,0.162712
1775850918908466459,9.695718,2.383251,0.157926
1775850918910627137,9.609575,2.254039,0.167498
1775850918912787866,9.552148,2.187040,0.162712
1775850918914948543,9.547362,2.177469,0.210568
1775850918917109220,9.547362,2.297110,0.282353
1775850918919269949,9.566504,2.426322,0.373280
1775850918921430678,9.547362,2.565106,0.464208
1775850918923591355,9.533006,2.603391,0.483350
1775850918925752084,9.523434,2.574677,0.512064
1775850918927912762,9.504292,2.517249,0.564706
1775850918930073491,9.470792,2.469393,0.646062
1775850918932234168,9.451650,2.416751,0.760918
1775850918934394897,9.418150,2.354537,0.914058
1775850918936555574,9.370294,2.306681,1.043271
1775850918938716303,9.288938,2.244468,1.205983
1775850918940877032,9.217153,2.230111,1.311267
1775850918943037709,9.135797,2.196611,1.421337
1775850918945198439,9.054440,2.177469,1.493121
1775850918947359116,8.973084,2.153540,1.564906
1775850918949519793,8.901300,2.129612,1.641476
1775850918951680522,8.834301,2.105684,1.718047
1775850918953841251,8.767303,2.086541,1.770689
1775850918956001928,8.705089,2.067399,1.852045
1775850918958162657,8.638090,2.033899,1.914258
1775850918960323334,8.590233,1.986043,1.919044
1775850918962484064,8.585447,1.952543,1.933401
1775850918964644741,8.590233,1.919044,1.971686
1775850918966805470,8.609376,1.885544,1.986043
1775850918968966147,8.604590,1.875973,2.053042
1775850918971126876,8.604590,1.861616,2.105684
1775850918973287553,8.566305,1.842473,2.134398
1775850918975448282,8.532805,1.852045,2.210968
1775850918977608959,8.451449,1.871187,2.297110
1775850918979769689,8.350951,1.914258,2.344966
1775850918981930418,8.178668,2.014757,2.378466
1775850918984091095,8.020741,2.134398,2.378466
1775850918986251772,7.905886,2.268396,2.368894
1775850918988412501,7.848458,2.445465,2.316252
1775850918990573230,7.824530,2.622534,2.244468
1775850918992733907,7.824530,2.813959,2.148755
1775850918994894637,7.891529,2.976671,2.029114
1775850918997055314,7.972885,3.158526,1.880759
1775850918999216043,8.106883,3.316452,1.746760
1775850919001376720,8.240881,3.455236,1.607977
1775850919003537449,8.379665,3.617948,1.488336
1775850919005698178,8.465807,3.780660,1.378266
1775850919007858855,8.528020,3.948157,1.292124
1775850919010019584,8.561520,4.101298,1.225125
1775850919012180262,8.571091,4.254439,1.210768
1775850919014340991,8.551949,4.388437,1.239482
1775850919016501668,8.518449,4.493721,1.263410
1775850919018662397,8.470592,4.575077,1.320838
1775850919020823074,8.408379,4.685147,1.335195
1775850919022983803,8.346166,4.761717,1.330409
1775850919025144480,8.322237,4.790431,1.330409
1775850919027305209,8.274381,4.823930,1.306481
1775850919029465939,8.264810,4.809574,1.301695
1775850919031626616,8.260024,4.800002,1.311267
1775850919033787345,8.231310,4.756931,1.359123
1775850919035948022,8.216953,4.685147,1.426122
1775850919038108751,8.212168,4.632504,1.497907
1775850919040269480,8.202596,4.589434,1.598405
1775850919042430105,8.159525,4.532006,1.718047
1775850919044590834,8.102098,4.469793,1.852045
1775850919046751564,8.044670,4.431508,1.986043
1775850919048912241,7.996813,4.441079,2.153540
1775850919051072970,7.953743,4.498507,2.301895
1775850919053233647,7.910672,4.618148,2.431108
1775850919055394376,7.886744,4.713861,2.536392
1775850919057555053,7.858029,4.838287,2.598605
1775850919059715782,7.834101,4.929214,2.684747
1775850919061876512,7.781459,5.005785,2.713461
1775850919064037189,7.724031,5.048856,2.737389
1775850919066197918,7.623533,5.048856,2.790031
1775850919068358595,7.527820,5.015356,2.818745
1775850919070519324,7.403393,4.977071,2.909672
1775850919072680001,7.302895,4.948357,3.038885
1775850919074840730,7.159325,4.957929,3.168097
1775850919077001407,6.996614,4.962714,3.326024
1775850919079162137,6.824330,4.986642,3.541378
1775850919081322814,6.632905,5.048856,3.771089
1775850919083483543,6.422336,5.106284,4.010371
1775850919085644272,6.192625,5.178068,4.254439
1775850919087804949,5.953343,5.259424,4.402794
1775850919089965678,5.723632,5.364708,4.536792
1775850919092126355,5.474778,5.489135,4.637290
1775850919094287084,5.283352,5.623133,4.713861
1775850919096447762,5.020142,5.752346,4.809574
1775850919098608491,4.809574,5.871987,4.914858
1775850919100769220,4.637290,6.034698,4.996214
1775850919102929897,4.508078,6.192625,5.106284
1775850919105090626,4.378865,6.355337,5.134997
1775850919107251303,4.302295,6.508478,5.082355
1775850919109412032,4.297510,6.680761,5.000999
1775850919111572709,4.369294,6.886544,4.914858
1775850919113733439,4.517649,7.101898,4.838287
1775850919115894116,4.723432,7.307680,4.756931
1775850919118054845,5.000999,7.513463,4.699504
1775850919120215574,5.364708,7.709674,4.603791
1775850919122376251,5.761917,7.891529,4.536792
1775850919124536980,6.187840,8.006385,4.455436
1775850919126697657,6.565906,8.035098,4.383651
1775850919128858387,6.881758,7.996813,4.297510
1775850919131019064,7.149754,7.910672,4.201797
1775850919133179793,7.403393,7.767102,4.153940
1775850919135340470,7.613962,7.609176,4.149155
1775850919137501199,7.757531,7.403393,4.134798
1775850919139661876,7.862815,7.216753,4.096512
1775850919141822605,7.886744,7.044470,3.967300
1775850919143983334,7.829316,6.915257,3.818945
1775850919146144012,7.747960,6.824330,3.641876
1775850919148304741,7.652247,6.762117,3.460021
1775850919150465418,7.542177,6.747760,3.302095
1775850919152626147,7.456035,6.738189,3.077170
1775850919154786824,7.393822,6.771688,2.847459
1775850919156947553,7.345965,6.738189,2.593820
1775850919159108282,7.350751,6.709475,2.297110
1775850919161268959,7.422536,6.719046,2.072184
1775850919163429689,7.537391,6.747760,1.904687
1775850919165590366,7.700103,6.786045,1.794617
1775850919167751095,7.862815,6.809973,1.674976
1775850919169911824,8.011170,6.776474,1.651048
1775850919172072501,8.121240,6.709475,1.584049
1775850919174233230,8.221739,6.680761,1.493121
1775850919176393907,8.274381,6.642476,1.440479
1775850919178554637,8.317451,6.503692,1.517050
1775850919180715314,8.336594,6.336195,1.612762
1775850919182876043,8.341380,6.183053,1.612762
1775850919185036720,8.346166,6.096912,1.555335
1775850919187197449,8.417950,6.029913,1.526621
1775850919189358178,8.508878,6.020342,1.440479
1775850919191518855,8.595019,6.039485,1.387837
1775850919193679584,8.685946,6.092126,1.402194
1775850919195840314,8.724232,6.096912,1.445265
1775850919198000991,8.738588,6.058627,1.464407
1775850919200161720,8.738588,5.915058,1.569692
1775850919202322397,8.690732,5.656633,1.679762
1775850919204483074,8.595019,5.465207,1.617548
1775850919206643803,8.379665,5.369494,1.521835
1775850919208804532,8.126026,5.211568,1.622334
1775850919210965209,7.872386,5.044070,1.890330
1775850919213125939,7.637890,4.967500,1.966900
1775850919215286616,7.422536,4.857430,1.976472
1775850919217447345,7.192825,4.699504,2.187040
1775850919219608022,7.001399,4.503292,2.340181
1775850919221768751,6.843473,4.402794,2.397608
1775850919223929480,6.704689,4.378865,2.316252
1775850919226090157,6.556334,4.340580,2.306681
1775850919228250887,6.441479,4.273581,2.407180
1775850919230411616,6.355337,4.273581,2.340181
1775850919232572293,6.283552,4.287938,2.426322
1775850919234733022,6.288338,4.307081,2.445465
1775850919236893751,6.250053,4.259224,2.522035
1775850919239054428,6.211768,4.264010,2.435894
1775850919241215105,6.082555,4.254439,2.416751
1775850919243375834,5.967700,4.249653,2.488536
1775850919245536564,5.848059,4.421936,2.416751
