time,seconds_elapsed,z,y,x
1773150802169671700,0.090671630859375,-8.937114652380346,-4.035259140411019,-0.12266623853282071
1773150802179709700,0.100709716796875,-8.93326791382432,-4.043693499018252,-0.12509030560827814
1773150802189746700,0.11074658203125,-8.930200342947245,-4.050377214565873,-0.1278638071759138
1773150802199784700,0.12078466796875,-8.929994591242075,-4.05073669552803,-0.13083584525664335
1773150802209822700,0.13082275390625,-8.933014815846086,-4.043949811866879,-0.1345504453329835
1773150802219859700,0.140859619140625,-8.937993188780545,-4.032730498716235,-0.14051528115468098
1773150802229897700,0.150897705078125,-8.94303819721043,-4.021253411412239,-0.14823752770349383
1773150802239935700,0.160935791015625,-8.946827652621268,-4.012536728732288,-0.15559011895600705
1773150802249972700,0.17097265625,-8.948639085957408,-4.008258320760727,-0.16157794292764738
1773150802260010800,0.1810107421875,-8.948768265295028,-4.007898839798569,-0.16334820400318129
1773150802270048500,0.191048583984375,-8.950542289230228,-4.004108507604897,-0.1590151980338618
1773150802280085800,0.201085693359375,-8.957539016249775,-3.9886066948294636,-0.15459129891069606
1773150802290123800,0.211123779296875,-8.969208411255478,-3.962477689577639,-0.14985444311453028
1773150802300160800,0.221160888671875,-8.981672171509265,-3.934487566629052,-0.1405617597780656
1773150802310198800,0.23119873046875,-8.992621435546875,-3.9101092044368384,-0.11913225572039372
1773150802320236800,0.24123681640625,-9.002022885620594,-3.8892061171397563,-0.08965676218541338
1773150802330273500,0.2512734375,-9.01170665976703,-3.8673014515846966,-0.05922966701402328
1773150802340311800,0.261311767578125,-9.022840632721781,-3.841602654443681,-0.028682856736390386
1773150802350349600,0.271349609375,-9.036163055631517,-3.8102658514156937,0.004262919283128576
1773150802360386800,0.28138671875,-9.049470865494012,-3.778423436953127,0.03132874758569523
1773150802370424800,0.2914248046875,-9.060040190303326,-3.752852357845008,0.04647583777247928
1773150802380462600,0.301462646484375,-9.06695099260509,-3.7359693198442456,0.05761725881474558
1773150802390499800,0.311499755859375,-9.070238343712687,-3.727742466507852,0.0713878273507813
1773150802400537900,0.321537841796875,-9.071487466990947,-3.7243434717193242,0.08812100398549809
1773150802410575600,0.33157568359375,-9.073547906652092,-3.71902636834979,0.09977210528268478
1773150802420612900,0.34161279296875,-9.077755295214056,-3.7086961129933593,0.10157574803801253
1773150802430650600,0.351650634765625,-9.083594084370135,-3.6945211649075147,0.0960300052780658
1773150802440689000,0.36168896484375,-9.089614075312017,-3.6799858590766785,0.0836856884191744
1773150802450726000,0.371725830078125,-9.094619336253404,-3.668032386432588,0.06183903209508862
1773150802460763600,0.381763671875,-9.09783362212479,-3.6604309715181587,0.032480324207036754
1773150802470800600,0.391800537109375,-9.099443979930877,-3.656569912175834,0.00024322783878751578
1773150802480838700,0.401838623046875,-9.10020561195314,-3.654557403309643,-0.02926522548489738
1773150802490876700,0.411876708984375,-9.09966259111762,-3.655646952112019,-0.05263798169798683
1773150802500913700,0.42191357421875,-9.097674047648907,-3.6602559072121976,-0.07236789246327244
1773150802510951700,0.43195166015625,-9.094376759669185,-3.667996438336372,-0.09216369437188841
1773150802520989700,0.44198974609375,-9.089359808290004,-3.6797996888548132,-0.1140297084169928
1773150802531027000,0.45202685546875,-9.082402828758955,-3.6960043892025944,-0.1410546578615438
1773150802541064700,0.462064697265625,-9.074624595972896,-3.713780868911743,-0.17146971553526819
1773150802551102700,0.472102783203125,-9.067274233210087,-3.7302231774076815,-0.2008839712691493
1773150802561139700,0.4821396484375,-9.061025109687447,-3.7439053735405206,-0.22668440215373412
1773150802571177700,0.492177734375,-9.05607537832558,-3.754489895918965,-0.2483711689081043
1773150802581215700,0.5022158203125,-9.051869743329286,-3.7634216826543208,-0.26588063171152027
1773150802591252700,0.512252685546875,-9.0478733671695,-3.771971192073822,-0.2803685912692919
1773150802601290800,0.522290771484375,-9.04341229610741,-3.7817832687750457,-0.2918799096364528
1773150802611327700,0.53232763671875,-9.038760670909285,-3.792287711654603,-0.29956713967081156
1773150802621365800,0.54236572265625,-9.034097939795256,-3.802937700484693,-0.30516917919525877
1773150802631403800,0.55240380859375,-9.029335839959979,-3.81377882797271,-0.31075276974756266
1773150802641440500,0.5624404296875,-9.025129620441794,-3.8231288401201367,-0.31796661011651156
1773150802651478800,0.572478759765625,-9.02252732898891,-3.828780290010571,-0.32376956077422947
1773150802661516500,0.5825166015625,-9.021195788124203,-3.8316575990125536,-0.32681784242894496
1773150802671553500,0.592553466796875,-9.020015638428927,-3.834284440384805,-0.32857951833922416
1773150802681591800,0.602591796875,-9.01846256376803,-3.837755039104819,-0.33069413587301966
1773150802691629600,0.612629638671875,-9.016611382943392,-3.841856921465695,-0.3335339624088257
1773150802701666800,0.622666748046875,-9.014472617349028,-3.8466447402641175,-0.3361447294291109
1773150802711704800,0.632704833984375,-9.01174699177742,-3.8528126152440905,-0.3385819665133953
1773150802721742600,0.64274267578125,-9.008433921706676,-3.8601866511434313,-0.3427301722340286
1773150802731779800,0.65277978515625,-9.00502966622114,-3.867609786881506,-0.3484513628924265
1773150802741817600,0.662817626953125,-9.002371845188737,-3.873220612500608,-0.3547559063967317
1773150802751855600,0.672855712890625,-9.001404461461306,-3.8749440752923485,-0.36043139474987984
1773150802761892900,0.682892822265625,-9.002153234001993,-3.8728947415471073,-0.36374362457040693
1773150802771930600,0.6929306640625,-9.003995062476395,-3.868611949661374,-0.3637249929351732
1773150802781967600,0.702967529296875,-9.005801235115527,-3.864643338291347,-0.36119185772836204
1773150802792006000,0.713005859375,-9.00642959614694,-3.8633883697941895,-0.3589460150303319
1773150802802043600,0.723043701171875,-9.005425387540459,-3.8657615286663174,-0.358590808384493
1773150802812080600,0.73308056640625,-9.002615006294846,-3.872269303125143,-0.3589449555844068
1773150802822118700,0.74311865234375,-8.998829058015346,-3.880972834062576,-0.35988004447743294
1773150802832156700,0.75315673828125,-8.99648863236904,-3.8862370382010933,-0.3615803821219131
1773150802842194000,0.76319384765625,-8.996850451418757,-3.8849972672730684,-0.3658799790119752
1773150802852231700,0.773231689453125,-8.997837708890438,-3.882665024933219,-0.3663497884808108
1773150802862269700,0.783269775390625,-8.997623773878813,-3.883292801442742,-0.36495259850136935
1773150802872307000,0.793306884765625,-8.997007103285194,-3.88484470705986,-0.36364078525044025
1773150802882344700,0.8033447265625,-8.997126345750688,-3.884643047007918,-0.3628427667405456
1773150802892382700,0.8133828125,-8.999321809968352,-3.879551861348748,-0.36286662254016844
1773150802902419700,0.823419677734375,-9.002113486513496,-3.8738080569997426,-0.3548837340274825
1773150802912457700,0.833457763671875,-9.003549072274565,-3.870843654236197,-0.3507998622473329
1773150802922495700,0.843495849609375,-9.004885873836278,-3.8681463779762386,-0.34620014989953485
1773150802932532700,0.85353271484375,-9.004431115806103,-3.870307063141465,-0.33366781792156397
1773150802942570800,0.86357080078125,-9.002450171121954,-3.875743993498385,-0.3238493480121717
1773150802952608800,0.87360888671875,-9.000255291426182,-3.881420870091021,-0.3167992103049531
1773150802962645800,0.883645751953125,-8.998234599253534,-3.8866809825763102,-0.3096323508828878
1773150802972683800,0.893683837890625,-8.99674874460995,-3.8903883126616474,-0.3062277300711721
1773150802982720500,0.903720458984375,-8.996927608308196,-3.8899706717714664,-0.30628610919490457
1773150802992758800,0.9137587890625,-8.999042408505082,-3.8848087589636444,-0.3096447719730437
1773150803002796500,0.923796630859375,-9.002899668455123,-3.875763867242634,-0.3108644134284928
1773150803012833800,0.933833740234375,-9.006148441118002,-3.8682133057326076,-0.3108112584691495
1773150803022871800,0.943871826171875,-9.007107057017087,-3.865325767597556,-0.31885643509570505
1773150803032909600,0.95390966796875,-9.004072219365835,-3.8716657842740414,-0.3275275250682607
1773150803042946800,0.96394677734375,-8.99710471844077,-3.8879587474271653,-0.32599812354389573
1773150803052984800,0.97398486328125,-8.987431465688347,-3.9109927092730996,-0.3171757519997656
1773150803063022800,0.98402294921875,-8.977119915032386,-3.935962899878621,-0.29982851228704677
1773150803073060000,0.99406005859375,-8.96793824518919,-3.9583787298262116,-0.2787652842584997
1773150803083097900,1.004097900390625,-8.960244768077134,-3.976946067652106,-0.2613465684784576
1773150803093136000,1.014135986328125,-8.952470042422414,-3.9952874877676368,-0.2476755695930682
1773150803103173000,1.024173095703125,-8.942918954744934,-4.017490844008326,-0.23312638136735184
1773150803113211000,1.0342109375,-8.93155117303431,-4.043587408295274,-0.2171916753336787
1773150803123249200,1.044249267578125,-8.919843784105778,-4.0701270401746035,-0.20209486316256223
1773150803133286000,1.054285888671875,-8.90907805994153,-4.094202620027959,-0.1903001612767577
1773150803143324000,1.064323974609375,-8.900307893508673,-4.113653462690115,-0.1809779139190912
1773150803153362000,1.07436181640625,-8.893608688130975,-4.1284933044254775,-0.17219616664629428
1773150803163399000,1.08439892578125,-8.887918367534875,-4.141214254310727,-0.160100381188374
1773150803173437000,1.09443701171875,-8.881904806333779,-4.154545445048809,-0.14800305222733875
1773150803183474000,1.104473876953125,-8.875392063438891,-4.168825607074797,-0.13671743237483314
1773150803193512000,1.114511962890625,-8.868281939172745,-4.1841909339889884,-0.12849337378372439
1773150803203550000,1.124550048828125,-8.861454723501206,-4.198764526003599,-0.12404239485738798
1773150803213587000,1.1345869140625,-8.856050234109162,-4.210229630608857,-0.12135437048296444
1773150803223625000,1.144625,-8.852769897264242,-4.217173458397388,-0.11959260324114002
1773150803233662700,1.154662841796875,-8.851616051054,-4.219655338340997,-0.11740477434066124
1773150803243700000,1.164699951171875,-8.852355471244454,-4.218201632401347,-0.1138802717426326
1773150803253738000,1.174738037109375,-8.854160474839807,-4.214514760582149,-0.10998052435773424
1773150803263775700,1.184775634765625,-8.855847405013442,-4.211068711781501,-0.10606332351453601
1773150803273813000,1.19481298828125,-8.856400947242975,-4.209992314721644,-0.10252481979061849
1773150803283851000,1.20485107421875,-8.855713549500702,-4.211473785451054,-0.10103225227845831
1773150803293889000,1.214888916015625,-8.854342845669388,-4.214342326624691,-0.10158465286367573
1773150803303926000,1.224926025390625,-8.853187245893478,-4.216725422368944,-0.103364220623672
1773150803313963800,1.2349638671875,-8.852947007396816,-4.217148616217076,-0.1066260445643682
1773150803324002000,1.245001953125,-8.853788134396076,-4.2152968508705495,-0.10999253445593639
1773150803334039000,1.2550390625,-8.855078758728503,-4.212490269017219,-0.11356554323765448
1773150803344076800,1.265076904296875,-8.855676140099764,-4.211137977625429,-0.11706252764109522
1773150803354114000,1.275114013671875,-8.855650421136618,-4.211121318751573,-0.11959610123932361
1773150803364152000,1.285152099609375,-8.854876514154672,-4.212699235592782,-0.12126103877685963
1773150803374189800,1.29518994140625,-8.853454372397065,-4.215679712708294,-0.1215560670675244
1773150803384227000,1.30522705078125,-8.851572796434164,-4.219646862773597,-0.12093061037925071
1773150803394264800,1.315264892578125,-8.849631599238514,-4.223765988530219,-0.11917949239560402
1773150803404302800,1.325302734375,-8.84783127181828,-4.227704789283871,-0.11305897282185032
1773150803414340000,1.335340087890625,-8.84635769213438,-4.231006168916821,-0.10451262347381561
1773150803424377900,1.3453779296875,-8.845260544547438,-4.233482788163423,-0.09680075218854471
1773150803434416000,1.355416015625,-8.844976466909051,-4.2342365291401745,-0.08956048047039657
1773150803444453000,1.365453125,-8.845540530532597,-4.233236412186921,-0.08064077689847908
1773150803454491000,1.375490966796875,-8.846792576420306,-4.230813276693224,-0.06971435488034039
1773150803464529200,1.385529052734375,-8.848385398569702,-4.227652766835689,-0.05842535119408276
1773150803474566000,1.39556591796875,-8.849992249244451,-4.224407793565094,-0.049035125767276616
1773150803484604000,1.40560400390625,-8.852161409977079,-4.219955782592296,-0.04001201661981176
1773150803494642000,1.415641845703125,-8.85622500615418,-4.211500381197035,-0.030414192307332995
1773150803504679000,1.425678955078125,-8.863212380823493,-4.196845540639758,-0.01840936736027361
1773150803514717000,1.435717041015625,-8.87242912198007,-4.1773654718831175,-0.0012861622156196972
1773150803524754000,1.44575390625,-8.882248505204915,-4.156394872307777,0.020591486897529102
1773150803534792000,1.4557919921875,-8.89175283113122,-4.135827885097265,0.04515343462887685
1773150803544830000,1.465829833984375,-8.900115001285076,-4.117428305053711,0.07160754364922177
1773150803554867000,1.475866943359375,-8.90698664062023,-4.102017385432124,0.097077934295265
1773150803564905000,1.485905029296875,-8.913044625484943,-4.088177368389069,0.12177778352680615
1773150803574942700,1.495942626953125,-8.91905643312037,-4.074139198425412,0.14901710637439972
1773150803584980000,1.50597998046875,-8.924626342207192,-4.060626513640583,0.18094167356193064
1773150803595018000,1.51601806640625,-8.92919905695021,-4.048768610325455,0.2174032539914362
1773150803605056000,1.526055908203125,-8.93321063067913,-4.037722607915104,0.25481174161592496
1773150803615093000,1.536093017578125,-8.93735138374567,-4.026102605009079,0.29091150299571455
1773150803625131000,1.546131103515625,-8.942500437071919,-4.012126686626672,0.3238981190573424
1773150803635169000,1.5561689453125,-8.949498917657136,-3.9942020306184887,0.35101087464950975
1773150803645206000,1.5662060546875,-8.958824964407086,-3.9713334884673355,0.3719564128488302
1773150803655243800,1.576243896484375,-8.9706410744071,-3.943008726736903,0.3881523453682661
1773150803665282000,1.586281982421875,-8.984657909321784,-3.9094846427977084,0.4027850471589714
1773150803675319000,1.596319091796875,-9.000606589081883,-3.87097780200988,0.41831926436666395
1773150803685356800,1.606356689453125,-9.018599926412104,-3.82690777413696,0.43591256952863183
1773150803695394000,1.61639404296875,-9.038122957527637,-3.778016609717905,0.45750053381733596
1773150803705432000,1.62643212890625,-9.058158029818534,-3.726621353523433,0.48212702555172143
1773150803715469800,1.6364697265625,-9.077776922523976,-3.6749063638553023,0.5093235869698226
1773150803725507000,1.646507080078125,-9.096700234180688,-3.623396541370451,0.5398387714166194
1773150803735544800,1.656544921875,-9.115414871522784,-3.5712089657545087,0.5710199089588597
1773150803745583000,1.6665830078125,-9.13439020562768,-3.517855853490531,0.5983255202420056
1773150803755620000,1.6766201171875,-9.154566147693991,-3.461263028652966,0.619649171038717
1773150803765657900,1.686657958984375,-9.176159555342792,-3.4008111902996894,0.6347895300906151
1773150803775696100,1.696696044921875,-9.198326963487267,-3.33799729899019,0.6472567244105041
1773150803785732900,1.70673291015625,-9.219851982074976,-3.2755855587407945,0.6597372896686196
1773150803795771000,1.71677099609375,-9.23952055914104,-3.216754891848564,0.6738935330539941
1773150803805809000,1.726808837890625,-9.256559372225404,-3.164120741508901,0.6890801424004137
1773150803815846000,1.736845947265625,-9.270733443528414,-3.118851274718344,0.7047353921718895
1773150803825884000,1.7468837890625,-9.28243498723805,-3.0805113149300216,0.7191906915690749
1773150803835922000,1.756921875,-9.292363676056265,-3.04793298740834,0.7296998836889863
1773150803845959000,1.766958984375,-9.301041488030553,-3.0198227452114224,0.7359889008305966
1773150803855997000,1.776996826171875,-9.308988063120841,-2.9941107963278886,0.740555770354718
1773150803866034000,1.787033935546875,-9.316759281644224,-2.96944368032217,0.7421488847650587
1773150803876072000,1.797072021484375,-9.325136064845323,-2.943011308209598,0.7422339327000081
1773150803886110000,1.80710986328125,-9.33476606297791,-2.91259892655015,0.7411418996796012
1773150803896147000,1.81714697265625,-9.345573288196325,-2.878421931660175,0.7384644971638917
1773150803906185000,1.82718505859375,-9.357098306295276,-2.842220737466216,0.7327190123144537
1773150803916223000,1.837222900390625,-9.368889281854033,-2.8062022063627836,0.7207857787407934
1773150803926260000,1.847260009765625,-9.380651031318306,-2.7717876033246514,0.70068757808581
1773150803936298000,1.857298095703125,-9.392125196012854,-2.7397970125630495,0.6722245769284665
1773150803946336000,1.8673359375,-9.402965154457092,-2.7106577195793387,0.6379389340322464
1773150803956373000,1.877373046875,-9.413001395303011,-2.6845073792785406,0.5993425517974421
1773150803966410800,1.88741064453125,-9.421647643095254,-2.6632518252819777,0.556801560122706
1773150803976449000,1.897448974609375,-9.428371982914209,-2.6491917357474564,0.5079034179735928
1773150803986486000,1.907486083984375,-9.43327553704679,-2.642239140130579,0.4497406769381836
1773150803996523800,1.917523681640625,-9.436589776161313,-2.6411723876819013,0.38126576419230546
1773150804006561000,1.92756103515625,-9.438331066870688,-2.644963304397464,0.3040708808308467
1773150804016599000,1.93759912109375,-9.43853389596641,-2.6523180510744453,0.22286451507201416
1773150804026636800,1.94763671875,-9.437436163857578,-2.661794319950044,0.14156405955525114
1773150804036674000,1.957674072265625,-9.435202705717087,-2.6727470911189912,0.06129748169744852
1773150804046711800,1.9677119140625,-9.431810725191236,-2.6853540592357517,-0.014302517704979981
1773150804056753400,1.97775341796875,-9.42793885219395,-2.69764713909775,-0.08399005992691963
1773150804066790400,1.987790283203125,-9.42475320789516,-2.7060277216911315,-0.1477513150891289
1773150804076828400,1.997828369140625,-9.422707381281256,-2.7092116124242542,-0.207700574215129
1773150804086866400,2.007866455078125,-9.42172830711603,-2.7075232209458946,-0.265963725151401
1773150804096903400,2.0179033203125,-9.42145124374032,-2.7023253600418564,-0.32261158637814225
1773150804106941400,2.02794140625,-9.4212653657794,-2.696002294500172,-0.37645281095262617
1773150804116979500,2.0379794921875,-9.419867773941158,-2.6933509032085534,-0.42700694014783946
1773150804127016400,2.048016357421875,-9.416083579227328,-2.6985323974996804,-0.47505405495818703
1773150804137054500,2.058054443359375,-9.4090687320292,-2.7145082575276493,-0.5208197077678516
1773150804147091500,2.068091552734375,-9.398405883717537,-2.74303204896152,-0.5622528477985411
1773150804157129500,2.07812939453125,-9.384096203336119,-2.7840070334285496,-0.598688179541938
1773150804167167500,2.08816748046875,-9.367035762941837,-2.833912343326211,-0.6308415231171995
1773150804177204500,2.09820458984375,-9.349044763699174,-2.8861759067878126,-0.6601022505234927
1773150804187242500,2.108242431640625,-9.332325684088469,-2.9339409897863864,-0.685614877442643
1773150804197280500,2.118280517578125,-9.318619230297207,-2.9726939142897724,-0.7048503968536853
1773150804207317200,2.128317138671875,-9.307814343166351,-3.0034833125680684,-0.7169814180217683
1773150804217355500,2.13835546875,-9.298588249659538,-3.0302666900753974,-0.7239641165159643
1773150804227393300,2.148393310546875,-9.289417685732245,-3.0566835723578927,-0.730606111813709
1773150804237430300,2.15843017578125,-9.279911606240272,-3.083235186935961,-0.7397866126131266
1773150804247468500,2.168468505859375,-9.27060777132213,-3.107861094148457,-0.7532729939129204
1773150804257506300,2.17850634765625,-9.26212343609333,-3.128489456157386,-0.7720170765452087
1773150804267543600,2.18854345703125,-9.254449248203635,-3.1450854939103126,-0.7962368871748446
1773150804277581600,2.19858154296875,-9.247479993712902,-3.157914288084209,-0.8258760194394738
1773150804287618300,2.208618408203125,-9.241486890777946,-3.167517105948925,-0.85565076078251
1773150804297656600,2.218656494140625,-9.236764538431167,-3.174547735238075,-0.8802368474412708
1773150804307694300,2.2286943359375,-9.233357944858074,-3.179650319074094,-0.8973894961636513
1773150804317731300,2.2387314453125,-9.23136940138936,-3.182457485449314,-0.9078381902679801
1773150804327769600,2.24876953125,-9.230935101625322,-3.1818025286719203,-0.914525632142648
1773150804337807400,2.258807373046875,-9.231705501475929,-3.1780542820543047,-0.9197667476665228
1773150804347844400,2.26884423828125,-9.232633137714862,-3.173685857711732,-0.9255221693880855
1773150804357882600,2.278882568359375,-9.233169144287706,-3.1702392243891953,-0.9319643312647938
1773150804367920400,2.28892041015625,-9.232975083020328,-3.1683374824211,-0.9403145187199116
1773150804377957400,2.298957275390625,-9.231765707230567,-3.1690020838096737,-0.9498986318841576
1773150804387995400,2.308995361328125,-9.229425866106151,-3.172856421150267,-0.9597189649570733
1773150804398032400,2.319032470703125,-9.226008751139045,-3.179943456801772,-0.9690765028238296
1773150804408070400,2.3290703125,-9.22217487206459,-3.188542358320951,-0.977280340610817
1773150804418108400,2.3391083984375,-9.21861338019073,-3.1967236189499495,-0.9841267724394798
1773150804428145400,2.3491455078125,-9.216107534849643,-3.2019641499519347,-0.9905399274174124
1773150804438183400,2.359183349609375,-9.215395002666115,-3.2023724384918806,-0.9958386914126575
1773150804448221400,2.369221435546875,-9.216482797902822,-3.1976196910068393,-1.0010301225759088
1773150804458258400,2.379258544921875,-9.218663649073243,-3.188457310386002,-1.010131128398329
1773150804468296400,2.38929638671875,-9.22170900811851,-3.1753079059556124,-1.023661641100794
1773150804478334500,2.39933447265625,-9.225541133627296,-3.1591569816216825,-1.0389927004192023
1773150804488371500,2.409371337890625,-9.229881793180107,-3.141402713744342,-1.0541591437604279
1773150804498409500,2.419409423828125,-9.234220114645362,-3.123799837036431,-1.0683815111845731
1773150804508447500,2.429447509765625,-9.238463159042595,-3.107008861233294,-1.0805907852206378
1773150804518484500,2.439484375,-9.242598066890238,-3.0912320309087633,-1.0904383716266601
1773150804528522500,2.4495224609375,-9.246170664680003,-3.0772526053950187,-1.09964948676005
1773150804538559500,2.4595595703125,-9.249009102976322,-3.065440879309177,-1.1087347104914487
1773150804548597200,2.46959716796875,-9.251607887297869,-3.054458589784801,-1.117327036139369
1773150804558635500,2.479635498046875,-9.254145881342888,-3.0436195081233977,-1.1258562334232032
1773150804568672500,2.489672607421875,-9.256485722467303,-3.033480975946784,-1.1339525191824882
1773150804578710500,2.49971044921875,-9.257916632053256,-3.0257433674320575,-1.1429111208595335
1773150804588748500,2.50974853515625,-9.257930660578609,-3.021753713274002,-1.1533057466890662
1773150804598785300,2.519785400390625,-9.256628930330276,-3.0215061682537194,-1.1643472921200095
1773150804608823600,2.529823486328125,-9.254754953151942,-3.023502602767944,-1.1740209101986139
1773150804618860500,2.539860595703125,-9.253065684890746,-3.0259879898428914,-1.1809147613655775
1773150804628898300,2.549898193359375,-9.251579830247163,-3.028762715253234,-1.1854315812028944
1773150804638936600,2.5599365234375,-9.250212633547186,-3.031759266720712,-1.1884401153691113
1773150804648973600,2.5699736328125,-9.248917917561531,-3.035034050607681,-1.1901556871153414
1773150804659011300,2.58001123046875,-9.247788036748766,-3.038024464595318,-1.1913043456938117
1773150804669049600,2.590049560546875,-9.247110575878619,-3.039279433092475,-1.1933617896802722
1773150804679086300,2.60008642578125,-9.246596196615695,-3.038986587625742,-1.1980834844399242
1773150804689124400,2.610124267578125,-9.245846255031228,-3.0381586123690005,-1.2059454499866813
1773150804699162400,2.620162353515625,-9.244884716522693,-3.0365479623019693,-1.2173202459599821
1773150804709199400,2.630199462890625,-9.24423589722514,-3.0333585186108944,-1.2301327465862035
1773150804719237400,2.6402373046875,-9.24405001926422,-3.0285391356304285,-1.2433300818115471
1773150804729274600,2.650274658203125,-9.24390096618235,-3.023674452203512,-1.256214843956381
1773150804739312400,2.6603125,-9.243087311711907,-3.0211151231095195,-1.2682979343295098
1773150804749350700,2.6703505859375,-9.24125249750018,-3.0220863062292334,-1.2793090115569532
1773150804759387400,2.680387451171875,-9.238495307746529,-3.026207770073414,-1.2894373146004974
1773150804769425400,2.69042529296875,-9.235236013689637,-3.0318562973544,-1.2994792545348406
1773150804779463400,2.70046337890625,-9.231984318417311,-3.0374355587914583,-1.3095153492502867
1773150804789500400,2.71050048828125,-9.228868232223391,-3.0425752597674727,-1.3195109658248723
1773150804799538400,2.720538330078125,-9.225708891409635,-3.0480604131802913,-1.3289128542900084
1773150804809576400,2.730576416015625,-9.222066150993108,-3.05490750259608,-1.3384388075262308
1773150804819613400,2.740613525390625,-9.217727829527854,-3.0636355834528803,-1.3483372473366557
1773150804829651500,2.7506513671875,-9.213049900844693,-3.073207129396498,-1.3584876160815358
1773150804839688400,2.7606884765625,-9.208622147530317,-3.0818560075372456,-1.3688795384973287
1773150804849726500,2.7707265625,-9.205119107845425,-3.0877982570677993,-1.37900886445418
1773150804859764200,2.78076416015625,-9.202986187469959,-3.090033761034906,-1.3882073393017054
1773150804869801500,2.790801513671875,-9.20199717643261,-3.089488694372773,-1.3959553230799733
1773150804879839500,2.800839599609375,-9.201095843678713,-3.088383071218431,-1.4043172009728848
1773150804889877500,2.81087744140625,-9.199270381817222,-3.0893487013801932,-1.414120071454346
1773150804899914500,2.82091455078125,-9.19600816515088,-3.0937022204145785,-1.4257697388462722
1773150804909952500,2.830952392578125,-9.191361800649762,-3.1015541029587386,-1.4386137305893003
1773150804919989200,2.8409892578125,-9.186270030468702,-3.110740741237998,-1.4512484634958207
1773150804930027500,2.851027587890625,-9.181817727234959,-3.118954442831874,-1.4617548060715198
1773150804940065300,2.861065185546875,-9.178464325153827,-3.1254227620631454,-1.4689831498898565
1773150804950102300,2.871102294921875,-9.176261846673489,-3.1297257199540733,-1.473572961898148
1773150804960140500,2.881140625,-9.175149501517415,-3.131237001299858,-1.4772848220281303
1773150804970178300,2.89117822265625,-9.174670193567872,-3.130806208667159,-1.481171892594546
1773150804980215600,2.901215576171875,-9.173902131804823,-3.1306542329758402,-1.4862392589867115
1773150804990253600,2.911253662109375,-9.172875711366533,-3.130321347759664,-1.4932586362294853
1773150805000291300,2.921291259765625,-9.172311063221096,-3.127842974947393,-1.501897577498108
1773150805010328600,2.93132861328125,-9.172551301717757,-3.122901719152927,-1.5106841105438769
1773150805020366300,2.941366455078125,-9.172895585110783,-3.1179908584967255,-1.5187186561785637
1773150805030403300,2.9514033203125,-9.172547210064529,-3.1157787354052067,-1.5253481573209167
1773150805040441600,2.961441650390625,-9.171718942546844,-3.1163962827816603,-1.5290611864946781
1773150805050479400,2.971479248046875,-9.170763833779096,-3.1187010525926944,-1.5300902372814713
1773150805060512800,2.9815126953125,-9.170169959539175,-3.120526514454186,-1.5299273018047213
1773150805070550800,2.99155078125,-9.170295631745457,-3.1202532504707574,-1.5297313408412039
1773150805080588500,3.001588623046875,-9.171275874954462,-3.1173063833639025,-1.5298640273101627
1773150805090625800,3.011625732421875,-9.172409847420454,-3.11295607919991,-1.5319205214485525
1773150805100663600,3.02166357421875,-9.17297566460967,-3.1089161561593412,-1.5367305520787835
1773150805110700500,3.031700439453125,-9.172701523843408,-3.1062767475664614,-1.543690600349754
1773150805120738800,3.04173876953125,-9.172195912408828,-3.103948304618895,-1.5513579201072454
1773150805130776600,3.051776611328125,-9.172256118163466,-3.1006030858442184,-1.557679962735623
1773150805140813600,3.0618134765625,-9.173011904966831,-3.096822106000781,-1.5607463645689188
1773150805150851800,3.071851806640625,-9.173932526943087,-3.0943285356193777,-1.560281961927563
1773150805160889600,3.0818896484375,-9.17448548465073,-3.0942192300260065,-1.5572434710144996
1773150805170926600,3.091926513671875,-9.174663763827086,-3.096501495744288,-1.551646527790278
1773150805180964600,3.101964599609375,-9.174699419662355,-3.100622959588468,-1.5431811895228922
1773150805191001600,3.112001708984375,-9.174546859449148,-3.10516031075716,-1.5349452760972082
1773150805201040000,3.122039794921875,-9.174718708884715,-3.1080051787942646,-1.5281421719536183
1773150805211077600,3.13207763671875,-9.175545222836732,-3.1088503974467514,-1.521448665664345
1773150805221114600,3.142114501953125,-9.176532480308413,-3.1089938975706697,-1.5151879978343843
1773150805231153000,3.15215283203125,-9.17722806135714,-3.1088480593591927,-1.5112673172593116
1773150805241190700,3.162190673828125,-9.177949945890903,-3.107672293578088,-1.5093028853185475
1773150805251227600,3.1722275390625,-9.178788150280713,-3.1052935817480085,-1.5091007868751882
1773150805261265700,3.182265625,-9.17957959291935,-3.1019778813287613,-1.511104527913034
1773150805271302700,3.192302734375,-9.180143656542898,-3.0981507242560387,-1.5155227827467024
1773150805281340700,3.202340576171875,-9.180329534503818,-3.09477218773365,-1.521288506666571
1773150805291378700,3.212378662109375,-9.180021491467953,-3.0928485261946914,-1.5270479469761251
1773150805301415700,3.222415771484375,-9.179083333835004,-3.09276756991297,-1.5328424585990608
1773150805311453700,3.23245361328125,-9.177816674900054,-3.094038905023038,-1.5378534186288713
1773150805321491700,3.24249169921875,-9.176326728603243,-3.096577775850892,-1.5416294300362468
1773150805331528700,3.25252880859375,-9.174518217876553,-3.1006007477566597,-1.5443025947682558
1773150805341566700,3.262566650390625,-9.17262027530074,-3.105488519798219,-1.545755862316489
1773150805351603700,3.272603759765625,-9.1707918908298,-3.1106270517304537,-1.5462728719279168
1773150805361641700,3.282641845703125,-9.168961168271302,-3.115682873815298,-1.5469496021457017
1773150805371679700,3.2926796875,-9.167371853253245,-3.119584265168011,-1.5485054532855749
1773150805381716700,3.302716796875,-9.166254247400165,-3.121474901220202,-1.551309989312291
1773150805391754800,3.312754638671875,-9.165385647872089,-3.1223247960478067,-1.5547259352356195
1773150805401791500,3.32279150390625,-9.164344029864669,-3.124078361716866,-1.557342109083384
1773150805411829800,3.332829833984375,-9.162749454149603,-3.128345663772523,-1.5581579555109142
1773150805421867500,3.342867431640625,-9.16053645427525,-3.135659201656282,-1.5564694179020822
1773150805431904800,3.35290478515625,-9.158026517280936,-3.144587188999355,-1.5532234217181802
1773150805441942800,3.36294287109375,-9.155641667971015,-3.1532170701786875,-1.5497851178325712
1773150805451980500,3.37298046875,-9.153958244928717,-3.1597739444762465,-1.5463719483882188
1773150805462017800,3.383017822265625,-9.152866358038782,-3.1639258034586906,-1.5443421961262822
1773150805472055600,3.3930556640625,-9.152171361511945,-3.1664547374144196,-1.5432789508089422
1773150805482092500,3.403092529296875,-9.151446554368734,-3.1692762245759365,-1.5417825747713445
1773150805492130800,3.413130859375,-9.150375125744938,-3.1739000849843024,-1.5386303943507373
1773150805502168600,3.42316845703125,-9.148859460484982,-3.1801331341549752,-1.5347665585294366
1773150805512205600,3.43320556640625,-9.147147395870089,-3.1860426504597066,-1.5327125486090778
1773150805522243800,3.443243896484375,-9.145248284250497,-3.1911896579593417,-1.5333374025091528
1773150805532280600,3.453280517578125,-9.142921887129544,-3.1963322815448043,-1.5364967433229089
1773150805542318600,3.463318603515625,-9.140292707669735,-3.201629218909144,-1.5411055522926151
1773150805552356600,3.473356689453125,-9.13754136313498,-3.207030493430793,-1.5461816865131257
1773150805562393600,3.4833935546875,-9.134770144855976,-3.2127322122037407,-1.5507147998981177
1773150805572432000,3.493431884765625,-9.132508045142888,-3.217768745066225,-1.5535902092039584
1773150805582469600,3.5034697265625,-9.13097542874813,-3.221646463282406,-1.5545624152369797
1773150805592506600,3.513506591796875,-9.129767806524038,-3.2254993393182754,-1.553666635441035
1773150805602545000,3.523544921875,-9.128173815330863,-3.2310081658676264,-1.551583107165247
1773150805612581600,3.53358154296875,-9.125770261320472,-3.23878785995841,-1.5495025014989077
1773150805622619600,3.54361962890625,-9.122904350495338,-3.2479239370942112,-1.5472517999626696
1773150805632657700,3.55365771484375,-9.120766169422865,-3.255233675585687,-1.544495633122325
1773150805642694700,3.563694580078125,-9.119944331645964,-3.258637346549332,-1.5421670440442858
1773150805652732700,3.573732666015625,-9.12053060710132,-3.2591409121572967,-1.5376298390060663
1773150805662770000,3.58377001953125,-9.12177914585769,-3.259485487811267,-1.529472105383128
1773150805672807700,3.5938076171875,-9.122795629423857,-3.2608132292836904,-1.5205515706941484
1773150805682845700,3.603845703125,-9.123691116958856,-3.2598040522411464,-1.5173419609978793
1773150805692882700,3.613882568359375,-9.124944916412234,-3.255009803701937,-1.5200921364888549
1773150805702920700,3.623920654296875,-9.125682583037019,-3.250908213602006,-1.5244341112159192
1773150805712958500,3.63395849609375,-9.124979987725615,-3.2506539465799924,-1.5291737069584428
1773150805722995700,3.64399560546875,-9.123809190380573,-3.252956378303468,-1.5312633727140723
1773150805733033700,3.65403369140625,-9.123114778375625,-3.255515122875571,-1.5299626653790472
1773150805743070700,3.66407080078125,-9.123168554389476,-3.2566967338755726,-1.5271232041694223
1773150805753108700,3.674108642578125,-9.124065795490145,-3.2555127847880123,-1.5242862271778284
1773150805763146800,3.684146728515625,-9.12549378246665,-3.251929081082344,-1.523386355728656
1773150805773183500,3.69418359375,-9.126380502173305,-3.248169144026935,-1.5260940072521567
1773150805783221800,3.7042216796875,-9.126005239120126,-3.24691008387655,-1.531008813431114
1773150805793258800,3.7142587890625,-9.125029087564348,-3.2471906543835996,-1.536222018034756
1773150805803296800,3.724296875,-9.124367993307112,-3.2476535957202315,-1.539168885141611
1773150805813334800,3.734334716796875,-9.124138276204466,-3.2483506380736826,-1.5390581182435155
1773150805823371800,3.744371826171875,-9.123800422552227,-3.2511390997484324,-1.5351682711981236
1773150805833409800,3.754409912109375,-9.122987937125563,-3.2559389012455937,-1.5298155119933188
1773150805843446800,3.76444677734375,-9.121499744394422,-3.262064690649509,-1.5256348653078078
1773150805853484500,3.774484619140625,-9.119746763247251,-3.2683155677378175,-1.5227321296036243
1773150805863522800,3.784522705078125,-9.117831869536637,-3.2745804733514783,-1.5207390560902654
1773150805873559800,3.794559814453125,-9.11566387784779,-3.28145912694931,-1.518906579966098
1773150805883597600,3.80459765625,-9.112894413134455,-3.2900562749028204,-1.5169282656304537
1773150805893634800,3.814634765625,-9.109832687476278,-3.299933818055689,-1.5138599641010164
1773150805903672600,3.824672607421875,-9.10686331627667,-3.3104069890141483,-1.508852511202544
1773150805913710600,3.834710693359375,-9.104466776528954,-3.32024186206907,-1.5016852499216795
1773150805923747800,3.844747802734375,-9.10277400113642,-3.3285458722949026,-1.49354373678118
1773150805933785600,3.85478564453125,-9.101815969759226,-3.335150677387416,-1.4846221791788934
1773150805943823600,3.86482373046875,-9.101272364401817,-3.340904710869491,-1.4749841438703237
1773150805953860900,3.87486083984375,-9.100623545104265,-3.3466903085336086,-1.4658435366898774
1773150805963898600,3.884898681640625,-9.099590110403298,-3.3532965749308463,-1.4571369370125233
1773150805973935600,3.894935546875,-9.098342156168817,-3.3601062549456953,-1.4492197341471909
1773150805983973600,3.9049736328125,-9.097205845615267,-3.366212755127251,-1.442164993330091
1773150805994011600,3.91501171875,-9.09643603028655,-3.371453286129236,-1.434762461988628
1773150806004048600,3.925048583984375,-9.095687257745862,-3.376228245446086,-1.4282644782714544
1773150806014086700,3.935086669921875,-9.094638625475763,-3.381184991070628,-1.423208217795193
1773150806024123600,3.94512353515625,-9.09311711499691,-3.386753438852727,-1.419686619540304
1773150806034162000,3.955161865234375,-9.091413818210363,-3.3926930580347774,-1.416410520479083
1773150806044199700,3.96519970703125,-9.089771311700343,-3.3990599627181886,-1.4116777928687632
1773150806054240500,3.975240478515625,-9.088218821561336,-3.4061078354030845,-1.4046690831504762
1773150806064278300,3.9852783203125,-9.086519616428017,-3.4144401949405667,-1.3954016347199678
1773150806074315300,3.995315185546875,-9.084365068742633,-3.424398986636102,-1.3849870620809495
1773150806084353500,4.005353515625,-9.081726536932587,-3.43562940570265,-1.3744395107120275
1773150806094391300,4.015391357421875,-9.07942995042801,-3.44626974992156,-1.3629232604414223
1773150806104428300,4.02542822265625,-9.078218236550688,-3.454058211840689,-1.3512310690820217
1773150806114466300,4.03546630859375,-9.077755295214056,-3.4591415064543485,-1.341299896045774
1773150806124503300,4.04550341796875,-9.07780673314035,-3.462424473647773,-1.3324509652882814
1773150806134541300,4.055541259765625,-9.078378395548462,-3.465121457646787,-1.321502285772562
1773150806144579300,4.065579345703125,-9.079088589644432,-3.468124438855052,-1.3086828439489007
1773150806154616300,4.0756162109375,-9.0801161791265,-3.470617424714565,-1.2948683997385204
1773150806164654300,4.085654296875,-9.082032826402783,-3.4707553718805313,-1.2809823515966534
1773150806174691300,4.09569140625,-9.084607060804963,-3.468171785128116,-1.269680182468146
1773150806184729300,4.105729248046875,-9.0871666821599,-3.465024134752154,-1.259919397562742
1773150806194767400,4.115767333984375,-9.089209001642464,-3.462291787178814,-1.2526754177838564
1773150806204804400,4.125804443359375,-9.091127402484416,-3.4592528578743336,-1.247138826444745
1773150806214842400,4.13584228515625,-9.094193804317712,-3.4536043305933473,-1.240420185714215
1773150806224879400,4.14587939453125,-9.099484311941266,-3.4427763548478483,-1.2316902051612735
1773150806234917400,4.15591748046875,-9.106855717492103,-3.4262370157182214,-1.2232983705215155
1773150806244955400,4.165955322265625,-9.115164111632108,-3.4065289834246038,-1.2164428786035626
1773150806254992100,4.1759921875,-9.122836545956135,-3.387933004026115,-1.2108453508574515
1773150806265030400,4.186030517578125,-9.128983962669968,-3.3731720727458594,-1.2057133217312395
1773150806275067400,4.1960673828125,-9.134480221998691,-3.3622526193246243,-1.1945332446124404
1773150806285105400,4.20610546875,-9.139546857738495,-3.3570731708601116,-1.1700976723402738
1773150806295143400,4.216143310546875,-9.145705964890121,-3.355208838292956,-1.1265069524168967
1773150806305180400,4.226180419921875,-9.158594088035821,-3.342884778770804,-1.0562498324293643
1773150806315218400,4.236218505859375,-9.179445152884721,-3.311799027894437,-0.9696184276808053
1773150806325255400,4.24625537109375,-9.20322525692284,-3.2673329864412546,-0.8919481088273227
1773150806335293200,4.256293212890625,-9.226233792066573,-3.2225469192534684,-0.8137486515332013
1773150806345331500,4.26633154296875,-9.243663065773248,-3.19276026827693,-0.7289472386907786
1773150806355368400,4.276368408203125,-9.251692642971873,-3.188924051114917,-0.6382246921710669
1773150806365406200,4.28640625,-9.251797272390126,-3.207249104617536,-0.536826583988592
1773150806375443500,4.296443359375,-9.247599236178397,-3.235936854441464,-0.4254445862019434
1773150806385481500,4.3064814453125,-9.24267288569212,-3.262952579399943,-0.3106733478358015
1773150806395519200,4.316519287109375,-9.238070360332728,-3.2859956013351677,-0.1751348869793117
1773150806405556500,4.326556396484375,-9.229404238796233,-3.3148885183423755,0.00039140622489157976
1773150806415594200,4.33659423828125,-9.20861513326764,-3.3648952427878975,0.22196369377477093
1773150806425631200,4.34663134765625,-9.16066738717854,-3.4677278407528993,0.47688576389737425
1773150806435669500,4.35666943359375,-9.075020317292212,-3.6344609562203285,0.7778691635742783
1773150806445707300,4.366707275390625,-8.941848695164918,-3.8541748435080048,1.1657901113394646
1773150806455744300,4.376744140625,-8.739767202940582,-4.1248619621858,1.6650442127808927
1773150806465782500,4.386782470703125,-8.529201375487446,-4.382331579633057,2.053844792924821
1773150806475820300,4.3968203125,-8.409356852445006,-4.5181052009522915,2.2449561244539917
1773150806485857300,4.406857177734375,-8.347620819500088,-4.51422865177989,2.471708970467746
1773150806495895300,4.416895263671875,-8.29802705976963,-4.398651138532162,2.8222330114483833
1773150806505932300,4.426932373046875,-8.247012911847234,-4.193686492086947,3.2511768014103173
1773150806515970600,4.436970458984375,-8.195221934333443,-3.9186932006478306,3.6949379290148614
1773150806526007300,4.44700732421875,-8.146337784177064,-3.5924151276513934,4.11121951354146
1773150806536045300,4.45704541015625,-8.101814167317748,-3.23074045484215,4.4825551641434425
1773150806546083300,4.467083251953125,-8.098280732494592,-2.8806343470126388,4.721248184928298
1773150806556120300,4.477120361328125,-8.154892846554517,-2.6089003496304155,4.781396071898937
1773150806566158300,4.487158447265625,-8.186004024133085,-2.4313315135024487,4.821654140268266
1773150806576195300,4.4971953125,-8.210960770735143,-2.3091383815072475,4.839254678888619
1773150806586233300,4.5072333984375,-8.264780039206146,-2.206657811850309,4.795253332337737
1773150806596271400,4.517271240234375,-8.332645953208207,-2.1002683981865644,4.725068327738344
1773150806606308400,4.527308349609375,-8.402384090822935,-1.9763925738014279,4.654481464339792
1773150806616346400,4.537346435546875,-8.476766839373111,-1.8315435194924472,4.578237305831909
1773150806626383400,4.54738330078125,-8.556716574400664,-1.6521337316729128,4.497048384398222
1773150806636421400,4.55742138671875,-8.63630390585661,-1.4182890277020632,4.42414915240407
1773150806646459400,4.56745947265625,-8.711482773220538,-1.1167159915689377,4.362728761279583
1773150806656496400,4.577496337890625,-8.772676369851828,-0.744406892824918,4.319305214616656
1773150806666534400,4.587534423828125,-8.80734027147591,-0.3077180782267824,4.301911889006197
1773150806676572400,4.597572509765625,-8.808695777738095,0.18441598034268245,4.3061876666292545
1773150806686609200,4.607609130859375,-8.773687592720984,0.7253931264057755,4.320485364311933
1773150806696647400,4.6176474609375,-8.704363881126046,1.3105207269005477,4.322842741093039
1773150806706684400,4.627684326171875,-8.60066151458919,1.9296555186763404,4.2983071425125
1773150806716722200,4.63772216796875,-8.459528704324365,2.57116244738847,4.242155631701648
1773150806726760400,4.647760498046875,-8.282462995412946,3.2204443940162655,4.147279545699059
1773150806736797400,4.65779736328125,-8.073813815236091,3.8629678062945603,4.007666784608364
1773150806746835500,4.66783544921875,-7.831121495682001,4.49386274009943,3.8274163081809878
1773150806756872400,4.67787255859375,-7.54930244987607,5.113061390891671,3.6104046655893325
1773150806766910200,4.68791015625,-7.221760932815075,5.7200885423749686,3.3611221539899705
1773150806776948500,4.697948486328125,-6.8471297477990385,6.31409020806849,3.069115476168692
1773150806786985500,4.7079853515625,-6.428149133446812,6.886070596089959,2.7260449660643933
1773150806797023200,4.718023193359375,-5.958714927664399,7.425182733732462,2.3517585028328
1773150806807060200,4.728060302734375,-5.4485015522480005,7.915368051120638,1.9573335069358349
1773150806817098500,4.738098388671875,-4.915376087799668,8.339602348217367,1.5685906483285128
1773150806827135200,4.74813525390625,-4.37078931813836,8.690841551730037,1.239297319164127
1773150806837173500,4.758173583984375,-3.825489139510691,8.971003477978705,1.0281637748256325
1773150806847211300,4.768211181640625,-3.290948839828372,9.188941880026459,0.9504729246407747
1773150806857248300,4.778248291015625,-2.776964129179716,9.357940602338314,0.9422366458889097
1773150806867286500,4.78828662109375,-2.2595519283004104,9.489942596164346,1.0028979622744023
1773150806877323300,4.7983232421875,-1.729890194439888,9.586258944103122,1.132045224256441
1773150806887361300,4.808361328125,-1.19596788052544,9.645163553014397,1.3080109360367058
1773150806897399600,4.818399658203125,-0.6756639767926186,9.664747374406456,1.5187350227914749
1773150806907436300,4.828436279296875,-0.18803199714906513,9.644718147334457,1.7647804521657526
1773150806917474300,4.838474365234375,0.2554113514768891,9.587107085365057,2.047571704004705
1773150806927511600,4.848511474609375,0.6541327476598322,9.49491278579235,2.3641367767602204
1773150806937549300,4.85854931640625,1.0124980767253786,9.37182475078404,2.7044664637237785
1773150806947587300,4.86858740234375,1.3288254682675003,9.222558318424225,3.0576223145127295
1773150806957624300,4.878624267578125,1.5992277786545455,9.05106310312152,3.419227136956155
1773150806967662300,4.888662353515625,1.8235693257428705,8.858850678482652,3.790219965469837
1773150806977699300,4.89869921875,1.9990956962577997,8.64870570679009,4.168202506740391
1773150806987737300,4.9087373046875,2.1147426214799285,8.454089728140831,4.497400558836758
1773150806997775400,4.918775390625,2.18335380089134,8.303952358165382,4.7379023826092475
1773150807007812400,4.928812255859375,2.221863856549561,8.206944520831108,4.886695936760306
1773150807017850400,4.938850341796875,2.2409822523869574,8.136266472017764,4.994955235949158
1773150807027887400,4.948887451171875,2.2282838065944612,8.064664294096827,5.115304201382398
1773150807037925000,4.958925048828125,2.157329571188241,7.982229171994328,5.272603133550286
1773150807047963400,4.96896337890625,2.022374280514568,7.880771369513869,5.474837770509719
1773150807058001200,4.979001220703125,1.856587652117014,7.761247164466977,5.699693989121913
1773150807068039200,4.9890390625,1.7065569573864339,7.6039476477772,5.952981936970353
1773150807078076200,4.999076171875,1.5850222892999648,7.396809456685185,6.240617560100555
1773150807088114200,5.0091142578125,1.491845262300223,7.1597034128308294,6.533256106084584
1773150807098152200,5.019152099609375,1.4232967728614807,6.9160308500677345,6.805375011131167
1773150807108189200,5.029189208984375,1.3640731611289083,6.694966424953937,7.034711005505919
1773150807118227200,5.039227294921875,1.3066526532955467,6.518416848871111,7.209250410810112
1773150807128264200,5.04926416015625,1.2451779016353188,6.37930999147594,7.343320443081855
1773150807138302200,5.05930224609375,1.1704236894242466,6.272116275691986,7.447216286364197
1773150807148339200,5.069339111328125,1.0837458882506936,6.1980497534841295,7.5219725444018835
1773150807158377200,5.079377197265625,0.9916056569527834,6.1528124353975056,7.571655735981464
1773150807168415000,5.0894150390625,0.8956226326216011,6.124370184767246,7.606598454546928
1773150807178452200,5.0994521484375,0.7842641253083944,6.10393997567892,7.635263408017158
1773150807188490200,5.109490234375,0.6495530186541378,6.084808574229479,7.6631316581517455
1773150807198527000,5.11952685546875,0.5181571009624749,6.061502517443895,7.691558711212873
1773150807208565200,5.129565185546875,0.4128453264676034,6.030691199594735,7.722091796642541
1773150807218603000,5.13960302734375,0.33572686934322116,5.988221592655777,7.758793926095962
1773150807228640000,5.149639892578125,0.293544226119481,5.926843871629238,7.807479923331737
1773150807238678300,5.15967822265625,0.2726184155339375,5.843872158432006,7.870528207919001
1773150807248715300,5.16971533203125,0.2245604688023217,5.7499529347628355,7.940905812481045
1773150807258753300,5.179753173828125,0.13992808325071818,5.661216082167625,8.006337777334451
1773150807268791300,5.189791259765625,0.05047932865964248,5.585847829711437,8.060157630327344
1773150807278828000,5.199828125,0.002619978662858193,5.520806325480342,8.105003903269766
1773150807288866300,5.2098662109375,0.008360071811603847,5.461442866885662,8.145117886993289
1773150807298903300,5.2199033203125,0.06317613961747848,5.422027386820316,8.17116827405095
1773150807308941000,5.229941162109375,0.13638459282442927,5.437053691038489,8.160283891943097
1773150807318979300,5.239979248046875,0.16633649909896775,5.479813805356621,8.131074748593567
1773150807329016300,5.250016357421875,0.0857237701180391,5.534706840538978,8.095065862101317
1773150807339054000,5.26005419921875,-0.09759145504166372,5.625930249252915,8.03179896632731
1773150807349091300,5.27009130859375,-0.32981446696165945,5.772788451427221,7.920639269521832
1773150807359129000,5.280129150390625,-0.571916273276694,5.981010346102714,7.75053638536036
1773150807369166000,5.290166015625,-0.8016144885599613,6.238064953008294,7.524251010727882
1773150807379204400,5.300204345703125,-1.021565910930559,6.526266977849603,7.2480778618544335
1773150807389242000,5.3102421875,-1.2253903012994676,6.82000968568325,6.939471931409836
1773150807399279000,5.320279052734375,-1.3825374769717453,7.106103924590348,6.61530544373989
1773150807409317400,5.3303173828125,-1.4805335946910083,7.383630241638421,6.28175153452158
1773150807419354000,5.34035400390625,-1.5060032592512667,7.649614589452743,5.948589254969358
1773150807429392100,5.35039208984375,-1.4584591255269943,7.893557785850763,5.633382903346419
1773150807439430100,5.36043017578125,-1.349288264451176,8.107448373812437,5.349683450621366
1773150807449467100,5.370467041015625,-1.2126001586355268,8.286108073917031,5.102981310904026
1773150807459505200,5.380505126953125,-1.1124111339818685,8.425093350759148,4.893949268889427
1773150807469542100,5.390542236328125,-1.069482823489979,8.524768945997954,4.728100242780148
1773150807479580200,5.400580078125,-1.0444021582473069,8.594203132230042,4.6064407792702315
1773150807489618200,5.4106181640625,-1.0228205871667713,8.642018776372074,4.521034532402456
1773150807499655200,5.4206552734375,-0.974609660096839,8.680593129438162,4.4573336291253565
1773150807509693200,5.430693115234375,-0.89936174608469,8.722155558404326,4.391531954176724
1773150807519730200,5.440730224609375,-0.81428261227943,8.772248499828576,4.307550771676004
1773150807529768200,5.450768310546875,-0.7406840729095041,8.827570574077964,4.2066356977701185
1773150807539805200,5.46080517578125,-0.7069795178368687,8.882884465020895,4.094502187496423
1773150807549843200,5.47084326171875,-0.7122435758449137,8.933194264066218,3.9826030705004927
1773150807559881200,5.480881103515625,-0.7367111506905406,8.975412526592612,3.8819603837952017
1773150807569918200,5.490918212890625,-0.7553011387396603,9.007598055404424,3.8030359001621603
1773150807579956200,5.500956298828125,-0.744394763995707,9.033868807214498,3.7423891237586733
1773150807589993200,5.5109931640625,-0.7050686427142471,9.05490341193676,3.6989179385617375
1773150807600031200,5.52103125,-0.6547327593795955,9.059985829767584,3.6957267413049935
1773150807610069200,5.5310693359375,-0.6085177188346163,9.044541592398286,3.741173902750015
1773150807620106200,5.541106201171875,-0.5763217782266438,9.012282413828373,3.8232185642302032
1773150807630144000,5.55114404296875,-0.5657839445341378,8.966614303109049,3.9306618708610532
1773150807640181200,5.56118115234375,-0.5812602940747514,8.910439995944499,4.054209340074658
1773150807650219300,5.57121923828125,-0.629150793551281,8.847762298235297,4.182300590197742
1773150807660256300,5.58125634765625,-0.7054593225322663,8.790623529952764,4.289246176439524
1773150807670294300,5.591294189453125,-0.7942323424194008,8.753223481363058,4.34978920020759
1773150807680332300,5.601332275390625,-0.8797747828874737,8.7488173553586,4.342187493032217
1773150807690369000,5.611369140625,-0.9614052375435829,8.776436014646292,4.268519322492182
1773150807700407300,5.6214072265625,-1.0310057933185248,8.834659071034192,4.1299163229659195
1773150807710444300,5.6314443359375,-1.0805081484384833,8.912886804574727,3.945037017694115
1773150807720482000,5.64148193359375,-1.0955050804316997,9.006663989424705,3.7215941730111837
1773150807730520300,5.651520263671875,-1.0969044989008456,9.113802760151028,3.450473923613131
1773150807740557300,5.661557373046875,-1.1018851368576288,9.211987824571132,3.1773449647411702
1773150807750595000,5.671594970703125,-1.0991609725907445,9.295876068091392,2.9238565258845686
1773150807760632300,5.68163232421875,-1.0583200628321616,9.372963983947038,2.682890591731667
1773150807770670000,5.691670166015625,-0.9616128158796579,9.451391623973846,2.432464316924661
1773150807780708000,5.7017080078125,-0.8342094018902629,9.530084636938572,2.1568511400215327
1773150807790745300,5.711745361328125,-0.705577395953983,9.59987479700148,1.874825319597125
1773150807800783000,5.721783203125,-0.5875304969180375,9.657482936361431,1.5994478511460124
1773150807810820000,5.731820068359375,-0.4598429687576368,9.708404145303367,1.3060672546230256
1773150807820858400,5.7418583984375,-0.2894219950903207,9.752958157300949,0.9830658652096986
1773150807830895000,5.75189501953125,-0.08920206808731891,9.785054838785529,0.6443118300650268
1773150807840933000,5.76193310546875,0.13365862019294872,9.801028068464994,0.303911196757108
1773150807850971100,5.77197119140625,0.38741230412330474,9.798994516810774,0.002997234456190199
1773150807861008100,5.782008056640625,0.6722104753378778,9.78089421197474,-0.2294065388603136
1773150807871046400,5.79204638671875,0.947243660395965,9.753527481621504,-0.37659324233662334
1773150807881083100,5.802083251953125,1.1690049086675047,9.727261990508437,-0.42915988039802755
1773150807891121200,5.81212109375,1.319399322143942,9.710430098173022,-0.3703266562225297
1773150807901159200,5.8221591796875,1.392759449648112,9.70483914629817,-0.21612289532469584
1773150807911196200,5.832196044921875,1.4021873493373394,9.70588193334937,-0.01029477761767339
1773150807921234200,5.842234130859375,1.3693950868040323,9.708208914992213,0.21405637298263608
1773150807931271200,5.852271240234375,1.3217068684339524,9.708141694974898,0.4188825608052313
1773150807941309200,5.86230908203125,1.2801162362866103,9.704715812179446,0.59176992458608
1773150807951346200,5.87234619140625,1.2572690291844308,9.698209499025344,0.7310141080927103
1773150807961384200,5.88238427734375,1.2604827305339277,9.690687871348857,0.8198401733413339
1773150807971422200,5.892422119140625,1.2859002265155315,9.684925070038437,0.8479930856361985
1773150807981459200,5.902459228515625,1.327015934627503,9.682707393988967,0.8090801482655108
1773150807991497200,5.912497314453125,1.37438836504668,9.684608259174228,0.6998589452419429
1773150808001534200,5.9225341796875,1.4162984384067356,9.689073421889542,0.5350814938869327
1773150808011572200,5.932572265625,1.4414907473303378,9.693943073752521,0.3463483627311885
1773150808021609200,5.942609130859375,1.4403035833723843,9.69887000876069,0.16684092322345823
1773150808031647200,5.952647216796875,1.4074534531719982,9.70509925853908,0.02255432510282844
1773150808041685000,5.96268505859375,1.3429672447361052,9.714004449528455,-0.07027894822685048
1773150808051722200,5.97272216796875,1.2536033462837337,9.72559610312283,-0.10792266937931999
1773150808061759200,5.98275927734375,1.1507820003651081,9.738414668163657,-0.09668961083111352
1773150808071796500,5.99279638671875,1.0476945508562028,9.750423670387267,-0.044554180960939264
1773150808081834200,6.002834228515625,0.9580106997344642,9.759672560247779,0.0373722472673282
1773150808091872300,6.012872314453125,0.8902169011205434,9.76524539194405,0.1337962385653518
1773150808101909500,6.022909423828125,0.8453376026913523,9.7673905872792,0.23206417722962797
1773150808111947300,6.032947265625,0.8209495228227227,9.766931153073907,0.32169626163151116
1773150808121984300,6.042984375,0.8129969563830644,9.765005153447389,0.39257520331181583
1773150808132022300,6.053022216796875,0.8179983448669313,9.762717919293046,0.4365483832141384
1773150808142059300,6.063059326171875,0.8336305790890007,9.760861477771401,0.4483703384330496
1773150808152097300,6.07309716796875,0.8596026402134448,9.75964976389408,0.42510852264799176
1773150808162135300,6.08313525390625,0.8961335047531872,9.758489487943052,0.37310379278566685
1773150808172172300,6.09317236328125,0.9439549210488796,9.756225634664297,0.30883867975454776
1773150808182210300,6.103210205078125,1.005356826668605,9.751692082887887,0.25326224715160206
1773150808192247300,6.113247314453125,1.0756917611327022,9.744856683909893,0.22587980777258052
1773150808202285300,6.123285400390625,1.1479214963674544,9.7364512591362,0.2327720697706565
1773150808212322300,6.133322265625,1.2171369983475655,9.727278357121348,0.26268724249769
1773150808222360300,6.1433603515625,1.2804482447199523,9.717897365313767,0.30548040056889875
1773150808232398300,6.1533984375,1.3359436297096312,9.708734984692931,0.35509956873524934
1773150808242435300,6.163435302734375,1.3809209816858172,9.70047218326032,0.4053399558061734
1773150808252473300,6.173473388671875,1.4125998761497438,9.693994511678815,0.4487959069013595
1773150808262510300,6.18351025390625,1.4295027878947555,9.689987029603124,0.4806884441159665
1773150808272548000,6.193548095703125,1.4327002687618136,9.688584177067876,0.49911721372138707
1773150808282585300,6.20358544921875,1.4258109476394951,9.689224228537082,0.5063501971822232
1773150808292623400,6.213623291015625,1.4127378233157097,9.691079501014947,0.5074623962078243
1773150808302661400,6.223661376953125,1.3961338945172725,9.693487731200456,0.5074471255734563
1773150808312698400,6.233698486328125,1.377669724804908,9.69601754193902,0.5095748217845335
1773150808322736400,6.243736328125,1.3573428299605845,9.698621586957573,0.5145322249962017
1773150808332773000,6.253773193359375,1.3342166597865521,9.701692664965986,0.5171401790048927
1773150808342811400,6.263811279296875,1.3083411909043787,9.70545347880423,0.512644584618695
1773150808352849200,6.27384912109375,1.2822148160010576,9.709470897752047,0.5024743055969476
1773150808362886400,6.283886474609375,1.2579368454433977,9.713281980472802,0.49001825372558083
1773150808372924400,6.29392431640625,1.2356832203201948,9.716815999817848,0.47640181630533185
1773150808382961200,6.303961181640625,1.2144278855193407,9.720169986420869,0.4624418626770377
1773150808392999400,6.31399951171875,1.1921935496184974,9.723498254060745,0.45013628865964705
1773150808403036400,6.324036376953125,1.1685216551952062,9.726860423970223,0.43949459273386743
1773150808413074200,6.33407421875,1.144012360099703,9.730291567462682,0.4278345866110176
1773150808423112400,6.344112548828125,1.1197582818742842,9.733777656012773,0.4124353574272245
1773150808433149400,6.3541494140625,1.0966094614770263,9.737188925760984,0.3936578109167516
1773150808443187200,6.364187255859375,1.074691498048976,9.740411979460715,0.3738803666487336
1773150808453224400,6.374224365234375,1.053872581904009,9.743436295717954,0.3538151184152812
1773150808463262200,6.38426220703125,1.0344061763465404,9.746230894872546,0.3337171734886244
1773150808473299200,6.39429931640625,1.0171570815123616,9.74875895204544,0.31224739221949127
1773150808483337500,6.40433740234375,1.0039711444638668,9.75084803327918,0.2888337651398964
1773150808493375200,6.414375244140625,0.9960901819556951,9.752345578360558,0.2644805191226303
1773150808503412200,6.424412109375,0.9926571387670934,9.753308870434761,0.24083690094575286
1773150808513450500,6.434450439453125,0.9921269774131476,9.753903329196572,0.2178874207791872
1773150808523487200,6.4444873046875,0.9932030091468245,9.754257549461721,0.19594430464357138
1773150808533525200,6.454525146484375,0.9963520477622747,9.754323015913366,0.1756622718542814
1773150808543562500,6.4645625,1.0026454488180576,9.75398165512979,0.15790078878486527
1773150808553600300,6.474600341796875,1.010995490142703,9.753358554795383,0.14250029922574758
1773150808563638300,6.48463818359375,1.0185306348878889,9.752762342467904,0.1289637769076042
1773150808573675500,6.494675537109375,1.0222163376633078,9.752520350405574,0.11752977982666343
1773150808583713300,6.50471337890625,1.0202209260623902,9.752826639875769,0.10911339526753872
1773150808593750300,6.514750244140625,1.011163247925043,9.753816235435009,0.10500086364848539
1773150808603788300,6.524788330078125,0.9938415262460708,9.755586167716979,0.10591459922622888
1773150808613825300,6.5348251953125,0.9656538348987698,9.758339265817403,0.11263779740086756
1773150808623863300,6.54486328125,0.9249223037987947,9.762133397403359,0.12506972861113025
1773150808633901300,6.5549013671875,0.8730528542213142,9.766659350395201,0.1433292425968684
1773150808643938300,6.564938232421875,0.8137317734636366,9.771397484833,0.16736549508683382
1773150808653976300,6.574976318359375,0.750660765587911,9.775893042686581,0.19696539131961763
1773150808664013300,6.585013427734375,0.6854001387134194,9.779919813984632,0.23189976218184455
1773150808674051300,6.59505126953125,0.6163968912445008,9.783497087949513,0.27136202226467426
1773150808684088300,6.60508837890625,0.5392790186420082,9.786658182328939,0.3176486667411402
1773150808694126300,6.615126220703125,0.44950029231105,9.789212542986869,0.37368911839295177
1773150808704164400,6.625164306640625,0.3435195325134322,9.790504920884967,0.44540619139783083
1773150808714201000,6.635201171875,0.2201073801172897,9.789586052474379,0.534745430332981
1773150808724239400,6.6452392578125,0.0793976997685153,9.78518168003559,0.6436782814018428
1773150808734276400,6.6552763671875,-0.07517380302974488,9.776092364650964,0.7698989884126931
1773150808744314400,6.665314453125,-0.236581745985616,9.762068515473604,0.9035572980783879
1773150808754351400,6.675351318359375,-0.39874753527119755,9.74411317206621,1.0313293261844665
1773150808764389400,6.685389404296875,-0.5591148420337587,9.723668934452533,1.1436997139539569
1773150808774427400,6.695427490234375,-0.7234020256537944,9.700898299717903,1.2408254055142403
1773150808784464400,6.70546435546875,-0.9023706455770879,9.674452775862813,1.3270581663340328
1773150808794502100,6.715502197265625,-1.1028013018544762,9.64310662048459,1.4016807149894535
1773150808804539100,6.7255390625,-1.3218810559570788,9.607312253525853,1.4569088273450732
1773150808814577400,6.735577392578125,-1.5476538048923014,9.569301379561423,1.4844624585725366
1773150808824614400,6.745614501953125,-1.7666433234281838,9.53200654491186,1.479938405276835
1773150808834652400,6.75565234375,-1.9620678419813513,9.498706917378305,1.4474959790945052
1773150808844690400,6.7656904296875,-2.1192459242485464,9.471368244075775,1.4044120396494864
1773150808854727200,6.77572705078125,-2.2361650613635775,9.448629758045076,1.3759898088939486
1773150808864765400,6.785765380859375,-2.3231755285575986,9.42793885219395,1.3737532820135354
1773150808874802400,6.795802490234375,-2.393645779839158,9.407471233704685,1.3929657858751714
1773150808884840200,6.805840087890625,-2.4548124884635207,9.3867440874964,1.4259396885856985
1773150808894877200,6.815877197265625,-2.506968792158365,9.36671252233684,1.466355285604298
1773150808904915500,6.82591552734375,-2.5447981720760464,9.349836206337809,1.5082941466674207
1773150808914953200,6.835953125,-2.5624577474072576,9.338809200888871,1.5462303479604422
1773150808924990500,6.845990478515625,-2.5582506511062384,9.334824515166877,1.576957348527014
1773150808935028200,6.8560283203125,-2.531629478423297,9.338693465554714,1.5968812155283987
1773150808945065200,6.866065185546875,-2.485446111658215,9.349148224073648,1.6082146565780042
1773150808955103500,6.876103515625,-2.4231616510502993,9.36410146305561,1.6162531477354467
1773150808965140200,6.88614013671875,-2.347131865945458,9.382159097793698,1.6237148619182407
1773150808975178200,6.89617822265625,-2.260944697833061,9.402275418627262,1.6296448364891112
1773150808985216300,6.90621630859375,-2.16884845180735,9.42340880754888,1.6327398798950015
1773150808995253200,6.916253173828125,-2.0771442738391457,9.44413069306016,1.6322469818115233
1773150809005291300,6.926291259765625,-1.9921398857705295,9.463436866554618,1.626389487954974
1773150809015328500,6.93632861328125,-1.9199167994722723,9.48092400792837,1.6113303043805063
1773150809025366300,6.9463662109375,-1.8692274995900688,9.495814118546248,1.583001158735901
1773150809035403300,6.9564033203125,-1.8475544508337973,9.50685047634542,1.5416643552191556
1773150809045441300,6.966441162109375,-1.8542654927797615,9.513056345248222,1.494603328836709
1773150809055478300,6.976478271484375,-1.886570994709432,9.513037056025862,1.4537383806154132
1773150809065516800,6.986516845703125,-1.9411103941485284,9.505742807364463,1.4294441895753145
1773150809075554800,6.996554931640625,-2.0085500455625356,9.492532028135656,1.4240661497987805
1773150809085591800,7.006591796875,-2.0755646034322677,9.47637467406094,1.4355270166203378
1773150809095629800,7.0166298828125,-2.133041809888929,9.460080541864038,1.4585640472061931
1773150809105666800,7.026666748046875,-2.1822193900339304,9.443968780496716,1.489886091056466
1773150809115704800,7.036704833984375,-2.227232251714915,9.427000694561004,1.5301875601761041
1773150809125741800,7.046741943359375,-2.269288601677865,9.408520450496672,1.5812822259888053
1773150809135779800,7.05677978515625,-2.304653929569572,9.389322413551806,1.6430359407208859
1773150809145817900,7.06681787109375,-2.3280802517339585,9.37167219057083,1.709442157433927
1773150809155854600,7.0768544921875,-2.337294070281088,9.357397581502795,1.773850332197547
1773150809165892900,7.086892822265625,-2.3358887335278093,9.346021616485714,1.8346401703335344
1773150809175929900,7.096929931640625,-2.332965685687959,9.33450302812755,1.895976244175434
1773150809185967900,7.1069677734375,-2.3342326368838546,9.320402606582642,1.9626092553816734
1773150809196004900,7.1170048828125,-2.3363431992970405,9.303737887507676,2.037729524426162
1773150809206043000,7.12704296875,-2.3281623770594595,9.287202932292223,2.1208286633953453
1773150809216081000,7.137080810546875,-2.3021628434062005,9.272835384243725,2.210191392803937
1773150809226118000,7.147117919921875,-2.2617349714279174,9.261206321248412,2.298914070743322
1773150809236155600,7.15715576171875,-2.220081064786017,9.250924581208825,2.3794996194563804
1773150809246193000,7.16719287109375,-2.1943705772072075,9.23951822105348,2.4467181754656133
1773150809256231000,7.17723095703125,-2.1968493884108957,9.226181185096502,2.4943586091712118
1773150809266268000,7.187267822265625,-2.228764868109673,9.212954039254784,2.5148534079283476
1773150809276306000,7.197305908203125,-2.2806360712528226,9.20429200937152,2.500019703672826
1773150809286343000,7.207343017578125,-2.3362229339182377,9.199779500383139,2.4650533119708298
1773150809296380700,7.217380615234375,-2.383685088447481,9.197491681706905,2.4278745049163697
1773150809306419000,7.2274189453125,-2.420410891037434,9.196507346844673,2.395044832982123
1773150809316456000,7.2374560546875,-2.448717386458814,9.196125069528817,2.367581948778033
1773150809326493700,7.24749365234375,-2.4712340464323757,9.195981277143956,2.344635811346024
1773150809336531000,7.257531005859375,-2.4899615432560442,9.196115717178582,2.324206771301478
1773150809346568700,7.267568603515625,-2.5080001810327173,9.196254833388329,2.3041690686620773
1773150809356605700,7.277605712890625,-2.5306989195749163,9.195538794073462,2.2821105277195572
1773150809366644000,7.28764404296875,-2.56357243065089,9.192509217119216,2.257489442812651
1773150809376681700,7.297681640625,-2.613982475200295,9.184322403532265,2.2328690885581075
1773150809386718700,7.30771875,-2.687548354409635,9.168091399699449,2.2121403349146247
1773150809396757000,7.317757080078125,-2.7791899885356424,9.14300605828166,2.202710243268311
1773150809406793700,7.327793701171875,-2.876889607526362,9.109343442654609,2.2166966830447317
1773150809416831700,7.337831787109375,-2.972631370447576,9.064335257148743,2.2741319500558075
1773150809426869000,7.347868896484375,-3.0552447717264295,9.008211803388596,2.3849482402510938
1773150809436906800,7.35790673828125,-3.1064012507289647,8.949797608342767,2.534121879760921
1773150809446943700,7.36794384765625,-3.1214053431153297,8.896019256404042,2.6996377283930775
1773150809456982000,7.37798193359375,-3.113160954122245,8.845046609535812,2.8711946107551456
1773150809467019800,7.388019775390625,-3.1072233807668086,8.787858741414546,3.047800300939381
1773150809477056800,7.398056884765625,-3.139892601442337,8.710541108456253,3.230781663635373
1773150809487094800,7.4080947265625,-3.221138806021213,8.615041922119259,3.4023069818153977
1773150809497131800,7.4181318359375,-3.3139655582785603,8.525635791960358,3.5357504066213963
1773150809507169800,7.428169677734375,-3.3946079517453907,8.458568919381499,3.619342882065475
1773150809517206800,7.438206787109375,-3.463541787239909,8.405085166475176,3.6781548442572354
1773150809527244800,7.448244873046875,-3.5245509672150015,8.340796526437998,3.765508425800502
1773150809537281800,7.45828173828125,-3.5795202825039625,8.255137181591987,3.9000153881847854
1773150809547319800,7.46831982421875,-3.622332419270277,8.159789386424421,4.057944434949755
1773150809557357800,7.47835791015625,-3.657028761859238,8.071289265194535,4.201286153435706
1773150809567394800,7.488394775390625,-3.7033380930915474,7.99596952805519,4.303502957589924
1773150809577432800,7.498432861328125,-3.7802471452489494,7.926446494495869,4.364809366945922
1773150809587469800,7.5084697265625,-3.898306538440287,7.847567019048332,4.403328482693434
1773150809597507800,7.5185078125,-4.057180464839935,7.754511718732118,4.424617646698653
1773150809607544800,7.528544921875,-4.2441412525609135,7.656387444588542,4.420111275190115
1773150809617582800,7.538582763671875,-4.444960762025415,7.564003759923577,4.38161729388386
1773150809627619800,7.548619873046875,-4.6387297684565185,7.48052059007287,4.323700526966154
1773150809637657900,7.558657958984375,-4.804238018304109,7.401095755702257,4.279422409300506
1773150809647696000,7.56869580078125,-4.928938164684176,7.321467507714033,4.274582568053901
1773150809657732600,7.578732666015625,-5.012304430156946,7.246827569532394,4.304727823209762
1773150809667771000,7.58877099609375,-5.064380069831014,7.178992635190487,4.357122027313709
1773150809677807900,7.598807861328125,-5.091975932765007,7.113728428119421,4.431370335829258
1773150809687845600,7.608845703125,-5.099471841478348,7.045538104468584,4.530580651643872
1773150809697883000,7.6188828125,-5.08995699415803,6.970790029737353,4.655191073913872
1773150809707921000,7.6289208984375,-5.073404503285885,6.891640505176782,4.789180442164838
1773150809717959000,7.638958984375,-5.064781636369228,6.813249105507135,4.908970896932482
1773150809727996000,7.648995849609375,-5.075046425274015,6.7389382531493895,5.000099028578401
1773150809738033700,7.65903369140625,-5.106965996626019,6.666081691253185,5.064843011167645
1773150809748070700,7.669070556640625,-5.156439344847202,6.589288374429941,5.114957579901814
1773150809758109000,7.67910888671875,-5.21627100547552,6.510276212513446,5.1553094640344375
1773150809768146000,7.68914599609375,-5.280187889590859,6.433399893581867,5.186654450368881
1773150809778183700,7.69918359375,-5.347528318414092,6.360805197492241,5.207155971127748
1773150809788221000,7.709220947265625,-5.414511019840837,6.290729206225276,5.22304269156754
1773150809798258700,7.7192587890625,-5.474081983706355,6.218348445147275,5.247566307449341
1773150809808297000,7.729296875,-5.522605483856797,6.142889007276296,5.28546378416717
1773150809818334000,7.739333984375,-5.565474903768301,6.067389237394929,5.3275382543087
1773150809828371700,7.749371826171875,-5.610839647626877,5.990197276642919,5.367158317035436
1773150809838408700,7.75940869140625,-5.657881384786963,5.911553948038816,5.404840105175972
1773150809848446700,7.76944677734375,-5.704796280696987,5.834835450017452,5.438784460353851
1773150809858483700,7.779483642578125,-5.742696095502376,5.763395769181847,5.474951167756319
1773150809868522000,7.78952197265625,-5.765099065968394,5.696277458676695,5.521453975734114
1773150809878559000,7.79955908203125,-5.776537574827671,5.6308712127864355,5.576314862212539
1773150809888596700,7.8095966796875,-5.789338019689917,5.563398097494244,5.630501210430264
1773150809898635000,7.819635009765625,-5.8070355889439575,5.497212683925032,5.677092865735292
1773150809908671700,7.829671630859375,-5.831785999318957,5.4360383765161036,5.710529855912924
1773150809918709800,7.839709716796875,-5.85669598416984,5.378574029541015,5.739376595690846
1773150809928746800,7.849746826171875,-5.875208961459994,5.319371898987889,5.775516999608278
1773150809938784800,7.85978466796875,-5.890990467959642,5.255165092015266,5.818063178914785
1773150809948821800,7.86982177734375,-5.917341299268603,5.1913154279172415,5.84856470016241
1773150809958860000,7.879860107421875,-5.962727670437097,5.134276612877845,5.85281709690988
1773150809968896800,7.889896728515625,-6.0159817062407726,5.085957695388793,5.840495375475287
1773150809978934800,7.899934814453125,-6.066745678794383,5.046590146118402,5.822105147781968
1773150809988972800,7.909972900390625,-6.107948626798391,5.007566880241036,5.8127124655365945
1773150809999009800,7.920009765625,-6.1382572558224195,4.966534612628817,5.815988126206397
1773150810009047800,7.9300478515625,-6.165729200115799,4.924527362504601,5.822644661486149
1773150810019085000,7.9400849609375,-6.189181387373805,4.883026016075909,5.832707205817103
1773150810029122800,7.950122802734375,-6.2075914888113735,4.844027884639799,5.845646766889095
1773150810039159800,7.960159912109375,-6.226330091550946,4.804153847151994,5.858609124314785
1773150810049197800,7.97019775390625,-6.243766379520297,4.758631574644148,5.8771752930969
1773150810059234600,7.980234619140625,-6.261514217656851,4.70985789912492,5.897547049996256
1773150810069272800,7.99027294921875,-6.283343187627196,4.663216851720214,5.911377422428131
1773150810079309800,8.000309814453125,-6.3085384191602465,4.620772379222512,5.917869707056879
1773150810089347600,8.01034765625,-6.335927945867181,4.58354154971987,5.917563417586684
1773150810099385900,8.0203857421875,-6.364626217085123,4.550191361042857,5.912502627065777
1773150810109422600,8.030422607421874,-6.39732495611608,4.517740459293127,5.902088200557231
1773150810119460600,8.040460693359375,-6.433941160851717,4.486828895939886,5.885844337242841
1773150810129497900,8.050497802734375,-6.471342378485202,4.458985780246556,5.86596591681838
1773150810139535600,8.06053564453125,-6.504696951076388,4.435736129823327,5.846669095674157
1773150810149572600,8.070572509765626,-6.527400950315594,4.415671246916055,5.836546930110454
1773150810159610600,8.080610595703124,-6.5390118931323284,4.3981040260434145,5.836812887570262
1773150810169647600,8.090647705078124,-6.548997865095735,4.3798871090903875,5.83931464125812
1773150810179685600,8.100685546875,-6.5568193525016305,4.36359268463254,5.842735847878456
1773150810189723600,8.1107236328125,-6.558242663303017,4.351586020496487,5.850088548728824
1773150810199760600,8.1207607421875,-6.553787437459826,4.339851451300085,5.863782727560401
1773150810209798700,8.130798583984374,-6.545287904661893,4.326663176164031,5.882990116855502
1773150810219835600,8.140835693359374,-6.537139084997773,4.312077309189736,5.902727082982659
1773150810229873700,8.150873779296875,-6.54311289871037,4.296754360112548,5.907279923981428
1773150810239910700,8.16091064453125,-6.560938478258252,4.282980978564918,5.897502041810751
1773150810249948700,8.17094873046875,-6.58162353889048,4.272749507407844,5.8818567289114
1773150810259985700,8.180985595703126,-6.59598524172008,4.269858169880509,5.867850999912619
1773150810270023700,8.191023681640624,-6.600007921364903,4.272556030662358,5.8613598843276495
1773150810280061700,8.201061767578125,-6.600833850795031,4.276825086283684,5.857315577372908
1773150810290099700,8.211099609375,-6.594559592831135,4.284408381019532,5.85884117950499
1773150810300137700,8.2211376953125,-6.583613251402974,4.295070060287416,5.863343751621246
1773150810310175700,8.23117578125,-6.569585895094275,4.307869920627772,5.869682891514897
1773150810320212500,8.24121240234375,-6.554812688854336,4.321871557973325,5.875903957986831
1773150810330250800,8.251250732421875,-6.543845304638147,4.340850106948614,5.874137532836198
1773150810340287700,8.261287841796875,-6.531032584816217,4.365030900742114,5.870477256762981
1773150810350325500,8.271325439453125,-6.515891129785776,4.392501383730769,5.866811135470867
1773150810360362800,8.28136279296875,-6.507075955167412,4.417916980016232,5.857503793421388
1773150810370400800,8.29140087890625,-6.50169133951962,4.441980869431793,5.845272088357806
1773150810380437500,8.3014375,-6.486960218855738,4.473110459449887,5.837895422109961
1773150810390475800,8.311475830078125,-6.463133937588334,4.510820304641127,5.83530540561676
1773150810400513500,8.321513427734375,-6.434542049354315,4.551242623661458,5.835515248975158
1773150810410550500,8.331550537109376,-6.395428182584047,4.594898517775535,5.8442959368020295
1773150810420588800,8.3415888671875,-6.352056658369302,4.640191073180735,5.855798743069172
1773150810430625800,8.351625732421875,-6.316206177309155,4.686170441806316,5.85796381214857
1773150810440663600,8.36166357421875,-6.28378216356635,4.73512911850363,5.853462409076094
1773150810450700800,8.37170068359375,-6.2414861596286295,4.791030453945696,5.853226262232661
1773150810460738600,8.381738525390626,-6.185783561629057,4.853687985649705,5.860732692340016
1773150810470775600,8.391775634765626,-6.1334641763269895,4.915377256843447,5.8643052901297805
1773150810480813800,8.401813720703124,-6.09039952610433,4.976353411331773,5.857756891399622
1773150810490850600,8.4118505859375,-6.049507543745636,5.039644857025146,5.846008585938811
1773150810500888600,8.421888671875,-6.006404899600148,5.1054088303118945,5.833377067902684
1773150810510926800,8.4319267578125,-5.963166646376252,5.173054379561544,5.818121046581864
1773150810520963600,8.441963623046876,-5.917418456158042,5.242451156392693,5.8026931758254765
1773150810531001900,8.452001953125,-5.873330308106541,5.311419478678703,5.784739001461864
1773150810541038800,8.462038818359375,-5.829201243522763,5.381314852681756,5.764741923093795
1773150810551076600,8.47207666015625,-5.776096260800958,5.45564557878375,5.748306336599588
1773150810561113600,8.482113525390625,-5.7135407281666994,5.5354433381199835,5.73451921878755
1773150810571151600,8.492151611328126,-5.648419144436716,5.616096837502718,5.720595322853327
1773150810581188600,8.502188720703124,-5.580847829467058,5.696398454707861,5.707501448002457
1773150810591226600,8.5122265625,-5.514377169215678,5.774429788893461,5.693679843398928
1773150810601264600,8.5222646484375,-5.450249272698164,5.85080224995613,5.677437149128317
1773150810611301600,8.532301513671875,-5.381472673591971,5.930023670709133,5.660825037023425
1773150810621340000,8.54233984375,-5.31205953014791,6.00968289835751,5.642350638177991
1773150810631376600,8.552376708984376,-5.249137502288818,6.08728519347608,5.617997702687979
1773150810641414700,8.56241455078125,-5.191141824916005,6.163671098542213,5.588523770922422
1773150810651451600,8.57245166015625,-5.130888139483332,6.24191344512999,5.557237236776948
1773150810661489700,8.58248974609375,-5.0639066071003676,6.3223231988847255,5.527700176647305
1773150810671526700,8.592526611328125,-4.9870682820916175,6.404926078769564,5.502404991871118
1773150810681564700,8.602564697265626,-4.910570733344555,6.486249440237879,5.475879388517141
1773150810691601700,8.6126015625,-4.840377545438707,6.565242897453904,5.444146279647946
1773150810701639700,8.6226396484375,-4.776435819143057,6.64399143999815,5.404943565550446
1773150810711677700,8.632677734375,-4.711894081127643,6.724404116362333,5.361980037614702
1773150810721714700,8.642714599609375,-4.642236023011804,6.803817844817042,5.322413166379929
1773150810731752700,8.652752685546876,-4.569351988586783,6.881539382401108,5.285435142594576
1773150810741789700,8.662789794921874,-4.497077610492706,6.957966788521409,5.247225531187653
1773150810751827700,8.67282763671875,-4.429146522299945,7.033602752003073,5.2039872779637575
1773150810761864700,8.68286474609375,-4.359370098501444,7.112145542842149,5.155936071500181
1773150810771902700,8.69290283203125,-4.284997579084337,7.194451485607027,5.103827114078403
1773150810781939700,8.702939697265625,-4.205139029471576,7.280322427377104,5.048177123048902
1773150810791977700,8.712977783203126,-4.120094309392571,7.36835902274847,4.9902416514307255
1773150810802015700,8.723015625,-4.030082614555955,7.457785026651621,4.930543846315145
1773150810812052700,8.733052734375,-3.9378468139290805,7.5479223936945194,4.867504037295282
1773150810822090800,8.7430908203125,-3.847794787082076,7.637451857972144,4.799395838969946
1773150810832127500,8.75312744140625,-3.7578532348722216,7.727752891144156,4.7255417904689905
1773150810842165800,8.763165771484376,-3.665857672742009,7.820559185135364,4.644429733663797
1773150810852202800,8.77320263671875,-3.568888413852453,7.918167326450347,4.553684463855624
1773150810862240800,8.78324072265625,-3.4691476444229483,8.0207930036664,4.449973914012313
1773150810872277800,8.79327783203125,-3.3677801505744456,8.127777460613846,4.33216644975543
1773150810882315500,8.8033154296875,-3.2594872413769362,8.239549736359715,4.2018966865494844
1773150810892352500,8.8133525390625,-3.141369688257575,8.35421831806898,4.063153986291587
1773150810902390800,8.823390869140624,-3.0123215758010744,8.469348087549209,3.9200080826386805
1773150810912428500,8.833428466796875,-2.8704379471689463,8.584667242121697,3.772858496302366
1773150810922465800,8.8434658203125,-2.7196193169310687,8.698359087753296,3.6211335648745298
1773150810932503800,8.85350390625,-2.57085411209166,8.806827061256765,3.464232107591629
1773150810942540500,8.86354052734375,-2.44139508074671,8.905679065153002,3.301340762244165
1773150810952578800,8.873578857421874,-2.3555722159020602,8.990698358529805,3.128739339265227
1773150810962615800,8.88361572265625,-2.3361425621584058,9.059697660475969,2.9384897391319273
1773150810972653600,8.893653564453125,-2.3839127597235144,9.115171710416675,2.7204800254136323
1773150810982690600,8.903690673828125,-2.474557053375244,9.161670426741242,2.4719912945404645
1773150810992728800,8.913728759765625,-2.5761615708500147,9.203592921191454,2.19719177210778
1773150811002766600,8.9237666015625,-2.660541105018556,9.242886236181855,1.9133628477841615
1773150811012803800,8.933803955078124,-2.7139126297220586,9.277595730513333,1.6526565865032374
1773150811022841600,8.943841552734375,-2.732086584316194,9.3053914999336,1.4545688400901853
1773150811032878600,8.953878662109375,-2.710834245190024,9.327247942432761,1.350629888318479
1773150811042916900,8.963916748046875,-2.643874924638867,9.34817441060543,1.3386376910991966
1773150811052953600,8.97395361328125,-2.5386206524848935,9.369190310627221,1.3943002493493257
1773150811062988000,8.983988037109375,-2.4223098565265535,9.385653369650244,1.4873912055008112
1773150811073025000,8.99402490234375,-2.3353911592692134,9.393482455840706,1.5744263687446713
1773150811083063000,9.00406298828125,-2.3157225822031497,9.38984088446796,1.6244121965326368
1773150811093100000,9.01410009765625,-2.3607424581468104,9.374567912012338,1.6476484029524028
1773150811103138000,9.024137939453125,-2.437037323928624,9.351563468521833,1.6671856087237595
1773150811113176000,9.034176025390625,-2.5152520518571135,9.325463981625438,1.6969446410410105
1773150811123213000,9.044213134765625,-2.579204884068668,9.300457550662756,1.7376958997547625
1773150811133251000,9.0542509765625,-2.6196269108280537,9.279211933538317,1.7900205457538365
1773150811143288000,9.0642880859375,-2.6298160041481253,9.26313290539682,1.8571037849456071
1773150811153326000,9.074326171875,-2.602038939428329,9.253781139683722,1.9409572494134306
1773150811163363000,9.084363037109375,-2.5305247320517896,9.253055748018621,2.03660943435505
1773150811173401000,9.094401123046875,-2.415979922852665,9.263107186433672,2.1279770738452672
1773150811183438000,9.10443798828125,-2.2679843872115013,9.286496829849481,2.1880625631041823
1773150811193475800,9.114475830078124,-2.100307561153173,9.322726081094146,2.20133676295802
1773150811203513000,9.12451318359375,-1.9220146485343574,9.370183997839689,2.162382909055054
1773150811213551000,9.134551025390625,-1.738944730772078,9.42654067583382,2.0704602660305795
1773150811223589000,9.144589111328125,-1.5565499357923864,9.487987370443344,1.9301948862500489
1773150811233626000,9.154626220703125,-1.3859899555131792,9.547651273289322,1.7583477887697516
1773150811243664100,9.1646640625,-1.25771794199571,9.596820670127869,1.5778345697529612
1773150811253700900,9.174700927734374,-1.1866006249822676,9.635652212825416,1.3844080931492149
1773150811263739100,9.1847392578125,-1.154104861177504,9.66673357978761,1.1801172543123364
1773150811273776000,9.194776123046875,-1.1307288809608667,9.692019412213563,0.9780507404614239
1773150811283814000,9.20481396484375,-1.09349929356724,9.713786422863603,0.7854773004904388
1773150811293851100,9.21485107421875,-1.0224733811642974,9.734560915344954,0.6026951866935938
1773150811303889200,9.22488916015625,-0.9120007898401469,9.754732181236147,0.4287842154860496
1773150811313927200,9.23492724609375,-0.7734236554075032,9.77264953072071,0.2598749798222445
1773150811323964200,9.244964111328125,-0.6220996329307555,9.786424373573064,0.09631671326495707
1773150811334002000,9.255001953125,-0.46901082927118987,9.795248900541663,-0.05910703158162068
1773150811344039000,9.265038818359375,-0.3157384126730263,9.799417126137017,-0.20519383382489903
1773150811354077200,9.2750771484375,-0.15720902539473025,9.7993557513386,-0.34393750219717617
1773150811364114000,9.285114013671874,0.01532141470722854,9.794865454182029,-0.48039435654021795
1773150811374152000,9.29515185546875,0.211189859369304,9.785006907990574,-0.6159961284238845
1773150811384189200,9.305189208984375,0.43345344940610225,9.76927450132966,-0.7374073162611573
1773150811394227000,9.31522705078125,0.67444451800026,9.74769629124999,-0.8354123479392379
1773150811404264000,9.325263916015626,0.922623598402366,9.72065455506742,-0.9099686994906514
1773150811414302200,9.33530224609375,1.1597701203975825,9.689287356901168,-0.9710863082762807
1773150811424340000,9.345340087890625,1.3653861434236167,9.655579148566723,-1.037246879665181
1773150811434377000,9.355376953125,1.5100202398076652,9.624223640838265,-1.1245321452125907
1773150811444415000,9.3654150390625,1.5677081664055585,9.599812253159284,-1.247507952018082
1773150811454452000,9.375451904296876,1.5475300323821604,9.583118307989835,-1.392614926610887
1773150811464490200,9.385490234375,1.4804396327972411,9.57253612369895,-1.531419878450036
1773150811474527200,9.39552734375,1.3967454505443573,9.567453121346235,-1.6380857709676027
1773150811484565000,9.40556494140625,1.3161859130553901,9.567261398166417,-1.7045611073940992
1773150811494602000,9.41560205078125,1.2502800470799207,9.569910451370477,-1.738961389645934
1773150811504640000,9.425639892578126,1.2091370125696062,9.5721819034338,-1.7554739868991076
1773150811514677000,9.435677001953126,1.2057809801399708,9.571889642488955,-1.7593810773402452
1773150811524715000,9.445715087890624,1.241326486904174,9.570285714423656,-1.743310817027092
1773150811534752300,9.455752197265625,1.3040610293671488,9.569341127049922,-1.7022146903984248
1773150811544790000,9.4657900390625,1.3807836190417409,9.56984849205017,-1.6376269212841987
1773150811554828300,9.475828369140626,1.4588526548892258,9.572125204810499,-1.5545336275339126
1773150811564865000,9.485864990234376,1.523084157911688,9.577162029933929,-1.458963567917794
1773150811574903000,9.495903076171874,1.5554529343359171,9.586696166476607,-1.3587472899310291
1773150811584940000,9.50593994140625,1.540451180037111,9.602528526380658,-1.2604822921425103
1773150811594978000,9.51597802734375,1.470192525679618,9.625420157146454,-1.1662700038108973
1773150811605015000,9.52601513671875,1.3528054787918924,9.654326518157124,-1.065032931409031
1773150811615053000,9.536052978515626,1.2146859519336373,9.684856680977344,-0.9478726059492677
1773150811625090000,9.546090087890626,1.0865019820258022,9.71220470663011,-0.8142248176775873
1773150811635128000,9.556128173828125,0.9898653160914778,9.733250417268275,-0.6740897862784564
1773150811645165000,9.5661650390625,0.933972090890631,9.746659349417685,-0.5483789650185034
1773150811655203000,9.576203125,0.9163331199560314,9.753138190042971,-0.45499121787752955
1773150811665241000,9.586240966796876,0.9274614668875932,9.754414785850047,-0.40199491969458756
1773150811675277800,9.59627783203125,0.955371802598238,9.752126967173814,-0.39197457053754475
1773150811685316000,9.606316162109374,0.9908234935991466,9.747448453968763,-0.41938568802177906
1773150811695353000,9.61635302734375,1.0270007954608649,9.741288762295246,-0.47217521158624437
1773150811705391000,9.62639111328125,1.0629429003272204,9.734116094186902,-0.5362184985602274
1773150811715428000,9.636427978515625,1.1015479407925157,9.72604267784655,-0.6008871143583208
1773150811725466000,9.646466064453126,1.1468893037755041,9.717164374864101,-0.65707647296153
1773150811735502800,9.6565029296875,1.2024825961817056,9.707650112065672,-0.6971059932719915
1773150811745541000,9.666541015625,1.262763973338902,9.698352122366428,-0.7195756722986698
1773150811755578000,9.676578125,1.310038057950139,9.691106973543762,-0.7325425597690045
1773150811765616000,9.6866162109375,1.3284516665190458,9.687749479809403,-0.7437136498637497
1773150811775653000,9.696653076171875,1.3128123449690638,9.689110831290483,-0.7536741951249539
1773150811785691100,9.706691162109376,1.2696360510654747,9.694529933729767,-0.7579653164476156
1773150811795729200,9.716729248046875,1.2132943514447658,9.702183663353324,-0.7522866862893104
1773150811805766100,9.72676611328125,1.1631443460710347,9.709435826438664,-0.7378074214946478
1773150811815804000,9.736803955078125,1.1335028757188468,9.714283266469836,-0.7199116262547671
1773150811825841000,9.7468408203125,1.1288086534880102,9.71621277322769,-0.7010091381903737
1773150811835879200,9.756879150390626,1.145650994152203,9.715915251585841,-0.6773937962599098
1773150811845916200,9.766916259765624,1.1757090094160287,9.71433119726479,-0.6479902993820608
1773150811855954200,9.7769541015625,1.2069927670825271,9.712557757851481,-0.6162804252579808
1773150811865991200,9.7869912109375,1.2267881123334168,9.71192355160117,-0.5864383177671582
1773150811876029000,9.79702880859375,1.221423589625582,9.714244103503226,-0.5585644050767645
1773150811886066000,9.80706591796875,1.1794746455598621,9.721105221444368,-0.5285255329048261
1773150811896104200,9.817104248046874,1.0965904645156115,9.732805011588335,-0.4902686482900753
1773150811906141000,9.827140869140624,0.9764278154347091,9.747986214107275,-0.4401359228447079
1773150811916179200,9.83717919921875,0.8261861083019524,9.764512986016273,-0.3769365028163418
1773150811926217000,9.847217041015625,0.6541691341474651,9.780193954750896,-0.3004473017725162
1773150811936254000,9.85725390625,0.46945864610392596,9.793099029031396,-0.21254859876818955
1773150811946292200,9.867292236328124,0.27656169153330845,9.802100081610678,-0.11283442508466542
1773150811956329200,9.8773291015625,0.07259778766243252,9.806379950886964,0.006313867313432274
1773150811966367000,9.887366943359375,-0.14532534831753,9.804472071439028,0.14691795127121732
1773150811976404000,9.897404052734375,-0.3739768127605319,9.794742704585193,0.30586423052102324
1773150811986442000,9.90744189453125,-0.6000074819795786,9.776787945699692,0.4741354057433083
1773150811996479000,9.91747900390625,-0.8107768691807985,9.751697343584894,0.6460829313907772
1773150812006517200,9.927517333984374,-1.0087846822254358,9.719695939168334,0.8247605324782431
1773150812016554200,9.93755419921875,-1.2096878513853997,9.67945686776042,1.0075527292776851
1773150812026592000,9.947592041015625,-1.414882872520387,9.632598670473694,1.1753924908127635
1773150812036630300,9.95763037109375,-1.6138954786933957,9.584853168958425,1.3024344510786234
1773150812046667000,9.9676669921875,-1.8091523855946956,9.53931716018617,1.3779578940965234
1773150812056704500,9.97770458984375,-2.0069749052003023,9.495607782319187,1.4056513721860944
1773150812066741500,9.987741455078124,-2.206644221716374,9.452982692557573,1.393628341437131
1773150812076779500,9.997779541015625,-2.402409662661701,9.410251219812036,1.358669256258756
1773150812086816500,10.00781640625,-2.5826307668641206,9.366830011236667,1.3277439566411078
1773150812096854500,10.0178544921875,-2.739398953156173,9.322124608069657,1.328181763536483
1773150812106891500,10.0278916015625,-2.865809702846408,9.276908332771063,1.3771274346217512
1773150812116929500,10.037929443359374,-2.9526743318289514,9.234078660348057,1.4777943789854644
1773150812126966500,10.047966552734374,-2.9923771044030785,9.197505125710368,1.6192502837248146
1773150812137004500,10.058004638671875,-2.9841467439353466,9.170488523969054,1.7797114793159066
1773150812147041500,10.06804150390625,-2.936201920455694,9.154033063730598,1.9372091489262877
1773150812157079600,10.07807958984375,-2.8623654076114295,9.146374073410033,2.078723651985079
1773150812167116500,10.088116455078126,-2.77477451018095,9.146407975679635,2.1941383758865296
1773150812177154600,10.098154541015624,-2.6849375873893497,9.153027101558447,2.276751484904438
1773150812187192600,10.108192626953125,-2.6012550955742597,9.165240101921558,2.324266830925643
1773150812197229600,10.1182294921875,-2.527618489216268,9.182554809337853,2.3371406332850455
1773150812207267600,10.128267578125,-2.46459592359215,9.204784176802635,2.3169154452495277
1773150812217304600,10.1383046875,-2.4114437407277522,9.231246651792526,2.267024456138164
1773150812227342600,10.148342529296874,-2.3670601168610155,9.260290959969163,2.1941813382454214
1773150812237379600,10.158379638671875,-2.3317741378158328,9.28974560251236,2.1056715724043547
1773150812247417300,10.168417236328125,-2.306245290414244,9.317847661402821,2.0073253260731696
1773150812257454600,10.17845458984375,-2.2925312378384173,9.342789210435747,1.9044588258385657
1773150812267492600,10.18849267578125,-2.2931690973505376,9.3622374227494,1.805623334685713
1773150812277529600,10.198529541015626,-2.3090599094435573,9.374064638665319,1.7220706067301332
1773150812287567600,10.208567626953124,-2.3374127282246944,9.377555403390526,1.6638307453379033
1773150812297604600,10.2186044921875,-2.373601939719915,9.37257060071528,1.6405268805094062
1773150812307642400,10.228642333984375,-2.4135832369744774,9.359507121002673,1.6566944637171923
1773150812317680600,10.2386806640625,-2.4530770429730415,9.3407913146168,1.7036477919414639
1773150812327717600,10.248717529296876,-2.4897204279765486,9.319368002837896,1.7666487302556633
1773150812337755600,10.258755615234374,-2.5247414724752306,9.296946327671408,1.8338053269445895
1773150812347792600,10.268792724609375,-2.5595743009254335,9.274621098616718,1.8974629756018517
1773150812357830400,10.278830322265625,-2.5959824158683418,9.252456028559804,1.9553288891151546
1773150812367867400,10.288867431640625,-2.6313264087110757,9.231154881855845,2.0080555400438604
1773150812377905700,10.29890576171875,-2.6586308874830604,9.21221695715189,2.058427298409492
1773150812387942700,10.308942626953124,-2.6732515335097906,9.19608123038709,2.110975816292316
1773150812397980400,10.31898046875,-2.6779090039268136,9.180708304688334,2.171121657436341
1773150812408017700,10.329017578125,-2.681602890008688,9.162775173112749,2.2411910728320477
1773150812418055400,10.339055419921875,-2.6942154110834,9.139315971592069,2.320450049116462
1773150812428092400,10.349092529296875,-2.721227921171486,9.108570704716444,2.408162965491414
1773150812438130700,10.359130615234376,-2.757804670679569,9.071167148995398,2.505759708629548
1773150812448167700,10.369167724609374,-2.7855007791176436,9.03272431335449,2.6117572003662586
1773150812458205400,10.379205322265625,-2.7881825655475256,9.000110914519428,2.719270065101981
1773150812468242700,10.38924267578125,-2.7612369832158086,8.978007219260931,2.818038774628937
1773150812478280400,10.399280517578125,-2.710435893522203,8.958819703710079,2.9263389903500676
1773150812488318700,10.409318603515626,-2.6783839279621837,8.917496928718686,3.0781314340561625
1773150812498355700,10.419355712890624,-2.703199512527883,8.838736695736646,3.2771687362790107
1773150812508393500,10.4293935546875,-2.783409944318235,8.724512350663542,3.5079765567719936
1773150812518430500,10.439430419921875,-2.9075150474146008,8.58575971353352,3.7418531171858307
1773150812528468700,10.44946875,-3.0846482686042784,8.426829965293408,3.9552325407549738
1773150812538505500,10.45950537109375,-3.3389263965338465,8.244307744541764,4.129568240180611
1773150812548543500,10.46954345703125,-3.6650069011315702,8.062003550454973,4.212148615972698
1773150812558580700,10.479580810546874,-4.017717053979635,7.905463327699899,4.187119973178207
1773150812568618500,10.489618408203125,-4.346931180427968,7.78779965582788,4.0773447164684535
1773150812578655500,10.499655517578125,-4.6101522010087965,7.710179825052618,3.9331925583824514
1773150812588693500,10.509693603515625,-4.778647357712686,7.658757096329331,3.831233236120641
1773150812598730500,10.51973046875,-4.863276774989068,7.607512646782398,3.826835293422639
1773150812608768500,10.5297685546875,-4.8992868305251,7.542695014435052,3.9083410257205364
1773150812618805800,10.5398056640625,-4.917880179575086,7.465041865912079,4.032120842385292
1773150812628843500,10.549843505859375,-4.921790046495199,7.3843024418115615,4.173542114202678
1773150812638880500,10.559880615234375,-4.901860772666335,7.312338444840908,4.321093559338152
1773150812648918500,10.56991845703125,-4.856338500158489,7.25022890240848,4.474431478920579
1773150812658956500,10.57995654296875,-4.789877776779234,7.189694061946868,4.640664243650436
1773150812668993500,10.58999365234375,-4.7215419071778655,7.121112693151831,4.813231179837882
1773150812679031600,10.600031494140625,-4.6823777715250845,7.033506890413165,4.977499074235558
1773150812689068500,10.610068603515625,-4.714558624161779,6.925615840014815,5.096976517531275
1773150812699106600,10.6201064453125,-4.848504445531964,6.809172649848461,5.12811399859488
1773150812709143600,10.6301435546875,-5.064295314157008,6.688888566344976,5.077603708541393
1773150812719181600,10.640181640625,-5.301952562153339,6.566040769833326,4.994676419007778
1773150812729218600,10.650218505859375,-5.5068485272765155,6.447395101186633,4.927077631509304
1773150812739256600,10.660256591796875,-5.664596956777572,6.338992594134807,4.888753746072948
1773150812749293600,10.67029345703125,-5.791559202870726,6.240734464478493,4.866360127957165
1773150812759331600,10.68033154296875,-5.89962970148921,6.147194595515727,4.855590896661579
1773150812769368600,10.69036865234375,-5.98178366856277,6.0533805857867,4.872906773121655
1773150812779406600,10.700406494140625,-6.027275253671407,5.961856148299574,4.929360774010419
1773150812789443600,10.710443603515625,-6.043789166098833,5.87527325886786,5.012401460790634
1773150812799481600,10.720481689453125,-6.046454585915804,5.791287984713912,5.10605063534677
1773150812809518600,10.7305185546875,-6.044043433120846,5.711117300412059,5.198371191647649
1773150812819556400,10.740556396484376,-6.042215633171796,5.632698428213596,5.285332266741991
1773150812829593600,10.750593505859374,-6.048775722339749,5.556700061160326,5.357778494271636
1773150812839631600,10.760631591796875,-6.072529522892832,5.481967768520117,5.407661007815599
1773150812849669400,10.77066943359375,-6.113989076006412,5.404231617888808,5.439098933130502
1773150812859706600,10.78070654296875,-6.170306591033935,5.321842088493704,5.456711162188649
1773150812869744600,10.79074462890625,-6.235608792027831,5.236038951262832,5.465480744099617
1773150812879781400,10.800781494140624,-6.301384455752372,5.145473714196681,5.4760430546462535
1773150812889819600,10.810819580078125,-6.366008611354231,5.051868378782272,5.488439010360836
1773150812899856600,10.820856689453125,-6.429166786056757,4.960120653933286,5.4984910332977766
1773150812909894400,10.830894287109375,-6.48639673975408,4.8748108531773084,5.507564566591381
1773150812919931600,10.840931640625,-6.529634992977976,4.799850889261067,5.522289257514476
1773150812929969700,10.8509697265625,-6.555022532212734,4.739301143491268,5.5444642644435165
1773150812940006400,10.86100634765625,-6.565749677932262,4.6935953311100596,5.570590054824948
1773150812950044700,10.871044677734375,-6.576174625834822,4.653190547746419,5.592148391160369
1773150812960081700,10.88108154296875,-6.5861553371012205,4.613270040768385,5.613437262904644
1773150812970119400,10.891119384765625,-6.598271891352534,4.57160444368869,5.633261322793365
1773150812980156700,10.90115673828125,-6.619692865043878,4.523288156548142,5.6471162451446055
1773150812990194400,10.9111943359375,-6.654020082059502,4.465714503979683,5.652593215250969
1773150813000231400,10.9212314453125,-6.693744189682603,4.40192650694102,5.65572449901402
1773150813010269700,10.931269775390625,-6.729715082252025,4.336142367649078,5.663849353280663
1773150813020306700,10.941306640625,-6.760370332756638,4.276972970321774,5.672325505203008
1773150813030344400,10.951344482421876,-6.790497175472974,4.223461160364747,5.676434109565616
1773150813040381700,10.961381591796876,-6.814762432679534,4.176401595287024,5.682170607391
1773150813050419500,10.97141943359375,-6.8388663618445396,4.135276388694345,5.68328879776597
1773150813060457700,10.981457763671875,-6.859336318421364,4.099546026882529,5.684506941384076
1773150813070495000,10.991494873046875,-6.871657455334067,4.0709471243858335,5.690175634670258
1773150813080532700,11.00153271484375,-6.8820216129600995,4.048379611007869,5.693749401503801
1773150813090569700,11.01156982421875,-6.889236366644501,4.0268268276304005,5.700304814496636
1773150813100608000,11.02160791015625,-6.894650792908668,4.005506683965027,5.708773367634415
1773150813110644700,11.031644775390625,-6.902499752843379,3.9835383055239912,5.714657164976001
1773150813120682800,11.041682861328125,-6.9174851405292745,3.9520030573144553,5.718430838295817
1773150813130720000,11.051719970703125,-6.943432651734351,3.912364874409139,5.714239231824875
1773150813140757800,11.0617578125,-6.983281262519955,3.8695793333888053,5.694781082639098
1773150813150794800,11.071794677734376,-7.034819142055511,3.823021288092434,5.662702521333098
1773150813160832800,11.081832763671875,-7.089338083228468,3.772442608977854,5.628530202618241
1773150813170869800,11.091869873046875,-7.137800208580494,3.722149176545441,5.600695270231366
1773150813180907800,11.10190771484375,-7.176539981341362,3.6750630157217383,5.582254189133644
1773150813190945000,11.111945068359375,-7.20017278586328,3.633628012527525,5.578946379759907
1773150813200982800,11.121982666015626,-7.226774961584806,3.593925824475288,5.570260969001055
1773150813211019800,11.132019775390624,-7.259966452568769,3.554930323387682,5.5520934441477054
1773150813221057800,11.142057861328125,-7.286118546435237,3.5242151593893762,5.5373979793190955
1773150813231094800,11.1520947265625,-7.305765496191382,3.4985695537403223,5.52776505857706
1773150813241132800,11.1621328125,-7.320218968957662,3.4771707918807864,5.5221437115639445
1773150813251169800,11.172169677734376,-7.327585113811493,3.4618154018387197,5.522021546489
1773150813261207800,11.182207763671874,-7.3275611484140155,3.4519945573091504,5.528197020253539
1773150813271244800,11.192244873046874,-7.321744571089744,3.4479388521775602,5.5384255688011645
1773150813281282800,11.20228271484375,-7.319969378110766,3.4443905120462177,5.542978409799933
1773150813291319800,11.21231982421875,-7.323851187980175,3.440383906753361,5.540338124424219
1773150813301357800,11.22235791015625,-7.327018127578497,3.4339632260560986,5.5401347108066075
1773150813311395800,11.232395751953124,-7.327709616973996,3.426735320629179,5.5436938645929095
1773150813321432800,11.242432861328124,-7.325866619455814,3.4263615188807246,5.54635928440988
1773150813331470800,11.252470947265625,-7.319148709377646,3.434794708444178,5.5500125462204215
1773150813341507800,11.2625078125,-7.3090136843323705,3.448944522088766,5.5545916907042265
1773150813351545900,11.2725458984375,-7.297065472385287,3.466488362085819,5.55937775593698
1773150813361582800,11.282582763671876,-7.282916535523533,3.486683301113546,5.565299547201395
1773150813371620900,11.292620849609374,-7.271065938732027,3.5078906320542096,5.567467538890242
1773150813381657900,11.302657958984375,-7.258785718351602,3.533980474339425,5.5669911535501475
1773150813391695600,11.312695556640625,-7.237913026192784,3.5708515306189654,5.570639154663682
1773150813401732900,11.32273291015625,-7.217414428043365,3.6125510299682615,5.570349231806397
1773150813411771000,11.33277099609375,-7.200220716658234,3.6563711747333407,5.564005415737628
1773150813421807900,11.342807861328126,-7.175882394215464,3.7057284953594207,5.562794286382198
1773150813431846000,11.352845947265624,-7.1389657452285284,3.767534670931101,5.5687739453136915
1773150813441883000,11.3628828125,-7.090573762503266,3.8381253337219357,5.582378692296147
1773150813451920600,11.372920654296875,-7.0367007180184125,3.9102608878672123,5.600454447212815
1773150813461958000,11.3829580078125,-6.9824553330898285,3.979866631273925,5.619285404410958
1773150813471996000,11.392995849609376,-6.932651145479083,4.048263291151821,5.6320770814448595
1773150813482033000,11.403032958984374,-6.883820186814665,4.115392707572878,5.643309838598967
1773150813492071000,11.41307080078125,-6.833263135010004,4.182266395667195,5.655576614975929
1773150813502108000,11.42310791015625,-6.781205615514517,4.249148559328914,5.668366538444161
1773150813512145700,11.433145751953125,-6.724847183954715,4.318878805898129,5.682789616072178
1773150813522182700,11.4431826171875,-6.668872198754548,4.391610572370887,5.693003551572561
1773150813532221000,11.453220947265624,-6.627036798065901,4.4619873001500965,5.6871285220593215
1773150813542257700,11.463257568359374,-6.598388211208581,4.529693347415328,5.666880683800578
1773150813552296000,11.4732958984375,-6.570642126148939,4.598796694257855,5.6434144680172205
1773150813562333000,11.4833330078125,-6.5343216894894836,4.673675409631431,5.624035813808441
1773150813572370700,11.49337060546875,-6.489394168004393,4.75368593493551,5.608976191842555
1773150813582409000,11.503408935546876,-6.440884111857414,4.835976095609366,5.594526810729503
1773150813592446000,11.513446044921874,-6.391408425548672,4.91878501946032,5.579052762743831
1773150813602483700,11.523483642578125,-6.336262292388081,5.003738261863589,5.566397279310226
1773150813612520700,11.533520751953125,-6.268477626928687,5.093808408889174,5.56144696342647
1773150813622558700,11.543558837890625,-6.189708041596412,5.1869285911351435,5.563602095633745
1773150813632595700,11.553595703125,-6.105153443121909,5.280566659775376,5.568940534052253
1773150813642634000,11.563634033203124,-6.019976913356781,5.374577653381228,5.571730457031727
1773150813652671000,11.5736708984375,-5.934534426131844,5.469343849268555,5.571172823148966
1773150813662708700,11.583708740234375,-5.84602962872684,5.566951990583538,5.568066089305281
1773150813672745700,11.593745849609375,-5.7574535196512935,5.667040842798352,5.559385354721546
1773150813682783700,11.60378369140625,-5.674809723234176,5.765631565409898,5.542960289621353
1773150813692820700,11.61382080078125,-5.601244720807671,5.861944990739226,5.516705904424191
1773150813702859000,11.62385888671875,-5.534920191028714,5.9580345441848035,5.480589465904235
1773150813712895700,11.633895751953125,-5.472514295998216,6.054622694802284,5.437233723780513
1773150813722933800,11.643933837890625,-5.409969869279861,6.152499131664634,5.389745411896706
1773150813732970800,11.653970703125,-5.344595772093534,6.252490368723869,5.339666498997807
1773150813743008800,11.6640087890625,-5.2743198743402955,6.352699047926068,5.291043630126119
1773150813753044700,11.674044677734376,-5.1981525804609054,6.453370083943009,5.244388261935114
1773150813763081700,11.684081787109376,-5.119841260290146,6.555095597448945,5.19502889548242
1773150813773120000,11.6941201171875,-5.0369215695410965,6.656674395960569,5.146697703033685
1773150813783157000,11.704156982421875,-4.946047704917192,6.757893713510036,5.102732889100909
1773150813793194800,11.71419482421875,-4.846486383707821,6.861844501850008,5.059352012535929
1773150813803231700,11.724231689453125,-4.738944000616669,6.971385073021054,5.011247030058503
1773150813813269800,11.734269775390626,-4.625282257862389,7.0854054199546574,4.957235453885794
1773150813823307800,11.744307861328124,-4.512023835211992,7.204149872800707,4.890016605615616
1773150813833344800,11.7543447265625,-4.4042011738747355,7.328617963990569,4.802579145181179
1773150813843382800,11.7643828125,-4.301316845722496,7.456891877204179,4.697216444216668
1773150813853419800,11.774419677734375,-4.1947871468052265,7.589103714388608,4.580354444116353
1773150813863457800,11.784457763671876,-4.07166374822259,7.727804913592338,4.457909675447643
1773150813873494800,11.794494873046874,-3.9260646061986684,7.873135760068893,4.332450235132873
1773150813883532800,11.80453271484375,-3.7600469455242154,8.022444862526655,4.203902765674889
1773150813893569800,11.81456982421875,-3.5790427281200885,8.172397523584962,4.070964952303469
1773150813903607800,11.82460791015625,-3.3894755572929975,8.317994327521324,3.9360929559990763
1773150813913644800,11.834644775390625,-3.198899209423363,8.455366323947906,3.8005543124794956
1773150813923682800,11.844682861328126,-3.0207123875275252,8.581721251797676,3.660564827030897
1773150813933719800,11.8547197265625,-2.8711531097009777,8.695278072872757,3.509844396470487
1773150813943757800,11.8647578125,-2.7665412271037697,8.794507677909731,3.342646878361702
1773150813953794800,11.874794921875,-2.718962314327061,8.879133588054776,3.1525583140090108
1773150813963832800,11.884832763671875,-2.7350542019501325,8.949688302749395,2.9313711392983794
1773150813973869800,11.894869873046876,-2.8033383413642645,9.00682181033492,2.681201907992363
1773150813983907600,11.904907470703124,-2.8875901574999094,9.05186272906661,2.4281617974251506
1773150813993944800,11.91494482421875,-2.946428130915761,9.087218120086192,2.2161682752564547
1773150814003982800,11.92498291015625,-2.9566473271131515,9.11642960152328,2.078300165876001
1773150814014019800,11.935019775390625,-2.9092236048981546,9.146776224470138,2.010798409011215
1773150814024057900,11.945057861328126,-2.815614470091462,9.183568370294571,1.976053989496827
1773150814034094800,11.9550947265625,-2.7108485659763217,9.220039029079675,1.952579005885124
1773150814044132600,11.965132568359374,-2.6307559153467417,9.245768513619899,1.940432348756492
1773150814054169900,11.975169921875,-2.598190155045688,9.256334331297873,1.9339301272556184
1773150814064212000,11.9852119140625,-2.619898713506758,9.250479175528884,1.9326554311446844
1773150814074250800,11.995250732421875,-2.6796602315083144,9.230198019522428,1.9476297129146753
1773150814084287700,12.005287841796875,-2.7465038167253133,9.202413940539955,1.985615890829265
1773150814094325800,12.01532568359375,-2.7893416724547744,9.17692878614962,2.043024415963888
1773150814104362800,12.02536279296875,-2.7932071157112714,9.15936156527698,2.115300109232217
1773150814114400500,12.035400390625,-2.7581077452793714,9.1503149199903,2.1988599975809455
1773150814124437800,12.045437744140624,-2.6896900426134467,9.148248635110258,2.290306109134853
1773150814134475800,12.055475830078125,-2.5944705500006675,9.151949827715754,2.383469546000659
1773150814144512800,12.0655126953125,-2.4780337895751,9.1612986708194,2.4698878925204277
1773150814154550800,12.07555078125,-2.3449548141673207,9.176863904219866,2.5410122237965465
1773150814164587800,12.085587890625,-2.1994616167359053,9.199995773482323,2.587047122001648
1773150814174625500,12.09562548828125,-2.0446968792207536,9.231764538186788,2.6007883548453448
1773150814184662800,12.105662841796875,-1.8863648046128452,9.270093976581096,2.5840596306234596
1773150814194700800,12.11570068359375,-1.738996022567898,9.307673473390937,2.5521532110139726
1773150814204737500,12.125737548828125,-1.6103937541827558,9.34480171930194,2.500340021668374
1773150814214775800,12.13577587890625,-1.4996004064716397,9.38698432599306,2.4095864224232733
1773150814224812800,12.145812744140626,-1.4090657106742261,9.433743154558538,2.2780293958857656
1773150814234850600,12.1558505859375,-1.3447472600206731,9.480247716102003,2.1182399620763954
1773150814244887800,12.1658876953125,-1.3056573586478828,9.522915475961565,1.9441509308882057
1773150814254925800,12.17592578125,-1.2823396114245056,9.561499181377886,1.7617380157299338
1773150814264963600,12.185963623046876,-1.2639562518633902,9.596398060801624,1.575417864000052
1773150814275000800,12.196000732421876,-1.2416199168927966,9.628377253386377,1.3867653237998485
1773150814285038600,12.20603857421875,-1.2041104165792464,9.658712185895443,1.1957326104648411
1773150814295075600,12.21607568359375,-1.1325274548154323,9.689359253093599,1.0020284859634936
1773150814305113900,12.22611376953125,-1.024320470335707,9.71953578017056,0.8073343275114894
1773150814315150800,12.23615087890625,-0.8948086128249764,9.746291100627184,0.6160481508720665
1773150814325188600,12.246188720703126,-0.7580617625594138,9.767766434854268,0.43180016577374186
1773150814335225900,12.256225830078124,-0.6208131002515554,9.783675367125868,0.25426068360442294
1773150814345263600,12.266263671875,-0.4823902430651709,9.794417710414528,0.08416919761979952
1773150814355300600,12.276300537109375,-0.3385259985424578,9.80049439997971,-0.07793310710866935
1773150814365339000,12.2863388671875,-0.1847985499194823,9.802121708920598,-0.23376374768912792
1773150814375376000,12.2963759765625,-0.017427343186136566,9.799178641206025,-0.3823513674719259
1773150814385413600,12.30641357421875,0.16309901501508428,9.791489255747198,-0.520132931080088
1773150814395451000,12.316450927734374,0.3497566733373329,9.779351658707856,-0.642140258179605
1773150814405488600,12.326488525390625,0.5282120099762454,9.763690563717484,-0.7494781316746025
1773150814415525600,12.336525634765625,0.6911283071018754,9.745854462775588,-0.8432273325391113
1773150814425564000,12.34656396484375,0.8387995061594993,9.72710416959822,-0.9220910989608615
1773150814435600600,12.3566005859375,0.9700167062833904,9.708775316703319,-0.9844458483260125
1773150814445638700,12.366638671875,1.0814189796730875,9.691581605318188,-1.0364347595646977
1773150814455676000,12.376676025390625,1.1642244694579391,9.674954880166053,-1.1001011029850691
1773150814465713700,12.386713623046875,1.20700832997784,9.658441552260518,-1.1950007159937173
1773150814475750700,12.396750732421875,1.2035858081832527,9.642185998508333,-1.322872989603877
1773150814485789000,12.406788818359376,1.1649633781917392,9.626796121674776,-1.462202988230437
1773150814495825700,12.41682568359375,1.1137832991179077,9.6140880312711,-1.5808923498883842
1773150814505863700,12.42686376953125,1.0716791644904762,9.606528409671784,-1.6542346494749187
1773150814515900700,12.436900634765625,1.0499522666551173,9.605451720350981,-1.6743052314706146
1773150814525938700,12.446938720703125,1.0502458427742123,9.609636312559246,-1.649925846365094
1773150814535975700,12.4569755859375,1.07223424108997,9.616523149463534,-1.5947398195855318
1773150814546014000,12.467013916015626,1.1183450540754944,9.622954059293866,-1.5226504426695406
1773150814556050700,12.47705078125,1.1951287262875585,9.625341831213236,-1.4473523328401148
1773150814566088700,12.487088623046875,1.3003633438929916,9.622478258475661,-1.3738121725939214
1773150814576125700,12.497125732421875,1.4295489651240407,9.613464930936694,-1.306941407109052
1773150814586163700,12.507163818359375,1.5662813484728335,9.600327801465987,-1.2453351380236446
1773150814596200700,12.51720068359375,1.6926596571981907,9.586621932196616,-1.184058320088312
1773150814606238700,12.52723876953125,1.7958695640429854,9.575118541407585,-1.1235418190009892
1773150814616275700,12.537275634765624,1.8676047206938267,9.567447860649228,-1.0707011132385582
1773150814626313700,12.547313720703125,1.9010262210413813,9.564905774950981,-1.0339584325790405
1773150814636350700,12.557350830078125,1.8935164299331604,9.568571311721206,-1.013606549423933
1773150814646388700,12.567388671875,1.8509246579192578,9.578348024848102,-0.9998440545964985
1773150814656425700,12.57742578125,1.7851386189311742,9.592850012931228,-0.9802521229632198
1773150814666463500,12.58746337890625,1.7089854997076093,9.609973581689596,-0.9477000989265739
1773150814676500700,12.597500732421874,1.6327436792872845,9.627479427763818,-0.9034261459793895
1773150814686538800,12.607538818359375,1.565940133819729,9.643174425023794,-0.8528825381781905
1773150814696575700,12.61757568359375,1.5166289904229342,9.655148940455913,-0.8051618057779968
1773150814706613800,12.62761376953125,1.4875427428007124,9.66276409163475,-0.7672061691321432
1773150814716651800,12.63765185546875,1.4769795554712415,9.666198157736659,-0.744006276134774
1773150814726688500,12.6476884765625,1.4822678711377084,9.665998251250386,-0.7360502025637775
1773150814736726800,12.657726806640625,1.4993046383954585,9.663041155010461,-0.7403369399722665
1773150814746763800,12.667763671875,1.5239546571359037,9.658574238729477,-0.7482742357775568
1773150814756801800,12.6778017578125,1.5520923718616366,9.654011460858582,-0.7493147578064352
1773150814766838800,12.6878388671875,1.5779584883935749,9.650445292809605,-0.7411809895809739
1773150814776876800,12.697876708984374,1.5947363124541938,9.648397128108144,-0.7318935212757438
1773150814786913500,12.70791357421875,1.5984331211455165,9.648024787664413,-0.7287070001941174
1773150814796951800,12.717951904296875,1.5902425081662832,9.649030165314674,-0.7332963007457554
1773150814806988800,12.72798876953125,1.5757523566514253,9.650760350108147,-0.7417623696655035
1773150814817026600,12.738026611328126,1.5605302376002073,9.652856445604563,-0.7466459039233625
1773150814827063800,12.748063720703126,1.5472914013206958,9.655132573843002,-0.7447833979871123
1773150814837101800,12.758101806640624,1.536500981106609,9.657272508481144,-0.7393602769598364
1773150814847138600,12.768138671875,1.5274106428086758,9.659158760619164,-0.7335150580629706
1773150814857176800,12.7781767578125,1.5194798498094082,9.660831077745556,-0.7279577892620116
1773150814867213800,12.7882138671875,1.5119032770752905,9.662441435551642,-0.7223441871639341
1773150814877251600,12.79825146484375,1.503233648407459,9.664247023668885,-0.7162329377420246
1773150814887288800,12.808288818359374,1.4921809239953756,9.66642144509852,-0.709973658151552
1773150814897326600,12.81832666015625,1.4780997916728258,9.669034842467308,-0.7038334748961032
1773150814907363600,12.828363525390625,1.4617260183684526,9.67197557209432,-0.6975762411322445
1773150814917401900,12.83840185546875,1.4436922028973698,9.675190442487597,-0.690534140601009
1773150814927438800,12.84843896484375,1.4251811253033577,9.678556119528412,-0.6817728881269693
1773150814937476600,12.8584765625,1.4065437909811733,9.68197264997363,-0.6718858464933931
1773150814947513900,12.868513916015624,1.3870092155583202,9.68549790149033,-0.6616098786074668
1773150814957551600,12.878551513671875,1.363532039989531,9.689550391751528,-0.6510092818770558
1773150814967588600,12.888588623046875,1.3314216222405433,9.694822194674611,-0.6388507151149213
1773150814977627000,12.898626953125,1.2859800137534736,9.7019638831228,-0.6233213567454368
1773150814987664000,12.908663818359376,1.2230055250547827,9.711468793570996,-0.6016887130647898
