time,seconds_elapsed,z,y,x
1773150802169671700,0.090671630859375,0.02746814489364624,-0.009815944358706474,0.09319233894348145
1773150802179709700,0.100709716796875,0.017746545374393463,-0.02465241402387619,0.09533325582742691
1773150802189746700,0.11074658203125,0.007291868329048157,-0.025778958573937416,0.04789844527840614
1773150802199784700,0.12078466796875,0.003200720064342022,-0.0350496880710125,-0.03885216265916824
1773150802209822700,0.13082275390625,-0.004135787487030029,-0.05052214115858078,-0.10940228402614594
1773150802219859700,0.140859619140625,-0.012819822877645493,-0.08644844591617584,-0.1342272162437439
1773150802229897700,0.150897705078125,-0.009588098153471947,-0.09238819777965546,-0.11644277721643448
1773150802239935700,0.160935791015625,-0.0014390917494893074,-0.07555514574050903,-0.0745786800980568
1773150802249972700,0.17097265625,0.005321245640516281,-0.05203307420015335,-0.01853533461689949
1773150802260010800,0.1810107421875,-0.005624878685921431,0.018140951171517372,-0.00004234444350004196
1773150802270048500,0.191048583984375,-0.03371412307024002,0.04613946005702019,-0.0967167392373085
1773150802280085800,0.201085693359375,-0.038742437958717346,0.028791895136237144,-0.24698294699192047
1773150802290123800,0.211123779296875,0.003361120820045471,0.06109778583049774,-0.319164901971817
1773150802300160800,0.221160888671875,0.01068934053182602,0.17201285064220428,-0.29452744126319885
1773150802310198800,0.23119873046875,-0.009571235626935959,0.29360464215278625,-0.24455200135707855
1773150802320236800,0.24123681640625,0.005283876322209835,0.3498553931713104,-0.22838102281093597
1773150802330273500,0.2512734375,0.08990088850259781,0.3695843517780304,-0.25918298959732056
1773150802340311800,0.261311767578125,0.16064830124378204,0.4061641991138458,-0.31008875370025635
1773150802350349600,0.271349609375,0.18830588459968567,0.4486440420150757,-0.3684447705745697
1773150802360386800,0.28138671875,0.20048211514949799,0.30426451563835144,-0.3247936964035034
1773150802370424800,0.2914248046875,0.14948324859142303,0.19003523886203766,-0.23475998640060425
1773150802380462600,0.301462646484375,0.054747678339481354,0.15025879442691803,-0.13671651482582092
1773150802390499800,0.311499755859375,-0.01636713743209839,0.1724117249250412,-0.048895470798015594
1773150802400537900,0.321537841796875,-0.05252806842327118,0.15571877360343933,-0.035427067428827286
1773150802410575600,0.33157568359375,-0.07378163933753967,0.04391541704535484,-0.08193639665842056
1773150802420612900,0.34161279296875,-0.10488630086183548,-0.06966467201709747,-0.14171424508094788
1773150802430650600,0.351650634765625,-0.12379869073629379,-0.14451375603675842,-0.1603601723909378
1773150802440689000,0.36168896484375,-0.10083930939435959,-0.22499874234199524,-0.14956025779247284
1773150802450726000,0.371725830078125,-0.051961712539196014,-0.30919674038887024,-0.11011376976966858
1773150802460763600,0.381763671875,-0.019965428858995438,-0.3563980758190155,-0.05734217166900635
1773150802470800600,0.391800537109375,-0.03969426825642586,-0.3657150864601135,-0.0308770090341568
1773150802480838700,0.401838623046875,-0.09377747774124146,-0.3244909644126892,-0.009176239371299744
1773150802490876700,0.411876708984375,-0.1176932230591774,-0.274056613445282,0.031572576612234116
1773150802500913700,0.42191357421875,-0.10897855460643768,-0.2546978294849396,0.06604693084955215
1773150802510951700,0.43195166015625,-0.07487863302230835,-0.25253573060035706,0.103640615940094
1773150802520989700,0.44198974609375,-0.0318632498383522,-0.27522799372673035,0.15485559403896332
1773150802531027000,0.45202685546875,0.007023061625659466,-0.32374387979507446,0.19304002821445465
1773150802541064700,0.462064697265625,0.01580163836479187,-0.32866379618644714,0.19333244860172272
1773150802551102700,0.472102783203125,0.014092672616243362,-0.30254337191581726,0.1672680377960205
1773150802561139700,0.4821396484375,0.009353045374155045,-0.25713539123535156,0.1315033733844757
1773150802571177700,0.492177734375,0.001503385603427887,-0.2152056097984314,0.10596995055675507
1773150802581215700,0.5022158203125,-0.013548534363508224,-0.17734557390213013,0.09412766993045807
1773150802591252700,0.512252685546875,-0.028578218072652817,-0.15896494686603546,0.09745806455612183
1773150802601290800,0.522290771484375,-0.038552019745111465,-0.11826625466346741,0.11459363996982574
1773150802611327700,0.53232763671875,-0.044405605643987656,-0.08927144855260849,0.11448553204536438
1773150802621365800,0.54236572265625,-0.03871442750096321,-0.0704365074634552,0.1180560290813446
1773150802631403800,0.55240380859375,-0.013256079517304897,-0.07635083049535751,0.11507418006658554
1773150802641440500,0.5624404296875,-0.0030559059232473373,-0.08212775737047195,0.08740793168544769
1773150802651478800,0.572478759765625,-0.018575111404061317,-0.05518030375242233,0.04003008082509041
1773150802661516500,0.5825166015625,-0.028556372970342636,-0.032864078879356384,0.025251932442188263
1773150802671553500,0.592553466796875,-0.03545282036066055,-0.03452512249350548,0.03142860531806946
1773150802681591800,0.602591796875,-0.04339144006371498,-0.0475383922457695,0.04198244586586952
1773150802691629600,0.612629638671875,-0.05254649370908737,-0.05387348309159279,0.04496299847960472
1773150802701666800,0.622666748046875,-0.05116990581154823,-0.04769601672887802,0.05662178620696068
1773150802711704800,0.632704833984375,-0.044170577079057693,-0.05101305618882179,0.07304593175649643
1773150802721742600,0.64274267578125,-0.024388350546360016,-0.06916409730911255,0.08546344935894012
1773150802731779800,0.65277978515625,-0.01379975862801075,-0.07341685146093369,0.07707397639751434
1773150802741817600,0.662817626953125,-0.013762740418314934,-0.07746938616037369,0.0405159629881382
1773150802751855600,0.672855712890625,-0.030836325138807297,-0.06807275861501694,-0.00510533107444644
1773150802761892900,0.682892822265625,-0.05745595321059227,-0.04502469673752785,-0.04097491502761841
1773150802771930600,0.6929306640625,-0.07107648253440857,-0.009905937127768993,-0.05597996339201927
1773150802781967600,0.702967529296875,-0.04939941316843033,0.011404677294194698,-0.03252177685499191
1773150802792006000,0.713005859375,-0.023191768676042557,0.002965344116091728,0.003909009974449873
1773150802802043600,0.723043701171875,-0.009277286008000374,-0.005430803634226322,0.04847834259271622
1773150802812080600,0.73308056640625,-0.0032647456973791122,-0.009031594730913639,0.09138525277376175
1773150802822118700,0.74311865234375,-0.06166573613882065,-0.033777687698602676,0.08745096623897552
1773150802832156700,0.75315673828125,-0.14534351229667664,-0.10029981285333633,0.013165442273020744
1773150802842194000,0.76319384765625,-0.11784078180789948,-0.08816831558942795,-0.04125971347093582
1773150802852231700,0.773231689453125,-0.015903983265161514,0.011075323447585106,-0.01000048778951168
1773150802862269700,0.783269775390625,0.0673632100224495,0.03763529658317566,0.020904164761304855
1773150802872307000,0.793306884765625,0.07894004881381989,0.06262363493442535,0.01567148044705391
1773150802882344700,0.8033447265625,0.05613460764288902,-0.006693649105727673,-0.022215981036424637
1773150802892382700,0.8133828125,-0.02274378016591072,0.05317271128296852,-0.07927995920181274
1773150802902419700,0.823419677734375,-0.002505086362361908,0.08727049082517624,-0.04052510857582092
1773150802912457700,0.833457763671875,-0.018938308581709862,-0.004738623276352882,-0.03206195309758186
1773150802922495700,0.843495849609375,-0.12341783940792084,0.06728789955377579,-0.015319724567234516
1773150802932532700,0.85353271484375,-0.11915458738803864,0.08720006048679352,0.05015435442328453
1773150802942570800,0.86357080078125,-0.08049774169921875,0.047418564558029175,0.060581959784030914
1773150802952608800,0.87360888671875,-0.0046382383443415165,0.07667399197816849,0.06082729250192642
1773150802962645800,0.883645751953125,0.05534733459353447,0.09543995559215546,0.057224567979574203
1773150802972683800,0.893683837890625,0.09331505745649338,0.04296955466270447,0.026443803682923317
1773150802982720500,0.903720458984375,0.07952839881181717,0.03472866863012314,-0.028093740344047546
1773150802992758800,0.9137587890625,0.043355394154787064,-0.05171920359134674,-0.08514252305030823
1773150803002796500,0.923796630859375,-0.006326673552393913,0.024009376764297485,-0.1010298803448677
1773150803012833800,0.933833740234375,0.004739396274089813,-0.03437907621264458,-0.06549669057130814
1773150803022871800,0.943871826171875,0.037846751511096954,-0.1152089387178421,0.013043927028775215
1773150803032909600,0.95390966796875,0.04573338106274605,-0.02169005572795868,0.13189536333084106
1773150803042946800,0.96394677734375,-0.0026211002841591835,0.0619656927883625,0.22606207430362701
1773150803052984800,0.97398486328125,-0.06928423047065735,0.11229629069566727,0.27508991956710815
1773150803063022800,0.98402294921875,-0.100141741335392,0.18928855657577515,0.26736512780189514
1773150803073060000,0.99406005859375,-0.08890670537948608,0.1834339052438736,0.22187653183937073
1773150803083097900,1.004097900390625,-0.06612575054168701,0.1349361389875412,0.1922840178012848
1773150803093136000,1.014135986328125,-0.0574432834982872,0.1216970756649971,0.22200380265712738
1773150803103173000,1.024173095703125,-0.07703402638435364,0.13932213187217712,0.27315300703048706
1773150803113211000,1.0342109375,-0.10329017043113708,0.13153155148029327,0.2979625165462494
1773150803123249200,1.044249267578125,-0.1017463356256485,0.1062416359782219,0.2867780327796936
1773150803133286000,1.054285888671875,-0.06962910294532776,0.08122838288545609,0.24398016929626465
1773150803143324000,1.064323974609375,-0.04513974115252495,0.0707419216632843,0.1891411542892456
1773150803153362000,1.07436181640625,-0.0762505829334259,0.08779646456241608,0.14419233798980713
1773150803163399000,1.08439892578125,-0.0856880247592926,0.09623708575963974,0.14321495592594147
1773150803173437000,1.09443701171875,-0.07009635865688324,0.1004766970872879,0.1544191539287567
1773150803183474000,1.104473876953125,-0.044370491057634354,0.09340201318264008,0.16866172850131989
1773150803193512000,1.114511962890625,-0.01523751113563776,0.06230856478214264,0.17369280755519867
1773150803203550000,1.124550048828125,0.0045995768159627914,0.03974519670009613,0.1518905758857727
1773150803213587000,1.1345869140625,0.011401496827602386,0.027844015508890152,0.1029982939362526
1773150803223625000,1.144625,0.013674771413207054,0.024370986968278885,0.052219271659851074
1773150803233662700,1.154662841796875,0.013563321903347969,0.0375855416059494,0.0038970052264630795
1773150803243700000,1.164699951171875,0.006813274696469307,0.04936071112751961,-0.033184051513671875
1773150803253738000,1.174738037109375,0.011732104234397411,0.05107709392905235,-0.04486765339970589
1773150803263775700,1.184775634765625,0.01718226447701454,0.05317433178424835,-0.028296666219830513
1773150803273813000,1.19481298828125,0.021453579887747765,0.04249180853366852,0.0023938624653965235
1773150803283851000,1.20485107421875,0.029151445254683495,0.0165193323045969,0.028164472430944443
1773150803293889000,1.214888916015625,0.04282078146934509,0.009318461641669273,0.03334192931652069
1773150803303926000,1.224926025390625,0.04496781900525093,-0.0092648109421134,0.020569676533341408
1773150803313963800,1.2349638671875,0.032838061451911926,-0.024547411128878593,-0.009323513135313988
1773150803324002000,1.245001953125,0.03460932523012161,-0.020519645884633064,-0.029767801985144615
1773150803334039000,1.2550390625,0.04188678413629532,-0.02291889302432537,-0.026639599353075027
1773150803344076800,1.265076904296875,0.043680690228939056,-0.012979445047676563,-0.008011586032807827
1773150803354114000,1.275114013671875,0.034526221454143524,-0.007460698485374451,0.010432829149067402
1773150803364152000,1.285152099609375,0.04057106375694275,0.006777892354875803,0.02747892402112484
1773150803374189800,1.29518994140625,0.04007212445139885,0.025103352963924408,0.041561875492334366
1773150803384227000,1.30522705078125,0.02676217630505562,0.020276641473174095,0.04664319008588791
1773150803394264800,1.315264892578125,-0.001961078494787216,0.04142775386571884,0.04749852046370506
1773150803404302800,1.325302734375,-0.029346896335482597,0.07931734621524811,0.03946669399738312
1773150803414340000,1.335340087890625,-0.026121553033590317,0.07979386299848557,0.033959902822971344
1773150803424377900,1.3453779296875,-0.020353145897388458,0.07037132978439331,0.02165929600596428
1773150803434416000,1.355416015625,-0.017213715240359306,0.07925111055374146,-0.001863566692918539
1773150803444453000,1.365453125,-0.018656615167856216,0.10240090638399124,-0.02017918974161148
1773150803454491000,1.375490966796875,-0.01297635305672884,0.12475837767124176,-0.033178508281707764
1773150803464529200,1.385529052734375,0.018261462450027466,0.12589207291603088,-0.03411514312028885
1773150803474566000,1.39556591796875,0.04375706985592842,0.12000618875026703,-0.037791796028614044
1773150803484604000,1.40560400390625,0.057736534625291824,0.13112781941890717,-0.06637603789567947
1773150803494642000,1.415641845703125,0.06434568017721176,0.14818283915519714,-0.12859950959682465
1773150803504679000,1.425678955078125,0.07044165581464767,0.19620762765407562,-0.19938233494758606
1773150803514717000,1.435717041015625,0.07330180704593658,0.25654518604278564,-0.23254498839378357
1773150803524754000,1.44575390625,0.06900373101234436,0.29806679487228394,-0.23787742853164673
1773150803534792000,1.4557919921875,0.08444735407829285,0.32673364877700806,-0.2224254459142685
1773150803544830000,1.465829833984375,0.11525507271289825,0.3501553535461426,-0.18975964188575745
1773150803554867000,1.475866943359375,0.14239738881587982,0.3389095962047577,-0.1612326204776764
1773150803564905000,1.485905029296875,0.16155856847763062,0.3591456413269043,-0.1584261804819107
1773150803574942700,1.495942626953125,0.17088709771633148,0.4051779508590698,-0.16016250848770142
1773150803584980000,1.50597998046875,0.16463638842105865,0.4620462954044342,-0.14496570825576782
1773150803595018000,1.51601806640625,0.15718691051006317,0.49480414390563965,-0.12838679552078247
1773150803605056000,1.526055908203125,0.15305395424365997,0.4788190722465515,-0.1274789273738861
1773150803615093000,1.536093017578125,0.15325354039669037,0.4638226628303528,-0.14477577805519104
1773150803625131000,1.546131103515625,0.17086529731750488,0.41333523392677307,-0.17922456562519073
1773150803635169000,1.5561689453125,0.20184174180030823,0.3575553894042969,-0.23499669134616852
1773150803645206000,1.5662060546875,0.21981221437454224,0.29877808690071106,-0.29268237948417664
1773150803655243800,1.576243896484375,0.23129118978977203,0.2654809355735779,-0.3557771146297455
1773150803665282000,1.586281982421875,0.2520987391471863,0.2747141122817993,-0.41055968403816223
1773150803675319000,1.596319091796875,0.2753670811653137,0.2974265515804291,-0.4679569900035858
1773150803685356800,1.606356689453125,0.3072613477706909,0.3464241921901703,-0.5321042537689209
1773150803695394000,1.61639404296875,0.3459715247154236,0.40165555477142334,-0.5752146244049072
1773150803705432000,1.62643212890625,0.3579253852367401,0.4349903166294098,-0.5915057063102722
1773150803715469800,1.6364697265625,0.34545254707336426,0.4567440450191498,-0.5844411849975586
1773150803725507000,1.646507080078125,0.31600436568260193,0.477876216173172,-0.5880849361419678
1773150803735544800,1.656544921875,0.32117724418640137,0.4496251046657562,-0.5911961197853088
1773150803745583000,1.6665830078125,0.34464502334594727,0.4041910469532013,-0.6183494329452515
1773150803755620000,1.6766201171875,0.3611096739768982,0.3298172354698181,-0.6631968021392822
1773150803765657900,1.686657958984375,0.36129823327064514,0.27550819516181946,-0.700793445110321
1773150803775696100,1.696696044921875,0.33761343359947205,0.2519449293613434,-0.7069680690765381
1773150803785732900,1.70673291015625,0.3210301995277405,0.2568643093109131,-0.6845998764038086
1773150803795771000,1.71677099609375,0.3158290684223175,0.26748016476631165,-0.6285920739173889
1773150803805809000,1.726808837890625,0.3078784644603729,0.2706911265850067,-0.5505428314208984
1773150803815846000,1.736845947265625,0.30746880173683167,0.26986581087112427,-0.46883657574653625
1773150803825884000,1.7468837890625,0.32081735134124756,0.24597406387329102,-0.40369752049446106
1773150803835922000,1.756921875,0.3349117040634155,0.19357158243656158,-0.34894421696662903
1773150803845959000,1.766958984375,0.32208696007728577,0.1588386446237564,-0.30633044242858887
1773150803855997000,1.776996826171875,0.3000752329826355,0.1319795697927475,-0.2898766100406647
1773150803866034000,1.787033935546875,0.29326605796813965,0.09900057315826416,-0.29037728905677795
1773150803876072000,1.797072021484375,0.2789546847343445,0.0831211656332016,-0.3215142488479614
1773150803886110000,1.80710986328125,0.2597370743751526,0.06324493139982224,-0.36862584948539734
1773150803896147000,1.81714697265625,0.24544259905815125,0.03625527024269104,-0.4001937806606293
1773150803906185000,1.82718505859375,0.22816666960716248,-0.01969827711582184,-0.4064679443836212
1773150803916223000,1.837222900390625,0.21624377369880676,-0.10006238520145416,-0.395094633102417
1773150803926260000,1.847260009765625,0.2202150821685791,-0.19793222844600677,-0.37216508388519287
1773150803936298000,1.857298095703125,0.21374750137329102,-0.2752148509025574,-0.3402372896671295
1773150803946336000,1.8673359375,0.18398506939411163,-0.33639487624168396,-0.3063080906867981
1773150803956373000,1.877373046875,0.13648290932178497,-0.38743919134140015,-0.268206924200058
1773150803966410800,1.88741064453125,0.09966817498207092,-0.44815686345100403,-0.1939510852098465
1773150803976449000,1.897448974609375,0.07756192237138748,-0.5406473278999329,-0.11142830550670624
1773150803986486000,1.907486083984375,0.0785725936293602,-0.6466653347015381,-0.04551267623901367
1773150803996523800,1.917523681640625,0.08980149030685425,-0.7523588538169861,0.012432655319571495
1773150804006561000,1.92756103515625,0.0822644829750061,-0.8246670961380005,0.05843263864517212
1773150804016599000,1.93759912109375,0.049207448959350586,-0.8465433120727539,0.09061507135629654
1773150804026636800,1.94763671875,0.012837454676628113,-0.8520650863647461,0.1076933890581131
1773150804036674000,1.957674072265625,-0.020117104053497314,-0.8394906520843506,0.12270456552505493
1773150804046711800,1.9677119140625,-0.04758228361606598,-0.7785961627960205,0.14184735715389252
1773150804056753400,1.97775341796875,-0.06410892307758331,-0.7218522429466248,0.11266524344682693
1773150804066790400,1.987790283203125,-0.10345792770385742,-0.6767380237579346,0.0579490028321743
1773150804076828400,1.997828369140625,-0.13849785923957825,-0.6639838218688965,0.00429307296872139
1773150804086866400,2.007866455078125,-0.15121978521347046,-0.6534425020217896,-0.044117070734500885
1773150804096903400,2.0179033203125,-0.16755542159080505,-0.6336445212364197,-0.07444941252470016
1773150804106941400,2.02794140625,-0.18165713548660278,-0.6023289561271667,-0.063973069190979
1773150804116979500,2.0379794921875,-0.1841491162776947,-0.5718249082565308,-0.0006559896282851696
1773150804127016400,2.048016357421875,-0.18053920567035675,-0.5527271032333374,0.09565190225839615
1773150804137054500,2.058054443359375,-0.1511337012052536,-0.5109780430793762,0.22508180141448975
1773150804147091500,2.068091552734375,-0.11769399791955948,-0.44764432311058044,0.36428096890449524
1773150804157129500,2.07812939453125,-0.08383132517337799,-0.3861269950866699,0.48698481917381287
1773150804167167500,2.08816748046875,-0.04176216199994087,-0.336062490940094,0.5559306144714355
1773150804177204500,2.09820458984375,-0.008427887223660946,-0.301007479429245,0.5444645881652832
1773150804187242500,2.108242431640625,-0.004013164900243282,-0.24480654299259186,0.46685928106307983
1773150804197280500,2.118280517578125,-0.03481214493513107,-0.1786385178565979,0.35976824164390564
1773150804207317200,2.128317138671875,-0.073090560734272,-0.11648273468017578,0.2930621802806854
1773150804217355500,2.13835546875,-0.09703240543603897,-0.09657936543226242,0.27300745248794556
1773150804227393300,2.148393310546875,-0.12207624316215515,-0.12341976910829544,0.2745845913887024
1773150804237430300,2.15843017578125,-0.1464082896709442,-0.1648978739976883,0.2677891254425049
1773150804247468500,2.168468505859375,-0.15260359644889832,-0.22480008006095886,0.2322729229927063
1773150804257506300,2.17850634765625,-0.14189161360263824,-0.278446763753891,0.18684077262878418
1773150804267543600,2.18854345703125,-0.13999463617801666,-0.34305450320243835,0.14504645764827728
1773150804277581600,2.19858154296875,-0.15654051303863525,-0.3882484436035156,0.1072387844324112
1773150804287618300,2.208618408203125,-0.18790723383426666,-0.36711519956588745,0.06817633658647537
1773150804297656600,2.218656494140625,-0.2444252222776413,-0.30922240018844604,0.042037952691316605
1773150804307694300,2.2286943359375,-0.30435431003570557,-0.24742212891578674,0.014489148743450642
1773150804317731300,2.2387314453125,-0.3436025381088257,-0.20719024538993835,-0.019911974668502808
1773150804327769600,2.24876953125,-0.364724338054657,-0.1832614690065384,-0.06383389234542847
1773150804337807400,2.258807373046875,-0.37200623750686646,-0.18881990015506744,-0.08788121491670609
1773150804347844400,2.26884423828125,-0.37830087542533875,-0.1930719017982483,-0.08244064450263977
1773150804357882600,2.278882568359375,-0.3761557340621948,-0.20694532990455627,-0.06926610320806503
1773150804367920400,2.28892041015625,-0.37449949979782104,-0.22841119766235352,-0.046780768781900406
1773150804377957400,2.298957275390625,-0.3650801479816437,-0.2302616834640503,-0.014537136070430279
1773150804387995400,2.308995361328125,-0.3496769666671753,-0.22364851832389832,0.024505870416760445
1773150804398032400,2.319032470703125,-0.33150115609169006,-0.21030022203922272,0.05538927763700485
1773150804408070400,2.3290703125,-0.313761830329895,-0.1876779943704605,0.060359805822372437
1773150804418108400,2.3391083984375,-0.311425119638443,-0.17945154011249542,0.044572800397872925
1773150804428145400,2.3491455078125,-0.3116339147090912,-0.17328259348869324,-0.00032729865051805973
1773150804438183400,2.359183349609375,-0.3160349726676941,-0.1582590490579605,-0.05941847711801529
1773150804448221400,2.369221435546875,-0.31540966033935547,-0.1812376081943512,-0.11123187839984894
1773150804458258400,2.379258544921875,-0.2840823233127594,-0.22480283677577972,-0.1537432074546814
1773150804468296400,2.38929638671875,-0.25208497047424316,-0.2486085742712021,-0.18840983510017395
1773150804478334500,2.39933447265625,-0.2430020272731781,-0.24959209561347961,-0.21425427496433258
1773150804488371500,2.409371337890625,-0.23711298406124115,-0.24193203449249268,-0.22030632197856903
1773150804498409500,2.419409423828125,-0.2394661009311676,-0.2247333824634552,-0.21355153620243073
1773150804508447500,2.429447509765625,-0.2451287806034088,-0.19798699021339417,-0.2064422219991684
1773150804518484500,2.439484375,-0.24856936931610107,-0.18326792120933533,-0.19262541830539703
1773150804528522500,2.4495224609375,-0.2500511407852173,-0.18298563361167908,-0.16817466914653778
1773150804538559500,2.4595595703125,-0.23987118899822235,-0.17402273416519165,-0.15075193345546722
1773150804548597200,2.46959716796875,-0.22180989384651184,-0.1670689582824707,-0.14165590703487396
1773150804558635500,2.479635498046875,-0.19709619879722595,-0.1504765748977661,-0.14058980345726013
1773150804568672500,2.489672607421875,-0.17137405276298523,-0.14626744389533997,-0.11922141164541245
1773150804578710500,2.49971044921875,-0.1317162960767746,-0.1470584124326706,-0.08008086681365967
1773150804588748500,2.50974853515625,-0.09980683028697968,-0.15171414613723755,-0.03379618749022484
1773150804598785300,2.519785400390625,-0.08683376014232635,-0.14529971778392792,0.002768896520137787
1773150804608823600,2.529823486328125,-0.0817127674818039,-0.11644570529460907,0.012913942337036133
1773150804618860500,2.539860595703125,-0.0735662654042244,-0.08463424444198608,0.02033264935016632
1773150804628898300,2.549898193359375,-0.057267725467681885,-0.05895017832517624,0.023249877616763115
1773150804638936600,2.5599365234375,-0.04690621793270111,-0.039370909333229065,0.02996676228940487
1773150804648973600,2.5699736328125,-0.04071330279111862,-0.026767229661345482,0.031197410076856613
1773150804659011300,2.58001123046875,-0.0422673299908638,-0.027732595801353455,0.016506073996424675
1773150804669049600,2.590049560546875,-0.04234030097723007,-0.0471411794424057,0.00028049887623637915
1773150804679086300,2.60008642578125,-0.026768304407596588,-0.07695122808218002,-0.010603520087897778
1773150804689124400,2.610124267578125,-0.00998985767364502,-0.10883006453514099,-0.014061100780963898
1773150804699162400,2.620162353515625,-0.003789396956562996,-0.1369950920343399,-0.02344854734838009
1773150804709199400,2.630199462890625,-0.0028895139694213867,-0.14196240901947021,-0.04542388394474983
1773150804719237400,2.6402373046875,-0.004115257412195206,-0.14255796372890472,-0.057966623455286026
1773150804729274600,2.650274658203125,0.0005018645897507668,-0.1357775628566742,-0.0434180423617363
1773150804739312400,2.6603125,0.005784057080745697,-0.12407705932855606,-0.009299863129854202
1773150804749350700,2.6703505859375,0.014069151133298874,-0.10788770765066147,0.03139696642756462
1773150804759387400,2.680387451171875,0.01486930251121521,-0.10214325785636902,0.058319251984357834
1773150804769425400,2.69042529296875,0.017737261950969696,-0.10206842422485352,0.06612151861190796
1773150804779463400,2.70046337890625,0.023665152490139008,-0.10318450629711151,0.05939389392733574
1773150804789500400,2.71050048828125,0.03361152485013008,-0.09300989657640457,0.05888922140002251
1773150804799538400,2.720538330078125,0.040262602269649506,-0.08581086993217468,0.0705462247133255
1773150804809576400,2.730576416015625,0.05097915977239609,-0.08885033428668976,0.09142620861530304
1773150804819613400,2.740613525390625,0.05629424378275871,-0.08966241776943207,0.11092136055231094
1773150804829651500,2.7506513671875,0.0577685721218586,-0.0924944207072258,0.11045477539300919
1773150804839688400,2.7606884765625,0.058905795216560364,-0.09236224740743637,0.09112261235713959
1773150804849726500,2.7707265625,0.0517117977142334,-0.08768866211175919,0.05016665905714035
1773150804859764200,2.78076416015625,0.03902359679341316,-0.077443927526474,0.012593218125402927
1773150804869801500,2.790801513671875,0.023258216679096222,-0.07456877827644348,-0.010966436006128788
1773150804879839500,2.800839599609375,0.015799127519130707,-0.09437922388315201,-0.0034902163315564394
1773150804889877500,2.81087744140625,0.006077791564166546,-0.11440938711166382,0.02793108858168125
1773150804899914500,2.82091455078125,-0.0034055355936288834,-0.13902434706687927,0.06786049902439117
1773150804909952500,2.830952392578125,-0.008365673013031483,-0.14277833700180054,0.09719495475292206
1773150804919989200,2.8409892578125,-0.007812580093741417,-0.1344829648733139,0.0961020216345787
1773150804930027500,2.851027587890625,-0.001232176087796688,-0.09561465680599213,0.07928336411714554
1773150804940065300,2.861065185546875,-0.0014319401234388351,-0.06014282628893852,0.05906540900468826
1773150804950102300,2.871102294921875,-0.005527349188923836,-0.04073237627744675,0.0316108837723732
1773150804960140500,2.881140625,-0.002948201261460781,-0.041871409863233566,0.0008733448339626193
1773150804970178300,2.89117822265625,0.008337742649018764,-0.042577680200338364,-0.003964020870625973
1773150804980215600,2.901215576171875,0.008280380629003048,-0.061003342270851135,0.0035376478917896748
1773150804990253600,2.911253662109375,-0.002569071017205715,-0.08938171714544296,-0.010847683064639568
1773150805000291300,2.921291259765625,-0.004336541518568993,-0.09808330237865448,-0.046111270785331726
1773150805010328600,2.93132861328125,0.002463041804730892,-0.09173352271318436,-0.05728349834680557
1773150805020366300,2.941366455078125,0.0011245403438806534,-0.08332572132349014,-0.04149213805794716
1773150805030403300,2.9514033203125,-0.009950214996933937,-0.058733027428388596,-0.008566679432988167
1773150805040441600,2.961441650390625,-0.02724168635904789,-0.037380658090114594,0.01636539213359356
1773150805050479400,2.971479248046875,-0.039181701838970184,-0.012306995689868927,0.01907515712082386
1773150805060512800,2.9815126953125,-0.05059584230184555,-0.016096586361527443,0.0031164702959358692
1773150805070550800,2.99155078125,-0.06066126376390457,-0.018571194261312485,-0.030563198029994965
1773150805080588500,3.001588623046875,-0.05989225208759308,-0.02947436459362507,-0.05286819115281105
1773150805090625800,3.011625732421875,-0.0572487972676754,-0.05647801607847214,-0.05995219945907593
1773150805100663600,3.02166357421875,-0.05102669820189476,-0.08377540111541748,-0.04640130698680878
1773150805110700500,3.031700439453125,-0.050260771065950394,-0.09981748461723328,-0.03199493885040283
1773150805120738800,3.04173876953125,-0.05866757780313492,-0.10081478208303452,-0.039418645203113556
1773150805130776600,3.051776611328125,-0.07376343756914139,-0.07904423773288727,-0.05498002842068672
1773150805140813600,3.0618134765625,-0.08530113101005554,-0.04011106118559837,-0.04969821870326996
1773150805150851800,3.071851806640625,-0.09252788126468658,-0.010890857316553593,-0.030245957896113396
1773150805160889600,3.0818896484375,-0.1014750748872757,0.009309470653533936,-0.00395582988858223
1773150805170926600,3.091926513671875,-0.09618204832077026,0.04690425097942352,0.020567888393998146
1773150805180964600,3.101964599609375,-0.0948731005191803,0.06678054481744766,0.035189561545848846
1773150805191001600,3.112001708984375,-0.09438254684209824,0.04835786297917366,0.025612568482756615
1773150805201040000,3.122039794921875,-0.08899272233247757,0.04061511904001236,0.003573147114366293
1773150805211077600,3.13207763671875,-0.09061086177825928,0.04200075566768646,-0.012728594243526459
1773150805221114600,3.142114501953125,-0.09447111189365387,0.02461005188524723,-0.013234062120318413
1773150805231153000,3.15215283203125,-0.08857674151659012,-0.00006919610314071178,-0.019380105659365654
1773150805241190700,3.162190673828125,-0.08289340138435364,-0.015470178797841072,-0.034795764833688736
1773150805251227600,3.1722275390625,-0.07007214426994324,-0.03141026198863983,-0.04250721633434296
1773150805261265700,3.182265625,-0.05745477229356766,-0.05207866430282593,-0.048442769795656204
1773150805271302700,3.192302734375,-0.04617122560739517,-0.07518185675144196,-0.04960630461573601
1773150805281340700,3.202340576171875,-0.041614748537540436,-0.07998862117528915,-0.03780423104763031
1773150805291378700,3.212378662109375,-0.04212687537074089,-0.07689269632101059,-0.017565272748470306
1773150805301415700,3.222415771484375,-0.035439759492874146,-0.07124471664428711,0.0007379268063232303
1773150805311453700,3.23245361328125,-0.03920600190758705,-0.060210973024368286,0.012190052308142185
1773150805321491700,3.24249169921875,-0.04821140319108963,-0.049823734909296036,0.02796291932463646
1773150805331528700,3.25252880859375,-0.054494600743055344,-0.04050879925489426,0.042795129120349884
1773150805341566700,3.262566650390625,-0.061055783182382584,-0.030559398233890533,0.047656700015068054
1773150805351603700,3.272603759765625,-0.06455091387033463,-0.02627197653055191,0.04265422001481056
1773150805361641700,3.282641845703125,-0.06739670038223267,-0.03228269889950752,0.039730995893478394
1773150805371679700,3.2926796875,-0.07716809958219528,-0.049858495593070984,0.019351420924067497
1773150805381716700,3.302716796875,-0.08092644810676575,-0.06315604597330093,-0.0031107808463275433
1773150805391754800,3.312754638671875,-0.07760442793369293,-0.06333553791046143,-0.0018258055206388235
1773150805401791500,3.32279150390625,-0.07759356498718262,-0.04515531286597252,0.016209367662668228
1773150805411829800,3.332829833984375,-0.07868493348360062,-0.020772475749254227,0.050312742590904236
1773150805421867500,3.342867431640625,-0.07548315823078156,0.007151634432375431,0.07979550212621689
1773150805431904800,3.35290478515625,-0.06711044907569885,0.01376506220549345,0.0869428962469101
1773150805441942800,3.36294287109375,-0.06993134319782257,0.015769124031066895,0.07489713281393051
1773150805451980500,3.37298046875,-0.06831853091716766,0.009800180792808533,0.04774914309382439
1773150805462017800,3.383017822265625,-0.06712212413549423,-0.008748672902584076,0.021220838651061058
1773150805472055600,3.3930556640625,-0.05730465054512024,-0.008797409012913704,0.013176762498915195
1773150805482092500,3.403092529296875,-0.048950016498565674,0.007635497488081455,0.03278300166130066
1773150805492130800,3.413130859375,-0.0579373836517334,0.02250472456216812,0.051656823605298996
1773150805502168600,3.42316845703125,-0.06810460984706879,0.01463245414197445,0.059072911739349365
1773150805512205600,3.43320556640625,-0.06604838371276855,-0.015556340105831623,0.045783475041389465
1773150805522243800,3.443243896484375,-0.0573725663125515,-0.042925041168928146,0.04473625123500824
1773150805532280600,3.453280517578125,-0.04583708196878433,-0.06159646436572075,0.05069214478135109
1773150805542318600,3.463318603515625,-0.04145431891083717,-0.06985311955213547,0.05339832231402397
1773150805552356600,3.473356689453125,-0.04161623865365982,-0.07066404819488525,0.054200999438762665
1773150805562393600,3.4833935546875,-0.04898105561733246,-0.05569440871477127,0.0510871484875679
1773150805572432000,3.493431884765625,-0.05554681271314621,-0.04180362820625305,0.036968667060136795
1773150805582469600,3.5034697265625,-0.05999942868947983,-0.021139265969395638,0.029493015259504318
1773150805592506600,3.513506591796875,-0.05984150245785713,-0.0033307077828794718,0.03906415402889252
1773150805602545000,3.523544921875,-0.054575636982917786,0.0033982121385633945,0.06294004619121552
1773150805612581600,3.53358154296875,-0.039700284600257874,0.009272612631320953,0.08849599957466125
1773150805622619600,3.54361962890625,-0.03569435700774193,0.014907917939126492,0.09091614931821823
1773150805632657700,3.55365771484375,-0.03426503762602806,0.01889653503894806,0.05444415658712387
1773150805642694700,3.563694580078125,-0.0222100131213665,0.019264724105596542,0.010823906399309635
1773150805652732700,3.573732666015625,-0.017709536477923393,0.06728124618530273,-0.0017033368349075317
1773150805662770000,3.58377001953125,-0.03504401445388794,0.08988276869058609,0.003728649578988552
1773150805672807700,3.5938076171875,-0.05291622132062912,0.059346169233322144,0.001902520190924406
1773150805682845700,3.603845703125,-0.052115634083747864,-0.025829672813415527,-0.047018326818943024
1773150805692882700,3.613882568359375,-0.05738496780395508,-0.06367718428373337,-0.06878567487001419
1773150805702920700,3.623920654296875,-0.06189742684364319,-0.07679339498281479,-0.03553425520658493
1773150805712958500,3.63395849609375,-0.06949063390493393,-0.06665873527526855,0.006166852544993162
1773150805722995700,3.64399560546875,-0.08919718861579895,-0.033547498285770416,0.014777999371290207
1773150805733033700,3.65403369140625,-0.11998439580202103,-0.01563641056418419,0.0030691460706293583
1773150805743070700,3.66407080078125,-0.14769206941127777,-0.019917521625757217,-0.02442936599254608
1773150805753108700,3.674108642578125,-0.1552644968032837,-0.0276300348341465,-0.051819976419210434
1773150805763146800,3.684146728515625,-0.15423409640789032,-0.06597740948200226,-0.07276752591133118
1773150805773183500,3.69418359375,-0.14476735889911652,-0.09574542939662933,-0.052731771022081375
1773150805783221800,3.7042216796875,-0.1400536745786667,-0.11069473624229431,-0.022375689819455147
1773150805793258800,3.7142587890625,-0.14951056241989136,-0.10245119035243988,-0.020392432808876038
1773150805803296800,3.724296875,-0.16411857306957245,-0.07322874665260315,-0.02314142882823944
1773150805813334800,3.734334716796875,-0.18733468651771545,-0.04205271974205971,-0.015607612207531929
1773150805823371800,3.744371826171875,-0.20138433575630188,-0.015805372968316078,0.009436456486582756
1773150805833409800,3.754409912109375,-0.20058006048202515,-0.01654546521604061,0.030533485114574432
1773150805843446800,3.76444677734375,-0.18683244287967682,-0.030040275305509567,0.0386800542473793
1773150805853484500,3.774484619140625,-0.1712721288204193,-0.03377216309309006,0.04099008068442345
1773150805863522800,3.784522705078125,-0.16500471532344818,-0.040442224591970444,0.04369117319583893
1773150805873559800,3.794559814453125,-0.16451922059059143,-0.038108762353658676,0.05669432133436203
1773150805883597600,3.80459765625,-0.17255592346191406,-0.038548246026039124,0.07524654269218445
1773150805893634800,3.814634765625,-0.17825987935066223,-0.024133887141942978,0.0824810191988945
1773150805903672600,3.824672607421875,-0.1853703260421753,0.0023509645834565163,0.08202813565731049
1773150805913710600,3.834710693359375,-0.195831760764122,0.01431734673678875,0.0705573633313179
1773150805923747800,3.844747802734375,-0.19410066306591034,0.019950686022639275,0.04810153692960739
1773150805933785600,3.85478564453125,-0.18574738502502441,0.03718985617160797,0.03511010482907295
1773150805943823600,3.86482373046875,-0.17716018855571747,0.04080427438020706,0.03273918852210045
1773150805953860900,3.87486083984375,-0.17806991934776306,0.029821133241057396,0.03833528608083725
1773150805963898600,3.884898681640625,-0.19125385582447052,0.02378678321838379,0.04338352009654045
1773150805973935600,3.894935546875,-0.19083653390407562,0.007491699419915676,0.042377911508083344
1773150805983973600,3.9049736328125,-0.1855633705854416,0.01052815467119217,0.03372739255428314
1773150805994011600,3.91501171875,-0.17815124988555908,0.0140248853713274,0.024894751608371735
1773150806004048600,3.925048583984375,-0.16918161511421204,-0.0008890540339052677,0.023603616282343864
1773150806014086700,3.935086669921875,-0.15607593953609467,-0.013001642189919949,0.0358983650803566
1773150806024123600,3.94512353515625,-0.1325894445180893,-0.01579209789633751,0.04351582005620003
1773150806034162000,3.955161865234375,-0.11766881495714188,-0.003369250800460577,0.05070582404732704
1773150806044199700,3.96519970703125,-0.11867331713438034,0.018897030502557755,0.05396641045808792
1773150806054240500,3.975240478515625,-0.12232531607151031,0.043690793216228485,0.06457297503948212
1773150806064278300,3.9852783203125,-0.12074411660432816,0.06586684286594391,0.08218833804130554
1773150806074315300,3.995315185546875,-0.10665199905633926,0.07575303316116333,0.10050689429044724
1773150806084353500,4.005353515625,-0.09292826801538467,0.08156765252351761,0.11320537328720093
1773150806094391300,4.015391357421875,-0.08388790488243103,0.0988323912024498,0.0907040610909462
1773150806104428300,4.02542822265625,-0.08437594771385193,0.09063020348548889,0.055064789950847626
1773150806114466300,4.03546630859375,-0.08987750858068466,0.0608491376042366,0.031289685517549515
1773150806124503300,4.04550341796875,-0.08398663252592087,0.07258418947458267,0.017137844115495682
1773150806134541300,4.055541259765625,-0.08041960000991821,0.10431309044361115,0.020780514925718307
1773150806144579300,4.065579345703125,-0.08440665155649185,0.11446280777454376,0.01914685033261776
1773150806154616300,4.0756162109375,-0.09408218413591385,0.1214408278465271,0.006741579622030258
1773150806164654300,4.085654296875,-0.08704975992441177,0.10574311017990112,-0.028444750234484673
1773150806174691300,4.09569140625,-0.06364110857248306,0.09180652350187302,-0.04397017881274223
1773150806184729300,4.105729248046875,-0.041138045489788055,0.07901448011398315,-0.03825739026069641
1773150806194767400,4.115767333984375,-0.049499038606882095,0.04745442792773247,-0.033888205885887146
1773150806204804400,4.125804443359375,-0.0605941116809845,0.03979409113526344,-0.050884928554296494
1773150806214842400,4.13584228515625,-0.06812527030706406,0.061776623129844666,-0.09393758326768875
1773150806224879400,4.14587939453125,-0.08738955110311508,0.06862081587314606,-0.16507922112941742
1773150806234917400,4.15591748046875,-0.08888571709394455,0.04893207177519798,-0.21890702843666077
1773150806244955400,4.165955322265625,-0.06270210444927216,0.045611798763275146,-0.2271198183298111
1773150806254992100,4.1759921875,-0.053806617856025696,0.03124617598950863,-0.1894853562116623
1773150806265030400,4.186030517578125,-0.05486808344721794,0.05159098654985428,-0.1440049409866333
1773150806275067400,4.1960673828125,-0.060914523899555206,0.15928202867507935,-0.10418403148651123
1773150806285105400,4.20610546875,-0.03970184177160263,0.34743577241897583,-0.019749168306589127
1773150806295143400,4.216143310546875,-0.06926905363798141,0.5606460571289062,-0.0536930225789547
1773150806305180400,4.226180419921875,-0.2952810227870941,0.8236407041549683,-0.27004146575927734
1773150806315218400,4.236218505859375,-0.2762646973133087,0.8068718910217285,-0.46048250794410706
1773150806325255400,4.24625537109375,-0.21288751065731049,0.7278180718421936,-0.5342505574226379
1773150806335293200,4.256293212890625,-0.14203889667987823,0.8367623686790466,-0.4471217393875122
1773150806345331500,4.26633154296875,-0.03299158811569214,0.9339616894721985,-0.19028371572494507
1773150806355368400,4.276368408203125,0.020019428804516792,1.0259898900985718,0.09982188045978546
1773150806365406200,4.28640625,0.049007922410964966,1.1811001300811768,0.2834731638431549
1773150806375443500,4.296443359375,0.1524972915649414,1.2754833698272705,0.3294558525085449
1773150806385481500,4.3064814453125,0.2140899896621704,1.3488266468048096,0.25667303800582886
1773150806395519200,4.316519287109375,0.06351698935031891,1.701825737953186,0.264173299074173
1773150806405556500,4.326556396484375,-0.13200391829013824,2.0903663635253906,0.37959107756614685
1773150806415594200,4.33659423828125,-0.24826687574386597,2.4815287590026855,0.7741231918334961
1773150806425631200,4.34663134765625,-0.1923070102930069,2.94640851020813,1.4884119033813477
1773150806435669500,4.35666943359375,-0.10627811402082443,3.590993881225586,2.1455698013305664
1773150806445707300,4.366707275390625,-0.16641390323638916,4.949950695037842,2.7549474239349365
1773150806455744300,4.376744140625,-0.060355111956596375,5.891142845153809,3.3237497806549072
1773150806465782500,4.386782470703125,0.309709370136261,3.0420985221862793,2.3684120178222656
1773150806475820300,4.3968203125,0.5572124123573303,2.3778488636016846,0.5828261375427246
1773150806485857300,4.406857177734375,0.6362255215644836,3.7790894508361816,-0.9626349806785583
1773150806495895300,4.416895263671875,0.37011072039604187,5.045102596282959,-2.0898728370666504
1773150806505932300,4.426932373046875,-0.2435058206319809,5.259151458740234,-2.856275796890259
1773150806515970600,4.436970458984375,-0.9736654758453369,4.840000629425049,-3.2477028369903564
1773150806526007300,4.44700732421875,-1.5089186429977417,4.168571472167969,-3.4842910766601562
1773150806536045300,4.45704541015625,-1.799087405204773,3.4855399131774902,-3.5919547080993652
1773150806546083300,4.467083251953125,-1.0947049856185913,1.1653716564178467,-3.272602081298828
1773150806556120300,4.477120361328125,0.03818903863430023,0.3159249722957611,-2.728968381881714
1773150806566158300,4.487158447265625,0.686835527420044,0.7893407940864563,-2.118027448654175
1773150806576195300,4.4971953125,0.6115120053291321,-0.036295369267463684,-1.6676607131958008
1773150806586233300,4.5072333984375,0.31740614771842957,-0.7020191550254822,-1.3939383029937744
1773150806596271400,4.517271240234375,-0.1324707269668579,-0.8943001627922058,-1.289662480354309
1773150806606308400,4.527308349609375,-0.55840003490448,-0.9711359143257141,-1.2700374126434326
1773150806616346400,4.537346435546875,-1.017073631286621,-1.1780954599380493,-1.3098949193954468
1773150806626383400,4.54738330078125,-1.7535862922668457,-1.253870964050293,-1.4445080757141113
1773150806636421400,4.55742138671875,-2.617841958999634,-1.2012064456939697,-1.7341917753219604
1773150806646459400,4.56745947265625,-3.4474165439605713,-1.0819576978683472,-2.1303346157073975
1773150806656496400,4.577496337890625,-4.1944661140441895,-0.697627067565918,-2.547894239425659
1773150806666534400,4.587534423828125,-4.77566385269165,-0.2314576804637909,-2.9368555545806885
1773150806676572400,4.597572509765625,-5.200339317321777,0.24847562611103058,-3.315859794616699
1773150806686609200,4.607609130859375,-5.527584075927734,0.6029154658317566,-3.6839752197265625
1773150806696647400,4.6176474609375,-5.71693229675293,0.7478681206703186,-4.073215007781982
1773150806706684400,4.627684326171875,-5.784095764160156,0.8328069448471069,-4.435020446777344
1773150806716722200,4.63772216796875,-5.80030632019043,0.8993156552314758,-4.728292942047119
1773150806726760400,4.647760498046875,-5.760869026184082,0.829595685005188,-4.907710552215576
1773150806736797400,4.65779736328125,-5.658376216888428,0.7191879749298096,-5.0469231605529785
1773150806746835500,4.66783544921875,-5.5885910987854,0.6823442578315735,-5.217894554138184
1773150806756872400,4.67787255859375,-5.57389497756958,0.6717320680618286,-5.430725574493408
1773150806766910200,4.68791015625,-5.569598197937012,0.7824620008468628,-5.697446346282959
1773150806776948500,4.697948486328125,-5.694706916809082,0.5631120800971985,-5.955601215362549
1773150806786985500,4.7079853515625,-5.651914596557617,0.46596506237983704,-6.24967098236084
1773150806797023200,4.718023193359375,-5.437849044799805,0.30625367164611816,-6.514583110809326
1773150806807060200,4.728060302734375,-5.004300594329834,-0.026211127638816833,-6.617257118225098
1773150806817098500,4.738098388671875,-4.226437091827393,-0.33230847120285034,-6.509941577911377
1773150806827135200,4.74813525390625,-2.987715244293213,-0.4066988527774811,-6.314181804656982
1773150806837173500,4.758173583984375,-1.5327668190002441,0.13232387602329254,-6.02349328994751
1773150806847211300,4.768211181640625,-0.4010745584964752,0.023732280358672142,-5.655577182769775
1773150806857248300,4.778248291015625,0.2618349492549896,-0.05514628812670708,-5.441223621368408
1773150806867286500,4.78828662109375,0.8658389449119568,0.6848639249801636,-5.424949645996094
1773150806877323300,4.7983232421875,1.3177194595336914,1.712188482284546,-5.351871013641357
1773150806887361300,4.808361328125,1.657815933227539,2.740588426589966,-5.112708568572998
1773150806897399600,4.818399658203125,2.1019880771636963,3.520800828933716,-4.673862934112549
1773150806907436300,4.828436279296875,2.653231382369995,3.957785129547119,-4.099126815795898
1773150806917474300,4.838474365234375,3.234215021133423,4.066171646118164,-3.4960765838623047
1773150806927511600,4.848511474609375,3.7552530765533447,4.106904983520508,-2.9453988075256348
1773150806937549300,4.85854931640625,4.142750263214111,4.113354682922363,-2.4072232246398926
1773150806947587300,4.86858740234375,4.44908332824707,4.041370868682861,-1.835567831993103
1773150806957624300,4.878624267578125,4.705582141876221,3.87497615814209,-1.250905156135559
1773150806967662300,4.888662353515625,4.991355895996094,3.6020712852478027,-0.7291130423545837
1773150806977699300,4.89869921875,5.000858306884766,3.383573293685913,-0.05766698718070984
1773150806987737300,4.9087373046875,4.272058486938477,3.4579427242279053,0.8046625256538391
1773150806997775400,4.918775390625,3.2343201637268066,3.696004867553711,1.4985318183898926
1773150807007812400,4.928812255859375,2.4583561420440674,3.790275812149048,1.9135046005249023
1773150807017850400,4.938850341796875,2.2865848541259766,3.499358892440796,2.0426533222198486
1773150807027887400,4.948887451171875,2.3809142112731934,2.6061556339263916,2.1147422790527344
1773150807037925000,4.958925048828125,2.6687705516815186,1.4736909866333008,2.2906298637390137
1773150807047963400,4.96896337890625,2.8517534732818604,0.4003218114376068,2.3008525371551514
1773150807058001200,4.979001220703125,2.985048294067383,-0.07664206624031067,2.0559117794036865
1773150807068039200,4.9890390625,3.5514702796936035,-0.13178226351737976,1.6573188304901123
1773150807078076200,4.999076171875,3.858572244644165,-0.6094835996627808,0.9468851685523987
1773150807088114200,5.0091142578125,3.819775342941284,-0.7668255567550659,0.39257657527923584
1773150807098152200,5.019152099609375,3.52162766456604,-0.7564368844032288,0.13085494935512543
1773150807108189200,5.029189208984375,2.8252198696136475,-0.8281942009925842,0.0053650629706680775
1773150807118227200,5.039227294921875,2.149724245071411,-0.8259174227714539,-0.03844020888209343
1773150807128264200,5.04926416015625,1.6219500303268433,-1.152604103088379,-0.281717985868454
1773150807138302200,5.05930224609375,1.1302895545959473,-1.5517972707748413,-0.5398867130279541
1773150807148339200,5.069339111328125,0.6837432384490967,-1.6478698253631592,-0.5463982820510864
1773150807158377200,5.079377197265625,0.42309749126434326,-1.4536592960357666,-0.27666881680488586
1773150807168415000,5.0894150390625,0.2993939220905304,-1.2984520196914673,0.012807061895728111
1773150807178452200,5.0994521484375,0.26124441623687744,-1.4817893505096436,0.17102839052677155
1773150807188490200,5.109490234375,0.2733088731765747,-1.7849231958389282,0.07411367446184158
1773150807198527000,5.11952685546875,0.33152875304222107,-1.6784780025482178,-0.1858862042427063
1773150807208565200,5.129565185546875,0.43847063183784485,-1.4041590690612793,-0.24536342918872833
1773150807218603000,5.13960302734375,0.6329402327537537,-1.047838807106018,-0.36953410506248474
1773150807228640000,5.149639892578125,0.9290845990180969,-0.7294639348983765,-0.6210077404975891
1773150807238678300,5.15967822265625,1.1110316514968872,-0.8925161957740784,-0.6694186925888062
1773150807248715300,5.16971533203125,1.1723235845565796,-0.9764038324356079,-0.20990434288978577
1773150807258753300,5.179753173828125,1.0361154079437256,-1.019565224647522,0.2699410915374756
1773150807268791300,5.189791259765625,0.85139399766922,-0.6480634808540344,0.4019821286201477
1773150807278828000,5.199828125,0.7631738781929016,-0.05173325911164284,0.32764583826065063
1773150807288866300,5.2098662109375,0.683786153793335,0.6279849410057068,0.2857498526573181
1773150807298903300,5.2199033203125,0.14859114587306976,1.1577439308166504,0.4784844219684601
1773150807308941000,5.229941162109375,-0.4320114850997925,1.3040601015090942,0.6462212800979614
1773150807318979300,5.239979248046875,-0.5672388076782227,0.17011596262454987,0.6688815951347351
1773150807329016300,5.250016357421875,-0.839418888092041,-1.2009180784225464,0.7734690308570862
1773150807339054000,5.26005419921875,-1.4492623805999756,-2.024060010910034,0.945560097694397
1773150807349091300,5.27009130859375,-2.2965328693389893,-2.25009822845459,1.1191331148147583
1773150807359129000,5.280129150390625,-3.1180360317230225,-2.1429545879364014,1.2037532329559326
1773150807369166000,5.290166015625,-3.783715009689331,-1.9546626806259155,1.2099701166152954
1773150807379204400,5.300204345703125,-4.224750995635986,-2.160670518875122,0.9642195105552673
1773150807389242000,5.3102421875,-4.2705230712890625,-2.085151433944702,0.555869460105896
1773150807399279000,5.320279052734375,-4.28063440322876,-1.7924367189407349,0.16269551217556
1773150807409317400,5.3303173828125,-4.246129512786865,-1.422925353050232,-0.3464875817298889
1773150807419354000,5.34035400390625,-4.06466817855835,-0.9779140949249268,-0.9335764050483704
1773150807429392100,5.35039208984375,-3.6942570209503174,-0.6118574142456055,-1.4628078937530518
1773150807439430100,5.36043017578125,-3.2126340866088867,-0.24091503024101257,-1.7907214164733887
1773150807449467100,5.370467041015625,-2.6938655376434326,-0.3685675263404846,-1.8089302778244019
1773150807459505200,5.380505126953125,-2.0542240142822266,-1.2638466358184814,-1.5055522918701172
1773150807469542100,5.390542236328125,-1.443938970565796,-1.9010392427444458,-1.38650381565094
1773150807479580200,5.400580078125,-0.8861322999000549,-2.289926052093506,-1.466356873512268
1773150807489618200,5.4106181640625,-0.5503868460655212,-2.331981658935547,-1.546213150024414
1773150807499655200,5.4206552734375,-0.4972674548625946,-1.6270411014556885,-1.60382080078125
1773150807509693200,5.430693115234375,-0.7408849596977234,-1.1791378259658813,-1.521971344947815
1773150807519730200,5.440730224609375,-0.9704081416130066,-0.8031468391418457,-1.3893581628799438
1773150807529768200,5.450768310546875,-1.1496566534042358,-0.9356226921081543,-1.0705487728118896
1773150807539805200,5.46080517578125,-1.1838289499282837,-1.1643248796463013,-0.6757063865661621
1773150807549843200,5.47084326171875,-1.1095967292785645,-1.247987985610962,-0.34167811274528503
1773150807559881200,5.480881103515625,-0.9215782880783081,-1.0527421236038208,-0.16279171407222748
1773150807569918200,5.490918212890625,-0.7010020613670349,-0.5910331010818481,-0.17505444586277008
1773150807579956200,5.500956298828125,-0.58046954870224,-0.17634513974189758,-0.3786099851131439
1773150807589993200,5.5109931640625,-0.3078339099884033,0.0303958673030138,-0.5332028269767761
1773150807600031200,5.52103125,0.2333691418170929,0.24403785169124603,-0.4371489882469177
1773150807610069200,5.5310693359375,0.7172163724899292,0.20607103407382965,-0.3703393042087555
1773150807620106200,5.541106201171875,1.063151478767395,0.08472170680761337,-0.20898078382015228
1773150807630144000,5.55114404296875,1.2986880540847778,0.03169375658035278,0.028512021526694298
1773150807640181200,5.56118115234375,1.4656966924667358,-0.22767549753189087,0.24488453567028046
1773150807650219300,5.57121923828125,1.4227004051208496,-0.7526386976242065,0.35128459334373474
1773150807660256300,5.58125634765625,1.1411796808242798,-1.4341909885406494,0.30133485794067383
1773150807670294300,5.591294189453125,0.4539641737937927,-1.7095661163330078,0.13333725929260254
1773150807680332300,5.601332275390625,-0.268981009721756,-1.9751381874084473,-0.02244594320654869
1773150807690369000,5.611369140625,-0.9831582307815552,-2.0501813888549805,-0.1293828785419464
1773150807700407300,5.6214072265625,-1.6531187295913696,-2.050818920135498,-0.27027076482772827
1773150807710444300,5.6314443359375,-1.9839380979537964,-2.164907693862915,-0.5736908316612244
1773150807720482000,5.64148193359375,-2.4885196685791016,-2.539503812789917,-1.0329854488372803
1773150807730520300,5.651520263671875,-2.766415596008301,-2.523800849914551,-0.9259588122367859
1773150807740557300,5.661557373046875,-2.6187310218811035,-2.0677602291107178,-0.6477987766265869
1773150807750595000,5.671594970703125,-2.4537408351898193,-1.1318912506103516,-0.5433138012886047
1773150807760632300,5.68163232421875,-2.621490478515625,0.49767833948135376,-0.5855861902236938
1773150807770670000,5.691670166015625,-2.980738878250122,1.9200482368469238,-0.7559613585472107
1773150807780708000,5.7017080078125,-3.1911559104919434,2.6221237182617188,-0.7990089058876038
1773150807790745300,5.711745361328125,-3.107938051223755,3.1016690731048584,-0.6714362502098083
1773150807800783000,5.721783203125,-3.0671191215515137,3.354301929473877,-0.6044827699661255
1773150807810820000,5.731820068359375,-3.3184831142425537,2.7169482707977295,-1.1805520057678223
1773150807820858400,5.7418583984375,-3.480220079421997,2.7509989738464355,-1.65126633644104
1773150807830895000,5.75189501953125,-3.5342090129852295,2.6749894618988037,-1.9739227294921875
1773150807840933000,5.76193310546875,-3.312298536300659,2.1127419471740723,-2.3401124477386475
1773150807850971100,5.77197119140625,-2.7291312217712402,0.9416874051094055,-2.7735562324523926
1773150807861008100,5.782008056640625,-1.9767318964004517,-0.46257907152175903,-2.9407589435577393
1773150807871046400,5.79204638671875,-1.1904162168502808,-1.4666013717651367,-2.541455030441284
1773150807881083100,5.802083251953125,-0.268775999546051,-2.2586915493011475,-1.8246853351593018
1773150807891121200,5.81212109375,0.8040072917938232,-2.8256282806396484,-1.0351612567901611
1773150807901159200,5.8221591796875,1.4861557483673096,-2.9189083576202393,-0.3210207521915436
1773150807911196200,5.832196044921875,1.8631256818771362,-2.901366949081421,0.16876445710659027
1773150807921234200,5.842234130859375,1.8641371726989746,-2.8348913192749023,0.4058617055416107
1773150807931271200,5.852271240234375,1.5558139085769653,-2.6579298973083496,0.36321473121643066
1773150807941309200,5.86230908203125,1.2592523097991943,-2.8214762210845947,0.18547643721103668
1773150807951346200,5.87234619140625,0.8206536173820496,-2.9065134525299072,-0.11898177117109299
1773150807961384200,5.88238427734375,0.27048611640930176,-2.6575279235839844,-0.38637858629226685
1773150807971422200,5.892422119140625,-0.3149173855781555,-2.04811954498291,-0.5334293842315674
1773150807981459200,5.902459228515625,-0.9235846996307373,-1.1243354082107544,-0.5730108618736267
1773150807991497200,5.912497314453125,-1.4595813751220703,-0.0019188628066331148,-0.47991156578063965
1773150808001534200,5.9225341796875,-1.7262012958526611,1.0785043239593506,-0.3050936758518219
1773150808011572200,5.932572265625,-1.6590827703475952,1.967446208000183,-0.06780797988176346
1773150808021609200,5.942609130859375,-1.3178300857543945,2.58467960357666,0.21398748457431793
1773150808031647200,5.952647216796875,-0.813398003578186,2.943203926086426,0.5098497867584229
1773150808041685000,5.96268505859375,-0.24056778848171234,3.0615153312683105,0.7866291999816895
1773150808051722200,5.97272216796875,0.27671951055526733,3.0577938556671143,0.973471999168396
1773150808061759200,5.98275927734375,0.6976102590560913,3.032421827316284,1.0494413375854492
1773150808071796500,5.99279638671875,1.0323644876480103,2.9914498329162598,0.9928421378135681
1773150808081834200,6.002834228515625,1.22678804397583,2.9164085388183594,0.823308527469635
1773150808091872300,6.012872314453125,1.2687098979949951,2.792609453201294,0.6074088215827942
1773150808101909500,6.022909423828125,1.2054544687271118,2.6300532817840576,0.40875330567359924
1773150808111947300,6.032947265625,1.0352909564971924,2.3781933784484863,0.23514722287654877
1773150808121984300,6.042984375,0.771766722202301,2.0886149406433105,0.09487000852823257
1773150808132022300,6.053022216796875,0.4462631344795227,1.804339051246643,-0.027599429711699486
1773150808142059300,6.063059326171875,0.07264428585767746,1.5400221347808838,-0.14188152551651
1773150808152097300,6.07309716796875,-0.29516729712486267,1.296810269355774,-0.26175564527511597
1773150808162135300,6.08313525390625,-0.5324549674987793,1.016606092453003,-0.3833867311477661
1773150808172172300,6.09317236328125,-0.5870124697685242,0.7441742420196533,-0.5360110402107239
1773150808182210300,6.103210205078125,-0.402730792760849,0.4521948993206024,-0.6787697672843933
1773150808192247300,6.113247314453125,-0.07538534700870514,0.17494702339172363,-0.7353878021240234
1773150808202285300,6.123285400390625,0.21457642316818237,0.00502377562224865,-0.7296071648597717
1773150808212322300,6.133322265625,0.3760828971862793,-0.07684197276830673,-0.6830923557281494
1773150808222360300,6.1433603515625,0.47834908962249756,-0.05192703753709793,-0.6146938800811768
1773150808232398300,6.1533984375,0.5319169163703918,0.04528122767806053,-0.5212851166725159
1773150808242435300,6.163435302734375,0.5235782861709595,0.21714620292186737,-0.3878767490386963
1773150808252473300,6.173473388671875,0.45802202820777893,0.43870916962623596,-0.23277707397937775
1773150808262510300,6.18351025390625,0.3572418987751007,0.6699748635292053,-0.06453267484903336
1773150808272548000,6.193548095703125,0.2566785514354706,0.8922339081764221,0.07402646541595459
1773150808282585300,6.20358544921875,0.18982121348381042,1.0687391757965088,0.16409458220005035
1773150808292623400,6.213623291015625,0.16407689452171326,1.14668869972229,0.21592950820922852
1773150808302661400,6.223661376953125,0.16997845470905304,1.129827618598938,0.2409168928861618
1773150808312698400,6.233698486328125,0.18373261392116547,1.0215791463851929,0.2481982409954071
1773150808322736400,6.243736328125,0.17179979383945465,0.847025990486145,0.2655114233493805
1773150808332773000,6.253773193359375,0.08079843968153,0.6500253081321716,0.28720247745513916
1773150808342811400,6.263811279296875,-0.020849093794822693,0.44486790895462036,0.2984705865383148
1773150808352849200,6.27384912109375,-0.08365658670663834,0.26745811104774475,0.2753069996833801
1773150808362886400,6.283886474609375,-0.1193258985877037,0.1274900883436203,0.24268727004528046
1773150808372924400,6.29392431640625,-0.1405836045742035,0.011432761326432228,0.22090443968772888
1773150808382961200,6.303961181640625,-0.151625856757164,-0.09134607762098312,0.2161616086959839
1773150808392999400,6.31399951171875,-0.1348864883184433,-0.17746290564537048,0.22755597531795502
1773150808403036400,6.324036376953125,-0.13517703115940094,-0.22814631462097168,0.2391367405653
1773150808413074200,6.33407421875,-0.16315871477127075,-0.23106607794761658,0.24297001957893372
1773150808423112400,6.344112548828125,-0.20113618671894073,-0.19521646201610565,0.2368098497390747
1773150808433149400,6.3541494140625,-0.21843166649341583,-0.1474437564611435,0.22285348176956177
1773150808443187200,6.364187255859375,-0.21513573825359344,-0.10194763541221619,0.21521367132663727
1773150808453224400,6.374224365234375,-0.21056242287158966,-0.059766050428152084,0.20549005270004272
1773150808463262200,6.38426220703125,-0.21160531044006348,-0.013536238111555576,0.18886767327785492
1773150808473299200,6.39429931640625,-0.22437414526939392,0.05465124920010567,0.1616135984659195
1773150808483337500,6.40433740234375,-0.23444728553295135,0.13294658064842224,0.11222340911626816
1773150808493375200,6.414375244140625,-0.22670942544937134,0.20121707022190094,0.059403691440820694
1773150808503412200,6.424412109375,-0.21374675631523132,0.23146311938762665,0.02158227749168873
1773150808513450500,6.434450439453125,-0.2088470309972763,0.2233538031578064,0.0007066550897434354
1773150808523487200,6.4444873046875,-0.19736400246620178,0.20193958282470703,-0.015239287167787552
1773150808533525200,6.454525146484375,-0.17595908045768738,0.19030046463012695,-0.04377538710832596
1773150808543562500,6.4645625,-0.1514476239681244,0.18027952313423157,-0.075117327272892
1773150808553600300,6.474600341796875,-0.1292387694120407,0.166468545794487,-0.08604569733142853
1773150808563638300,6.48463818359375,-0.11801514029502869,0.13355107605457306,-0.05940822511911392
1773150808573675500,6.494675537109375,-0.09359733760356903,0.10798979550600052,-0.01261741854250431
1773150808583713300,6.50471337890625,-0.053010232746601105,0.11509351432323456,0.057507339864969254
1773150808593750300,6.514750244140625,-0.0020575029775500298,0.1551971137523651,0.13197357952594757
1773150808603788300,6.524788330078125,0.055214837193489075,0.20096513628959656,0.2265048772096634
1773150808613825300,6.5348251953125,0.12184527516365051,0.22435443103313446,0.3555547595024109
1773150808623863300,6.54486328125,0.180422842502594,0.25417518615722656,0.4810602366924286
1773150808633901300,6.5549013671875,0.24386289715766907,0.3084166347980499,0.5793006420135498
1773150808643938300,6.564938232421875,0.30760619044303894,0.41793006658554077,0.6363902688026428
1773150808653976300,6.574976318359375,0.37457138299942017,0.5947194695472717,0.666415274143219
1773150808664013300,6.585013427734375,0.4338642656803131,0.8120158314704895,0.6949649453163147
1773150808674051300,6.59505126953125,0.49877169728279114,1.0557122230529785,0.7631661295890808
1773150808684088300,6.60508837890625,0.5825414061546326,1.3039207458496094,0.8837825655937195
1773150808694126300,6.615126220703125,0.7151613235473633,1.548583745956421,1.0489380359649658
1773150808704164400,6.625164306640625,0.8775848746299744,1.7616629600524902,1.2448724508285522
1773150808714201000,6.635201171875,1.0462805032730103,1.903390645980835,1.4492263793945312
1773150808724239400,6.6452392578125,1.2286159992218018,1.9605730772018433,1.6447114944458008
1773150808734276400,6.6552763671875,1.3311434984207153,1.9390851259231567,1.7766692638397217
1773150808744314400,6.665314453125,1.3136159181594849,1.8389322757720947,1.8311928510665894
1773150808754351400,6.675351318359375,1.1664670705795288,1.6810106039047241,1.8243365287780762
1773150808764389400,6.685389404296875,0.9815880060195923,1.478095531463623,1.8167539834976196
1773150808774427400,6.695427490234375,0.8434249758720398,1.1887283325195312,1.894412875175476
1773150808784464400,6.70546435546875,0.7624347805976868,0.8465705513954163,2.0675201416015625
1773150808794502100,6.715502197265625,0.6366209387779236,0.4488029181957245,2.244514226913452
1773150808804539100,6.7255390625,0.44596758484840393,-0.03208222612738609,2.331411123275757
1773150808814577400,6.735577392578125,0.21253153681755066,-0.5818073153495789,2.251340389251709
1773150808824614400,6.745614501953125,-0.010926575399935246,-1.0848039388656616,2.03312087059021
1773150808834652400,6.75565234375,-0.17584748566150665,-1.3095369338989258,1.6664072275161743
1773150808844690400,6.7656904296875,-0.18964877724647522,-1.0221562385559082,1.2803434133529663
1773150808854727200,6.77572705078125,-0.07652013748884201,-0.3699946999549866,0.9930048584938049
1773150808864765400,6.785765380859375,0.04773762822151184,0.2394942045211792,0.8423157930374146
1773150808874802400,6.795802490234375,0.15079334378242493,0.5445848703384399,0.7726108431816101
1773150808884840200,6.805840087890625,0.24229130148887634,0.6057425141334534,0.6981192827224731
1773150808894877200,6.815877197265625,0.3115810453891754,0.5163860321044922,0.573519766330719
1773150808904915500,6.82591552734375,0.3205931782722473,0.41464129090309143,0.3696174621582031
1773150808914953200,6.835953125,0.2875341475009918,0.32327815890312195,0.12729103863239288
1773150808924990500,6.845990478515625,0.20020243525505066,0.2695100009441376,-0.1212143748998642
1773150808935028200,6.8560283203125,0.08592110872268677,0.2586919665336609,-0.35160595178604126
1773150808945065200,6.866065185546875,0.023583970963954926,0.2589217722415924,-0.5366879105567932
1773150808955103500,6.876103515625,0.007894233800470829,0.28318774700164795,-0.6930331587791443
1773150808965140200,6.88614013671875,0.0010690847411751747,0.2899545729160309,-0.8176573514938354
1773150808975178200,6.89617822265625,-0.007151294499635696,0.22866672277450562,-0.9167205691337585
1773150808985216300,6.90621630859375,-0.003093702718615532,0.08291245251893997,-0.9713758230209351
1773150808995253200,6.916253173828125,0.010139847174286842,-0.18031656742095947,-0.9737503528594971
1773150809005291300,6.926291259765625,0.009070055559277534,-0.5238044261932373,-0.9334085583686829
1773150809015328500,6.93632861328125,-0.023221325129270554,-0.986601710319519,-0.8321173787117004
1773150809025366300,6.9463662109375,-0.06801488995552063,-1.5620245933532715,-0.6464654803276062
1773150809035403300,6.9564033203125,-0.09471766650676727,-2.0163280963897705,-0.4006803035736084
1773150809045441300,6.966441162109375,-0.07739140093326569,-2.0998644828796387,-0.12334990501403809
1773150809055478300,6.976478271484375,-0.003889830783009529,-1.7672005891799927,0.19278821349143982
1773150809065516800,6.986516845703125,0.06801658123731613,-1.097257137298584,0.4999617338180542
1773150809075554800,6.996554931640625,0.09905105829238892,-0.28154101967811584,0.6888810396194458
1773150809085591800,7.006591796875,0.11161904782056808,0.37393084168434143,0.7200086116790771
1773150809095629800,7.0166298828125,0.12578989565372467,0.7131896615028381,0.6604968905448914
1773150809105666800,7.026666748046875,0.1902434527873993,0.799122154712677,0.6171579360961914
1773150809115704800,7.036704833984375,0.29518941044807434,0.7739996910095215,0.5878263115882874
1773150809125741800,7.046741943359375,0.41999712586402893,0.7606764435768127,0.5498557686805725
1773150809135779800,7.05677978515625,0.4981842637062073,0.8017177581787109,0.46141305565834045
1773150809145817900,7.06681787109375,0.48006969690322876,0.9078612327575684,0.3397103250026703
1773150809155854600,7.0768544921875,0.40401121973991394,1.0245391130447388,0.2202068716287613
1773150809165892900,7.086892822265625,0.37282267212867737,1.0720880031585693,0.16833674907684326
1773150809175929900,7.096929931640625,0.4075668752193451,1.0680372714996338,0.20516297221183777
1773150809185967900,7.1069677734375,0.4837130606174469,1.0758781433105469,0.2576930522918701
1773150809196004900,7.1170048828125,0.5740784406661987,1.094356656074524,0.23102854192256927
1773150809206043000,7.12704296875,0.660281777381897,1.0901219844818115,0.06841965019702911
1773150809216081000,7.137080810546875,0.7326505780220032,0.9686309099197388,-0.14467307925224304
1773150809226118000,7.147117919921875,0.7324963808059692,0.7669891715049744,-0.2844397723674774
1773150809236155600,7.15715576171875,0.703859269618988,0.43258917331695557,-0.2854703664779663
1773150809246193000,7.16719287109375,0.6419652700424194,-0.04298640787601471,-0.15053974092006683
1773150809256231000,7.17723095703125,0.5399169921875,-0.621819794178009,0.02087727189064026
1773150809266268000,7.187267822265625,0.32876452803611755,-1.2371320724487305,0.14517739415168762
1773150809276306000,7.197305908203125,0.07985521852970123,-1.614886999130249,0.1745501309633255
1773150809286343000,7.207343017578125,0.002440853975713253,-1.642699122428894,0.13145458698272705
1773150809296380700,7.217380615234375,-0.0024694325402379036,-1.474037528038025,0.0605754628777504
1773150809306419000,7.2274189453125,0.004048122093081474,-1.2504619359970093,0.0220312662422657
1773150809316456000,7.2374560546875,0.013112613931298256,-1.0715187788009644,-0.005797010846436024
1773150809326493700,7.24749365234375,0.03323759138584137,-0.9734604358673096,-0.028115898370742798
1773150809336531000,7.257531005859375,0.044796086847782135,-0.9659568071365356,-0.05404568091034889
1773150809346568700,7.267568603515625,0.05402819812297821,-1.012243390083313,-0.04457548260688782
1773150809356605700,7.277605712890625,0.024946747347712517,-1.0245082378387451,0.03303808718919754
1773150809366644000,7.28764404296875,-0.009573946706950665,-0.941270112991333,0.20208889245986938
1773150809376681700,7.297681640625,-0.055623140186071396,-0.7134438753128052,0.4939151704311371
1773150809386718700,7.30771875,-0.08217139542102814,-0.3297867476940155,0.845272958278656
1773150809396757000,7.317757080078125,-0.0587468184530735,0.16680583357810974,1.0893422365188599
1773150809406793700,7.327793701171875,0.08640104532241821,0.8326424360275269,1.2747646570205688
1773150809416831700,7.337831787109375,0.3670589327812195,1.7005088329315186,1.4409475326538086
1773150809426869000,7.347868896484375,0.6428457498550415,2.509605884552002,1.434111475944519
1773150809436906800,7.35790673828125,0.7943655252456665,2.851911783218384,1.1612017154693604
1773150809446943700,7.36794384765625,0.908733069896698,2.8257954120635986,0.8580630421638489
1773150809456982000,7.37798193359375,1.0384353399276733,2.5915145874023438,0.6928584575653076
1773150809467019800,7.388019775390625,1.2055883407592773,2.3866186141967773,0.9002990126609802
1773150809477056800,7.398056884765625,1.3407220840454102,2.0627810955047607,1.459631085395813
1773150809487094800,7.4080947265625,1.376377820968628,1.173525094985962,1.5638206005096436
1773150809497131800,7.4181318359375,1.1991764307022095,0.1535423994064331,1.086439609527588
1773150809507169800,7.428169677734375,0.9165763258934021,-0.4526897370815277,0.6799712181091309
1773150809517206800,7.438206787109375,0.7639294862747192,-0.013664410449564457,0.7520507574081421
1773150809527244800,7.448244873046875,0.8318597674369812,1.2105052471160889,1.2494444847106934
1773150809537281800,7.45828173828125,1.0350122451782227,1.8845940828323364,1.4889438152313232
1773150809547319800,7.46831982421875,1.191440224647522,1.6407418251037598,1.257130742073059
1773150809557357800,7.47835791015625,1.221434235572815,0.7328743934631348,0.8277614712715149
1773150809567394800,7.488394775390625,1.1571120023727417,-0.3830409348011017,0.527826189994812
1773150809577432800,7.498432861328125,1.0235387086868286,-0.9154558181762695,0.7091836929321289
1773150809587469800,7.5084697265625,0.8619460463523865,-0.9482723474502563,1.2416627407073975
1773150809597507800,7.5185078125,0.7584038376808167,-1.1941431760787964,1.5770082473754883
1773150809607544800,7.528544921875,0.6706529259681702,-1.7113956212997437,1.569307804107666
1773150809617582800,7.538582763671875,0.5353499054908752,-2.1152889728546143,1.436163306236267
1773150809627619800,7.548619873046875,0.39471718668937683,-1.8743401765823364,1.3499243259429932
1773150809637657900,7.558657958984375,0.41023844480514526,-1.1875088214874268,1.2865852117538452
1773150809647696000,7.56869580078125,0.5453195571899414,-0.4854949414730072,1.1145247220993042
1773150809657732600,7.578732666015625,0.606407105922699,-0.040016449987888336,0.8780016899108887
1773150809667771000,7.58877099609375,0.6921854019165039,0.25670045614242554,0.696057140827179
1773150809677807900,7.598807861328125,0.8326978087425232,0.519711434841156,0.5615903735160828
1773150809687845600,7.608845703125,0.9634068012237549,0.8754335641860962,0.5351486206054688
1773150809697883000,7.6188828125,1.0810952186584473,1.136247992515564,0.5359861254692078
1773150809707921000,7.6289208984375,1.1190426349639893,1.0484362840652466,0.5082330107688904
1773150809717959000,7.638958984375,1.0230835676193237,0.7225748896598816,0.5121119022369385
1773150809727996000,7.648995849609375,0.8690208196640015,0.3303444981575012,0.5591060519218445
1773150809738033700,7.65903369140625,0.7616574168205261,0.09689595550298691,0.6998811364173889
1773150809748070700,7.669070556640625,0.718028724193573,-0.05477399751543999,0.8083900213241577
1773150809758109000,7.67910888671875,0.688470184803009,-0.16428139805793762,0.8231561779975891
1773150809768146000,7.68914599609375,0.6321150660514832,-0.2788713574409485,0.7951756715774536
1773150809778183700,7.69918359375,0.5636640191078186,-0.3780820071697235,0.7626248598098755
1773150809788221000,7.709220947265625,0.5539379119873047,-0.3094283938407898,0.7593520879745483
1773150809798258700,7.7192587890625,0.6049169898033142,-0.10954214632511139,0.7779189944267273
1773150809808297000,7.729296875,0.673310399055481,0.011001584120094776,0.7205028533935547
1773150809818334000,7.739333984375,0.7024939060211182,-0.026484660804271698,0.6823450326919556
1773150809828371700,7.749371826171875,0.6984701752662659,-0.05951318517327309,0.7313911318778992
1773150809838408700,7.75940869140625,0.660939633846283,-0.05983418971300125,0.7471664547920227
1773150809848446700,7.76944677734375,0.6244138479232788,-0.050832975655794144,0.7067641615867615
1773150809858483700,7.779483642578125,0.6123124957084656,0.08085344731807709,0.6123185753822327
1773150809868522000,7.78952197265625,0.6342074275016785,0.27803149819374084,0.5247855186462402
1773150809878559000,7.79955908203125,0.6905413866043091,0.2929913401603699,0.4777109622955322
1773150809888596700,7.8095966796875,0.6686320900917053,0.2453998327255249,0.5173063278198242
1773150809898635000,7.819635009765625,0.6075224876403809,0.12126009166240692,0.5048561096191406
1773150809908671700,7.829671630859375,0.5926119685173035,-0.07853025197982788,0.42155587673187256
1773150809918709800,7.839709716796875,0.62311851978302,-0.026770927011966705,0.36080846190452576
1773150809928746800,7.849746826171875,0.7066384553909302,0.03570789843797684,0.3627467155456543
1773150809938784800,7.85978466796875,0.7698365449905396,0.033887483179569244,0.34471261501312256
1773150809948821800,7.86982177734375,0.6239603161811829,-0.27050572633743286,0.4065280556678772
1773150809958860000,7.879860107421875,0.4550741910934448,-0.4957032799720764,0.44356897473335266
1773150809968896800,7.889896728515625,0.34003734588623047,-0.57209312915802,0.38001957535743713
1773150809978934800,7.899934814453125,0.2873724102973938,-0.5254027843475342,0.34469079971313477
1773150809988972800,7.909972900390625,0.31511831283569336,-0.27418839931488037,0.3585139513015747
1773150809999009800,7.920009765625,0.35553061962127686,-0.1905362606048584,0.33578404784202576
1773150810009047800,7.9300478515625,0.3512863218784332,-0.15884996950626373,0.3526117503643036
1773150810019085000,7.9400849609375,0.3137461543083191,-0.04691324383020401,0.34822914004325867
1773150810029122800,7.950122802734375,0.3139033019542694,-0.036099739372730255,0.31653088331222534
1773150810039159800,7.960159912109375,0.34176793694496155,-0.04087591916322708,0.3552435040473938
1773150810049197800,7.97019775390625,0.38610368967056274,0.05963257700204849,0.4085543751716614
1773150810059234600,7.980234619140625,0.3878498375415802,-0.01194994617253542,0.404001921415329
1773150810069272800,7.99027294921875,0.33879199624061584,-0.07890394330024719,0.39301931858062744
1773150810079309800,8.000309814453125,0.2638252079486847,-0.15822646021842957,0.3808824419975281
1773150810089347600,8.01034765625,0.17055252194404602,-0.16522684693336487,0.38381245732307434
1773150810099385900,8.0203857421875,0.09622050821781158,-0.18326601386070251,0.4228585958480835
1773150810109422600,8.030422607421874,0.009655253030359745,-0.21936117112636566,0.48416003584861755
1773150810119460600,8.040460693359375,-0.06365355849266052,-0.24012817442417145,0.521273672580719
1773150810129497900,8.050497802734375,-0.09492360055446625,-0.2528151869773865,0.47647643089294434
1773150810139535600,8.06053564453125,-0.10753503441810608,-0.1743595004081726,0.41485947370529175
1773150810149572600,8.070572509765626,-0.08335353434085846,-0.00251423055306077,0.36630284786224365
1773150810159610600,8.080610595703124,-0.03274370729923248,0.06923443078994751,0.28913334012031555
1773150810169647600,8.090647705078124,0.026877012103796005,0.01716536469757557,0.2618439197540283
1773150810179685600,8.100685546875,-0.01706511899828911,0.08733786642551422,0.21965345740318298
1773150810189723600,8.1107236328125,-0.04491672292351723,0.19031110405921936,0.21036064624786377
1773150810199760600,8.1207607421875,-0.013471245765686035,0.2574445903301239,0.196549654006958
1773150810209798700,8.130798583984374,0.01573564112186432,0.3276178240776062,0.19872678816318512
1773150810219835600,8.140835693359374,0.026499271392822266,0.19193212687969208,0.21062150597572327
1773150810229873700,8.150873779296875,-0.027377009391784668,-0.04274376109242439,0.24663783609867096
1773150810239910700,8.16091064453125,-0.07865258306264877,-0.1679796576499939,0.26569339632987976
1773150810249948700,8.17094873046875,-0.14082062244415283,-0.15643060207366943,0.23410698771476746
1773150810259985700,8.180985595703126,-0.2293466478586197,0.010262241587042809,0.17670543491840363
1773150810270023700,8.191023681640624,-0.20308628678321838,0.05953258275985718,0.1333635449409485
1773150810280061700,8.201061767578125,-0.20516327023506165,0.09975235909223557,0.09440498799085617
1773150810290099700,8.211099609375,-0.20017249882221222,0.19855616986751556,0.038502037525177
1773150810300137700,8.2211376953125,-0.17753778398036957,0.18273280560970306,-0.022818339988589287
1773150810310175700,8.23117578125,-0.1735590249300003,0.24273516237735748,-0.04413561150431633
1773150810320212500,8.24121240234375,-0.19600863754749298,0.15976832807064056,-0.05878093093633652
1773150810330250800,8.251250732421875,-0.26218125224113464,0.1259152889251709,-0.11258663982152939
1773150810340287700,8.261287841796875,-0.29329490661621094,0.1407315880060196,-0.1323406994342804
1773150810350325500,8.271325439453125,-0.30942192673683167,0.12431266903877258,-0.15147124230861664
1773150810360362800,8.28136279296875,-0.2918776571750641,0.012889368459582329,-0.08615466952323914
1773150810370400800,8.29140087890625,-0.3140828311443329,0.040490902960300446,-0.13269047439098358
1773150810380437500,8.3014375,-0.3465331196784973,0.18135125935077667,-0.228148952126503
1773150810390475800,8.311475830078125,-0.3298529386520386,0.19211922585964203,-0.30221039056777954
1773150810400513500,8.321513427734375,-0.3352108895778656,0.31301629543304443,-0.3602878749370575
1773150810410550500,8.331550537109376,-0.3307058811187744,0.4230045974254608,-0.3957340121269226
1773150810420588800,8.3415888671875,-0.30397269129753113,0.35848385095596313,-0.43223461508750916
1773150810430625800,8.351625732421875,-0.30621081590652466,0.17023539543151855,-0.4553641676902771
1773150810440663600,8.36166357421875,-0.3107522130012512,0.1754857748746872,-0.5284774899482727
1773150810450700800,8.37170068359375,-0.3690996766090393,0.3503230810165405,-0.625651478767395
1773150810460738600,8.381738525390626,-0.36115413904190063,0.4215242862701416,-0.6711009740829468
1773150810470775600,8.391775634765626,-0.3267860412597656,0.23145610094070435,-0.6742818355560303
1773150810480813800,8.401813720703124,-0.3467641770839691,0.10808894783258438,-0.6767194867134094
1773150810490850600,8.4118505859375,-0.38967064023017883,0.12085161358118057,-0.6852312088012695
1773150810500888600,8.421888671875,-0.41104570031166077,0.12695972621440887,-0.703528106212616
1773150810510926800,8.4319267578125,-0.43736863136291504,0.11277280747890472,-0.7248623967170715
1773150810520963600,8.441963623046876,-0.42100438475608826,0.12290998548269272,-0.7572367787361145
1773150810531001900,8.452001953125,-0.36210620403289795,-0.02560226060450077,-0.8087596297264099
1773150810541038800,8.462038818359375,-0.3646358549594879,0.02843981422483921,-0.8594498038291931
1773150810551076600,8.47207666015625,-0.40878838300704956,0.12613707780838013,-0.9277766346931458
1773150810561113600,8.482113525390625,-0.45742669701576233,0.2113262265920639,-0.95899498462677
1773150810571151600,8.492151611328126,-0.45070886611938477,0.19608469307422638,-0.9576109051704407
1773150810581188600,8.502188720703124,-0.44673630595207214,0.23858749866485596,-0.9671027660369873
1773150810591226600,8.5122265625,-0.386188268661499,0.1270894557237625,-0.975864052772522
1773150810601264600,8.5222646484375,-0.4125160276889801,0.13900303840637207,-0.9869461059570312
1773150810611301600,8.532301513671875,-0.45827022194862366,0.19292353093624115,-1.0059802532196045
1773150810621340000,8.54233984375,-0.4604072570800781,0.12857738137245178,-0.9839172959327698
1773150810631376600,8.552376708984376,-0.4619351327419281,0.014278511516749859,-0.9613711833953857
1773150810641414700,8.56241455078125,-0.4920288026332855,-0.009427357465028763,-0.9557111263275146
1773150810651451600,8.57245166015625,-0.5084189176559448,0.003989116288721561,-0.9822173118591309
1773150810661489700,8.58248974609375,-0.550457239151001,0.15877321362495422,-1.008127212524414
1773150810671526700,8.592526611328125,-0.5664551258087158,0.2376030534505844,-1.0269280672073364
1773150810681564700,8.602564697265626,-0.559318482875824,0.15988369286060333,-0.997327983379364
1773150810691601700,8.6126015625,-0.5848132371902466,0.06497901678085327,-0.9477306008338928
1773150810701639700,8.6226396484375,-0.6320481300354004,-0.005953882820904255,-0.94855797290802
1773150810711677700,8.632677734375,-0.6742432713508606,0.07262694835662842,-0.9323568940162659
1773150810721714700,8.642714599609375,-0.6734011173248291,0.18502169847488403,-0.9061474800109863
1773150810731752700,8.652752685546876,-0.6645245552062988,0.19732816517353058,-0.914756178855896
1773150810741789700,8.662789794921874,-0.6481385231018066,0.11546504497528076,-0.916909396648407
1773150810751827700,8.67282763671875,-0.6482383608818054,-0.010289155878126621,-0.9567263126373291
1773150810761864700,8.68286474609375,-0.7149062156677246,0.027820361778140068,-0.9946909546852112
1773150810771902700,8.69290283203125,-0.7861300706863403,0.06490141898393631,-1.019242286682129
1773150810781939700,8.702939697265625,-0.8730849623680115,0.1530054360628128,-1.0185850858688354
1773150810791977700,8.712977783203126,-0.9457256197929382,0.2784954607486725,-0.9989327788352966
1773150810802015700,8.723015625,-0.98116534948349,0.30742335319519043,-1.021910548210144
1773150810812052700,8.733052734375,-0.9937514066696167,0.25346556305885315,-1.044048547744751
1773150810822090800,8.7430908203125,-1.0064237117767334,0.16433119773864746,-1.0632723569869995
1773150810832127500,8.75312744140625,-1.0829216241836548,0.18031682074069977,-1.0587091445922852
1773150810842165800,8.763165771484376,-1.1808745861053467,0.20244355499744415,-1.077813982963562
1773150810852202800,8.77320263671875,-1.3150619268417358,0.21634499728679657,-1.125107765197754
1773150810862240800,8.78324072265625,-1.4573755264282227,0.1824788600206375,-1.1431386470794678
1773150810872277800,8.79327783203125,-1.5998708009719849,0.17975765466690063,-1.1762399673461914
1773150810882315500,8.8033154296875,-1.7303236722946167,0.2280822992324829,-1.2513692378997803
1773150810892352500,8.8133525390625,-1.8075754642486572,0.3268670439720154,-1.3077943325042725
1773150810902390800,8.823390869140624,-1.8724867105484009,0.4751623272895813,-1.3732914924621582
1773150810912428500,8.833428466796875,-1.9531044960021973,0.6507344245910645,-1.4296905994415283
1773150810922465800,8.8434658203125,-2.023458242416382,0.8226577639579773,-1.4028921127319336
1773150810932503800,8.85350390625,-2.0550379753112793,0.8530659675598145,-1.282116174697876
1773150810942540500,8.86354052734375,-2.006444215774536,0.523483395576477,-1.0681006908416748
1773150810952578800,8.873578857421874,-1.931455373764038,-0.21632704138755798,-0.69368577003479
1773150810962615800,8.88361572265625,-1.9195117950439453,-1.196303367614746,-0.19654743373394012
1773150810972653600,8.893653564453125,-2.0074501037597656,-2.088758945465088,0.19502192735671997
1773150810982690600,8.903690673828125,-2.1119918823242188,-2.77081298828125,0.36952611804008484
1773150810992728800,8.913728759765625,-2.225302219390869,-3.0455520153045654,0.3162064552307129
1773150811002766600,8.9237666015625,-2.1878278255462646,-2.852552890777588,0.17220106720924377
1773150811012803800,8.933803955078124,-1.9337737560272217,-2.0876617431640625,0.01712201163172722
1773150811022841600,8.943841552734375,-1.393928050994873,-0.8902910947799683,-0.13875073194503784
1773150811032878600,8.953878662109375,-0.6766753792762756,0.33966585993766785,-0.41410747170448303
1773150811042916900,8.963916748046875,-0.04332377016544342,1.153689980506897,-0.7877253890037537
1773150811052953600,8.97395361328125,0.45912817120552063,1.4775540828704834,-1.0285409688949585
1773150811062988000,8.983988037109375,0.6995388865470886,1.398818850517273,-0.9458309412002563
1773150811073025000,8.99402490234375,0.5354487299919128,0.809122622013092,-0.4804885685443878
1773150811083063000,9.00406298828125,0.3522126078605652,-0.020329905673861504,0.1869472861289978
1773150811093100000,9.01410009765625,0.29866498708724976,-0.4626641869544983,0.6337679028511047
1773150811103138000,9.024137939453125,0.33851587772369385,-0.3264378011226654,0.8120124936103821
1773150811113176000,9.034176025390625,0.3320842981338501,0.17543835937976837,0.8164554834365845
1773150811123213000,9.044213134765625,0.2661055028438568,0.8224361538887024,0.723101019859314
1773150811133251000,9.0542509765625,0.2075767070055008,1.5055785179138184,0.5768889784812927
1773150811143288000,9.0642880859375,0.21203604340553284,2.122056722640991,0.3454158306121826
1773150811153326000,9.074326171875,0.26707932353019714,2.5557570457458496,0.010068987496197224
1773150811163363000,9.084363037109375,0.30615654587745667,2.732379198074341,-0.41062262654304504
1773150811173401000,9.094401123046875,0.2142745852470398,2.49487042427063,-0.8626915812492371
1773150811183438000,9.10443798828125,-0.020071161910891533,1.7745873928070068,-1.3065428733825684
1773150811193475800,9.114475830078124,-0.3204222023487091,0.8548572063446045,-1.6590827703475952
1773150811203513000,9.12451318359375,-0.709257960319519,0.047512684017419815,-1.9197957515716553
1773150811213551000,9.134551025390625,-1.127880334854126,-0.6052742004394531,-2.0743417739868164
1773150811223589000,9.144589111328125,-1.509292721748352,-1.1161693334579468,-2.120049238204956
1773150811233626000,9.154626220703125,-1.7029125690460205,-1.03701913356781,-1.809128999710083
1773150811243664100,9.1646640625,-1.7929558753967285,-0.9794374704360962,-1.191170573234558
1773150811253700900,9.174700927734374,-1.8917362689971924,-1.522150993347168,-0.6936870217323303
1773150811263739100,9.1847392578125,-1.856276512145996,-2.1651320457458496,-0.5010784864425659
1773150811273776000,9.194776123046875,-1.7274034023284912,-2.593015193939209,-0.5343046188354492
1773150811283814000,9.20481396484375,-1.6246304512023926,-2.6524534225463867,-0.735792338848114
1773150811293851100,9.21485107421875,-1.5796539783477783,-2.2742655277252197,-1.0791199207305908
1773150811303889200,9.22488916015625,-1.5809022188186646,-1.7752765417099,-1.3810365200042725
1773150811313927200,9.23492724609375,-1.5835621356964111,-1.4395949840545654,-1.541337013244629
1773150811323964200,9.244964111328125,-1.546265721321106,-1.3018256425857544,-1.5771839618682861
1773150811334002000,9.255001953125,-1.47169029712677,-1.3333017826080322,-1.546267032623291
1773150811344039000,9.265038818359375,-1.3882113695144653,-1.4461256265640259,-1.541829228401184
1773150811354077200,9.2750771484375,-1.364113450050354,-1.5064162015914917,-1.610575556755066
1773150811364114000,9.285114013671874,-1.394331693649292,-1.3954782485961914,-1.7911492586135864
1773150811374152000,9.29515185546875,-1.3632786273956299,-1.0150073766708374,-2.0694429874420166
1773150811384189200,9.305189208984375,-1.1470986604690552,-0.4928523898124695,-2.341996192932129
1773150811394227000,9.31522705078125,-0.8681482076644897,0.16454733908176422,-2.5446255207061768
1773150811404264000,9.325263916015626,-0.587433397769928,0.7661102414131165,-2.5943763256073
1773150811414302200,9.33530224609375,-0.47987234592437744,1.1958006620407104,-2.438660144805908
1773150811424340000,9.345340087890625,-0.5461858510971069,1.4225541353225708,-2.0303955078125
1773150811434377000,9.355376953125,-0.8533252477645874,1.4889131784439087,-1.2403385639190674
1773150811444415000,9.3654150390625,-1.2308517694473267,1.278731107711792,-0.31130552291870117
1773150811454452000,9.375451904296876,-1.4010869264602661,0.8668271899223328,0.3962034285068512
1773150811464490200,9.385490234375,-1.279127597808838,0.1968766152858734,0.8022454380989075
1773150811474527200,9.39552734375,-0.9830170273780823,-0.5673465132713318,0.9812783002853394
1773150811484565000,9.40556494140625,-0.6478081941604614,-1.0996029376983643,0.9767224192619324
1773150811494602000,9.41560205078125,-0.4197305142879486,-1.3655579090118408,0.8286355137825012
1773150811504640000,9.425639892578126,-0.26497912406921387,-1.1838499307632446,0.47086670994758606
1773150811514677000,9.435677001953126,-0.046266742050647736,-0.7692356705665588,-0.04412047192454338
1773150811524715000,9.445715087890624,0.21814869344234467,-0.5419172644615173,-0.43843573331832886
1773150811534752300,9.455752197265625,0.4945792555809021,-0.5074087977409363,-0.6643570065498352
1773150811544790000,9.4657900390625,0.711560070514679,-0.4475438594818115,-0.751798152923584
1773150811554828300,9.475828369140626,0.9476666450500488,0.012768883258104324,-0.7812289595603943
1773150811564865000,9.485864990234376,1.2159395217895508,1.1502798795700073,-0.7082715034484863
1773150811574903000,9.495903076171874,1.4180552959442139,2.294865846633911,-0.4422006905078888
1773150811584940000,9.50593994140625,1.4602673053741455,2.9593467712402344,0.04926171153783798
1773150811594978000,9.51597802734375,1.4575345516204834,3.1078708171844482,0.6317312121391296
1773150811605015000,9.52601513671875,1.5267319679260254,2.9026567935943604,1.0613564252853394
1773150811615053000,9.536052978515626,1.592717170715332,2.389277458190918,1.1877471208572388
1773150811625090000,9.546090087890626,1.624687671661377,1.64857017993927,1.0450032949447632
1773150811635128000,9.556128173828125,1.484743356704712,0.8003554344177246,0.7292389273643494
1773150811645165000,9.5661650390625,1.1323680877685547,-0.12120791524648666,0.3710460960865021
1773150811655203000,9.576203125,0.6556307077407837,-1.0656431913375854,0.0614704005420208
1773150811665241000,9.586240966796876,0.14050738513469696,-1.8886946439743042,-0.14563646912574768
1773150811675277800,9.59627783203125,-0.3502114713191986,-2.4632158279418945,-0.24211320281028748
1773150811685316000,9.606316162109374,-0.7263902425765991,-2.8423221111297607,-0.2514381408691406
1773150811695353000,9.61635302734375,-0.9445347785949707,-3.0522522926330566,-0.21838273108005524
1773150811705391000,9.62639111328125,-1.0194146633148193,-3.141068458557129,-0.2030152976512909
1773150811715428000,9.636427978515625,-0.9823029637336731,-3.0380702018737793,-0.23348025977611542
1773150811725466000,9.646466064453126,-0.8244937062263489,-2.726268768310547,-0.3308054506778717
1773150811735502800,9.6565029296875,-0.5612359642982483,-1.9937211275100708,-0.47791820764541626
1773150811745541000,9.666541015625,-0.28810158371925354,-0.9707816243171692,-0.5191007256507874
1773150811755578000,9.676578125,-0.12237759679555893,-0.0632394477725029,-0.35470327734947205
1773150811765616000,9.6866162109375,-0.04682197794318199,0.5036419034004211,-0.05156736820936203
1773150811775653000,9.696653076171875,0.009651417843997478,0.6820630431175232,0.2715313136577606
1773150811785691100,9.706691162109376,0.07452213764190674,0.5543472170829773,0.5027756094932556
1773150811795729200,9.716729248046875,0.1476418823003769,0.2867109775543213,0.5594874024391174
1773150811805766100,9.72676611328125,0.18848484754562378,0.09960171580314636,0.4202001094818115
1773150811815804000,9.736803955078125,0.18695245683193207,0.018739361315965652,0.17382708191871643
1773150811825841000,9.7468408203125,0.20688709616661072,-0.026792949065566063,-0.073214091360569
1773150811835879200,9.756879150390626,0.27052998542785645,-0.04538367688655853,-0.2574310600757599
1773150811845916200,9.766916259765624,0.32244664430618286,0.0004381178878247738,-0.34042081236839294
1773150811855954200,9.7769541015625,0.3322494924068451,0.11690081655979156,-0.2975849211215973
1773150811865991200,9.7869912109375,0.3287450969219208,0.2964995503425598,-0.11830087006092072
1773150811876029000,9.79702880859375,0.3471449017524719,0.48776111006736755,0.19681207835674286
1773150811886066000,9.80706591796875,0.41309016942977905,0.6220011711120605,0.6047828793525696
1773150811896104200,9.817104248046874,0.5318828821182251,0.7211194634437561,1.0172885656356812
1773150811906141000,9.827140869140624,0.6590352058410645,0.7996270656585693,1.3610373735427856
1773150811916179200,9.83717919921875,0.793493926525116,0.93414705991745,1.6248947381973267
1773150811926217000,9.847217041015625,0.9185701608657837,1.137761116027832,1.7963380813598633
1773150811936254000,9.85725390625,1.0039970874786377,1.3384358882904053,1.8905136585235596
1773150811946292200,9.867292236328124,1.1404467821121216,1.4517624378204346,1.9917556047439575
1773150811956329200,9.8773291015625,1.3339214324951172,1.578528881072998,2.140059232711792
1773150811966367000,9.887366943359375,1.508454442024231,1.7129279375076294,2.3099498748779297
1773150811976404000,9.897404052734375,1.6135319471359253,1.8212608098983765,2.4012768268585205
1773150811986442000,9.90744189453125,1.615878701210022,1.849797248840332,2.3319661617279053
1773150811996479000,9.91747900390625,1.6254087686538696,1.91128408908844,2.187326669692993
1773150812006517200,9.927517333984374,1.6654269695281982,1.9789174795150757,2.185372829437256
1773150812016554200,9.93755419921875,1.6518261432647705,1.6171730756759644,2.2757537364959717
1773150812026592000,9.947592041015625,1.4684876203536987,0.6648402214050293,2.1848621368408203
1773150812036630300,9.95763037109375,1.1187114715576172,-0.4066285490989685,1.9771920442581177
1773150812046667000,9.9676669921875,0.7672621011734009,-1.2773007154464722,1.864134669303894
1773150812056704500,9.97770458984375,0.4335020184516907,-1.762402892112732,1.8307907581329346
1773150812066741500,9.987741455078124,0.1242576614022255,-1.7820408344268799,1.8395546674728394
1773150812076779500,9.997779541015625,-0.05433551222085953,-1.387223720550537,1.8141489028930664
1773150812086816500,10.00781640625,0.0007002577185630798,-0.7479352355003357,1.6955323219299316
1773150812096854500,10.0178544921875,0.2478189766407013,-0.01822376437485218,1.5282788276672363
1773150812106891500,10.0278916015625,0.5750333070755005,0.767960250377655,1.280124545097351
1773150812116929500,10.037929443359374,0.8659998774528503,1.494383454322815,0.9316972494125366
1773150812126966500,10.047966552734374,1.047420859336853,1.9615126848220825,0.5064622759819031
1773150812137004500,10.058004638671875,1.0760213136672974,2.1151986122131348,0.07969339191913605
1773150812147041500,10.06804150390625,1.0248098373413086,1.9486385583877563,-0.27986910939216614
1773150812157079600,10.07807958984375,0.9272720813751221,1.5607826709747314,-0.5440065264701843
1773150812167116500,10.088116455078126,0.7615005970001221,1.0816028118133545,-0.7322629690170288
1773150812177154600,10.098154541015624,0.557374119758606,0.5133790373802185,-0.8262161016464233
1773150812187192600,10.108192626953125,0.3446340560913086,-0.07464880496263504,-0.879280686378479
1773150812197229600,10.1182294921875,0.1310139298439026,-0.6506974697113037,-0.9056361317634583
1773150812207267600,10.128267578125,-0.06265416741371155,-1.2469987869262695,-0.9436933994293213
1773150812217304600,10.1383046875,-0.20706221461296082,-1.8108099699020386,-0.971875786781311
1773150812227342600,10.148342529296874,-0.30181241035461426,-2.265444755554199,-0.9659963250160217
1773150812237379600,10.158379638671875,-0.36885616183280945,-2.5657334327697754,-0.9106824994087219
1773150812247417300,10.168417236328125,-0.43132317066192627,-2.6533775329589844,-0.7885504961013794
1773150812257454600,10.17845458984375,-0.4851280748844147,-2.490438938140869,-0.5837174654006958
1773150812267492600,10.18849267578125,-0.48589786887168884,-2.063037633895874,-0.3070327937602997
1773150812277529600,10.198529541015626,-0.42278629541397095,-1.4207452535629272,-0.020861482247710228
1773150812287567600,10.208567626953124,-0.29074543714523315,-0.654292106628418,0.2364998161792755
1773150812297604600,10.2186044921875,-0.07259368896484375,0.1455632746219635,0.4383319914340973
1773150812307642400,10.228642333984375,0.15881474316120148,0.7934000492095947,0.5719184279441833
1773150812317680600,10.2386806640625,0.3092297911643982,1.1568983793258667,0.6172576546669006
1773150812327717600,10.248717529296876,0.3912273645401001,1.2189022302627563,0.6123130321502686
1773150812337755600,10.258755615234374,0.4357663094997406,1.0114134550094604,0.5688939094543457
1773150812347792600,10.268792724609375,0.45429712533950806,0.7161176800727844,0.5291807651519775
1773150812357830400,10.278830322265625,0.4539514482021332,0.4943307042121887,0.5015674829483032
1773150812367867400,10.288867431640625,0.42768171429634094,0.4267154932022095,0.44464311003685
1773150812377905700,10.29890576171875,0.4000388979911804,0.5066550374031067,0.3418608009815216
1773150812387942700,10.308942626953124,0.4277120530605316,0.5968625545501709,0.22704367339611053
1773150812397980400,10.31898046875,0.5378923416137695,0.576610267162323,0.16174934804439545
1773150812408017700,10.329017578125,0.6914169788360596,0.42374852299690247,0.171085387468338
1773150812418055400,10.339055419921875,0.8436864018440247,0.2205759733915329,0.26955708861351013
1773150812428092400,10.349092529296875,0.9905955791473389,0.06733935326337814,0.38958850502967834
1773150812438130700,10.359130615234376,1.1444629430770874,-0.06200025975704193,0.38052043318748474
1773150812448167700,10.369167724609374,1.2450532913208008,-0.14746861159801483,0.1425856649875641
1773150812458205400,10.379205322265625,1.2127959728240967,-0.1988833248615265,-0.19244292378425598
1773150812468242700,10.38924267578125,1.0865620374679565,-0.08714418113231659,-0.4914017617702484
1773150812478280400,10.399280517578125,1.1181529760360718,0.9366734623908997,-0.2887389361858368
1773150812488318700,10.409318603515626,1.2262089252471924,2.514961004257202,0.8025754690170288
1773150812498355700,10.419355712890624,1.5895200967788696,2.8343050479888916,1.6665353775024414
1773150812508393500,10.4293935546875,2.2019240856170654,1.6684290170669556,1.85630464553833
1773150812518430500,10.439430419921875,2.594998359680176,0.02206927351653576,1.702905535697937
1773150812528468700,10.44946875,2.862574815750122,-1.2855236530303955,1.8999850749969482
1773150812538505500,10.45950537109375,2.5672402381896973,-2.266524076461792,2.4459292888641357
1773150812548543500,10.46954345703125,1.816762924194336,-3.256580114364624,2.61686635017395
1773150812558580700,10.479580810546874,1.0817432403564453,-3.9760537147521973,2.298311710357666
1773150812568618500,10.489618408203125,0.42471909523010254,-3.9476194381713867,1.819725751876831
1773150812578655500,10.499655517578125,-0.03387193754315376,-2.936490774154663,1.3255137205123901
1773150812588693500,10.509693603515625,-0.15667837858200073,-0.9392259120941162,1.0994898080825806
1773150812598730500,10.51973046875,0.08458457142114639,0.8110032677650452,1.1021130084991455
1773150812608768500,10.5297685546875,0.47129979729652405,1.512708067893982,1.092195987701416
1773150812618805800,10.5398056640625,0.7140623331069946,1.6610206365585327,1.0766772031784058
1773150812628843500,10.549843505859375,0.6625407338142395,1.9554556608200073,1.0069050788879395
1773150812638880500,10.559880615234375,0.5721713900566101,2.1775784492492676,0.8395208120346069
1773150812648918500,10.56991845703125,0.7085140943527222,2.203763961791992,0.5659464597702026
1773150812658956500,10.57995654296875,1.108755111694336,1.9169453382492065,0.23814837634563446
1773150812668993500,10.58999365234375,1.4705227613449097,1.419527292251587,0.08976244181394577
1773150812679031600,10.600031494140625,1.5746800899505615,0.868697464466095,0.44945403933525085
1773150812689068500,10.610068603515625,1.2797584533691406,-0.1786462962627411,1.0315601825714111
1773150812699106600,10.6201064453125,0.880748987197876,-1.594362497329712,1.5018798112869263
1773150812709143600,10.6301435546875,0.671650230884552,-2.4052326679229736,1.7370423078536987
1773150812719181600,10.640181640625,0.635348379611969,-2.3288135528564453,1.697487473487854
1773150812729218600,10.650218505859375,0.6550832390785217,-1.6963653564453125,1.4777545928955078
1773150812739256600,10.660256591796875,0.6678882241249084,-1.2351479530334473,1.230340838432312
1773150812749293600,10.67029345703125,0.6320675015449524,-0.9909727573394775,1.0984753370285034
1773150812759331600,10.68033154296875,0.6628568768501282,-0.7084795832633972,1.0320672988891602
1773150812769368600,10.69036865234375,0.803929328918457,-0.19264626502990723,0.9087571501731873
1773150812779406600,10.700406494140625,0.9340444207191467,0.2883547246456146,0.7005906701087952
1773150812789443600,10.710443603515625,1.01060152053833,0.5177499651908875,0.5666141510009766
1773150812799481600,10.720481689453125,1.0382097959518433,0.5518261790275574,0.4762011468410492
1773150812809518600,10.7305185546875,0.9941518902778625,0.5531256794929504,0.44736722111701965
1773150812819556400,10.740556396484376,0.9198216795921326,0.4956594407558441,0.47083714604377747
1773150812829593600,10.750593505859374,0.7945236563682556,0.2800433337688446,0.5240756869316101
1773150812839631600,10.760631591796875,0.6849180459976196,0.02138754539191723,0.628610372543335
1773150812849669400,10.77066943359375,0.683316171169281,-0.20924213528633118,0.698162317276001
1773150812859706600,10.78070654296875,0.7260817289352417,-0.43896719813346863,0.7202109098434448
1773150812869744600,10.79074462890625,0.7840976119041443,-0.5272910594940186,0.715543270111084
1773150812879781400,10.800781494140624,0.8593958020210266,-0.507161557674408,0.7205316424369812
1773150812889819600,10.810819580078125,0.8968294262886047,-0.5247729420661926,0.693370521068573
1773150812899856600,10.820856689453125,0.8751949667930603,-0.5432673096656799,0.6334930658340454
1773150812909894400,10.830894287109375,0.8228976130485535,-0.45012879371643066,0.5484783053398132
1773150812919931600,10.840931640625,0.7528485059738159,-0.27935919165611267,0.409541517496109
1773150812929969700,10.8509697265625,0.6802537441253662,-0.05639180168509483,0.2120594084262848
1773150812940006400,10.86100634765625,0.5590085387229919,-0.0575856938958168,0.1560336947441101
1773150812950044700,10.871044677734375,0.47942546010017395,-0.02614467963576317,0.18975694477558136
1773150812960081700,10.88108154296875,0.46289151906967163,-0.004057220183312893,0.2191918045282364
1773150812970119400,10.891119384765625,0.4439278841018677,-0.03344755619764328,0.28133806586265564
1773150812980156700,10.90115673828125,0.4719941318035126,-0.1862642616033554,0.39562201499938965
1773150812990194400,10.9111943359375,0.5268003940582275,-0.31115835905075073,0.4710838198661804
1773150813000231400,10.9212314453125,0.6253964900970459,-0.337360680103302,0.4616767466068268
1773150813010269700,10.931269775390625,0.6374041438102722,-0.26051101088523865,0.39938294887542725
1773150813020306700,10.941306640625,0.5827491283416748,-0.282308965921402,0.33546602725982666
1773150813030344400,10.951344482421876,0.5297542214393616,-0.25748410820961,0.298589289188385
1773150813040381700,10.961381591796876,0.4426589608192444,-0.21579284965991974,0.2660433351993561
1773150813050419500,10.97141943359375,0.34240490198135376,-0.21476586163043976,0.28306978940963745
1773150813060457700,10.981457763671875,0.27327802777290344,-0.09830796718597412,0.24014067649841309
1773150813070495000,10.991494873046875,0.2188010960817337,-0.05347088351845741,0.1840324103832245
1773150813080532700,11.00153271484375,0.17393001914024353,-0.048430852591991425,0.1585608720779419
1773150813090569700,11.01156982421875,0.1979162096977234,0.013566133566200733,0.15818637609481812
1773150813100608000,11.02160791015625,0.20707055926322937,-0.017912164330482483,0.12324275821447372
1773150813110644700,11.031644775390625,0.21197080612182617,-0.05787470191717148,0.19002926349639893
1773150813120682800,11.041682861328125,0.22999827563762665,-0.10560787469148636,0.3459797203540802
1773150813130720000,11.051719970703125,0.15673594176769257,-0.25514689087867737,0.4628676474094391
1773150813140757800,11.0617578125,0.105064757168293,-0.4438965916633606,0.5482176542282104
1773150813150794800,11.071794677734376,0.1053849384188652,-0.5551135540008545,0.6068821549415588
1773150813160832800,11.081832763671875,0.10523287206888199,-0.5152604579925537,0.6445091366767883
1773150813170869800,11.091869873046875,0.05374610796570778,-0.3470366299152374,0.6245713829994202
1773150813180907800,11.10190771484375,0.09030598402023315,-0.20793358981609344,0.5665438175201416
1773150813190945000,11.111945068359375,0.11422374844551086,-0.05800483375787735,0.444011390209198
1773150813200982800,11.121982666015626,0.03199305757880211,-0.25372666120529175,0.5450903177261353
1773150813211019800,11.132019775390624,-0.05347491428256035,-0.20380651950836182,0.5262826681137085
1773150813221057800,11.142057861328125,-0.0968351736664772,-0.12234975397586823,0.43657490611076355
1773150813231094800,11.1520947265625,-0.1121492013335228,-0.04193984717130661,0.4201502501964569
1773150813241132800,11.1621328125,-0.20813778042793274,0.04195079207420349,0.411847859621048
1773150813251169800,11.172169677734376,-0.2150956243276596,0.1532956063747406,0.3276408910751343
1773150813261207800,11.182207763671874,-0.22517089545726776,0.22780819237232208,0.2609974145889282
1773150813271244800,11.192244873046874,-0.2477841079235077,0.25471457839012146,0.2221151441335678
1773150813281282800,11.20228271484375,-0.2545149624347687,0.09966854006052017,0.24860747158527374
1773150813291319800,11.21231982421875,-0.29032960534095764,0.09905116260051727,0.2801305949687958
1773150813301357800,11.22235791015625,-0.2952556312084198,0.17582345008850098,0.3392240107059479
1773150813311395800,11.232395751953124,-0.31973686814308167,0.19263343513011932,0.30178704857826233
1773150813321432800,11.242432861328124,-0.3348204791545868,0.19773179292678833,0.2007446140050888
1773150813331470800,11.252470947265625,-0.353810578584671,0.22451941668987274,0.0982971340417862
1773150813341507800,11.2625078125,-0.4275338053703308,0.2568395137786865,0.11423029005527496
1773150813351545900,11.2725458984375,-0.49369126558303833,0.3275129795074463,0.10239729285240173
1773150813361582800,11.282582763671876,-0.5067558884620667,0.30343082547187805,0.11163633316755295
1773150813371620900,11.292620849609374,-0.5061492919921875,0.2455570548772812,0.08132347464561462
1773150813381657900,11.302657958984375,-0.5181377530097961,0.25363680720329285,-0.030511176213622093
1773150813391695600,11.312695556640625,-0.5305661559104919,0.32359960675239563,-0.15427394211292267
1773150813401732900,11.32273291015625,-0.512621283531189,0.17747142910957336,-0.18948198854923248
1773150813411771000,11.33277099609375,-0.5276506543159485,0.20404958724975586,-0.22110456228256226
1773150813421807900,11.342807861328126,-0.561902642250061,0.32560160756111145,-0.3298906981945038
1773150813431846000,11.352845947265624,-0.5915643572807312,0.45268604159355164,-0.4821069538593292
1773150813441883000,11.3628828125,-0.5725893378257751,0.5447635650634766,-0.5726861357688904
1773150813451920600,11.372920654296875,-0.5430748462677002,0.5727301836013794,-0.5692183971405029
1773150813461958000,11.3829580078125,-0.5014067888259888,0.526355504989624,-0.5767338275909424
1773150813471996000,11.392995849609376,-0.4428633451461792,0.40269166231155396,-0.6162556409835815
1773150813482033000,11.403032958984374,-0.4058176875114441,0.42154446244239807,-0.634445309638977
1773150813492071000,11.41307080078125,-0.3777300715446472,0.4112696349620819,-0.6634635329246521
1773150813502108000,11.42310791015625,-0.37641099095344543,0.42279553413391113,-0.6672878265380859
1773150813512145700,11.433145751953125,-0.45013734698295593,0.523015558719635,-0.6915573477745056
1773150813522182700,11.4431826171875,-0.47433003783226013,0.35840338468551636,-0.6768955588340759
1773150813532221000,11.453220947265624,-0.43832021951675415,0.07405880838632584,-0.6547738313674927
1773150813542257700,11.463257568359374,-0.42594635486602783,-0.0725276991724968,-0.646836519241333
1773150813552296000,11.4732958984375,-0.454529345035553,-0.014486082829535007,-0.698497474193573
1773150813562333000,11.4833330078125,-0.49000880122184753,0.09210401028394699,-0.7649582624435425
1773150813572370700,11.49337060546875,-0.5116580724716187,0.16140663623809814,-0.8141112923622131
1773150813582409000,11.503408935546876,-0.5056356191635132,0.14406733214855194,-0.8393487334251404
1773150813592446000,11.513446044921874,-0.46399763226509094,0.12112889438867569,-0.8951224684715271
1773150813602483700,11.523483642578125,-0.4434817135334015,0.204535111784935,-0.9809987545013428
1773150813612520700,11.533520751953125,-0.44358736276626587,0.3449343740940094,-1.075527548789978
1773150813622558700,11.543558837890625,-0.42267677187919617,0.4286614954471588,-1.120285153388977
1773150813632595700,11.553595703125,-0.4296030104160309,0.45534244179725647,-1.1406676769256592
1773150813642634000,11.563634033203124,-0.45500290393829346,0.4106314182281494,-1.13695228099823
1773150813652671000,11.5736708984375,-0.5336650013923645,0.47185826301574707,-1.106110692024231
1773150813662708700,11.583708740234375,-0.6195349097251892,0.5046415328979492,-1.108731985092163
1773150813672745700,11.593745849609375,-0.654024064540863,0.42586737871170044,-1.0951557159423828
1773150813682783700,11.60378369140625,-0.6874696016311646,0.3362725079059601,-1.0384851694107056
1773150813692820700,11.61382080078125,-0.6975681781768799,0.16886314749717712,-1.0143381357192993
1773150813702859000,11.62385888671875,-0.7382900714874268,0.07241544872522354,-0.9984964728355408
1773150813712895700,11.633895751953125,-0.7691683173179626,0.016214758157730103,-1.0023282766342163
1773150813722933800,11.643933837890625,-0.803954541683197,0.009478293359279633,-1.0222564935684204
1773150813732970800,11.653970703125,-0.8235636353492737,0.019169166684150696,-1.0453168153762817
1773150813743008800,11.6640087890625,-0.8637760281562805,0.1579267829656601,-1.0278276205062866
1773150813753044700,11.674044677734376,-0.8712528944015503,0.16618411242961884,-1.0664217472076416
1773150813763081700,11.684081787109376,-0.8235700130462646,0.07656767964363098,-1.146834135055542
1773150813773120000,11.6941201171875,-0.7965788245201111,0.14196042716503143,-1.1927132606506348
1773150813783157000,11.704156982421875,-0.7984023094177246,0.23071905970573425,-1.2200719118118286
1773150813793194800,11.71419482421875,-0.8826209902763367,0.32252898812294006,-1.278643250465393
1773150813803231700,11.724231689453125,-0.9710438251495361,0.35988593101501465,-1.32547128200531
1773150813813269800,11.734269775390626,-1.0896292924880981,0.4100736975669861,-1.3242911100387573
1773150813823307800,11.744307861328124,-1.222713828086853,0.2533772885799408,-1.3727880716323853
1773150813833344800,11.7543447265625,-1.3286633491516113,0.00560783501714468,-1.4131062030792236
1773150813843382800,11.7643828125,-1.443159818649292,-0.1036107987165451,-1.4344964027404785
1773150813853419800,11.774419677734375,-1.5518741607666016,-0.0516984723508358,-1.506090760231018
1773150813863457800,11.784457763671876,-1.6896865367889404,0.1645059883594513,-1.638189435005188
1773150813873494800,11.794494873046874,-1.822024941444397,0.440236896276474,-1.736036777496338
1773150813883532800,11.80453271484375,-1.9544999599456787,0.7062509655952454,-1.7996450662612915
1773150813893569800,11.81456982421875,-2.0371923446655273,0.9049389958381653,-1.8212476968765259
1773150813903607800,11.82460791015625,-2.0546786785125732,1.074110746383667,-1.7884221076965332
1773150813913644800,11.834644775390625,-2.018569231033325,1.0795470476150513,-1.7197805643081665
1773150813923682800,11.844682861328126,-1.9626874923706055,0.8307523727416992,-1.5861032009124756
1773150813933719800,11.8547197265625,-1.9269479513168335,0.3533281981945038,-1.3437646627426147
1773150813943757800,11.8647578125,-1.927797794342041,-0.25733092427253723,-0.9819201827049255
1773150813953794800,11.874794921875,-1.9689913988113403,-1.0588818788528442,-0.5582671165466309
1773150813963832800,11.884832763671875,-2.0387251377105713,-1.9945640563964844,-0.12856876850128174
1773150813973869800,11.894869873046876,-2.030824899673462,-2.6841633319854736,0.1406676322221756
1773150813983907600,11.904907470703124,-1.806502103805542,-2.650073289871216,0.14041489362716675
1773150813993944800,11.91494482421875,-1.3719398975372314,-1.8043720722198486,-0.026903843507170677
1773150814003982800,11.92498291015625,-0.8698482513427734,-0.5917666554450989,-0.3352486491203308
1773150814014019800,11.935019775390625,-0.5594534873962402,0.27332526445388794,-0.7568431496620178
1773150814024057900,11.945057861328126,-0.4608358144760132,0.48178285360336304,-1.0580120086669922
1773150814034094800,11.9550947265625,-0.256979376077652,0.24614781141281128,-1.0095499753952026
1773150814044132600,11.965132568359374,-0.05573227256536484,-0.1047968789935112,-0.6607964634895325
1773150814054169900,11.975169921875,0.06828335672616959,-0.4461970627307892,-0.14207331836223602
1773150814064212000,11.9852119140625,0.23134790360927582,-0.6432672739028931,0.3574017286300659
1773150814074250800,11.995250732421875,0.4322555959224701,-0.5051019191741943,0.6473909616470337
1773150814084287700,12.005287841796875,0.5382401347160339,-0.030025918036699295,0.6361316442489624
1773150814094325800,12.01532568359375,0.5333062410354614,0.5852112174034119,0.39471960067749023
1773150814104362800,12.02536279296875,0.49252447485923767,1.1953643560409546,0.09974469989538193
1773150814114400500,12.035400390625,0.4417162239551544,1.7225409746170044,-0.16418372094631195
1773150814124437800,12.045437744140624,0.4045635163784027,2.090989112854004,-0.3790590167045593
1773150814134475800,12.055475830078125,0.3628142476081848,2.232405185699463,-0.5812656879425049
1773150814144512800,12.0655126953125,0.3037557601928711,2.1189072132110596,-0.7925707697868347
1773150814154550800,12.07555078125,0.19703662395477295,1.792028784751892,-1.0257058143615723
1773150814164587800,12.085587890625,0.02560361474752426,1.284027099609375,-1.2682510614395142
1773150814174625500,12.09562548828125,-0.19306957721710205,0.700846254825592,-1.5150630474090576
1773150814184662800,12.105662841796875,-0.3537290394306183,0.3507454991340637,-1.5724672079086304
1773150814194700800,12.11570068359375,-0.49188098311424255,0.4329892694950104,-1.3579100370407104
1773150814204737500,12.125737548828125,-0.7761480808258057,0.2731567323207855,-1.1990561485290527
1773150814214775800,12.13577587890625,-1.136178731918335,-0.38677045702934265,-1.177489161491394
1773150814224812800,12.145812744140626,-1.4066424369812012,-1.0966451168060303,-1.0903338193893433
1773150814234850600,12.1558505859375,-1.5440337657928467,-1.5991764068603516,-0.887224555015564
1773150814244887800,12.1658876953125,-1.5951355695724487,-1.9933208227157593,-0.7122913599014282
1773150814254925800,12.17592578125,-1.6171135902404785,-2.3005192279815674,-0.6216098070144653
1773150814264963600,12.185963623046876,-1.6280604600906372,-2.399400234222412,-0.5872736573219299
1773150814275000800,12.196000732421876,-1.6920616626739502,-2.1016604900360107,-0.5794777870178223
1773150814285038600,12.20603857421875,-1.815131664276123,-1.3432074785232544,-0.6950566172599792
1773150814295075600,12.21607568359375,-1.938561201095581,-0.5588060617446899,-1.0033916234970093
1773150814305113900,12.22611376953125,-1.9707216024398804,-0.1636529117822647,-1.265138864517212
1773150814315150800,12.23615087890625,-1.9058161973953247,-0.14319488406181335,-1.3876464366912842
1773150814325188600,12.246188720703126,-1.8219527006149292,-0.2765886187553406,-1.416975498199463
1773150814335225900,12.256225830078124,-1.7473212480545044,-0.41185328364372253,-1.410844326019287
1773150814345263600,12.266263671875,-1.6604853868484497,-0.4690436124801636,-1.4272712469100952
1773150814355300600,12.276300537109375,-1.5991050004959106,-0.3968298137187958,-1.502034306526184
1773150814365339000,12.2863388671875,-1.5444347858428955,-0.23911981284618378,-1.6213656663894653
1773150814375376000,12.2963759765625,-1.4659837484359741,-0.060867659747600555,-1.7722676992416382
1773150814385413600,12.30641357421875,-1.326224684715271,0.057481084018945694,-1.889330506324768
1773150814395451000,12.316450927734374,-1.1555745601654053,0.15026552975177765,-1.9004985094070435
1773150814405488600,12.326488525390625,-1.0144264698028564,0.18405970931053162,-1.753026008605957
1773150814415525600,12.336525634765625,-0.8612872958183289,0.393250972032547,-1.632999300956726
1773150814425564000,12.34656396484375,-0.667606770992279,0.5972369313240051,-1.480588674545288
1773150814435600600,12.3566005859375,-0.47376129031181335,0.8299759030342102,-1.3433541059494019
1773150814445638700,12.366638671875,-0.43733590841293335,0.9864965081214905,-1.1221354007720947
1773150814455676000,12.376676025390625,-0.6491475701332092,1.1626287698745728,-0.7999077439308167
1773150814465713700,12.386713623046875,-0.9996848106384277,1.3430179357528687,-0.36943918466567993
1773150814475750700,12.396750732421875,-1.269031047821045,1.3794916868209839,0.06691311299800873
1773150814485789000,12.406788818359376,-1.2635236978530884,1.110870361328125,0.3429444432258606
1773150814495825700,12.41682568359375,-0.98061603307724,0.39735549688339233,0.4482232332229614
1773150814505863700,12.42686376953125,-0.5430208444595337,-0.5589497089385986,0.43814557790756226
1773150814515900700,12.436900634765625,-0.10227235406637192,-1.3989900350570679,0.35346388816833496
1773150814525938700,12.446938720703125,0.22680728137493134,-1.9538066387176514,0.22070343792438507
1773150814535975700,12.4569755859375,0.4411872625350952,-2.189570188522339,0.021048834547400475
1773150814546014000,12.467013916015626,0.5566784143447876,-1.9789118766784668,-0.3137485980987549
1773150814556050700,12.47705078125,0.5862394571304321,-1.4539085626602173,-0.7354608178138733
1773150814566088700,12.487088623046875,0.617031455039978,-0.8629128932952881,-1.1155624389648438
