time,seconds_elapsed,z,y,x
1773150802150853600,0.071853515625,0.058161839842796326,-0.003932956140488386,0.05696528032422066
1773150802160891000,0.081890869140625,0.04513552039861679,0.001282312092371285,0.08039071410894394
1773150802170928600,0.0919287109375,0.0365726575255394,-0.013488112017512321,0.0951147973537445
1773150802180966700,0.101966552734375,0.02630244381725788,-0.029026858508586884,0.09143004566431046
1773150802191004000,0.11200390625,0.018794193863868713,-0.029461219906806946,0.03299177065491676
1773150802201041700,0.122041748046875,0.014778945595026016,-0.03837775066494942,-0.050336938351392746
1773150802211080000,0.132079833984375,0.0067572384141385555,-0.05554688349366188,-0.11956927180290222
1773150802221116700,0.14211669921875,-0.002805373864248395,-0.0901956707239151,-0.13571734726428986
1773150802231154700,0.15215478515625,0.00433136522769928,-0.09430093318223953,-0.11613113433122635
1773150802241191700,0.162191650390625,0.012179167941212654,-0.07742288708686829,-0.07064434140920639
1773150802251229700,0.172229736328125,0.017799504101276398,-0.047873783856630325,-0.01116290595382452
1773150802261267700,0.182267822265625,0.00344533147290349,0.023302925750613213,-0.005929528269916773
1773150802271305000,0.192304931640625,-0.023368438705801964,0.041547976434230804,-0.11689679324626923
1773150802281342700,0.2023427734375,-0.023193469271063805,0.03062715195119381,-0.26361513137817383
1773150802291380700,0.212380615234375,0.021467208862304688,0.06716997921466827,-0.3231745958328247
1773150802301417700,0.222417724609375,0.019027486443519592,0.18958137929439545,-0.2894049286842346
1773150802311455700,0.232455810546875,0.0013222594279795885,0.29990896582603455,-0.23990607261657715
1773150802321493500,0.242493408203125,0.024815600365400314,0.34978729486465454,-0.23237411677837372
1773150802331530800,0.25253076171875,0.11704938858747482,0.3744013011455536,-0.2692527770996094
1773150802341568800,0.26256884765625,0.17523892223834991,0.413750559091568,-0.3254454731941223
1773150802351606800,0.272606689453125,0.20452091097831726,0.4353048503398895,-0.3713698089122772
1773150802361643800,0.282643798828125,0.20986108481884003,0.27933841943740845,-0.31705331802368164
1773150802371681800,0.292681884765625,0.15176156163215637,0.17739689350128174,-0.2248765230178833
1773150802381718500,0.302718505859375,0.05723266303539276,0.14774765074253082,-0.12626738846302032
1773150802391756800,0.3127568359375,-0.008518120273947716,0.1737488955259323,-0.04596829041838646
1773150802401794600,0.322794677734375,-0.04174425080418587,0.14331960678100586,-0.042439334094524384
1773150802411831600,0.33283154296875,-0.06384209543466568,0.027165042236447334,-0.0919773280620575
1773150802421869800,0.342869873046875,-0.09578271955251694,-0.08529438823461533,-0.1484067738056183
1773150802431907600,0.352907470703125,-0.11085354536771774,-0.15781520307064056,-0.16166293621063232
1773150802441944800,0.36294482421875,-0.08045569062232971,-0.23928768932819366,-0.14855271577835083
1773150802451982800,0.37298291015625,-0.0341169573366642,-0.3218472898006439,-0.10272984206676483
1773150802462020600,0.3830205078125,-0.009575395844876766,-0.3638913929462433,-0.0538584366440773
1773150802472057900,0.393057861328125,-0.031733959913253784,-0.36687785387039185,-0.02990996278822422
1773150802482095600,0.403095703125,-0.08503153920173645,-0.3188384473323822,-0.008624646812677383
1773150802492133600,0.413133544921875,-0.10493040829896927,-0.27247121930122375,0.036852024495601654
1773150802502171000,0.4231708984375,-0.09242606908082962,-0.2584459185600281,0.06882220506668091
1773150802512208600,0.433208740234375,-0.05579109489917755,-0.25637930631637573,0.10494425892829895
1773150802522247000,0.443246826171875,-0.01378372311592102,-0.2861334979534149,0.15902693569660187
1773150802532284000,0.453283935546875,0.022184664383530617,-0.3308793902397156,0.19527815282344818
1773150802542321700,0.46332177734375,0.0290545541793108,-0.32922104001045227,0.19075290858745575
1773150802552358700,0.473358642578125,0.02413942478597164,-0.2999398410320282,0.16059686243534088
1773150802562396700,0.483396728515625,0.01973135955631733,-0.25657427310943604,0.12601891160011292
1773150802572434700,0.4934345703125,0.011969044804573059,-0.21479032933712006,0.09912765026092529
1773150802582472000,0.503471923828125,-0.003997138235718012,-0.1775263100862503,0.09089341759681702
1773150802592509700,0.513509765625,-0.014738199301064014,-0.15856701135635376,0.09774866700172424
1773150802602547700,0.523547607421875,-0.025599636137485504,-0.11695457994937897,0.11371351778507233
1773150802612584700,0.533584716796875,-0.03044792078435421,-0.09083296358585358,0.11411618441343307
1773150802622622700,0.543622802734375,-0.02101180888712406,-0.07145766913890839,0.11942733079195023
1773150802632660700,0.55366064453125,0.002918824553489685,-0.0825183093547821,0.11337769031524658
1773150802642697700,0.56369775390625,0.009336776100099087,-0.08268395811319351,0.07826497405767441
1773150802652735700,0.57373583984375,-0.007327155210077763,-0.05500492826104164,0.03609967976808548
1773150802662773800,0.583773681640625,-0.015485748648643494,-0.03959081694483757,0.02502652443945408
1773150802672810800,0.593810791015625,-0.025435052812099457,-0.03706241399049759,0.032764073461294174
1773150802682848800,0.603848876953125,-0.03394438326358795,-0.05113242566585541,0.037157222628593445
1773150802692885800,0.6138857421875,-0.04085741937160492,-0.05753999203443527,0.045048169791698456
1773150802702923800,0.623923828125,-0.037829671055078506,-0.049247175455093384,0.05721108987927437
1773150802712961800,0.6339619140625,-0.02828969433903694,-0.057022273540496826,0.0743919387459755
1773150802722998500,0.64399853515625,-0.01047501154243946,-0.07398101687431335,0.08189300447702408
1773150802733036800,0.654036865234375,-0.0012487561907619238,-0.07680662721395493,0.07326382398605347
1773150802743074600,0.664074462890625,-0.005527124274522066,-0.07992945611476898,0.03247245401144028
1773150802753111800,0.67411181640625,-0.024342624470591545,-0.06867147237062454,-0.011902998201549053
1773150802763149800,0.68414990234375,-0.049724943935871124,-0.04320792481303215,-0.04816007241606712
1773150802773187600,0.6941875,-0.05510879307985306,-0.008704275824129581,-0.05722760409116745
1773150802783224800,0.704224853515625,-0.034810710698366165,0.006069610361009836,-0.03353505581617355
1773150802793262800,0.714262939453125,-0.009623865596950054,-0.003727892879396677,0.005653358530253172
1773150802803300600,0.724300537109375,0.00455773388966918,-0.00672235107049346,0.054678160697221756
1773150802813337900,0.734337890625,0.0034938009921461344,-0.014785603620111942,0.09213978052139282
1773150802823375600,0.744375732421875,-0.06439922749996185,-0.04126834496855736,0.07906312495470047
1773150802833414000,0.754413818359375,-0.1367650330066681,-0.11471859365701675,-0.0012114719720557332
1773150802843451000,0.764450927734375,-0.09407403320074081,-0.07733526825904846,-0.04213280603289604
1773150802853488600,0.774488525390625,0.007337541319429874,0.01575526036322117,-0.005197691265493631
1773150802863525600,0.784525634765625,0.08599693328142166,0.03586452454328537,0.021318072453141212
1773150802873563600,0.794563720703125,0.09014853835105896,0.06631457805633545,0.01404870767146349
1773150802883601700,0.8046015625,0.06221890076994896,-0.01528547890484333,-0.035414714366197586
1773150802893639000,0.814638916015625,-0.010763698257505894,0.06143459677696228,-0.08095770329236984
1773150802903676700,0.8246767578125,0.012223909609019756,0.07775790989398956,-0.03873434662818909
1773150802913714700,0.834714599609375,-0.021862421184778214,-0.013046559877693653,-0.038295190781354904
1773150802923752000,0.844751953125,-0.11437904089689255,0.07604150474071503,-0.009274724870920181
1773150802933789700,0.854789794921875,-0.10431841760873795,0.0761464312672615,0.05013800039887428
1773150802943827700,0.86482763671875,-0.06066068261861801,0.04565536975860596,0.060991182923316956
1773150802953864700,0.87486474609375,0.018809907138347626,0.0813787430524826,0.057676613330841064
1773150802963902700,0.88490283203125,0.07493150234222412,0.0883607566356659,0.05513595789670944
1773150802973940700,0.894940673828125,0.10637650638818741,0.03864060342311859,0.02155402861535549
1773150802983977700,0.904977783203125,0.08674848079681396,0.026679813861846924,-0.033361151814460754
1773150802994015700,0.915015625,0.0466173030436039,-0.05149861052632332,-0.09750019013881683
1773150803004053800,0.9250537109375,0.005516738165169954,0.019327625632286072,-0.09861152619123459
1773150803014090800,0.9350908203125,0.017619207501411438,-0.04886075109243393,-0.062004514038562775
1773150803024128800,0.945128662109375,0.05294657126069069,-0.11866725981235504,0.025137310847640038
1773150803034166800,0.955166748046875,0.05546645447611809,-0.010671552270650864,0.1437281370162964
1773150803044203800,0.965203857421875,0.0012876383261755109,0.06278801709413528,0.2338028997182846
1773150803054241800,0.97524169921875,-0.06642882525920868,0.12201911956071854,0.2726280689239502
1773150803064278800,0.98527880859375,-0.08928807079792023,0.18862557411193848,0.2599881589412689
1773150803074317000,0.995317138671875,-0.07324172556400299,0.17406579852104187,0.21419085562229156
1773150803084354800,1.005354736328125,-0.05222858488559723,0.12906664609909058,0.1879667043685913
1773150803094391800,1.015391845703125,-0.045830339193344116,0.12225693464279175,0.22425147891044617
1773150803104430000,1.02543017578125,-0.06904404610395432,0.1356837898492813,0.2783868908882141
1773150803114467800,1.0354677734375,-0.09355578571557999,0.1290418654680252,0.29622021317481995
1773150803124505000,1.045505126953125,-0.08594207465648651,0.10036894679069519,0.2782239019870758
1773150803134542800,1.05554296875,-0.05313725396990776,0.07787802070379257,0.23437069356441498
1773150803144580900,1.065580810546875,-0.03413506597280502,0.06073125824332237,0.18079374730587006
1773150803154618000,1.0756181640625,-0.07034739851951599,0.0919933095574379,0.13899622857570648
1773150803164655900,1.08565576171875,-0.07396210730075836,0.0946735143661499,0.14248578250408173
1773150803174694000,1.09569384765625,-0.05434552952647209,0.10155858099460602,0.15377917885780334
1773150803184731000,1.10573095703125,-0.030488666146993637,0.08630479127168655,0.169795960187912
1773150803194769000,1.115768798828125,-0.00022770027862861753,0.05459214001893997,0.16994456946849823
1773150803204807200,1.12580712890625,0.01828925870358944,0.036184635013341904,0.14317047595977783
1773150803214844000,1.135843994140625,0.024398017674684525,0.021868014708161354,0.09553797543048859
1773150803224882000,1.1458818359375,0.024766067042946815,0.022475747391581535,0.042494997382164
1773150803234920000,1.155919921875,0.024992967024445534,0.037633929401636124,-0.005185174755752087
1773150803244957000,1.16595703125,0.021282386034727097,0.0467376783490181,-0.04099856689572334
1773150803254995000,1.175994873046875,0.024833977222442627,0.048296693712472916,-0.047193609178066254
1773150803265032000,1.186031982421875,0.02937093749642372,0.047862064093351364,-0.026081668213009834
1773150803275070000,1.196070068359375,0.0339323990046978,0.03719663619995117,0.005884520709514618
1773150803285108000,1.20610791015625,0.04350646585226059,0.009653426706790924,0.027966653928160667
1773150803295145000,1.21614501953125,0.05679936707019806,0.007131146267056465,0.030555246397852898
1773150803305183000,1.226182861328125,0.05465605482459068,-0.018102571368217468,0.01631532423198223
1773150803315220700,1.236220703125,0.0439128614962101,-0.03044339269399643,-0.014100639149546623
1773150803325258000,1.246258056640625,0.0464138388633728,-0.02257561683654785,-0.03331827372312546
1773150803335296000,1.2562958984375,0.05555913224816322,-0.02773948572576046,-0.024273646995425224
1773150803345334000,1.266333984375,0.05414046719670296,-0.016047675162553787,-0.00589677132666111
1773150803355371000,1.27637109375,0.04842079430818558,-0.01079698745161295,0.010977284051477909
1773150803365409000,1.286408935546875,0.05335883051156998,0.007697867229580879,0.026675019413232803
1773150803375447000,1.296447021484375,0.05070898309350014,0.024041153490543365,0.03960759565234184
1773150803385484000,1.306484130859375,0.036667998880147934,0.01931377686560154,0.04524737223982811
1773150803395521800,1.316521728515625,0.0064895907416939735,0.044144824147224426,0.045761629939079285
1773150803405560000,1.32656005859375,-0.01908154971897602,0.07861438393592834,0.03880225494503975
1773150803415597000,1.33659716796875,-0.01309023518115282,0.0766867846250534,0.03044445812702179
1773150803425634800,1.346634765625,-0.0059993029572069645,0.0683273896574974,0.015570171177387238
1773150803435672000,1.356672119140625,-0.005271194502711296,0.08007992058992386,-0.006993993651121855
1773150803445709800,1.366709716796875,-0.008019576780498028,0.1040574237704277,-0.02232448011636734
1773150803455747800,1.376747802734375,0.004317250568419695,0.1269419640302658,-0.036256007850170135
1773150803465785000,1.38678515625,0.03242744877934456,0.12242285162210464,-0.03735509514808655
1773150803475822800,1.39682275390625,0.05890725925564766,0.11932320147752762,-0.041488319635391235
1773150803485860900,1.40686083984375,0.06999825686216354,0.12987810373306274,-0.07452483475208282
1773150803495898000,1.416898193359375,0.07696828246116638,0.15174426138401031,-0.13907772302627563
1773150803505936000,1.426935791015625,0.08318250626325607,0.20027025043964386,-0.20686742663383484
1773150803515974100,1.43697412109375,0.08578681200742722,0.26079991459846497,-0.23443754017353058
1773150803526011000,1.447010986328125,0.08148500323295593,0.29636481404304504,-0.23966851830482483
1773150803536049000,1.457048828125,0.09883736073970795,0.3282729387283325,-0.2218860536813736
1773150803546087000,1.4670869140625,0.13194258511066437,0.3458050787448883,-0.18716749548912048
1773150803556124000,1.4771240234375,0.15619465708732605,0.3382262587547302,-0.1566106528043747
1773150803566162000,1.487161865234375,0.17708130180835724,0.36364826560020447,-0.16210341453552246
1773150803576200000,1.497199951171875,0.1819671392440796,0.41243523359298706,-0.16132843494415283
1773150803586237000,1.50723681640625,0.17804430425167084,0.4632321000099182,-0.1437491774559021
1773150803596275000,1.51727490234375,0.16915786266326904,0.4898623824119568,-0.12905891239643097
1773150803606313000,1.52731298828125,0.16445446014404297,0.4741308093070984,-0.1284618377685547
1773150803616350000,1.537349853515625,0.1660454273223877,0.4553254544734955,-0.14812980592250824
1773150803626387700,1.5473876953125,0.18619704246520996,0.4046878218650818,-0.18921546638011932
1773150803636425000,1.557425048828125,0.21505238115787506,0.34645354747772217,-0.24257002770900726
1773150803646463000,1.567462890625,0.23092135787010193,0.2898821532726288,-0.3019028604030609
1773150803656501000,1.5775009765625,0.24622122943401337,0.2632420063018799,-0.3662131428718567
1773150803666538000,1.5875380859375,0.2667752504348755,0.2751663327217102,-0.4184257388114929
1773150803676576000,1.597575927734375,0.2908856272697449,0.2970556318759918,-0.47675296664237976
1773150803686614000,1.607614013671875,0.32312241196632385,0.3498038053512573,-0.542151927947998
1773150803696651000,1.617651123046875,0.36264291405677795,0.40285903215408325,-0.5820684432983398
1773150803706688800,1.627688720703125,0.3696744441986084,0.43536558747291565,-0.5927014350891113
1773150803716727000,1.63772705078125,0.3551138937473297,0.45621201395988464,-0.5864040851593018
1773150803726764000,1.647763916015625,0.3276686668395996,0.47435426712036133,-0.5910510420799255
1773150803736801800,1.6578017578125,0.3355806767940521,0.4403230547904968,-0.5955595374107361
1773150803746840000,1.667840087890625,0.3585621416568756,0.39278164505958557,-0.6233986020088196
1773150803756877000,1.677876953125,0.3753392696380615,0.32088106870651245,-0.6716550588607788
1773150803766914800,1.687914794921875,0.37336665391921997,0.26882481575012207,-0.7055797576904297
1773150803776952000,1.6979521484375,0.3461845815181732,0.24651044607162476,-0.708705484867096
1773150803786989800,1.70798974609375,0.33158111572265625,0.25767362117767334,-0.6797348260879517
1773150803797027800,1.71802783203125,0.32630568742752075,0.266184002161026,-0.6209876537322998
1773150803807065000,1.728065185546875,0.3179795742034912,0.27070313692092896,-0.5433239936828613
1773150803817102800,1.738102783203125,0.32168376445770264,0.26590386033058167,-0.4625135660171509
1773150803827141000,1.74814111328125,0.33607202768325806,0.23639363050460815,-0.3970770537853241
1773150803837178000,1.75817822265625,0.34701254963874817,0.184981569647789,-0.34607404470443726
1773150803847215900,1.7682158203125,0.3283848166465759,0.15523192286491394,-0.30728110671043396
1773150803857254100,1.778254150390625,0.311230331659317,0.12313684821128845,-0.2890523076057434
1773150803867291000,1.788290771484375,0.3049657642841339,0.09103216975927353,-0.2941485345363617
1773150803877329000,1.798328857421875,0.289191335439682,0.07795525342226028,-0.3292689621448517
1773150803887367000,1.808366943359375,0.26890894770622253,0.054847270250320435,-0.37819576263427734
1773150803897404000,1.81840380859375,0.25540992617607117,0.02708221785724163,-0.40335091948509216
1773150803907442000,1.82844189453125,0.238459974527359,-0.030784543603658676,-0.4101385176181793
1773150803917479000,1.83847900390625,0.2289266586303711,-0.11372549831867218,-0.3957260251045227
1773150803927517000,1.848516845703125,0.23373979330062866,-0.21145232021808624,-0.3710172176361084
1773150803937555000,1.858554931640625,0.22527599334716797,-0.28793272376060486,-0.3387000262737274
1773150803947592000,1.868592041015625,0.18984849750995636,-0.3464069366455078,-0.30603528022766113
1773150803957630000,1.8786298828125,0.14627066254615784,-0.3939145505428314,-0.26152509450912476
1773150803967668000,1.88866796875,0.10591045022010803,-0.4620640277862549,-0.18520846962928772
1773150803977705000,1.898705078125,0.08951257169246674,-0.5544866323471069,-0.1033298522233963
1773150803987743000,1.908742919921875,0.09246096014976501,-0.6631692051887512,-0.03882782161235809
1773150803997781000,1.918781005859375,0.10257963836193085,-0.7670684456825256,0.01570599153637886
1773150804007818000,1.92881787109375,0.09013389050960541,-0.8293813467025757,0.058388207107782364
1773150804017856000,1.93885595703125,0.05456071346998215,-0.8511364459991455,0.09150035679340363
1773150804027894000,1.94889404296875,0.021640313789248466,-0.85746169090271,0.1077301949262619
1773150804037931000,1.958930908203125,-0.01453100610524416,-0.835115373134613,0.12311767041683197
1773150804047972400,1.968972412109375,-0.03754178434610367,-0.777955174446106,0.1356630176305771
1773150804058010400,1.97901025390625,-0.05608430877327919,-0.7190396189689636,0.10673843324184418
1773150804068047600,1.989047607421875,-0.09495393931865692,-0.6782501339912415,0.04974731430411339
1773150804078085400,1.99908544921875,-0.12688498198986053,-0.6628493666648865,-0.004825647920370102
1773150804088122400,2.009122314453125,-0.14186711609363556,-0.653545081615448,-0.051891960203647614
1773150804098160400,2.019160400390625,-0.158399760723114,-0.6357013583183289,-0.07755658030509949
1773150804108198400,2.029198486328125,-0.1717589795589447,-0.5982344150543213,-0.058877166360616684
1773150804118235400,2.0392353515625,-0.17227908968925476,-0.5703181028366089,0.006382798310369253
1773150804128273400,2.0492734375,-0.16490159928798676,-0.5508447885513306,0.10703803598880768
1773150804138311400,2.0593115234375,-0.13473224639892578,-0.5057321786880493,0.2375907152891159
1773150804148348400,2.069348388671875,-0.1007540374994278,-0.4427065849304199,0.3802948594093323
1773150804158386400,2.079386474609375,-0.06636064499616623,-0.3823481798171997,0.49782896041870117
1773150804168424400,2.089424560546875,-0.023142071440815926,-0.3343164622783661,0.5573535561561584
1773150804178461400,2.09946142578125,0.006318349856883287,-0.29904210567474365,0.5361588001251221
1773150804188499500,2.10949951171875,0.0060048955492675304,-0.23899021744728088,0.45042362809181213
1773150804198536400,2.119536376953125,-0.028427911922335625,-0.17298376560211182,0.34766262769699097
1773150804208574500,2.129574462890625,-0.06678888201713562,-0.11616522073745728,0.2849545180797577
1773150804218612500,2.139612548828125,-0.0882350504398346,-0.10011035203933716,0.2711329758167267
1773150804228649500,2.1496494140625,-0.11308181285858154,-0.13059395551681519,0.2744022607803345
1773150804238687500,2.1596875,-0.1352829933166504,-0.1751616895198822,0.26196688413619995
1773150804248725500,2.1697255859375,-0.14084047079086304,-0.23413872718811035,0.2233971357345581
1773150804258762200,2.17976220703125,-0.1282397210597992,-0.2855300009250641,0.17870555818080902
1773150804268800500,2.189800537109375,-0.12967170774936676,-0.35595518350601196,0.13772670924663544
1773150804278838300,2.19983837890625,-0.1458035409450531,-0.39039066433906555,0.09704931825399399
1773150804288875300,2.209875244140625,-0.18155008554458618,-0.359722763299942,0.06397072970867157
1773150804298913500,2.21991357421875,-0.2388799488544464,-0.30579879879951477,0.0354570597410202
1773150804308951300,2.229951416015625,-0.2989017367362976,-0.24496741592884064,0.009832390584051609
1773150804318988300,2.23998828125,-0.33482086658477783,-0.20723414421081543,-0.024601750075817108
1773150804329026600,2.250026611328125,-0.3537309169769287,-0.1846689134836197,-0.0714331716299057
1773150804339063300,2.260063232421875,-0.36132678389549255,-0.19187116622924805,-0.08874291926622391
1773150804349101600,2.2701015625,-0.36296409368515015,-0.19697484374046326,-0.08125810325145721
1773150804359139300,2.280139404296875,-0.36565548181533813,-0.2132267951965332,-0.06843232363462448
1773150804369176300,2.29017626953125,-0.3624221384525299,-0.2334684133529663,-0.045041777193546295
1773150804379214600,2.300214599609375,-0.3499484062194824,-0.2312697023153305,-0.01085903961211443
1773150804389252400,2.31025244140625,-0.33330845832824707,-0.22652208805084229,0.02761990949511528
1773150804399289300,2.320289306640625,-0.3167973756790161,-0.2123628556728363,0.05235694721341133
1773150804409327600,2.33032763671875,-0.3000738024711609,-0.18952305614948273,0.056524261832237244
1773150804419365400,2.340365478515625,-0.29841333627700806,-0.18423402309417725,0.03957777097821236
1773150804429402400,2.35040234375,-0.3007638156414032,-0.1772616058588028,-0.008884038776159286
1773150804439440400,2.3604404296875,-0.3064161241054535,-0.15793797373771667,-0.06881741434335709
1773150804449477400,2.370477294921875,-0.3003784716129303,-0.18929322063922882,-0.11763449013233185
1773150804459515400,2.380515380859375,-0.2677110731601715,-0.2310292273759842,-0.16149409115314484
1773150804469553400,2.390553466796875,-0.23799285292625427,-0.2529076337814331,-0.1959354132413864
1773150804479590400,2.40059033203125,-0.2278621941804886,-0.2524583339691162,-0.21866177022457123
1773150804489628700,2.410628662109375,-0.2296917885541916,-0.24203206598758698,-0.2225308120250702
1773150804499666400,2.42066650390625,-0.2283002883195877,-0.22456306219100952,-0.21496237814426422
1773150804509703400,2.430703369140625,-0.23350276052951813,-0.19671465456485748,-0.20619738101959229
1773150804519741400,2.440741455078125,-0.23693184554576874,-0.18675203621387482,-0.19343018531799316
1773150804529779500,2.450779541015625,-0.23567324876785278,-0.18557146191596985,-0.16912297904491425
1773150804539816400,2.46081640625,-0.22590796649456024,-0.17615558207035065,-0.1515389233827591
1773150804549854500,2.4708544921875,-0.20771990716457367,-0.17107321321964264,-0.14432096481323242
1773150804559892500,2.480892578125,-0.18219350278377533,-0.15285666286945343,-0.14143195748329163
1773150804569929500,2.490929443359375,-0.15358343720436096,-0.14890265464782715,-0.11957912892103195
1773150804579967500,2.500967529296875,-0.11547919362783432,-0.1511562317609787,-0.07828868180513382
1773150804590004500,2.51100439453125,-0.08605232834815979,-0.15076208114624023,-0.030166424810886383
1773150804600042200,2.521042236328125,-0.07634057849645615,-0.1438056379556656,0.0031561122741550207
1773150804610080500,2.53108056640625,-0.06744641810655594,-0.11563471704721451,0.011140002869069576
1773150804620117500,2.541117431640625,-0.05967051908373833,-0.08336226642131805,0.018743859604001045
1773150804630155300,2.5511552734375,-0.045453500002622604,-0.0596470832824707,0.021024592220783234
1773150804640193500,2.561193603515625,-0.032462067902088165,-0.03952477127313614,0.02840660698711872
1773150804650230500,2.57123046875,-0.028782378882169724,-0.02743987925350666,0.02931208163499832
1773150804660268500,2.5812685546875,-0.03057069145143032,-0.03056243620812893,0.014063887298107147
1773150804670305500,2.591305419921875,-0.028898758813738823,-0.05342673882842064,-0.004342017695307732
1773150804680343300,2.60134326171875,-0.012557337060570717,-0.0816115066409111,-0.01242364663630724
1773150804690381600,2.611381591796875,0.0034671693574637175,-0.11490980535745621,-0.0181752759963274
1773150804700418600,2.62141845703125,0.010045710019767284,-0.13957920670509338,-0.028853485360741615
1773150804710456300,2.631456298828125,0.011120827868580818,-0.14288285374641418,-0.048889778554439545
1773150804720494600,2.64149462890625,0.007278419099748135,-0.14533056318759918,-0.059834569692611694
1773150804730531300,2.65153125,0.013308880850672722,-0.13809235394001007,-0.04381352663040161
1773150804740569300,2.6615693359375,0.01942829228937626,-0.12490518391132355,-0.00564164062961936
1773150804750607600,2.671607666015625,0.029228458181023598,-0.10957123339176178,0.03555586189031601
1773150804760644400,2.681644287109375,0.027591414749622345,-0.10664095729589462,0.05698312446475029
1773150804770682400,2.691682373046875,0.030521957203745842,-0.10547955334186554,0.06306099146604538
1773150804780719600,2.7017197265625,0.038009967654943466,-0.10546410828828812,0.05772241950035095
1773150804790757400,2.71175732421875,0.04651423916220665,-0.09412436932325363,0.05666940286755562
1773150804800795600,2.721795654296875,0.05335483327507973,-0.08571729809045792,0.07144968211650848
1773150804810832400,2.731832275390625,0.06516249477863312,-0.0922420471906662,0.09355232119560242
1773150804820870400,2.741870361328125,0.07095859199762344,-0.09108223766088486,0.10967722535133362
1773150804830908400,2.751908447265625,0.06943393498659134,-0.0969795435667038,0.10749316960573196
1773150804840945400,2.7619453125,0.07304811477661133,-0.09593798220157623,0.08537322282791138
1773150804850983400,2.7719833984375,0.0630308985710144,-0.09222153574228287,0.04494856670498848
1773150804861021400,2.782021484375,0.046894270926713943,-0.07693419605493546,0.006667223758995533
1773150804871058400,2.792058349609375,0.03283997252583504,-0.08246265351772308,-0.013652428984642029
1773150804881096400,2.802096435546875,0.025347167626023293,-0.10054019093513489,-0.0017153420485556126
1773150804891133400,2.812133544921875,0.01817953586578369,-0.11740598827600479,0.030227944254875183
1773150804901171500,2.82217138671875,0.010135725140571594,-0.14108628034591675,0.07145634293556213
1773150804911209500,2.83220947265625,0.0033305492252111435,-0.1449233591556549,0.09678513556718826
1773150804921246500,2.84224658203125,0.006207295693457127,-0.1334185153245926,0.09232087433338165
1773150804931284500,2.852284423828125,0.011630822904407978,-0.09402716159820557,0.07432376593351364
1773150804941322200,2.862322265625,0.0111059146001935,-0.06048065423965454,0.05567871034145355
1773150804951359500,2.872359375,0.005122323986142874,-0.04408729821443558,0.02407390996813774
1773150804961397500,2.8823974609375,0.010363957844674587,-0.04326065629720688,-0.003141731023788452
1773150804971434200,2.892434326171875,0.017735054716467857,-0.046418365091085434,-0.0049460227601230145
1773150804981472500,2.902472412109375,0.01882961392402649,-0.06684800237417221,0.0011736550368368626
1773150804991510300,2.91251025390625,0.005881058517843485,-0.09570495039224625,-0.017964886501431465
1773150805001547300,2.92254736328125,0.008036620914936066,-0.10072581470012665,-0.05035638064146042
1773150805011585500,2.93258544921875,0.016225308179855347,-0.09255389869213104,-0.06119624525308609
1773150805021623300,2.942623291015625,0.01257810927927494,-0.08419770002365112,-0.03951998054981232
1773150805031660500,2.95266064453125,0.0014524880098178983,-0.060628727078437805,-0.006822752300649881
1773150805041698600,2.962698486328125,-0.016759006306529045,-0.034383539110422134,0.01543701346963644
1773150805051731700,2.972731689453125,-0.027242273092269897,-0.01380795706063509,0.016452210023999214
1773150805061769700,2.982769775390625,-0.03889333829283714,-0.02155402861535549,-0.0019022959750145674
1773150805071807700,2.992807861328125,-0.048780057579278946,-0.021348431706428528,-0.03737560287117958
1773150805081844700,3.0028447265625,-0.04631530120968819,-0.03469859063625336,-0.05782921239733696
1773150805091882800,3.0128828125,-0.043653737753629684,-0.06416087597608566,-0.06069823354482651
1773150805101920500,3.02292041015625,-0.03873967379331589,-0.08689441531896591,-0.04414668679237366
1773150805111957800,3.032957763671875,-0.03828560188412666,-0.10538208484649658,-0.035647209733724594
1773150805121995800,3.042995849609375,-0.04711105301976204,-0.10270294547080994,-0.04231869429349899
1773150805132032500,3.053032470703125,-0.06500989198684692,-0.07751715928316116,-0.059782639145851135
1773150805142070800,3.06307080078125,-0.0734931230545044,-0.036265596747398376,-0.05278358608484268
1773150805152108500,3.073108642578125,-0.08029590547084808,-0.012723252177238464,-0.02967081032693386
1773150805162145500,3.0831455078125,-0.09056771546602249,0.010853447020053864,-0.0037055222783237696
1773150805172183800,3.093183837890625,-0.08231218159198761,0.0494873933494091,0.019997144117951393
1773150805182221600,3.1032216796875,-0.08271165937185287,0.062009841203689575,0.034205641597509384
1773150805192258600,3.113258544921875,-0.08298250287771225,0.04110455885529518,0.020749753341078758
1773150805202296800,3.123296875,-0.0779951959848404,0.03569807484745979,0.0004625910660251975
1773150805212333600,3.13333349609375,-0.07883143424987793,0.03706188127398491,-0.014463627710938454
1773150805222371600,3.14337158203125,-0.08052946627140045,0.0177566260099411,-0.01690974086523056
1773150805232409600,3.15340966796875,-0.07472456991672516,-0.00432976707816124,-0.02334793284535408
1773150805242446600,3.163446533203125,-0.07055751979351044,-0.022717030718922615,-0.03893062099814415
1773150805252484900,3.17348486328125,-0.05530320107936859,-0.0372922457754612,-0.044624727219343185
1773150805262522600,3.183522705078125,-0.04283881187438965,-0.05880046635866165,-0.051848817616701126
1773150805272559600,3.1935595703125,-0.03299044072628021,-0.08008258789777756,-0.05276148021221161
1773150805282598000,3.203597900390625,-0.029532326385378838,-0.08057979494333267,-0.03579315170645714
1773150805292634600,3.213634521484375,-0.027577299624681473,-0.07833635061979294,-0.01624368503689766
1773150805302672600,3.223672607421875,-0.02376551739871502,-0.07236793637275696,-0.0016964336391538382
1773150805312710700,3.233710693359375,-0.027280090376734734,-0.06132274493575096,0.012950153090059757
1773150805322747600,3.24374755859375,-0.03924061357975006,-0.05205095186829567,0.0273250974714756
1773150805332785700,3.25378564453125,-0.04471766948699951,-0.04138738662004471,0.040339965373277664
1773150805342823700,3.26382373046875,-0.048466868698596954,-0.031647939234972,0.045880939811468124
1773150805352860700,3.273860595703125,-0.05213271081447601,-0.03133688494563103,0.04231762886047363
1773150805362898700,3.283898681640625,-0.05921352282166481,-0.03730715811252594,0.0342828705906868
1773150805372935700,3.293935791015625,-0.06476088613271713,-0.05239689350128174,0.015115302987396717
1773150805382973700,3.3039736328125,-0.06725174188613892,-0.06549379229545593,-0.0052197957411408424
1773150805393011500,3.314011474609375,-0.06600724905729294,-0.06281518191099167,-0.0009675264009274542
1773150805403048700,3.324048583984375,-0.0635928213596344,-0.045932337641716,0.01806049235165119
1773150805413086700,3.334086669921875,-0.06695213913917542,-0.02117985300719738,0.05218756943941116
1773150805423123700,3.344123779296875,-0.0628892183303833,0.0023092268966138363,0.07897897064685822
1773150805433161700,3.35416162109375,-0.05651067942380905,0.007580687757581472,0.08546856045722961
1773150805443199700,3.36419970703125,-0.05813973397016525,0.012562396936118603,0.06679953634738922
1773150805453236500,3.374236572265625,-0.055097874253988266,0.004729773849248886,0.04091707244515419
1773150805463274800,3.384274658203125,-0.05474553629755974,-0.013741378672420979,0.019296731799840927
1773150805473312500,3.3943125,-0.04439888894557953,-0.008564193733036518,0.010670754127204418
1773150805483349800,3.404349853515625,-0.037040043622255325,0.008107461035251617,0.03080265410244465
1773150805493387800,3.4143876953125,-0.04806526377797127,0.020987574011087418,0.05224110186100006
1773150805503424800,3.4244248046875,-0.0564451664686203,0.00743128452450037,0.05560600385069847
1773150805513462800,3.434462890625,-0.0525931715965271,-0.023741548880934715,0.045162949711084366
1773150805523500800,3.444500732421875,-0.04530010372400284,-0.04862665757536888,0.04237009212374687
1773150805533537500,3.45453759765625,-0.03165033832192421,-0.06412279605865479,0.04901920631527901
1773150805543575800,3.464575927734375,-0.02901593968272209,-0.07469207793474197,0.05132364109158516
1773150805553613600,3.474613525390625,-0.03050118312239647,-0.07211094349622726,0.05409812182188034
1773150805563650600,3.484650634765625,-0.0405021533370018,-0.055927712470293045,0.04950337111949921
1773150805573688800,3.494688720703125,-0.042870502918958664,-0.04313974827528,0.032155804336071014
1773150805583725600,3.5047255859375,-0.04733848571777344,-0.020246682688593864,0.025301361456513405
1773150805593763600,3.514763671875,-0.047392550855875015,-0.004891161806881428,0.03990453854203224
1773150805603801600,3.524801513671875,-0.03993809595704079,0.001413073274306953,0.06406473368406296
1773150805613838600,3.534838623046875,-0.024622788652777672,0.008737298659980297,0.08978554606437683
1773150805623876600,3.544876708984375,-0.023434752598404884,0.01613742485642433,0.0873575434088707
1773150805633913900,3.554913818359375,-0.021984394639730453,0.010437993332743645,0.04867139831185341
1773150805643951600,3.56495166015625,-0.007035272661596537,0.022429142147302628,0.007226753979921341
1773150805653990000,3.574989990234375,-0.0073468624614179134,0.06760327517986298,-0.005939115304499865
1773150805664026600,3.585026611328125,-0.025619609281420708,0.08754689246416092,0.005657885689288378
1773150805674064600,3.595064697265625,-0.042456381022930145,0.0464031845331192,-0.0028826056513935328
1773150805684101600,3.6051015625,-0.041303232312202454,-0.03851943090558052,-0.05279077589511871
1773150805694139600,3.6151396484375,-0.046188801527023315,-0.06945177912712097,-0.07016630470752716
1773150805704177700,3.625177734375,-0.0511433444917202,-0.08195532113313675,-0.030967503786087036
1773150805714215000,3.63521484375,-0.0612361915409565,-0.06609779596328735,0.006226737052202225
1773150805724252700,3.645252685546875,-0.08005674928426743,-0.03471670299768448,0.01056049857288599
1773150805734290700,3.655290771484375,-0.11248046904802322,-0.017112940549850464,-0.000362988852430135
1773150805744327700,3.66532763671875,-0.14006683230400085,-0.021763086318969727,-0.031047398224473
1773150805754365700,3.67536572265625,-0.1456216424703598,-0.032098814845085144,-0.05760630592703819
1773150805764402700,3.685402587890625,-0.1401672214269638,-0.0754803791642189,-0.07629876583814621
1773150805774440700,3.695440673828125,-0.13094443082809448,-0.10142622143030167,-0.05071164667606354
1773150805784478700,3.705478759765625,-0.1301790475845337,-0.11492844671010971,-0.02172979712486267
1773150805794515700,3.715515625,-0.13826146721839905,-0.10110850632190704,-0.021770542487502098
1773150805804553700,3.7255537109375,-0.15405668318271637,-0.07441511005163193,-0.026035329326987267
1773150805814590700,3.7355908203125,-0.1785058230161667,-0.04008243978023529,-0.013560815714299679
1773150805824628500,3.74562841796875,-0.18838003277778625,-0.01720508560538292,0.008979646489024162
1773150805834666800,3.755666748046875,-0.18759945034980774,-0.020075706765055656,0.028850823640823364
1773150805844703700,3.765703857421875,-0.17348231375217438,-0.03403919190168381,0.037880804389715195
1773150805854741500,3.775741455078125,-0.1596599668264389,-0.03870824724435806,0.037032853811979294
1773150805864778800,3.78577880859375,-0.1522180289030075,-0.04123558849096298,0.043482761830091476
1773150805874816800,3.795816650390625,-0.15407398343086243,-0.04151921346783638,0.058461710810661316
1773150805884854800,3.805854736328125,-0.16274817287921906,-0.03868987038731575,0.07479940354824066
1773150805894891800,3.815891845703125,-0.16865266859531403,-0.02345978654921055,0.0794687271118164
1773150805904929500,3.825929443359375,-0.17467007040977478,0.00213665422052145,0.07789719849824905
1773150805914967800,3.8359677734375,-0.18428967893123627,0.012170912697911263,0.0631808340549469
1773150805925004800,3.8460048828125,-0.1805812269449234,0.017124392092227936,0.046602390706539154
1773150805935042600,3.85604248046875,-0.17074458301067352,0.03569008782505989,0.03210999816656113
1773150805945079800,3.866079833984375,-0.16440492868423462,0.03687918931245804,0.03026176616549492
1773150805955117800,3.876117919921875,-0.16853947937488556,0.028179440647363663,0.036677587777376175
1773150805965154600,3.886154541015625,-0.179077610373497,0.021341774612665176,0.0408177375793457
1773150805975192800,3.89619287109375,-0.176967591047287,0.005199822131544352,0.040049150586128235
1773150805985230600,3.906230712890625,-0.17581602931022644,0.013073457404971123,0.028844697400927544
1773150805995267600,3.916267578125,-0.16437377035617828,0.008510131388902664,0.02334899827837944
1773150806005305900,3.926305908203125,-0.15705806016921997,-0.006928479764610529,0.024217721074819565
1773150806015343600,3.936343505859375,-0.13816852867603302,-0.01287665031850338,0.0339885950088501
1773150806025380600,3.946380615234375,-0.11700491607189178,-0.01950685679912567,0.042279280722141266
1773150806035418600,3.956418701171875,-0.10733763873577118,-0.00242107966914773,0.05080565810203552
1773150806045455600,3.96645556640625,-0.10868440568447113,0.020893031731247902,0.052926864475011826
1773150806055497500,3.97649755859375,-0.10958535224199295,0.04399915039539337,0.0650104284286499
1773150806065535200,3.98653515625,-0.10562283545732498,0.06595557928085327,0.08257903158664703
1773150806075572200,3.996572265625,-0.09273260086774826,0.0750204473733902,0.10101902484893799
1773150806085610500,4.006610595703125,-0.08052892982959747,0.07969829440116882,0.1094316840171814
1773150806095647200,4.016647216796875,-0.07085339725017548,0.09702002257108688,0.0863945409655571
1773150806105685500,4.026685546875,-0.0747341588139534,0.08445336669683456,0.05199582129716873
1773150806115723300,4.03672314453125,-0.07871638238430023,0.05727793648838997,0.026134664192795753
1773150806125760300,4.04676025390625,-0.07069414108991623,0.07388594001531601,0.013382384553551674
1773150806135798500,4.056798583984375,-0.06790021806955338,0.10398206114768982,0.018996860831975937
1773150806145835500,4.06683544921875,-0.0754779800772667,0.1098300963640213,0.018560368567705154
1773150806155873300,4.076873291015625,-0.08163733780384064,0.12323351949453354,-0.0008189220097847283
1773150806165911600,4.08691162109375,-0.07228352129459381,0.09878889471292496,-0.03303438425064087
1773150806175948300,4.0969482421875,-0.04686497524380684,0.08936982601881027,-0.045872416347265244
1773150806185986300,4.106986328125,-0.028429243713617325,0.07065073400735855,-0.03961452096700668
1773150806196023600,4.1170234375,-0.04079190269112587,0.0428481325507164,-0.036681316792964935
1773150806206061300,4.127061279296875,-0.05014306306838989,0.03753539174795151,-0.054784685373306274
1773150806216099300,4.137099365234375,-0.056528788059949875,0.060447096824645996,-0.10454105585813522
1773150806226136300,4.14713623046875,-0.07632140070199966,0.06419309973716736,-0.17534679174423218
1773150806236174300,4.15717431640625,-0.07469847053289413,0.04512114077806473,-0.2239590585231781
1773150806246211300,4.16721142578125,-0.047690555453300476,0.043354932218790054,-0.22654366493225098
1773150806256249300,4.177249267578125,-0.03949334844946861,0.02875361777842045,-0.18533870577812195
1773150806266287400,4.187287353515625,-0.043408993631601334,0.05973044037818909,-0.14119787514209747
1773150806276324400,4.197324462890625,-0.04945436865091324,0.17364129424095154,-0.09991860389709473
1773150806286362400,4.2073623046875,-0.02568991668522358,0.37441807985305786,-0.01762826181948185
1773150806296399400,4.2173994140625,-0.08490263670682907,0.5889537930488586,-0.07510779798030853
1773150806306437400,4.227437255859375,-0.2919823229312897,0.843032717704773,-0.2981366217136383
1773150806316475400,4.237475341796875,-0.2566048800945282,0.7883718609809875,-0.48117461800575256
1773150806326512400,4.247512451171875,-0.19414789974689484,0.7352204918861389,-0.536700963973999
1773150806336550400,4.25755029296875,-0.11742942780256271,0.8444827795028687,-0.425808310508728
1773150806346587400,4.26758740234375,-0.009739180095493793,0.9447126984596252,-0.15451501309871674
1773150806356625400,4.27762548828125,0.034991271793842316,1.0405598878860474,0.12673796713352203
1773150806366663400,4.287663330078125,0.07110720127820969,1.1970405578613281,0.2938995361328125
1773150806376700400,4.297700439453125,0.17834550142288208,1.2770336866378784,0.3242614269256592
1773150806386738200,4.30773828125,0.2177152782678604,1.3711026906967163,0.24717916548252106
1773150806396775200,4.317775146484375,0.05314258113503456,1.74062979221344,0.26724928617477417
1773150806406813400,4.3278134765625,-0.14248737692832947,2.1544675827026367,0.403994083404541
1773150806416851200,4.337851318359375,-0.24059636890888214,2.5047268867492676,0.8575133681297302
1773150806426888400,4.347888427734375,-0.16960793733596802,3.0174002647399902,1.5799520015716553
1773150806436926500,4.357926513671875,-0.08925770968198776,3.72593092918396,2.2149970531463623
1773150806446963200,4.367963134765625,-0.16164055466651917,5.13978385925293,2.8371124267578125
1773150806457001500,4.37800146484375,0.0026072347536683083,5.696744918823242,3.2930240631103516
1773150806467039200,4.388039306640625,0.35554930567741394,2.7440762519836426,2.1593575477600098
1773150806477076200,4.398076171875,0.594683051109314,2.499370574951172,0.3652333617210388
1773150806487114500,4.408114501953125,0.6404950022697449,3.9841411113739014,-1.1286660432815552
1773150806497151500,4.4181513671875,0.32342973351478577,5.1253886222839355,-2.2072970867156982
1773150806507189200,4.428189208984375,-0.32555440068244934,5.2252092361450195,-2.9235846996307373
1773150806517227500,4.4382275390625,-1.0446571111679077,4.755639553070068,-3.283625602722168
1773150806527264300,4.44826416015625,-1.5428472757339478,4.093257427215576,-3.507251739501953
1773150806537302300,4.45830224609375,-1.7706811428070068,3.319945812225342,-3.593996524810791
1773150806547339500,4.468339599609375,-0.9684111475944519,0.9027122855186462,-3.2123219966888428
1773150806557377300,4.478377197265625,0.18755312263965607,0.39557743072509766,-2.6560091972351074
1773150806567415300,4.488415283203125,0.7127945423126221,0.7265894412994385,-2.0540103912353516
1773150806577452500,4.49845263671875,0.5988820791244507,-0.1461750566959381,-1.626373052597046
1773150806587490300,4.508490234375,0.27583184838294983,-0.7472521066665649,-1.3733325004577637
1773150806597527300,4.51852734375,-0.17770075798034668,-0.9066808819770813,-1.2862857580184937
1773150806607565300,4.5285654296875,-0.5984469056129456,-0.9968954920768738,-1.2718671560287476
1773150806617603300,4.538603271484375,-1.078100562095642,-1.201759696006775,-1.321006417274475
1773150806627640300,4.548640380859375,-1.8424397706985474,-1.2553941011428833,-1.4738407135009766
1773150806637678300,4.55867822265625,-2.7096755504608154,-1.1918047666549683,-1.7792960405349731
1773150806647716400,4.56871630859375,-3.535088300704956,-1.0530411005020142,-2.1864469051361084
1773150806657753300,4.57875341796875,-4.26514196395874,-0.6448168158531189,-2.6018757820129395
1773150806667791400,4.588791259765625,-4.821455955505371,-0.17228229343891144,-2.985931873321533
1773150806677828400,4.598828369140625,-5.229608058929443,0.29791903495788574,-3.3650450706481934
1773150806687866400,4.608866455078125,-5.554150104522705,0.6231676936149597,-3.734269380569458
1773150806697904400,4.618904296875,-5.7157135009765625,0.7564469575881958,-4.122999668121338
1773150806707941400,4.62894140625,-5.777181625366211,0.8407495617866516,-4.480005741119385
1773150806717979400,4.6389794921875,-5.788720607757568,0.8925525546073914,-4.757277488708496
1773150806728016400,4.649016357421875,-5.7386698722839355,0.8123093843460083,-4.925835132598877
1773150806738054400,4.659054443359375,-5.63380241394043,0.7072466015815735,-5.068309783935547
1773150806748092400,4.669092529296875,-5.570882320404053,0.6761541962623596,-5.2425689697265625
1773150806758129400,4.67912939453125,-5.558273792266846,0.6726676225662231,-5.462345123291016
1773150806768167200,4.689167236328125,-5.581227779388428,0.7782859206199646,-5.73442268371582
1773150806778204400,4.699204345703125,-5.6890106201171875,0.5351102948188782,-5.989259719848633
1773150806788242400,4.709242431640625,-5.620199680328369,0.45347535610198975,-6.287018775939941
1773150806798280200,4.7192802734375,-5.3834614753723145,0.272755891084671,-6.539777755737305
1773150806808317400,4.7293173828125,-4.917540550231934,-0.07650436460971832,-6.611855506896973
1773150806818355200,4.739355224609375,-4.08172082901001,-0.36628106236457825,-6.500234127044678
1773150806828392200,4.74939208984375,-2.82393479347229,-0.37136954069137573,-6.277637004852295
1773150806838430500,4.759430419921875,-1.3316444158554077,0.19665367901325226,-5.986933708190918
1773150806848467500,4.769467529296875,-0.2965664267539978,-0.039015043526887894,-5.6107707023620605
1773150806858505200,4.779505126953125,0.35514557361602783,0.0010479538468644023,-5.43624210357666
1773150806868543500,4.78954345703125,0.9445191025733948,0.805605947971344,-5.422488212585449
1773150806878580200,4.799580322265625,1.3740313053131104,1.843957543373108,-5.336512565612793
1773150806888618500,4.809618408203125,1.7181026935577393,2.8527870178222656,-5.068883895874023
1773150806898655500,4.819655517578125,2.1817545890808105,3.5867836475372314,-4.608771800994873
1773150806908693200,4.829693359375,2.7368152141571045,3.9836654663085938,-4.0263776779174805
1773150806918731500,4.8397314453125,3.3170130252838135,4.065648078918457,-3.4279747009277344
1773150806928768500,4.8497685546875,3.823122501373291,4.109618663787842,-2.8805460929870605
1773150806938806300,4.85980615234375,4.195004463195801,4.103113651275635,-2.3407673835754395
1773150806948843300,4.86984326171875,4.495968818664551,4.023773670196533,-1.761375069618225
1773150806958881300,4.87988134765625,4.750590801239014,3.8452916145324707,-1.1869386434555054
1773150806968919300,4.889919189453125,5.040160655975342,3.555034637451172,-0.664617657661438
1773150806978956500,4.89995654296875,4.944462299346924,3.3794424533843994,0.05176013335585594
1773150806988994300,4.909994384765625,4.1739301681518555,3.4762215614318848,0.8987558484077454
1773150806999031300,4.92003125,3.108567476272583,3.7193515300750732,1.5699414014816284
1773150807009069600,4.930069580078125,2.4128665924072266,3.77917742729187,1.9382555484771729
1773150807019107300,4.940107421875,2.3188323974609375,3.4085230827331543,2.047395944595337
1773150807029144300,4.950144287109375,2.4186110496520996,2.476785182952881,2.1361331939697266
1773150807039182300,4.960182373046875,2.719247341156006,1.3200408220291138,2.305978775024414
1773150807049219300,4.97021923828125,2.860555410385132,0.2960588335990906,2.282104730606079
1773150807059258000,4.980258056640625,3.0542683601379395,-0.095797099173069,2.009437084197998
1773150807069296000,4.990296142578125,3.632981300354004,-0.16085466742515564,1.5909364223480225
1773150807079333400,5.00033349609375,3.8797435760498047,-0.6577799916267395,0.8604854345321655
1773150807089371100,5.01037109375,3.814592123031616,-0.7659860849380493,0.3506288528442383
1773150807099408100,5.020408203125,3.462676525115967,-0.7716264128684998,0.10542229562997818
1773150807109446400,5.0304462890625,2.7373437881469727,-0.824658215045929,0.005517803598195314
1773150807119483100,5.040483154296875,2.089716911315918,-0.8565282821655273,-0.0636516809463501
1773150807129521200,5.050521240234375,1.5728600025177002,-1.2090245485305786,-0.3190016746520996
1773150807139559200,5.06055908203125,1.0809952020645142,-1.5907127857208252,-0.5622468590736389
1773150807149596200,5.07059619140625,0.651236891746521,-1.6360362768173218,-0.5253202319145203
1773150807159634200,5.08063427734375,0.41633835434913635,-1.427932620048523,-0.2410230040550232
1773150807169671400,5.09067138671875,0.3018741011619568,-1.305753469467163,0.039263516664505005
1773150807179709200,5.100709228515625,0.26853424310684204,-1.5312310457229614,0.1702478975057602
1773150807189747200,5.110747314453125,0.2896355390548706,-1.7994928359985352,0.044851891696453094
1773150807199784200,5.1207841796875,0.35797545313835144,-1.650810956954956,-0.21045364439487457
1773150807209822200,5.130822265625,0.4718373119831085,-1.3693851232528687,-0.25677213072776794
1773150807219859200,5.140859130859375,0.6741456985473633,-1.0056120157241821,-0.38533225655555725
1773150807229897200,5.150897216796875,0.9795950651168823,-0.7126304507255554,-0.6640951633453369
1773150807239935200,5.160935302734375,1.1477148532867432,-0.9211956858634949,-0.6353527307510376
1773150807249972200,5.17097216796875,1.1720832586288452,-0.9963932037353516,-0.13913898169994354
1773150807260010200,5.18101025390625,1.0209816694259644,-0.9946238398551941,0.3065333068370819
1773150807270047200,5.191047119140625,0.8492895364761353,-0.5731160044670105,0.3915800154209137
1773150807280085000,5.2010849609375,0.7701241374015808,0.021212344989180565,0.32088586688041687
1773150807290123300,5.211123291015625,0.6807612180709839,0.7326443791389465,0.269621342420578
1773150807300160300,5.22116015625,0.05916585028171539,1.2293365001678467,0.5236960053443909
1773150807310198300,5.2311982421875,-0.44893786311149597,1.2395347356796265,0.6448817849159241
1773150807320235300,5.2412353515625,-0.5610396265983582,-0.004236556589603424,0.6738433837890625
1773150807330273000,5.25127294921875,-0.8897844552993774,-1.353277325630188,0.7908651232719421
1773150807340310000,5.26131005859375,-1.5322896242141724,-2.076007604598999,0.9665833711624146
1773150807350348300,5.271348388671875,-2.3949475288391113,-2.252483606338501,1.1319632530212402
1773150807360386000,5.281385986328125,-3.200491189956665,-2.1305878162384033,1.2089848518371582
1773150807370423000,5.291423095703125,-3.8424084186553955,-1.9422944784164429,1.1967403888702393
1773150807380461300,5.30146142578125,-4.227840900421143,-2.178980588912964,0.914088785648346
1773150807390498000,5.311498046875,-4.261160850524902,-2.0516045093536377,0.5056005716323853
1773150807400536300,5.321536376953125,-4.266263961791992,-1.7487984895706177,0.1062966138124466
1773150807410574000,5.331573974609375,-4.224400997161865,-1.3807460069656372,-0.42486900091171265
1773150807420611000,5.341611083984375,-4.017208099365234,-0.9323367476463318,-1.0090628862380981
1773150807430649300,5.3516494140625,-3.6296041011810303,-0.5633707046508789,-1.5241931676864624
1773150807440686300,5.361686279296875,-3.1380650997161865,-0.2241782397031784,-1.8114004135131836
1773150807450724000,5.37172412109375,-2.612105131149292,-0.44420087337493896,-1.7913020849227905
1773150807460762400,5.381762451171875,-1.9594130516052246,-1.3757543563842773,-1.47538161277771
1773150807470799000,5.391799072265625,-1.3580312728881836,-1.9470429420471191,-1.3904744386672974
1773150807480837000,5.401837158203125,-0.8192901015281677,-2.3498971462249756,-1.4775574207305908
1773150807490874400,5.411874267578125,-0.5140883326530457,-2.2572739124298096,-1.5590978860855103
1773150807500912000,5.421912109375,-0.49859434366226196,-1.560975432395935,-1.6050629615783691
1773150807510950100,5.4319501953125,-0.7613047957420349,-1.1312512159347534,-1.5028473138809204
1773150807520987400,5.4419873046875,-0.9888908267021179,-0.8055588006973267,-1.365471601486206
1773150807531025200,5.452025146484375,-1.1507679224014282,-0.9611191153526306,-1.0238221883773804
1773150807541062100,5.462062255859375,-1.167762279510498,-1.1936713457107544,-0.6295246481895447
1773150807551100200,5.47210009765625,-1.083193302154541,-1.242189645767212,-0.3122479021549225
1773150807561137200,5.48213720703125,-0.8781432509422302,-1.0095793008804321,-0.15384629368782043
1773150807571175200,5.492175048828125,-0.670953631401062,-0.5260075926780701,-0.1974872350692749
1773150807581213200,5.502213134765625,-0.5548794865608215,-0.1584346443414688,-0.40821918845176697
1773150807591250200,5.512250244140625,-0.2384413331747055,0.06486102193593979,-0.5346077680587769
1773150807601288200,5.5222880859375,0.3146418333053589,0.25053954124450684,-0.42269718647003174
1773150807611325200,5.5323251953125,0.7804909944534302,0.18162944912910461,-0.35876694321632385
1773150807621363200,5.54236328125,1.1082276105880737,0.07326488941907883,-0.18524575233459473
1773150807631400200,5.552400146484375,1.3331278562545776,0.014772821217775345,0.05638258159160614
1773150807641438200,5.562438232421875,1.4901416301727295,-0.2840535640716553,0.2664697766304016
1773150807651476200,5.572476318359375,1.4076361656188965,-0.8466593623161316,0.3453797698020935
1773150807661513200,5.58251318359375,1.0956079959869385,-1.4968392848968506,0.2865222990512848
1773150807671551200,5.59255126953125,0.368913859128952,-1.7476294040679932,0.10750382393598557
1773150807681588200,5.602588134765625,-0.3436167538166046,-2.0048487186431885,-0.04126088693737984
1773150807691626000,5.6126259765625,-1.0662002563476562,-2.038567543029785,-0.14499527215957642
1773150807701664300,5.622664306640625,-1.7000230550765991,-2.0711941719055176,-0.30416440963745117
1773150807711701200,5.632701171875,-2.0052406787872314,-2.163576126098633,-0.6207647323608398
1773150807721739300,5.6427392578125,-2.548889636993408,-2.5755326747894287,-1.0534125566482544
1773150807731776300,5.6527763671875,-2.7373290061950684,-2.482841968536377,-0.8847247362136841
1773150807741814000,5.66281396484375,-2.5944228172302246,-2.023800849914551,-0.6315023303031921
1773150807751851000,5.67285107421875,-2.4493565559387207,-0.9300171136856079,-0.5370924472808838
1773150807761889300,5.68288916015625,-2.6454310417175293,0.7053355574607849,-0.6207152009010315
1773150807771927000,5.692927001953125,-3.0171871185302734,2.005911350250244,-0.7785546183586121
1773150807781964300,5.70296435546875,-3.185147523880005,2.687278985977173,-0.7918720245361328
1773150807792002300,5.713002197265625,-3.0756571292877197,3.17026686668396,-0.6619532108306885
1773150807802039000,5.7230390625,-3.0710816383361816,3.30975341796875,-0.6260409951210022
1773150807812077300,5.733077392578125,-3.339486598968506,2.7021548748016357,-1.2530369758605957
1773150807822115000,5.743114990234375,-3.4767448902130127,2.736455202102661,-1.7021522521972656
1773150807832152000,5.753152099609375,-3.5217838287353516,2.653538703918457,-2.013798475265503
1773150807842190300,5.7631904296875,-3.2260055541992188,1.9815889596939087,-2.3941054344177246
1773150807852227300,5.773227294921875,-2.6314785480499268,0.7360998392105103,-2.831641435623169
1773150807862265000,5.78326513671875,-1.8656418323516846,-0.6097863912582397,-2.921093463897705
1773150807872303400,5.793303466796875,-1.0728358030319214,-1.5712263584136963,-2.463766574859619
1773150807882340000,5.803340087890625,-0.12192989885807037,-2.3532307147979736,-1.7339016199111938
1773150807892378000,5.813378173828125,0.9284884929656982,-2.86781907081604,-0.9402719140052795
1773150807902415400,5.823415283203125,1.560936450958252,-2.9135870933532715,-0.2527209222316742
1773150807912453000,5.833453125,1.9021077156066895,-2.904111623764038,0.21303318440914154
1773150807922490000,5.843489990234375,1.85029935836792,-2.812594413757324,0.4092665910720825
1773150807932528400,5.8535283203125,1.5278635025024414,-2.655884027481079,0.3482415974140167
1773150807942566100,5.863566162109375,1.2274667024612427,-2.856290102005005,0.14988590776920319
1773150807952603100,5.87360302734375,0.7672593593597412,-2.8980681896209717,-0.15906155109405518
1773150807962641200,5.88364111328125,0.2105228751897812,-2.602595090866089,-0.41241419315338135
1773150807972678100,5.89367822265625,-0.3776112198829651,-1.948339819908142,-0.5474958419799805
1773150807982716200,5.903716064453125,-0.9840385317802429,-0.987902820110321,-0.5720680356025696
1773150807992754200,5.913754150390625,-1.499861478805542,0.13862977921962738,-0.465640664100647
1773150808002791200,5.923791259765625,-1.72440767288208,1.1992321014404297,-0.280974417924881
1773150808012829200,5.9338291015625,-1.6169123649597168,2.0557947158813477,-0.037890657782554626
1773150808022866200,5.9438662109375,-1.2494529485702515,2.6415951251983643,0.250230073928833
1773150808032904200,5.953904296875,-0.7312155961990356,2.9669723510742188,0.5466335415840149
1773150808042941200,5.963941162109375,-0.15871721506118774,3.059765338897705,0.8137014508247375
1773150808052978200,5.973978271484375,0.34592491388320923,3.053725004196167,0.9896128177642822
1773150808063016400,5.984016357421875,0.7592134475708008,3.02485728263855,1.0471704006195068
1773150808073053400,5.994053466796875,1.0761727094650269,2.982003927230835,0.9750679731369019
1773150808083091200,6.00409130859375,1.2514406442642212,2.899282455444336,0.7951975464820862
1773150808093128200,6.014128173828125,1.2766318321228027,2.774580478668213,0.5800945162773132
1773150808103166500,6.02416650390625,1.2034481763839722,2.598684072494507,0.3832794725894928
1773150808113203200,6.034203125,1.0199438333511353,2.3390049934387207,0.21625053882598877
1773150808123241500,6.044241455078125,0.7475804686546326,2.052520513534546,0.07647772878408432
1773150808133279200,6.054279296875,0.41251885890960693,1.7671754360198975,-0.04429183155298233
1773150808143316200,6.064316162109375,0.037219274789094925,1.507950782775879,-0.15558506548404694
1773150808153354500,6.0743544921875,-0.3210113048553467,1.260857343673706,-0.28020423650741577
1773150808163391200,6.08439111328125,-0.5384442806243896,0.9696673154830933,-0.39802274107933044
1773150808173429200,6.09442919921875,-0.5633677840232849,0.7041072845458984,-0.5577900409698486
1773150808183467300,6.10446728515625,-0.35755786299705505,0.41495272517204285,-0.6925579905509949
1773150808193504300,6.114504150390625,-0.019157182425260544,0.14228416979312897,-0.7401859164237976
1773150808203542300,6.124542236328125,0.2544858157634735,-0.011943478137254715,-0.7284342050552368
1773150808213579500,6.13457958984375,0.40226221084594727,-0.07988497614860535,-0.6784317493438721
1773150808223617300,6.1446171875,0.49874934554100037,-0.04881228134036064,-0.6073575615882874
1773150808233654300,6.154654296875,0.5467507243156433,0.058760520070791245,-0.5069143176078796
1773150808243692300,6.1646923828125,0.5304422974586487,0.24044589698314667,-0.36969494819641113
1773150808253730300,6.174730224609375,0.45693132281303406,0.46597516536712646,-0.21161611378192902
1773150808263767300,6.184767333984375,0.3547391891479492,0.6969804167747498,-0.046181876212358475
1773150808273805300,6.194805419921875,0.2582099735736847,0.9138485193252563,0.0849873274564743
1773150808283842300,6.20484228515625,0.19351619482040405,1.0795866250991821,0.17258375883102417
1773150808293880300,6.21488037109375,0.17658649384975433,1.146162509918213,0.21844153106212616
1773150808303917300,6.224917236328125,0.18362867832183838,1.1163007020950317,0.23979981243610382
1773150808313955300,6.234955322265625,0.19652850925922394,1.0008076429367065,0.25097495317459106
1773150808323993000,6.2449931640625,0.17866268754005432,0.819800615310669,0.26642343401908875
1773150808334030300,6.2550302734375,0.0801294595003128,0.6233352422714233,0.28832659125328064
1773150808344068400,6.265068359375,-0.018682075664401054,0.4166824519634247,0.29333174228668213
1773150808354105300,6.275105224609375,-0.0790434181690216,0.24471387267112732,0.2684849798679352
1773150808364143400,6.285143310546875,-0.11131107807159424,0.10805243253707886,0.23834705352783203
1773150808374180400,6.295180419921875,-0.13288667798042297,-0.005151618737727404,0.2152249664068222
1773150808384218000,6.305218017578125,-0.13819728791713715,-0.1047181561589241,0.21469685435295105
1773150808394256400,6.31525634765625,-0.12056076526641846,-0.1885792315006256,0.2274896204471588
1773150808404293400,6.32529345703125,-0.1240343302488327,-0.2336883842945099,0.23774784803390503
1773150808414331100,6.3353310546875,-0.15656830370426178,-0.23516884446144104,0.23984241485595703
1773150808424368400,6.345368408203125,-0.19191937148571014,-0.1913401335477829,0.23036769032478333
1773150808434406400,6.355406494140625,-0.20780326426029205,-0.14328286051750183,0.21863967180252075
1773150808444443100,6.365443115234375,-0.20134243369102478,-0.09667700529098511,0.21186991035938263
1773150808454481400,6.3754814453125,-0.19803771376609802,-0.06000767648220062,0.20073309540748596
1773150808464519200,6.385519287109375,-0.2021791934967041,-0.008378837257623672,0.1840537190437317
1773150808474556200,6.39555615234375,-0.2137940376996994,0.059066515415906906,0.15379701554775238
1773150808484594400,6.405594482421875,-0.2219020426273346,0.13991928100585938,0.10301000624895096
1773150808494631200,6.415631103515625,-0.21230293810367584,0.20387908816337585,0.05260462313890457
1773150808504669400,6.42566943359375,-0.2010580152273178,0.2304702252149582,0.015497732907533646
1773150808514706400,6.43570654296875,-0.19557030498981476,0.2155304253101349,-0.0044200485572218895
1773150808524744200,6.445744140625,-0.18315251171588898,0.19663876295089722,-0.01944347284734249
1773150808534782500,6.455782470703125,-0.1598527878522873,0.18509076535701752,-0.048827461898326874
1773150808544819500,6.4658193359375,-0.13313329219818115,0.17591217160224915,-0.08026181906461716
1773150808554857200,6.475857177734375,-0.11640197783708572,0.1589696705341339,-0.08795009553432465
1773150808564894200,6.485894287109375,-0.10183368623256683,0.12589721381664276,-0.05383899807929993
1773150808574932200,6.49593212890625,-0.07787668704986572,0.1067405641078949,-0.007650196552276611
1773150808584970200,6.50597021484375,-0.03207218274474144,0.115016870200634,0.06436434388160706
1773150808595007500,6.516007568359375,0.018269019201397896,0.15813450515270233,0.14266687631607056
1773150808605045200,6.526045166015625,0.0753868967294693,0.20157812535762787,0.2389039248228073
1773150808615082200,6.536082275390625,0.14274463057518005,0.22277767956256866,0.37057965993881226
1773150808625120500,6.54612060546875,0.20087291300296783,0.2578752040863037,0.4938664436340332
1773150808635157200,6.5561572265625,0.26466628909111023,0.3158154785633087,0.5847143530845642
1773150808645195300,6.5661953125,0.3274415135383606,0.4354712963104248,0.639360249042511
1773150808655233300,6.5762333984375,0.3962722420692444,0.615523099899292,0.6684073805809021
1773150808665270300,6.586270263671875,0.45312726497650146,0.8399948477745056,0.7008768916130066
1773150808675308300,6.596308349609375,0.5206761956214905,1.084817886352539,0.7742075324058533
1773150808685345500,6.606345458984375,0.605363667011261,1.335284948348999,0.9008070230484009
1773150808695383300,6.61638330078125,0.7468428015708923,1.5752211809158325,1.069360613822937
1773150808705420300,6.626420166015625,0.9119124412536621,1.7817093133926392,1.2707380056381226
1773150808715458300,6.636458251953125,1.0810577869415283,1.914465308189392,1.472980260848999
1773150808725495300,6.646495361328125,1.2577507495880127,1.957531213760376,1.6603368520736694
1773150808735533300,6.656533203125,1.3470633029937744,1.9293696880340576,1.784104347229004
1773150808745571300,6.6665712890625,1.3141381740570068,1.8172558546066284,1.8299498558044434
1773150808755608300,6.6766083984375,1.153944969177246,1.656928300857544,1.8196996450424194
1773150808765646300,6.686646240234375,0.973419725894928,1.444131851196289,1.8194795846939087
1773150808775683300,6.696683349609375,0.8433927297592163,1.1453813314437866,1.9089024066925049
1773150808785721300,6.706721435546875,0.7621071934700012,0.79850834608078,2.0904037952423096
1773150808795759000,6.716759033203125,0.629936158657074,0.38799646496772766,2.264007329940796
1773150808805796400,6.72679638671875,0.4330366551876068,-0.1033753901720047,2.3251614570617676
1773150808815834400,6.73683447265625,0.19502754509449005,-0.6538640856742859,2.2300424575805664
1773150808825871000,6.74687109375,-0.025471271947026253,-1.1370060443878174,1.9934709072113037
1773150808835909400,6.756909423828125,-0.1754772812128067,-1.3106685876846313,1.6136971712112427
1773150808845946400,6.7669462890625,-0.16795757412910461,-0.9538699984550476,1.2369672060012817
1773150808855984000,6.776984130859375,-0.0455472432076931,-0.2858397364616394,0.964531421661377
1773150808866021400,6.787021484375,0.07099268585443497,0.2933104336261749,0.8284095525741577
1773150808876059400,6.797059326171875,0.1766892820596695,0.5639134645462036,0.7612017393112183
1773150808886097400,6.807097412109375,0.2655094265937805,0.5961502194404602,0.6848062872886658
1773150808896134400,6.817134521484375,0.3295153081417084,0.5032578110694885,0.5481557846069336
1773150808906172200,6.827172119140625,0.32894620299339294,0.39933887124061584,0.339815616607666
1773150808916209200,6.837209228515625,0.29276129603385925,0.30743637681007385,0.09406178444623947
1773150808926247400,6.847247314453125,0.19540278613567352,0.26546230912208557,-0.15423883497714996
1773150808936284400,6.857284423828125,0.08475403487682343,0.2546687722206116,-0.38156652450561523
1773150808946322200,6.867322265625,0.0315944105386734,0.2580440640449524,-0.5572070479393005
1773150808956360400,6.8773603515625,0.020074374973773956,0.2861265540122986,-0.7119297981262207
1773150808966397200,6.887397216796875,0.013111541047692299,0.28455477952957153,-0.8332918882369995
1773150808976435500,6.897435546875,0.0067665595561265945,0.21599674224853516,-0.9270040392875671
1773150808986472400,6.907472412109375,0.011464908719062805,0.05383926257491112,-0.9752898216247559
1773150808996510200,6.91751025390625,0.024214791133999825,-0.22198672592639923,-0.9737241268157959
1773150809006547200,6.927547119140625,0.019340142607688904,-0.5747791528701782,-0.9253057241439819
1773150809016585500,6.93758544921875,-0.016647418960928917,-1.0565420389175415,-0.8195071220397949
1773150809026623200,6.947623291015625,-0.0569053590297699,-1.6347678899765015,-0.6199029088020325
1773150809036660500,6.957660400390625,-0.0815526470541954,-2.0493216514587402,-0.3687458038330078
1773150809046698200,6.9676982421875,-0.0583016574382782,-2.0864415168762207,-0.08679614961147308
1773150809056735700,6.97773583984375,0.02075454592704773,-1.6998730897903442,0.23328810930252075
1773150809066774000,6.98777392578125,0.08616604655981064,-0.9996672868728638,0.5289536118507385
1773150809076810800,6.997810791015625,0.110619455575943,-0.18777522444725037,0.6992920637130737
1773150809086848800,7.007848876953125,0.12446309626102448,0.4300243556499481,0.7115846276283264
1773150809096886800,7.01788671875,0.13963353633880615,0.733504056930542,0.6485732197761536
1773150809106923800,7.027923828125,0.21484678983688354,0.7959770560264587,0.6097720265388489
1773150809116961800,7.0379619140625,0.324127733707428,0.7667980790138245,0.5828123092651367
1773150809126998800,7.047998779296875,0.445281058549881,0.7601040005683899,0.5399055480957031
1773150809137036800,7.058036865234375,0.515465497970581,0.8066794872283936,0.4447822570800781
1773150809147073800,7.06807373046875,0.4825778305530548,0.9238221049308777,0.32096096873283386
1773150809157111800,7.07811181640625,0.40747323632240295,1.0327656269073486,0.20530176162719727
1773150809167148800,7.088148681640625,0.3851271867752075,1.0689033269882202,0.16683238744735718
1773150809177186800,7.098186767578125,0.4274120628833771,1.0647906064987183,0.20847144722938538
1773150809187224800,7.108224853515625,0.5090579390525818,1.075926661491394,0.25727227330207825
1773150809197261800,7.11826171875,0.5929498672485352,1.0909456014633179,0.21280840039253235
1773150809207299600,7.128299560546875,0.6825830936431885,1.078484058380127,0.04204545542597771
1773150809217336800,7.1383369140625,0.7478699684143066,0.9455021023750305,-0.17026308178901672
1773150809227374800,7.148374755859375,0.7430171370506287,0.7323735356330872,-0.2948673367500305
1773150809237411800,7.158411865234375,0.7118648290634155,0.37985092401504517,-0.27720338106155396
1773150809247449900,7.168449951171875,0.6456008553504944,-0.11516547203063965,-0.12915851175785065
1773150809257488000,7.17848779296875,0.5341172218322754,-0.7019882202148438,0.03795377537608147
1773150809267524600,7.188524658203125,0.30240780115127563,-1.30510413646698,0.15239645540714264
1773150809277563000,7.19856298828125,0.07576080411672592,-1.6394206285476685,0.16925400495529175
1773150809287599900,7.208599853515625,0.011184743605554104,-1.6316652297973633,0.11850401014089584
1773150809297637600,7.2186376953125,0.009298959746956825,-1.4496214389801025,0.05380970239639282
1773150809307675000,7.2286748046875,0.01654488779604435,-1.226250410079956,0.018335331231355667
1773150809317713000,7.238712890625,0.029506493359804153,-1.0568046569824219,-0.011569304391741753
1773150809327751000,7.2487509765625,0.04417598247528076,-0.9727736711502075,-0.03399604931473732
1773150809337788000,7.258787841796875,0.06078745052218437,-0.9758573174476624,-0.060085173696279526
1773150809347825700,7.26882568359375,0.06497766822576523,-1.0194470882415771,-0.040283508598804474
1773150809357862700,7.278862548828125,0.03584748134016991,-1.0228288173675537,0.046600524336099625
1773150809367901000,7.28890087890625,-0.0016652746126055717,-0.9278817772865295,0.23157623410224915
1773150809377938000,7.29893798828125,-0.051111653447151184,-0.6745560765266418,0.5347915291786194
1773150809387976000,7.308975830078125,-0.07315969467163086,-0.27553996443748474,0.8807750344276428
1773150809398013000,7.319012939453125,-0.04174425080418587,0.2399444282054901,1.1148676872253418
1773150809408050700,7.32905078125,0.12937477231025696,0.9272500872612,1.2917340993881226
1773150809418089000,7.3390888671875,0.41475245356559753,1.813247799873352,1.4544891119003296
1773150809428126000,7.3491259765625,0.6796994209289551,2.57580828666687,1.4112646579742432
1773150809438163700,7.359163818359375,0.8213902711868286,2.8623850345611572,1.115744948387146
1773150809448200700,7.36920068359375,0.9368411898612976,2.8019485473632812,0.8216837048530579
1773150809458238700,7.37923876953125,1.0709353685379028,2.5529520511627197,0.6902908086776733
1773150809468275700,7.389275634765625,1.2409789562225342,2.362957000732422,0.9596349596977234
1773150809478314000,7.39931396484375,1.3635259866714478,1.9780343770980835,1.510345697402954
1773150809488351000,7.40935107421875,1.3796751499176025,1.037295937538147,1.5203992128372192
1773150809498388700,7.419388671875,1.1766066551208496,0.04429928585886955,1.019238829612732
1773150809508427000,7.429427001953125,0.8981590867042542,-0.47154515981674194,0.6538153886795044
1773150809518463700,7.439463623046875,0.7750887870788574,0.13083817064762115,0.7997184991836548
1773150809528501800,7.449501708984375,0.8634572625160217,1.3388041257858276,1.3056591749191284
1773150809538539000,7.4595390625,1.0753873586654663,1.9018213748931885,1.4813215732574463
1773150809548576800,7.46957666015625,1.2184242010116577,1.553084373474121,1.2041640281677246
1773150809558613800,7.47961376953125,1.2302470207214355,0.5876882672309875,0.7762131690979004
1773150809568652000,7.489652099609375,1.1560875177383423,-0.4915961027145386,0.5171067714691162
1773150809578689800,7.499689697265625,1.0161179304122925,-0.9357231855392456,0.7638095021247864
1773150809588726800,7.509726806640625,0.8562880158424377,-0.9653546214103699,1.3016612529754639
1773150809598764800,7.519764892578125,0.7608283758163452,-1.2475786209106445,1.5896892547607422
1773150809608801800,7.5298017578125,0.6709173917770386,-1.7878823280334473,1.5527877807617188
1773150809618839800,7.53983984375,0.5253700613975525,-2.123917579650879,1.4195442199707031
1773150809628876800,7.549876708984375,0.3996099829673767,-1.8077678680419922,1.340207576751709
1773150809638914800,7.559914794921875,0.43805962800979614,-1.094306230545044,1.270780086517334
1773150809648951800,7.569951904296875,0.5670943260192871,-0.4184723496437073,1.0830754041671753
1773150809658989800,7.57998974609375,0.6261794567108154,-0.0006495449924841523,0.8498812913894653
1773150809669026800,7.59002685546875,0.7178475856781006,0.2852935194969177,0.6729509830474854
1773150809679064800,7.60006494140625,0.8628538250923157,0.551779568195343,0.5509989857673645
1773150809689102800,7.610102783203125,0.9908594489097595,0.9224526882171631,0.5344330668449402
1773150809699139800,7.620139892578125,1.1048994064331055,1.1430226564407349,0.5294521450996399
1773150809709177900,7.630177734375,1.1288130283355713,1.0158859491348267,0.5049928426742554
1773150809719214800,7.64021484375,1.0177438259124756,0.6738255620002747,0.5150241851806641
1773150809729252900,7.6502529296875,0.8614020943641663,0.2872605323791504,0.573013186454773
1773150809739289900,7.660289794921875,0.7654809355735779,0.07526066899299622,0.7186551094055176
1773150809749325800,7.670325927734375,0.7273183465003967,-0.07403720915317535,0.8131200671195984
1773150809759362800,7.68036279296875,0.6943691968917847,-0.17859317362308502,0.8179566264152527
1773150809769400800,7.69040087890625,0.6357508897781372,-0.2978452742099762,0.7856500744819641
1773150809779438800,7.70043896484375,0.5704858303070068,-0.383041650056839,0.7600528597831726
1773150809789475800,7.710475830078125,0.5694464445114136,-0.29289525747299194,0.7597417831420898
1773150809799513900,7.720513916015625,0.6305451989173889,-0.08742332458496094,0.7766214609146118
1773150809809550800,7.73055078125,0.6918570399284363,0.006345513742417097,0.7080804705619812
1773150809819588900,7.7405888671875,0.7181637287139893,-0.03645441308617592,0.6851226687431335
1773150809829625900,7.7506259765625,0.7051129341125488,-0.060259610414505005,0.733045756816864
1773150809839663600,7.76066357421875,0.66738361120224,-0.07146912068128586,0.7437087893486023
1773150809849700900,7.770700927734375,0.6291606426239014,-0.03732020780444145,0.6926977634429932
1773150809859739000,7.78073876953125,0.6268207430839539,0.10170318931341171,0.5989236235618591
1773150809869776600,7.790776611328125,0.653552234172821,0.29039373993873596,0.5133591890335083
1773150809879814000,7.80081396484375,0.7099359035491943,0.2795610725879669,0.4751713275909424
1773150809889852000,7.810851806640625,0.6714641451835632,0.23623597621917725,0.5195121765136719
1773150809899888600,7.820888671875,0.6146674156188965,0.08601690828800201,0.49385446310043335
1773150809909927000,7.830927001953125,0.6042073369026184,-0.08897674083709717,0.4075222313404083
1773150809919964000,7.8409638671875,0.6410567164421082,-0.01395789347589016,0.35535916686058044
1773150809930001700,7.851001708984375,0.730434000492096,0.03424398973584175,0.36438408493995667
1773150809940039000,7.861038818359375,0.7789700627326965,0.006040581967681646,0.3493169844150543
1773150809950077000,7.871076904296875,0.6106916069984436,-0.3098215162754059,0.4144030511379242
1773150809960114700,7.88111474609375,0.45306283235549927,-0.51854407787323,0.4422948658466339
1773150809970152000,7.89115185546875,0.338731974363327,-0.5763477087020874,0.3654983639717102
1773150809980189700,7.901189697265625,0.2981360852718353,-0.49880555272102356,0.34499627351760864
1773150809990226700,7.911226806640625,0.33509543538093567,-0.25615960359573364,0.3535633981227875
1773150810000265000,7.921264892578125,0.3709426522254944,-0.1905907243490219,0.3365069031715393
1773150810010302000,7.931302001953125,0.3594071567058563,-0.14889946579933167,0.35226935148239136
1773150810020339700,7.941339599609375,0.3260563910007477,-0.04531395062804222,0.3451712429523468
1773150810030377000,7.951376953125,0.33369460701942444,-0.04694860056042671,0.31382983922958374
1773150810040414700,7.961414794921875,0.3577192425727844,-0.028896896168589592,0.3617747128009796
1773150810050452700,7.97145263671875,0.40170562267303467,0.054716773331165314,0.408477246761322
1773150810060489700,7.98148974609375,0.39525678753852844,-0.029273200780153275,0.40079134702682495
1773150810070527700,7.99152783203125,0.34706422686576843,-0.09367482364177704,0.3862243890762329
1773150810080564700,8.001564697265625,0.26590704917907715,-0.16163896024227142,0.381096750497818
1773150810090602800,8.011602783203125,0.17143486440181732,-0.16851843893527985,0.3830927908420563
1773150810100639500,8.021639404296875,0.09769433736801147,-0.19275347888469696,0.42946746945381165
1773150810110677800,8.031677734375,0.010730408132076263,-0.22474177181720734,0.48908233642578125
1773150810120714800,8.04171484375,-0.055321577936410904,-0.24600231647491455,0.516287624835968
1773150810130752800,8.051752685546875,-0.08235479146242142,-0.25578808784484863,0.4657314717769623
1773150810140789800,8.061789794921875,-0.09365298599004745,-0.15399675071239471,0.4041583836078644
1773150810150827500,8.07182763671875,-0.06965391337871552,0.016026902943849564,0.35368216037750244
1773150810160865800,8.08186572265625,-0.004740160424262285,0.054655522108078,0.2824591100215912
1773150810170902800,8.09190283203125,0.035469043999910355,0.020136160776019096,0.25410977005958557
1773150810180940500,8.1019404296875,-0.011775166727602482,0.09625622630119324,0.21773019433021545
1773150810190977500,8.1119775390625,-0.030825823545455933,0.1981077641248703,0.20763522386550903
1773150810201015800,8.122015869140625,0.003498062025755644,0.25913941860198975,0.19453778862953186
1773150810211052500,8.132052490234376,0.02870301716029644,0.3297688364982605,0.19851255416870117
1773150810221090800,8.1420908203125,0.03680381923913956,0.15256211161613464,0.21181638538837433
1773150810231127800,8.1521279296875,-0.02449069544672966,-0.0660834088921547,0.2505054473876953
1773150810241165600,8.16216552734375,-0.06996044516563416,-0.17513586580753326,0.2619626522064209
1773150810251203800,8.172203857421875,-0.13863910734653473,-0.15320898592472076,0.22691942751407623
1773150810261240800,8.18224072265625,-0.21629342436790466,0.020711669698357582,0.1681828796863556
1773150810271278600,8.192278564453124,-0.18753021955490112,0.05678258836269379,0.1270918995141983
1773150810281315800,8.20231591796875,-0.19530105590820312,0.11162213236093521,0.08441022038459778
1773150810291353600,8.212353515625,-0.18454481661319733,0.19612529873847961,0.03038613498210907
1773150810301391600,8.2223916015625,-0.16279157996177673,0.18380045890808105,-0.03253903612494469
1773150810311429600,8.2324296875,-0.16448748111724854,0.23932203650474548,-0.04526015743613243
1773150810321466600,8.242466552734374,-0.1876300871372223,0.13556768000125885,-0.06653481721878052
1773150810331504600,8.252504638671875,-0.2524508833885193,0.12892469763755798,-0.11759719997644424
1773150810341542000,8.2625419921875,-0.2871825098991394,0.15012319386005402,-0.13805027306079865
1773150810351579600,8.27257958984375,-0.29734566807746887,0.10275274515151978,-0.14839425683021545
1773150810361616600,8.28261669921875,-0.2775019109249115,0.005638444796204567,-0.08463285863399506
1773150810371654700,8.292654541015626,-0.30733412504196167,0.05377241596579552,-0.14694656431674957
1773150810381691600,8.302691650390624,-0.3401668965816498,0.19267331063747406,-0.24255138635635376
1773150810391729700,8.312729736328125,-0.3122583031654358,0.1845778375864029,-0.3097943365573883
1773150810401767700,8.322767578125,-0.32402414083480835,0.33012276887893677,-0.3684970736503601
1773150810411804700,8.3328046875,-0.31579524278640747,0.4328824579715729,-0.40218234062194824
1773150810421842700,8.3428427734375,-0.28952503204345703,0.3286449909210205,-0.43541112542152405
1773150810431879700,8.352879638671874,-0.29315969347953796,0.1537674516439438,-0.4631490111351013
1773150810441917700,8.362917724609375,-0.29981014132499695,0.18341536819934845,-0.5415886640548706
1773150810451954700,8.37295458984375,-0.3621949553489685,0.3761400878429413,-0.6381410360336304
1773150810461992700,8.38299267578125,-0.34145960211753845,0.40121719241142273,-0.6771060228347778
1773150810472029700,8.39302978515625,-0.3130822777748108,0.2082221806049347,-0.6789220571517944
1773150810482067700,8.403067626953124,-0.34229210019111633,0.1052398681640625,-0.6785483956336975
1773150810492104700,8.413104736328124,-0.3826901316642761,0.11873836815357208,-0.6898394227027893
1773150810502142700,8.423142822265625,-0.39884406328201294,0.11455880105495453,-0.70988929271698
1773150810512180700,8.4331806640625,-0.4271148443222046,0.11472924798727036,-0.7275218367576599
1773150810522217700,8.4432177734375,-0.39927974343299866,0.10521217435598373,-0.765703022480011
1773150810532255700,8.453255859375,-0.347471684217453,-0.035534292459487915,-0.8167936205863953
1773150810542292500,8.46329248046875,-0.35589444637298584,0.041182324290275574,-0.8717796802520752
1773150810552330800,8.473330810546875,-0.40545642375946045,0.14151345193386078,-0.9383466839790344
1773150810562367700,8.48336767578125,-0.4433571994304657,0.20597979426383972,-0.9642877578735352
1773150810572405500,8.493405517578125,-0.4421031177043915,0.20154376327991486,-0.961473822593689
1773150810582442800,8.50344287109375,-0.42900940775871277,0.2266850769519806,-0.9702399373054504
1773150810592480800,8.513480712890624,-0.3720020651817322,0.11356091499328613,-0.9783346056938171
1773150810602518800,8.523518798828125,-0.4063491225242615,0.14390523731708527,-0.9926445484161377
1773150810612555800,8.5335556640625,-0.44466400146484375,0.1864955723285675,-1.0066943168640137
1773150810622593500,8.543593505859375,-0.44833409786224365,0.10960132628679276,-0.9854561686515808
1773150810632630500,8.553630615234376,-0.4485255777835846,-0.0013275857781991363,-0.9571235775947571
1773150810642668800,8.563668701171874,-0.4851648211479187,-0.0014745922526344657,-0.9614887833595276
1773150810652705800,8.573705810546874,-0.501050591468811,0.011040667071938515,-0.9869794845581055
1773150810662743800,8.583743896484375,-0.5441769957542419,0.1779707968235016,-1.0129812955856323
1773150810672780800,8.59378076171875,-0.5533787608146667,0.22769947350025177,-1.0277820825576782
1773150810682818600,8.603818603515625,-0.5517542362213135,0.14847123622894287,-0.9934328198432922
1773150810692855600,8.61385546875,-0.5774326920509338,0.04635018855333328,-0.947645902633667
1773150810702893800,8.623893798828124,-0.6264393925666809,-0.00986461527645588,-0.9526441693305969
1773150810712931600,8.633931640625,-0.6642674803733826,0.09064947813749313,-0.9305444359779358
1773150810722968600,8.643968505859375,-0.6593113541603088,0.1821620762348175,-0.9079962372779846
1773150810733006600,8.654006591796875,-0.6521738171577454,0.19126635789871216,-0.9149715900421143
1773150810743043600,8.664043701171876,-0.6308338642120361,0.08869391679763794,-0.9207567572593689
1773150810753081900,8.674081787109374,-0.6427701711654663,-0.014549647457897663,-0.963108479976654
1773150810763118800,8.684118896484375,-0.7101582884788513,0.02780473232269287,-0.9965397119522095
1773150810773156600,8.694156494140625,-0.7848349213600159,0.07305184006690979,-1.0252869129180908
1773150810783193600,8.704193603515625,-0.8701029419898987,0.16600121557712555,-1.018187165260315
1773150810793231600,8.714231689453126,-0.9447691440582275,0.2872474789619446,-1.0034599304199219
1773150810803269600,8.72426953125,-0.9717608690261841,0.3075522184371948,-1.027809977531433
1773150810813306600,8.734306640625,-0.9793519377708435,0.23231525719165802,-1.0497711896896362
1773150810823344600,8.7443447265625,-1.0015251636505127,0.16223524510860443,-1.0673861503601074
1773150810833381600,8.754381591796875,-1.0823901891708374,0.1808222383260727,-1.0594382286071777
1773150810843420000,8.764419921875,-1.1828522682189941,0.20582853257656097,-1.0859225988388062
1773150810853456600,8.77445654296875,-1.3189358711242676,0.2098754644393921,-1.1333167552947998
1773150810863494700,8.78449462890625,-1.4625468254089355,0.1758328080177307,-1.1447190046310425
1773150810873531600,8.79453173828125,-1.607552409172058,0.18005099892616272,-1.184562087059021
1773150810883569700,8.804569580078125,-1.7306064367294312,0.23556138575077057,-1.262718915939331
1773150810893606700,8.814606689453125,-1.8043349981307983,0.34106650948524475,-1.3166601657867432
1773150810903645000,8.82464501953125,-1.870263695716858,0.49326029419898987,-1.384147047996521
1773150810913682700,8.8346826171875,-1.949134349822998,0.670444130897522,-1.4329547882080078
1773150810923719700,8.8447197265625,-2.019440174102783,0.8357252478599548,-1.3951624631881714
1773150810933757700,8.8547578125,-2.0410890579223633,0.8287096619606018,-1.2612195014953613
1773150810943794700,8.864794677734375,-1.9857972860336304,0.45038819313049316,-1.0337680578231812
1773150810953832700,8.874832763671876,-1.9106260538101196,-0.3334757089614868,-0.6390830278396606
1773150810963869700,8.88486962890625,-1.9143574237823486,-1.3217153549194336,-0.1386827826499939
1773150810973907700,8.89490771484375,-2.005770206451416,-2.187962055206299,0.22810134291648865
1773150810983944700,8.90494482421875,-2.115708589553833,-2.8321123123168945,0.3712734282016754
1773150810993982700,8.914982666015625,-2.2206568717956543,-3.0491855144500732,0.29805779457092285
1773150811004020700,8.925020751953125,-2.160134792327881,-2.7905712127685547,0.1492408812046051
1773150811014057700,8.9350576171875,-1.8673344850540161,-1.962985873222351,-0.003254915354773402
1773150811024095700,8.945095703125,-1.2959671020507812,-0.7295202612876892,-0.1666313260793686
1773150811034132700,8.9551328125,-0.577202320098877,0.4629812240600586,-0.46224406361579895
1773150811044170500,8.96517041015625,0.040531981736421585,1.2221810817718506,-0.8319494128227234
1773150811054207700,8.975207763671875,0.5197129249572754,1.4859837293624878,-1.0396981239318848
1773150811064242200,8.9852421875,0.7113401889801025,1.3536198139190674,-0.9108766913414001
1773150811074279200,8.995279052734375,0.5166060924530029,0.7028856873512268,-0.4000083804130554
1773150811084317000,9.00531689453125,0.351246178150177,-0.11236649006605148,0.25898683071136475
1773150811094354200,9.015354248046876,0.3140764534473419,-0.47855114936828613,0.666257917881012
1773150811104392000,9.025391845703124,0.35267311334609985,-0.27961593866348267,0.8160399794578552
1773150811114430000,9.035429931640625,0.3386678099632263,0.24739807844161987,0.807773768901825
1773150811124467200,9.04546728515625,0.2715015411376953,0.9070380330085754,0.7091720700263977
1773150811134505000,9.0555048828125,0.21738745272159576,1.5851243734359741,0.5498191714286804
1773150811144542000,9.0655419921875,0.22885635495185852,2.186532497406006,0.305778831243515
1773150811154580200,9.075580322265624,0.28597477078437805,2.591548442840576,-0.04384575039148331
1773150811164617000,9.085616943359375,0.31908556818962097,2.725356340408325,-0.4681629538536072
1773150811174655000,9.095655029296875,0.2005128562450409,2.4236249923706055,-0.922462522983551
1773150811184692200,9.105692138671875,-0.04140949249267578,1.657161831855774,-1.3545162677764893
1773150811194730000,9.11572998046875,-0.3523865342140198,0.7404780983924866,-1.6991686820983887
1773150811204767000,9.12576708984375,-0.7486904859542847,-0.04381539300084114,-1.9474352598190308
1773150811214805200,9.13580517578125,-1.1663618087768555,-0.6843056082725525,-2.0879828929901123
1773150811224843000,9.145843017578125,-1.5353342294692993,-1.1630616188049316,-2.119295597076416
1773150811234880000,9.1558798828125,-1.7002928256988525,-0.9984222650527954,-1.7368824481964111
1773150811244918000,9.16591796875,-1.7955223321914673,-1.0260374546051025,-1.1196880340576172
1773150811254955000,9.175955078125,-1.8843305110931396,-1.6066994667053223,-0.653624951839447
1773150811264993000,9.185992919921874,-1.830963134765625,-2.2375259399414062,-0.4986143112182617
1773150811275030000,9.196030029296875,-1.6994352340698242,-2.6256332397460938,-0.5527449250221252
1773150811285068000,9.206068115234375,-1.6055233478546143,-2.628810167312622,-0.7759870886802673
1773150811295105000,9.21610498046875,-1.5616673231124878,-2.214073657989502,-1.1242798566818237
1773150811305143000,9.22614306640625,-1.5726453065872192,-1.7250114679336548,-1.4103672504425049
1773150811315181000,9.23618115234375,-1.5691478252410889,-1.4165124893188477,-1.5525027513504028
1773150811325218000,9.246218017578125,-1.5265742540359497,-1.3022702932357788,-1.5746291875839233
1773150811335256000,9.256256103515625,-1.4495130777359009,-1.3465818166732788,-1.5422784090042114
1773150811345293000,9.26629296875,-1.3697223663330078,-1.4623444080352783,-1.5500867366790771
1773150811355331000,9.2763310546875,-1.3505792617797852,-1.508551001548767,-1.6294382810592651
1773150811365368000,9.2863681640625,-1.3866182565689087,-1.365302562713623,-1.8245213031768799
1773150811375406000,9.296406005859374,-1.3285778760910034,-0.9592605233192444,-2.1103382110595703
1773150811385443000,9.306443115234375,-1.1020112037658691,-0.42068010568618774,-2.3731517791748047
1773150811395481000,9.316481201171875,-0.8161574006080627,0.2476249784231186,-2.5651326179504395
1773150811405518000,9.32651806640625,-0.5504724383354187,0.8270595669746399,-2.5884079933166504
1773150811415555800,9.336555908203126,-0.4683845043182373,1.231886386871338,-2.4046101570129395
1773150811425594000,9.346593994140624,-0.5550467371940613,1.4348597526550293,-1.956335186958313
1773150811435631000,9.356631103515625,-0.8886739611625671,1.4783798456192017,-1.1250971555709839
1773150811445669000,9.366669189453125,-1.251057744026184,1.2265044450759888,-0.20763228833675385
1773150811455706000,9.3767060546875,-1.3869367837905884,0.798579752445221,0.46042218804359436
1773150811465744100,9.386744140625,-1.2388505935668945,0.09625223278999329,0.8331893682479858
1773150811475780900,9.39678076171875,-0.9301034212112427,-0.6548569202423096,0.9889446496963501
1773150811485819100,9.406819091796875,-0.5990583896636963,-1.1490278244018555,0.9626677632331848
1773150811495856000,9.416856201171875,-0.38439613580703735,-1.3730965852737427,0.8010857701301575
1773150811505894000,9.426893798828125,-0.23121164739131927,-1.1366688013076782,0.4049709141254425
1773150811515931100,9.43693115234375,-0.0010002832859754562,-0.7278070449829102,-0.10610779374837875
1773150811525969200,9.44696923828125,0.2662031948566437,-0.5347387790679932,-0.4771662950515747
1773150811536006000,9.457005859375,0.5364956855773926,-0.5080496668815613,-0.6841538548469543
1773150811546044200,9.467044189453125,0.7523033022880554,-0.42709115147590637,-0.7583617568016052
1773150811556082000,9.47708203125,0.9928280711174011,0.12320475280284882,-0.7837986350059509
1773150811566119000,9.487118896484375,1.2588930130004883,1.307485580444336,-0.6905030608177185
1773150811576157200,9.4971572265625,1.446826457977295,2.4052226543426514,-0.3925102651119232
1773150811586194000,9.50719384765625,1.4695852994918823,2.9992125034332275,0.11826778948307037
1773150811596232200,9.517232177734375,1.4768165349960327,3.1012375354766846,0.6960523128509521
1773150811606269200,9.527269287109375,1.5463833808898926,2.8508901596069336,1.0916728973388672
1773150811616307000,9.537306884765625,1.6109848022460938,2.3032917976379395,1.180454969406128
1773150811626344000,9.547343994140626,1.6321648359298706,1.5433369874954224,1.008844256401062
1773150811636382200,9.55738232421875,1.463038682937622,0.6868162155151367,0.682617723941803
1773150811646419000,9.5674189453125,1.0876115560531616,-0.24030394852161407,0.32785964012145996
1773150811656457000,9.57745703125,0.60506671667099,-1.1807899475097656,0.029157884418964386
1773150811666495000,9.587494873046875,0.08828538656234741,-1.9755834341049194,-0.16379478573799133
1773150811676532000,9.597531982421875,-0.39250707626342773,-2.52581524848938,-0.2501768171787262
1773150811686570200,9.6075703125,-0.7502508163452148,-2.87847638130188,-0.2511850893497467
1773150811696607200,9.617607177734374,-0.9482871890068054,-3.0720646381378174,-0.2157250940799713
1773150811706645000,9.62764501953125,-1.0078411102294922,-3.1388583183288574,-0.2056620866060257
1773150811716682000,9.637681884765625,-0.9593848586082458,-3.017773389816284,-0.243951678276062
1773150811726720000,9.647719970703125,-0.7844982743263245,-2.6639280319213867,-0.3499971628189087
1773150811736757000,9.657757080078126,-0.5122510194778442,-1.8760555982589722,-0.4953668713569641
1773150811746795300,9.667795166015624,-0.25076112151145935,-0.8457310199737549,-0.5108180046081543
1773150811756832000,9.67783203125,-0.09832444041967392,0.027241740375757217,-0.32298576831817627
1773150811766870000,9.6878701171875,-0.02580949291586876,0.5446816682815552,-0.011504589579999447
1773150811776907000,9.697906982421875,0.027696343138813972,0.6781499981880188,0.30444884300231934
1773150811786945000,9.707945068359376,0.09569376707077026,0.5197662115097046,0.5196368098258972
1773150811796983000,9.717983154296874,0.1689450740814209,0.25468048453330994,0.5495257377624512
1773150811807020000,9.72802001953125,0.20332089066505432,0.08070550113916397,0.38896453380584717
1773150811817058000,9.73805810546875,0.19872480630874634,0.009208678267896175,0.13931848108768463
1773150811827095000,9.748094970703125,0.22485442459583282,-0.03730928897857666,-0.10148774087429047
1773150811837133000,9.758133056640625,0.2914672791957855,-0.046180013567209244,-0.2790055274963379
1773150811847170000,9.768170166015626,0.3379972279071808,0.006527940277010202,-0.34272220730781555
1773150811857208000,9.7782080078125,0.3436218202114105,0.13374288380146027,-0.28445756435394287
1773150811867245000,9.7882451171875,0.34127184748649597,0.31884056329727173,-0.08735434710979462
1773150811877283000,9.798282958984375,0.3637116253376007,0.5049422383308411,0.24346698820590973
1773150811887320000,9.808320068359375,0.43850943446159363,0.6316837072372437,0.6562100648880005
1773150811897358000,9.818358154296876,0.5571471452713013,0.7282882928848267,1.0617482662200928
1773150811907395000,9.82839501953125,0.6845676898956299,0.812401294708252,1.3974071741104126
1773150811917433000,9.83843310546875,0.8229247331619263,0.9531692862510681,1.6495734453201294
1773150811927471000,9.84847119140625,0.9478829503059387,1.1587339639663696,1.81183660030365
1773150811937508000,9.858508056640625,1.0304502248764038,1.3571479320526123,1.8983358144760132
1773150811947546000,9.868546142578126,1.1781086921691895,1.460344910621643,2.0069546699523926
1773150811957582800,9.878582763671876,1.367634892463684,1.5940502882003784,2.1599056720733643
1773150811967621000,9.88862109375,1.541560173034668,1.727325201034546,2.3260111808776855
1773150811977658000,9.898658203125,1.6328264474868774,1.829450249671936,2.3966097831726074
1773150811987696000,9.908696044921875,1.6257541179656982,1.8481251001358032,2.3119843006134033
1773150811997733000,9.918733154296875,1.6403279304504395,1.9254302978515625,2.1724729537963867
1773150812007771100,9.928771240234376,1.6814926862716675,1.9636274576187134,2.1960673332214355
1773150812017808000,9.938807861328126,1.6521220207214355,1.5173786878585815,2.2801260948181152
1773150812027846100,9.94884619140625,1.4448916912078857,0.5254395604133606,2.1561124324798584
1773150812037884000,9.9588837890625,1.0859977006912231,-0.5321936011314392,1.9518288373947144
1773150812047921200,9.968921142578125,0.7389782071113586,-1.3680120706558228,1.8550841808319092
1773150812057958700,9.978958740234376,0.403329074382782,-1.7946187257766724,1.8308411836624146
1773150812067995600,9.98899560546875,0.10620153695344925,-1.7569869756698608,1.8358205556869507
1773150812078033400,9.999033447265624,-0.04565883055329323,-1.3194130659103394,1.801802635192871
1773150812088070700,10.009070556640625,0.03767254203557968,-0.666475236415863,1.6773709058761597
1773150812098108400,10.0191083984375,0.2994154691696167,0.07720424234867096,1.5020649433135986
1773150812108145400,10.0291455078125,0.6258993148803711,0.862086832523346,1.2383118867874146
1773150812118183700,10.03918359375,0.9075070023536682,1.5647085905075073,0.8798940181732178
1773150812128220700,10.049220703125,1.0736981630325317,1.9981799125671387,0.45100098848342896
1773150812138258400,10.059258544921875,1.0831613540649414,2.1067628860473633,0.027531759813427925
1773150812148295700,10.069295654296875,1.029009461402893,1.9057159423828125,-0.31913644075393677
1773150812158333400,10.07933349609375,0.922526478767395,1.5016555786132812,-0.5727860331535339
1773150812168370400,10.089370361328125,0.752183735370636,1.0066274404525757,-0.7523112893104553
1773150812178408700,10.09940869140625,0.5453128814697266,0.4383813440799713,-0.8391809463500977
1773150812188446500,10.109446533203124,0.33013877272605896,-0.147734597325325,-0.8837801218032837
1773150812198483500,10.1194833984375,0.11739613115787506,-0.7269604206085205,-0.9129209518432617
1773150812208521700,10.129521728515625,-0.07021716982126236,-1.3252720832824707,-0.9524673223495483
1773150812218558500,10.139558349609375,-0.20982806384563446,-1.8776142597198486,-0.9756682515144348
1773150812228596500,10.149596435546876,-0.3004714250564575,-2.3165929317474365,-0.9657626152038574
1773150812238633700,10.1596337890625,-0.3633449077606201,-2.5922675132751465,-0.9002472162246704
1773150812248671500,10.16967138671875,-0.4310547113418579,-2.650094985961914,-0.7683901190757751
1773150812258708500,10.17970849609375,-0.47668853402137756,-2.4545106887817383,-0.5538687705993652
1773150812268746500,10.18974658203125,-0.4710029363632202,-1.9956918954849243,-0.27126267552375793
1773150812278783500,10.199783447265625,-0.3962804973125458,-1.3379771709442139,0.01537362951785326
1773150812288821500,10.209821533203124,-0.2563779950141907,-0.5543095469474792,0.25962117314338684
1773150812298858800,10.219858642578124,-0.028680380433797836,0.2345142364501953,0.4548836350440979
1773150812308896500,10.229896484375,0.19598042964935303,0.8516623973846436,0.5813478231430054
1773150812318934800,10.239934814453125,0.3344530761241913,1.1768841743469238,0.6148560047149658
1773150812328971500,10.249971435546875,0.408742755651474,1.2013652324676514,0.6036643385887146
1773150812339009500,10.260009521484376,0.45357149839401245,0.9692127108573914,0.5618151426315308
1773150812349046500,10.270046630859374,0.4657384157180786,0.6822763085365295,0.5232658982276917
1773150812359084500,10.28008447265625,0.46379855275154114,0.47675377130508423,0.49467816948890686
1773150812369121500,10.29012158203125,0.4366771876811981,0.42550042271614075,0.43442946672439575
1773150812379159600,10.30015966796875,0.4139348566532135,0.5137759447097778,0.32464465498924255
1773150812389196500,10.310196533203126,0.45227745175361633,0.6001542806625366,0.21093779802322388
1773150812399234600,10.320234619140624,0.5660287737846375,0.5619829297065735,0.15357623994350433
1773150812409271600,10.330271484375,0.7239624857902527,0.3966176509857178,0.17827360332012177
1773150812419309600,10.3403095703125,0.8733391761779785,0.1969037503004074,0.2813565731048584
1773150812429346600,10.3503466796875,1.022436499595642,0.04965037852525711,0.3963926136493683
1773150812439384600,10.360384521484375,1.173752784729004,-0.07547744363546371,0.36039599776268005
1773150812449421600,10.370421630859376,1.2631990909576416,-0.1560993194580078,0.10303690284490585
1773150812459459600,10.38045947265625,1.2101507186889648,-0.20650950074195862,-0.2385433316230774
1773150812469496600,10.39049658203125,1.0935746431350708,-0.024829449132084846,-0.5138161778450012
1773150812479534600,10.40053466796875,1.1384356021881104,1.1337319612503052,-0.18679837882518768
1773150812489572600,10.410572509765625,1.2661775350570679,2.6519429683685303,0.9433808922767639
1773150812499609300,10.420609375,1.671722173690796,2.748560667037964,1.7220045328140259
1773150812509647600,10.430647705078124,2.2797000408172607,1.4641114473342896,1.8379260301589966
1773150812519684600,10.4406845703125,2.6460421085357666,-0.17472653090953827,1.6984466314315796
1773150812529722400,10.450722412109375,2.888169050216675,-1.4204806089401245,1.958437204360962
1773150812539759600,10.460759521484375,2.492253303527832,-2.390702486038208,2.5007591247558594
1773150812549797600,10.470797607421876,1.7332885265350342,-3.3755202293395996,2.5952117443084717
1773150812559834400,10.48083447265625,1.0074235200881958,-4.021378993988037,2.243077278137207
1773150812569872600,10.49087255859375,0.36602166295051575,-3.8830316066741943,1.752198576927185
1773150812579909600,10.50090966796875,-0.0581330768764019,-2.7279903888702393,1.269392490386963
1773150812589947400,10.510947509765625,-0.13516634702682495,-0.6800389885902405,1.0957328081130981
1773150812599984600,10.520984619140625,0.14754444360733032,0.9534598588943481,1.097988247871399
1773150812610022700,10.531022705078126,0.5217697024345398,1.540094017982483,1.091117024421692
1773150812620059400,10.541059326171874,0.7381675243377686,1.6822975873947144,1.0686529874801636
1773150812630097700,10.55109765625,0.6585515141487122,1.9897592067718506,0.9933633208274841
1773150812640134700,10.561134765625,0.5870387554168701,2.188588857650757,0.8096225261688232
1773150812650172400,10.57117236328125,0.7596355080604553,2.188405990600586,0.5225270986557007
1773150812660210700,10.581210693359376,1.173416256904602,1.8518799543380737,0.19933360815048218
1773150812670247700,10.59124755859375,1.5156558752059937,1.3391292095184326,0.11118191480636597
1773150812680285400,10.601285400390625,1.5706418752670288,0.7744110226631165,0.5165770649909973
1773150812690322700,10.61132275390625,1.2397187948226929,-0.35593974590301514,1.0995640754699707
1773150812700360400,10.6213603515625,0.85431969165802,-1.7443363666534424,1.544403076171875
1773150812710397400,10.6313974609375,0.6722897291183472,-2.450209856033325,1.7447973489761353
1773150812720435700,10.641435791015626,0.6466645002365112,-2.269969940185547,1.6752103567123413
1773150812730472400,10.651472412109374,0.6702470779418945,-1.6229945421218872,1.4434945583343506
1773150812740510500,10.661510498046875,0.675076961517334,-1.1961619853973389,1.204887866973877
1773150812750547700,10.671547607421875,0.6446143984794617,-0.9653559327125549,1.085936427116394
1773150812760585500,10.68158544921875,0.6871045827865601,-0.6592061519622803,1.0227696895599365
1773150812770622500,10.69162255859375,0.8354306817054749,-0.12675581872463226,0.8828957080841064
1773150812780660700,10.70166064453125,0.9581992030143738,0.3223503530025482,0.6750785708427429
1773150812790697500,10.711697509765624,1.029983401298523,0.5323792099952698,0.555076539516449
1773150812800735500,10.721735595703125,1.0495376586914062,0.5467517375946045,0.4628443419933319
1773150812810772700,10.731772705078125,0.9977452754974365,0.5520339012145996,0.4481008052825928
1773150812820810500,10.741810546875,0.9190382361412048,0.4774629771709442,0.4718330502510071
1773150812830847500,10.751847412109376,0.7901697158813477,0.2459317445755005,0.5337358117103577
1773150812840885800,10.7618857421875,0.6896673440933228,-0.008697884157299995,0.6383775472640991
1773150812850923500,10.771923583984375,0.7014539837837219,-0.23947463929653168,0.700100302696228
1773150812860960500,10.78196044921875,0.7429007887840271,-0.4668976664543152,0.7163322567939758
1773150812870998500,10.79199853515625,0.8064594864845276,-0.526086151599884,0.7145652770996094
1773150812881035500,10.802035400390626,0.8779280781745911,-0.5094048976898193,0.7187533378601074
1773150812891073500,10.812073486328124,0.9118192195892334,-0.5335739254951477,0.6849485039710999
1773150812901110500,10.822110595703125,0.8828395009040833,-0.5395234227180481,0.6213058829307556
1773150812911148500,10.8321484375,0.8253961801528931,-0.43132930994033813,0.5318910479545593
1773150812921185500,10.842185546875,0.7563878297805786,-0.27038514614105225,0.3833777606487274
1773150812931223600,10.8522236328125,0.6783782243728638,-0.040835313498973846,0.19026660919189453
1773150812941260500,10.862260498046876,0.5593588948249817,-0.058271829038858414,0.15719707310199738
1773150812951298600,10.872298583984374,0.4870927035808563,-0.026018550619482994,0.1884458065032959
1773150812961335600,10.88233544921875,0.4730226695537567,-0.010612696409225464,0.22120508551597595
1773150812971373600,10.89237353515625,0.45804187655448914,-0.049313753843307495,0.29083555936813354
1773150812981410600,10.90241064453125,0.490704745054245,-0.20746611058712006,0.40831106901168823
1773150812991448600,10.912448486328126,0.5479981303215027,-0.3225705921649933,0.47128018736839294
1773150813001485600,10.922485595703124,0.6531458497047424,-0.334730863571167,0.45301568508148193
1773150813011523600,10.932523681640625,0.6388247013092041,-0.25774526596069336,0.38735437393188477
1773150813021560600,10.942560546875,0.590191125869751,-0.293113112449646,0.32783380150794983
1773150813031598600,10.9525986328125,0.5389476418495178,-0.232987180352211,0.2819315493106842
1773150813041635600,10.962635498046875,0.43922850489616394,-0.2217041701078415,0.26621463894844055
1773150813051673600,10.972673583984376,0.34408652782440186,-0.21303051710128784,0.2805440425872803
1773150813061712000,10.9827119140625,0.27859461307525635,-0.08153454214334488,0.2305687665939331
1773150813071748600,10.99274853515625,0.22334733605384827,-0.06869171559810638,0.17741473019123077
1773150813081787000,11.002786865234375,0.1866830587387085,-0.04193892702460289,0.15748842060565948
1773150813091823900,11.012823974609375,0.21569207310676575,0.012558935210108757,0.15077805519104004
1773150813101861600,11.022861572265626,0.21845696866512299,-0.022283468395471573,0.11907818913459778
1773150813111899000,11.03289892578125,0.2275037318468094,-0.06464051455259323,0.2063411921262741
1773150813121937000,11.04293701171875,0.2365475594997406,-0.12173682451248169,0.3610695004463196
1773150813131973600,11.0529736328125,0.15985891222953796,-0.2824021279811859,0.47377556562423706
1773150813142012000,11.063011962890625,0.11642754077911377,-0.46891874074935913,0.5552235245704651
1773150813152049000,11.073048828125,0.1220148578286171,-0.5591256022453308,0.6112316846847534
1773150813162086700,11.083086669921874,0.11517186462879181,-0.4998612105846405,0.6445997357368469
1773150813172124000,11.0931240234375,0.07064327597618103,-0.3401903212070465,0.618070125579834
1773150813182162000,11.103161865234375,0.10889053344726562,-0.16267839074134827,0.5370578765869141
1773150813192198700,11.11319873046875,0.12403779476881027,-0.07687321305274963,0.44294068217277527
1773150813202237000,11.12323681640625,0.030353644862771034,-0.2685640752315521,0.5502040386199951
1773150813212274000,11.13327392578125,-0.04927700012922287,-0.19703556597232819,0.5139333605766296
1773150813222311700,11.143311767578124,-0.08442486822605133,-0.1159558966755867,0.42730098962783813
1773150813232349000,11.153348876953125,-0.11350525915622711,-0.03801129758358002,0.41624221205711365
1773150813242387000,11.163386962890625,-0.20133337378501892,0.052682653069496155,0.4066638946533203
1773150813252423700,11.173423583984375,-0.1951918601989746,0.15362471342086792,0.31412971019744873
1773150813262462000,11.1834619140625,-0.22164584696292877,0.23887969553470612,0.2529667317867279
1773150813272499000,11.1934990234375,-0.23202258348464966,0.23680321872234344,0.22014088928699493
1773150813282536700,11.20353662109375,-0.2493712157011032,0.08722065389156342,0.25016269087791443
1773150813292574000,11.213573974609375,-0.278541624546051,0.10203049331903458,0.2873697280883789
1773150813302611700,11.22361181640625,-0.28566423058509827,0.1833312064409256,0.33886808156967163
1773150813312649700,11.233649658203126,-0.31502798199653625,0.1861879825592041,0.2891428470611572
1773150813322687000,11.24368701171875,-0.32393360137939453,0.19680574536323547,0.18038494884967804
1773150813332724700,11.253724853515624,-0.3471488952636719,0.2268770933151245,0.09447111189365387
1773150813342761700,11.26376171875,-0.4245603382587433,0.25443947315216064,0.11591195315122604
1773150813352800000,11.273800048828125,-0.48421940207481384,0.3269845247268677,0.09878569841384888
1773150813362836700,11.283836669921875,-0.49848514795303345,0.29544922709465027,0.11035686731338501
1773150813372874800,11.293874755859376,-0.49125921726226807,0.23841629922389984,0.07022755593061447
1773150813382912000,11.303912109375,-0.5172863006591797,0.27486592531204224,-0.05225148797035217
1773150813392949800,11.31394970703125,-0.5174599289894104,0.3075929582118988,-0.16182565689086914
1773150813402986800,11.32398681640625,-0.5023901462554932,0.16145093739032745,-0.19533035159111023
1773150813413025000,11.33402490234375,-0.5169099569320679,0.21598902344703674,-0.23099620640277863
1773150813423061800,11.344061767578125,-0.5576209425926208,0.3367449939250946,-0.3537364900112152
1773150813433099800,11.354099853515624,-0.5767855644226074,0.46475809812545776,-0.49992460012435913
1773150813443137000,11.364136962890624,-0.556938648223877,0.5487208962440491,-0.5804404616355896
1773150813453174800,11.3741748046875,-0.5264379382133484,0.5731764435768127,-0.5690330862998962
1773150813463211800,11.384211669921875,-0.48120975494384766,0.5006404519081116,-0.5837422609329224
1773150813473249800,11.394249755859375,-0.4241153299808502,0.3987332582473755,-0.6194760203361511
1773150813483286800,11.404286865234376,-0.38922232389450073,0.41332393884658813,-0.6411142349243164
1773150813493324800,11.41432470703125,-0.36441925168037415,0.4105963110923767,-0.6682475805282593
1773150813503361800,11.42436181640625,-0.36841878294944763,0.42381465435028076,-0.6713783740997314
1773150813513399800,11.43439990234375,-0.44434842467308044,0.5148886442184448,-0.6927153468132019
1773150813523436800,11.444436767578125,-0.46111780405044556,0.3226552903652191,-0.6731086373329163
1773150813533474800,11.454474853515626,-0.4235065281391144,0.043292347341775894,-0.6543567776679993
1773150813543511800,11.46451171875,-0.4146147668361664,-0.07683192938566208,-0.6542462706565857
1773150813553549800,11.4745498046875,-0.4487098753452301,-0.005556153133511543,-0.7058934569358826
1773150813563586800,11.4845869140625,-0.4805288016796112,0.10201504826545715,-0.7762256860733032
1773150813573624800,11.494624755859375,-0.497801274061203,0.16080565750598907,-0.8189220428466797
1773150813583662800,11.504662841796875,-0.488463431596756,0.13314580917358398,-0.8438702821731567
1773150813593699800,11.514699951171876,-0.44628000259399414,0.12298770993947983,-0.904603123664856
1773150813603737900,11.52473779296875,-0.432317316532135,0.2217947095632553,-0.9971679449081421
1773150813613774800,11.53477490234375,-0.4322478175163269,0.3566713035106659,-1.0890874862670898
1773150813623812900,11.544812744140625,-0.40829429030418396,0.4307013154029846,-1.1258622407913208
1773150813633849900,11.554849853515625,-0.41768646240234375,0.45155999064445496,-1.1454404592514038
1773150813643887900,11.564887939453126,-0.45009952783584595,0.4099496901035309,-1.1323806047439575
1773150813653924600,11.574924560546876,-0.5322335362434387,0.4721560776233673,-1.104235053062439
1773150813663963000,11.584962890625,-0.6142482757568359,0.49595728516578674,-1.1125054359436035
1773150813674000000,11.594999755859375,-0.6455954909324646,0.41619908809661865,-1.0912384986877441
1773150813684038000,11.605037841796875,-0.6757693886756897,0.31076905131340027,-1.0344183444976807
1773150813694075000,11.615074951171875,-0.6908034682273865,0.1525605171918869,-1.0164612531661987
1773150813704113000,11.62511279296875,-0.7305298447608948,0.05962498113512993,-1.0010277032852173
1773150813714149600,11.635149658203124,-0.7599236965179443,0.010039851069450378,-1.0034034252166748
1773150813724188000,11.64518798828125,-0.7963511943817139,0.009111473336815834,-1.0287638902664185
1773150813734225000,11.655224853515625,-0.8116214871406555,0.02702016569674015,-1.0471186637878418
1773150813744262700,11.6652626953125,-0.8524898290634155,0.16733546555042267,-1.0313736200332642
1773150813754300000,11.6752998046875,-0.8524554967880249,0.14636173844337463,-1.0766360759735107
1773150813764337000,11.6853369140625,-0.8049566745758057,0.07368593662977219,-1.1568257808685303
1773150813774374700,11.695374755859374,-0.7801429629325867,0.15523459017276764,-1.1973832845687866
1773150813784412000,11.705411865234375,-0.7922043800354004,0.24338816106319427,-1.2272309064865112
1773150813794450000,11.715449951171875,-0.8826674818992615,0.32229122519493103,-1.2903590202331543
1773150813804486700,11.725486572265625,-0.969980776309967,0.3754228949546814,-1.331768274307251
1773150813814525000,11.73552490234375,-1.0931453704833984,0.394696980714798,-1.3291970491409302
1773150813824562000,11.74556201171875,-1.227831244468689,0.21841676533222198,-1.382114291191101
1773150813834599700,11.755599609375,-1.3311249017715454,-0.019226690754294395,-1.4197384119033813
1773150813844637000,11.765636962890625,-1.446242094039917,-0.11285731196403503,-1.4420958757400513
1773150813854675000,11.775675048828125,-1.5563383102416992,-0.034628551453351974,-1.5225049257278442
1773150813864711700,11.785711669921875,-1.693310022354126,0.1915971338748932,-1.6542805433273315
1773150813874750000,11.79575,-1.827811360359192,0.4768823981285095,-1.7470717430114746
1773150813884787000,11.805786865234374,-1.9544163942337036,0.7299772500991821,-1.8051108121871948
1773150813894824700,11.81582470703125,-2.0316805839538574,0.9294437170028687,-1.8195581436157227
1773150813904862000,11.825862060546875,-2.0418355464935303,1.0887500047683716,-1.7851072549819946
1773150813914899700,11.835899658203125,-2.0000722408294678,1.058440089225769,-1.7102926969528198
1773150813924936700,11.845936767578126,-1.9445070028305054,0.7801722288131714,-1.5656577348709106
1773150813934975000,11.85597509765625,-1.9124444723129272,0.2803986370563507,-1.304731845855713
1773150813945012000,11.866011962890624,-1.9162442684173584,-0.3488653004169464,-0.9328824281692505
1773150813955049700,11.8760498046875,-1.9678459167480469,-1.1769851446151733,-0.5049044489860535
1773150813965086700,11.886086669921875,-2.0334761142730713,-2.1063151359558105,-0.08391007781028748
1773150813975124700,11.896124755859375,-2.000885009765625,-2.7353503704071045,0.15286943316459656
1773150813985161700,11.90616162109375,-1.7493155002593994,-2.5852653980255127,0.12647458910942078
1773150813995200000,11.916199951171874,-1.2942906618118286,-1.6640620231628418,-0.06055042892694473
1773150814005237000,11.926237060546875,-0.8048709034919739,-0.45362022519111633,-0.38692721724510193
1773150814015274800,11.936274658203125,-0.5275522470474243,0.3355844020843506,-0.8117623925209045
1773150814025311700,11.946311767578125,-0.43168774247169495,0.464406818151474,-1.07077956199646
1773150814035349800,11.956349853515626,-0.2144518494606018,0.20176614820957184,-0.9808416962623596
1773150814045387800,11.9663876953125,-0.02353728376328945,-0.15278315544128418,-0.6050920486450195
1773150814055425000,11.976425048828125,0.09571374207735062,-0.4865557849407196,-0.07521672546863556
1773150814065466600,11.986466552734376,0.26873746514320374,-0.6521524786949158,0.40517091751098633
1773150814075505000,11.9965048828125,0.46680179238319397,-0.46426647901535034,0.6625497341156006
1773150814085541600,12.006541748046875,0.5534511804580688,0.03925313055515289,0.6130144000053406
1773150814095579600,12.01657958984375,0.5396597385406494,0.6619374752044678,0.35564011335372925
1773150814105617000,12.026616943359375,0.4983602464199066,1.2617436647415161,0.059784505516290665
1773150814115654700,12.036654541015626,0.44837379455566406,1.7734479904174805,-0.19444431364536285
1773150814125691600,12.046691650390626,0.4133788049221039,2.122140884399414,-0.40698108077049255
1773150814135729700,12.056729736328125,0.36911919713020325,2.227834701538086,-0.6096100807189941
1773150814145766700,12.0667666015625,0.30667683482170105,2.087996482849121,-0.8221707940101624
1773150814155804700,12.0768046875,0.1924770325422287,1.7351751327514648,-1.0552890300750732
1773150814165842000,12.086842041015625,0.013288108631968498,1.209674596786499,-1.3003541231155396
1773150814175879700,12.096879638671876,-0.21042993664741516,0.6307473182678223,-1.545981764793396
1773150814185916700,12.106916748046874,-0.354570597410202,0.33954373002052307,-1.560995101928711
1773150814195954700,12.11695458984375,-0.5073164701461792,0.4403715133666992,-1.3293343782424927
1773150814205991700,12.12699169921875,-0.8094862103462219,0.21048612892627716,-1.1938868761062622
1773150814216029700,12.13702978515625,-1.1644922494888306,-0.48518773913383484,-1.1787235736846924
1773150814226067000,12.14706689453125,-1.4188456535339355,-1.1724649667739868,-1.0746818780899048
1773150814236104700,12.157104736328124,-1.540003776550293,-1.6545263528823853,-0.8614838719367981
1773150814246141700,12.1671416015625,-1.588046669960022,-2.0397918224334717,-0.699508011341095
1773150814256179700,12.1771796875,-1.6050727367401123,-2.3346550464630127,-0.6166903376579285
1773150814266217700,12.1872177734375,-1.6201385259628296,-2.3870744705200195,-0.5897690057754517
1773150814276254700,12.197254638671875,-1.6909270286560059,-2.0330920219421387,-0.5825880765914917
1773150814286292700,12.207292724609376,-1.8222885131835938,-1.2359570264816284,-0.7312108278274536
1773150814296329700,12.217329833984374,-1.9334733486175537,-0.4879361093044281,-1.045525312423706
1773150814306367700,12.22736767578125,-1.955660343170166,-0.147884801030159,-1.2895278930664062
1773150814316404700,12.23740478515625,-1.8806806802749634,-0.1589779257774353,-1.3967880010604858
1773150814326442800,12.24744287109375,-1.7987130880355835,-0.29982027411460876,-1.4158825874328613
1773150814336479700,12.257479736328126,-1.7239347696304321,-0.4274410903453827,-1.410976529121399
1773150814346517800,12.267517822265624,-1.635251760482788,-0.47159603238105774,-1.4333140850067139
1773150814356554800,12.2775546875,-1.5816679000854492,-0.38225069642066956,-1.5181951522827148
1773150814366592800,12.2875927734375,-1.5220977067947388,-0.21787267923355103,-1.6421998739242554
1773150814376629800,12.297629638671875,-1.4391727447509766,-0.04911534860730171,-1.7912753820419312
1773150814386667800,12.307667724609376,-1.2933447360992432,0.06768104434013367,-1.9021159410476685
1773150814396704800,12.317704833984376,-1.124951720237732,0.15692490339279175,-1.8917908668518066
1773150814406742800,12.32774267578125,-0.9835221767425537,0.18930228054523468,-1.7346129417419434
1773150814416779800,12.33777978515625,-0.8255141377449036,0.41234254837036133,-1.6147805452346802
1773150814426817500,12.347817626953125,-0.6286804676055908,0.625765323638916,-1.466195821762085
1773150814436854800,12.357854736328125,-0.4425339996814728,0.8510570526123047,-1.3236666917800903
1773150814446892800,12.367892822265626,-0.4369645416736603,1.0044496059417725,-1.0882983207702637
1773150814456929800,12.3779296875,-0.6777260303497314,1.1826858520507812,-0.7529616355895996
1773150814466967800,12.3879677734375,-1.031925082206726,1.3542935848236084,-0.31273552775382996
1773150814477004800,12.3980048828125,-1.2704505920410156,1.362622857093811,0.10602922737598419
1773150814487042600,12.40804248046875,-1.2312864065170288,1.046329379081726,0.36160561442375183
1773150814497079800,12.418079833984375,-0.921638548374176,0.28300774097442627,0.45010536909103394
1773150814507117800,12.428117919921876,-0.47401922941207886,-0.6810216903686523,0.4251326620578766
1773150814517154800,12.43815478515625,-0.04272855445742607,-1.4877851009368896,0.3384041488170624
1773150814527192800,12.44819287109375,0.2726680040359497,-2.004540205001831,0.19623129069805145
