time,seconds_elapsed,z,y,x
1773150802159955700,0.080955810546875,-30.319747924804688,104.71878051757812,-120.12675476074219
1773150802170056700,0.091056640625,-30.575347900390625,105.04458618164062,-120.04231262207031
1773150802180158700,0.10115869140625,-30.646072387695312,104.64114379882812,-120.22850036621094
1773150802190260700,0.1112607421875,-30.574020385742188,104.78219604492188,-120.24658203125
1773150802200362800,0.12136279296875,-30.72906494140625,104.83515930175781,-120.21629333496094
1773150802210465800,0.1314658203125,-30.994277954101562,105.11335754394531,-120.23016357421875
1773150802220567800,0.14156787109375,-30.743560791015625,104.96061706542969,-120.22575378417969
1773150802230670600,0.151670654296875,-31.242034912109375,105.13444519042969,-120.45809936523438
1773150802240772600,0.161772705078125,-30.726104736328125,105.17222595214844,-120.39161682128906
1773150802250875000,0.171875,-31.003753662109375,105.22811889648438,-120.29998779296875
1773150802260977700,0.181977783203125,-30.861831665039062,105.01211547851562,-120.43673706054688
1773150802271077600,0.19207763671875,-30.535629272460938,105.11357116699219,-120.14535522460938
1773150802281179600,0.2021796875,-30.719192504882812,105.19218444824219,-120.20387268066406
1773150802291281700,0.21228173828125,-30.953079223632812,105.61012268066406,-120.41238403320312
1773150802301382700,0.222382568359375,-31.324386596679688,105.34205627441406,-120.2911376953125
1773150802311485000,0.23248486328125,-30.9443359375,105.58644104003906,-119.97628784179688
1773150802321587000,0.2425869140625,-31.279632568359375,105.73370361328125,-120.14346313476562
1773150802331688700,0.252688720703125,-31.538925170898438,105.92449951171875,-119.91355895996094
1773150802341789700,0.262789794921875,-31.510787963867188,106.14421081542969,-119.86563110351562
1773150802351891700,0.2728916015625,-31.661331176757812,106.21823120117188,-119.56083679199219
1773150802361993700,0.28299365234375,-31.574539184570312,106.3828125,-119.2657470703125
1773150802372097800,0.293097900390625,-31.709747314453125,106.3922119140625,-119.54640197753906
1773150802382199800,0.30319970703125,-31.902984619140625,106.45082092285156,-119.48185729980469
1773150802392301800,0.3133017578125,-32.06752014160156,106.44351196289062,-119.36343383789062
1773150802402402600,0.323402587890625,-32.00152587890625,106.36419677734375,-119.4637451171875
1773150802412504600,0.333504638671875,-31.974151611328125,106.42930603027344,-119.14700317382812
1773150802422607600,0.343607666015625,-31.771347045898438,106.61965942382812,-119.62724304199219
1773150802432709600,0.353709716796875,-32.04527282714844,106.31488037109375,-119.51481628417969
1773150802442811600,0.363811767578125,-31.945709228515625,106.52583312988281,-119.49412536621094
1773150802452913000,0.373912841796875,-31.575302124023438,106.73509216308594,-119.8079833984375
1773150802463015700,0.384015625,-32.004852294921875,106.61006164550781,-119.83634948730469
1773150802473116700,0.39411669921875,-31.335418701171875,107.0135498046875,-119.86485290527344
1773150802483218700,0.40421875,-31.617568969726562,106.67819213867188,-119.9644775390625
1773150802493319700,0.414319580078125,-31.256301879882812,106.52131652832031,-120.19357299804688
1773150802503422700,0.424422607421875,-31.377944946289062,106.55125427246094,-120.02290344238281
1773150802513523700,0.434523681640625,-30.749130249023438,106.33918762207031,-120.18135070800781
1773150802523624700,0.444624755859375,-30.89947509765625,106.17082214355469,-120.17071533203125
1773150802533726700,0.454726806640625,-31.29156494140625,106.27378845214844,-120.44296264648438
1773150802543827700,0.46482763671875,-30.834426879882812,106.34335327148438,-120.24539184570312
1773150802553929700,0.4749296875,-30.707870483398438,106.31404113769531,-120.44091796875
1773150802564030700,0.48503076171875,-30.87127685546875,105.88523864746094,-120.66914367675781
1773150802574130700,0.495130615234375,-30.63031005859375,106.16700744628906,-120.79763793945312
1773150802584232700,0.505232666015625,-30.722000122070312,105.93074035644531,-121.018310546875
1773150802594333700,0.515333740234375,-30.579177856445312,105.74569702148438,-120.72914123535156
1773150802604433700,0.52543359375,-30.565750122070312,105.693359375,-120.77995300292969
1773150802614533600,0.53553369140625,-30.582916259765625,105.86929321289062,-121.04934692382812
1773150802624634600,0.545634521484375,-30.654281616210938,106.0272216796875,-121.14360046386719
1773150802634735900,0.55573583984375,-30.442153930664062,105.73678588867188,-120.99722290039062
1773150802644836600,0.565836669921875,-30.356399536132812,105.70805358886719,-120.91093444824219
1773150802654938600,0.575938720703125,-30.358551025390625,105.76075744628906,-121.02775573730469
1773150802665040000,0.586039794921875,-30.342636108398438,105.46955871582031,-121.07733154296875
1773150802675142700,0.596142578125,-30.381317138671875,105.70585632324219,-121.18052673339844
1773150802685244700,0.60624462890625,-30.407699584960938,105.736572265625,-121.05070495605469
1773150802695347000,0.616346923828125,-30.33258056640625,105.58335876464844,-120.80754089355469
1773150802705448700,0.62644873046875,-30.149093627929688,105.51019287109375,-121.10638427734375
1773150802715550700,0.63655078125,-30.331497192382812,105.60467529296875,-121.12443542480469
1773150802725650700,0.646650634765625,-30.23480224609375,105.23014831542969,-121.08549499511719
1773150802735752700,0.656752685546875,-30.190078735351562,105.32026672363281,-121.29367065429688
1773150802745854700,0.666854736328125,-29.9083251953125,105.38064575195312,-121.09375
1773150802755956700,0.676956787109375,-30.307723999023438,105.29411315917969,-121.29100036621094
1773150802766057700,0.6870576171875,-30.3743896484375,105.34175109863281,-121.32756042480469
1773150802776159700,0.69715966796875,-30.401016235351562,105.07907104492188,-121.31346130371094
1773150802786261800,0.70726171875,-30.14404296875,105.20181274414062,-121.22314453125
1773150802796363800,0.71736376953125,-30.083145141601562,105.07754516601562,-121.112548828125
1773150802806466800,0.727466796875,-30.28668212890625,105.26077270507812,-121.12763977050781
1773150802816568600,0.737568603515625,-30.218719482421875,105.26753234863281,-121.21641540527344
1773150802826671900,0.747671875,-30.026809692382812,105.26634216308594,-121.09199523925781
1773150802836772600,0.757772705078125,-30.086898803710938,105.06452941894531,-121.07658386230469
1773150802846874600,0.76787451171875,-30.11248779296875,105.11630249023438,-121.03897094726562
1773150802856976000,0.777975830078125,-30.163497924804688,105.0987548828125,-121.19784545898438
1773150802867078000,0.788077880859375,-30.370773315429688,105.12889099121094,-121.08155822753906
1773150802877178600,0.7981787109375,-30.304534912109375,105.14762878417969,-121.10797119140625
1773150802887279900,0.80827978515625,-30.240554809570312,105.23405456542969,-120.9281005859375
1773150802897382000,0.8183818359375,-30.314483642578125,105.25448608398438,-121.26856994628906
1773150802907484000,0.82848388671875,-30.1800537109375,105.40463256835938,-121.14472961425781
1773150802917584600,0.838584716796875,-30.16119384765625,105.25526428222656,-121.13198852539062
1773150802927687700,0.848687744140625,-30.302978515625,105.16357421875,-121.07237243652344
1773150802937790700,0.858790771484375,-30.00439453125,105.15663146972656,-120.87686157226562
1773150802947891700,0.8688916015625,-30.44451904296875,105.02201843261719,-121.12152099609375
1773150802957994800,0.878994873046875,-30.553665161132812,105.029296875,-120.96163940429688
1773150802968095700,0.889095703125,-30.670028686523438,105.11065673828125,-121.01100158691406
1773150802978199800,0.89919970703125,-30.568023681640625,105.13687133789062,-120.90653991699219
1773150802988302600,0.909302490234375,-30.571014404296875,105.09892272949219,-121.12966918945312
1773150802998404900,0.91940478515625,-30.66558837890625,104.97129821777344,-121.06591796875
1773150803008507000,0.9295068359375,-30.601593017578125,105.1622314453125,-121.01803588867188
1773150803018609000,0.93960888671875,-30.440933227539062,105.38116455078125,-121.09495544433594
1773150803028711000,0.9497109375,-30.328094482421875,105.30563354492188,-120.86399841308594
1773150803038811600,0.959811767578125,-30.173919677734375,105.3431396484375,-121.16827392578125
1773150803048912600,0.96991259765625,-30.381881713867188,105.154296875,-121.01470947265625
1773150803059014000,0.980013916015625,-30.42498779296875,105.05987548828125,-121.11941528320312
1773150803069116000,0.990115966796875,-30.41265869140625,104.91719055175781,-121.03123474121094
1773150803079218000,1.000218017578125,-30.280487060546875,105.02896118164062,-120.86332702636719
1773150803089321000,1.010321044921875,-30.273406982421875,104.68598937988281,-120.84466552734375
1773150803099423000,1.020423095703125,-30.287094116210938,104.60307312011719,-120.681884765625
1773150803109525000,1.03052490234375,-30.371734619140625,104.4132080078125,-120.7518310546875
1773150803119627000,1.040626953125,-30.449371337890625,104.30877685546875,-120.59271240234375
1773150803129727000,1.05072705078125,-30.366744995117188,104.21072387695312,-120.4632568359375
1773150803139828000,1.060827880859375,-30.429962158203125,104.21485900878906,-120.61689758300781
1773150803149927000,1.070927001953125,-30.7254638671875,103.9063720703125,-120.46250915527344
1773150803160028000,1.08102783203125,-30.563217163085938,103.75559997558594,-120.48532104492188
1773150803170126800,1.091126953125,-30.536727905273438,103.93116760253906,-120.34011840820312
1773150803180228000,1.10122802734375,-30.375991821289062,103.94496154785156,-120.45115661621094
1773150803190328800,1.111328857421875,-30.438796997070312,103.93125915527344,-120.31367492675781
1773150803200430800,1.121430908203125,-30.27911376953125,103.70555114746094,-120.24073791503906
1773150803210532900,1.131532958984375,-30.700881958007812,103.5052490234375,-120.26835632324219
1773150803220636000,1.141635986328125,-30.071197509765625,103.84107971191406,-120.18482971191406
1773150803230737000,1.15173681640625,-30.599105834960938,103.61695861816406,-120.26179504394531
1773150803240838100,1.161838134765625,-30.5081787109375,103.52432250976562,-120.21673583984375
1773150803250941000,1.17194091796875,-30.587020874023438,103.66032409667969,-120.34388732910156
1773150803261043000,1.18204296875,-30.614227294921875,103.52569580078125,-120.24537658691406
1773150803271144000,1.19214404296875,-30.45013427734375,103.49197387695312,-120.31158447265625
1773150803281245000,1.202244873046875,-30.668045043945312,103.58587646484375,-120.22715759277344
1773150803291346000,1.212345947265625,-30.490142822265625,103.61192321777344,-120.2471923828125
1773150803301447000,1.222447021484375,-30.522048950195312,103.46589660644531,-120.39866638183594
1773150803311548000,1.2325478515625,-30.729232788085938,103.42185974121094,-120.18728637695312
1773150803321650000,1.24264990234375,-30.548446655273438,103.49517822265625,-120.24490356445312
1773150803331752000,1.252751953125,-30.451690673828125,103.58888244628906,-120.34104919433594
1773150803341854000,1.26285400390625,-30.643218994140625,103.80339050292969,-120.3697509765625
1773150803351955000,1.272954833984375,-30.663040161132812,103.73388671875,-120.39009094238281
1773150803362056000,1.283055908203125,-30.672088623046875,103.57220458984375,-120.14717102050781
1773150803372158000,1.293157958984375,-30.469757080078125,103.54646301269531,-120.40635681152344
1773150803382261000,1.303260986328125,-30.77490234375,103.8499755859375,-120.58094787597656
1773150803392362800,1.31336279296875,-30.862884521484375,103.85714721679688,-120.32798767089844
1773150803402464000,1.323464111328125,-30.588623046875,103.65750122070312,-120.30348205566406
1773150803412565000,1.33356494140625,-30.263885498046875,103.67581176757812,-120.07868957519531
1773150803422665700,1.343665771484375,-30.608505249023438,103.50839233398438,-120.17616271972656
1773150803432766000,1.353765869140625,-30.759368896484375,103.57032775878906,-120.27024841308594
1773150803442866000,1.363865966796875,-30.603561401367188,103.46417236328125,-120.18217468261719
1773150803452967000,1.373966796875,-30.729080200195312,103.57783508300781,-119.95921325683594
1773150803463065900,1.38406591796875,-30.454879760742188,103.62637329101562,-119.98710632324219
1773150803473166000,1.394166015625,-31.035263061523438,103.6282958984375,-120.17274475097656
1773150803483265800,1.404265869140625,-30.980178833007812,103.68954467773438,-120.11111450195312
1773150803493366000,1.414365966796875,-31.115142822265625,103.94306945800781,-120.09101867675781
1773150803503466000,1.424466064453125,-30.826828002929688,103.98464965820312,-120.015869140625
1773150803513567000,1.43456689453125,-30.920303344726562,103.94049072265625,-119.92701721191406
1773150803523668000,1.44466796875,-31.021881103515625,104.13755798339844,-119.90336608886719
1773150803533771000,1.45477099609375,-31.330413818359375,104.424072265625,-119.83334350585938
1773150803543872800,1.464872802734375,-31.521240234375,104.44807434082031,-119.57109069824219
1773150803553974000,1.47497412109375,-31.338882446289062,104.47796630859375,-119.40196228027344
1773150803564074000,1.485073974609375,-31.51922607421875,104.38699340820312,-119.33793640136719
1773150803574175700,1.49517578125,-31.534332275390625,104.81767272949219,-119.32167053222656
1773150803584277000,1.505277099609375,-31.876510620117188,104.78036499023438,-119.24267578125
1773150803594379000,1.51537890625,-31.863876342773438,104.97593688964844,-119.04420471191406
1773150803604480000,1.52547998046875,-32.005828857421875,105.15080261230469,-118.74101257324219
1773150803614581000,1.5355810546875,-32.22331237792969,104.96080017089844,-118.67990112304688
1773150803624683800,1.545683837890625,-32.420257568359375,105.13478088378906,-118.70948791503906
1773150803634785000,1.555784912109375,-32.377105712890625,105.29342651367188,-118.60009765625
1773150803644887000,1.565886962890625,-32.497528076171875,105.54806518554688,-118.33477783203125
1773150803654989000,1.575989013671875,-32.68165588378906,105.40335083007812,-118.23037719726562
1773150803665092000,1.586092041015625,-33.006439208984375,105.88258361816406,-118.14535522460938
1773150803675194000,1.596194091796875,-33.180511474609375,106.28498840332031,-118.26783752441406
1773150803685297000,1.606296875,-33.330108642578125,106.59617614746094,-118.19522094726562
1773150803695400000,1.61639990234375,-33.282867431640625,106.68006896972656,-117.99388122558594
1773150803705502000,1.626501953125,-33.120513916015625,107.21565246582031,-117.82754516601562
1773150803715603700,1.636603759765625,-33.80393981933594,107.17822265625,-117.65959167480469
1773150803725706000,1.6467060546875,-33.71418762207031,107.61619567871094,-117.56889343261719
1773150803735808000,1.65680810546875,-34.00996398925781,108.1212158203125,-117.54072570800781
1773150803745909000,1.666908935546875,-34.05253601074219,108.52630615234375,-117.133056640625
1773150803756010000,1.677010009765625,-34.28398132324219,108.70912170410156,-117.21051025390625
1773150803766111700,1.68711181640625,-34.38020324707031,109.24700927734375,-117.20530700683594
1773150803776213000,1.697212890625,-34.604888916015625,109.50346374511719,-117.17318725585938
1773150803786315000,1.70731494140625,-34.57511901855469,110.05618286132812,-117.2213134765625
1773150803796415000,1.7174150390625,-34.51136779785156,110.15788269042969,-116.97291564941406
1773150803806517800,1.727517822265625,-34.40812683105469,110.7410888671875,-117.00517272949219
1773150803816619800,1.737619873046875,-34.799652099609375,110.89945983886719,-116.98625183105469
1773150803826722800,1.747722900390625,-34.92308044433594,111.25999450683594,-116.86346435546875
1773150803836827100,1.7578271484375,-34.91712951660156,111.49653625488281,-116.93699645996094
1773150803846929000,1.767928955078125,-35.0040283203125,111.68533325195312,-116.87528991699219
1773150803857031000,1.778031005859375,-35.01611328125,111.77426147460938,-116.79655456542969
1773150803867132000,1.7881318359375,-35.50547790527344,112.19717407226562,-116.74754333496094
1773150803877234000,1.79823388671875,-35.42816162109375,112.417236328125,-116.80836486816406
1773150803887335000,1.8083349609375,-35.22418212890625,112.37261962890625,-116.66651916503906
1773150803897437000,1.81843701171875,-35.22454833984375,112.63630676269531,-116.73551940917969
1773150803907538000,1.828537841796875,-35.46519470214844,112.93577575683594,-116.66093444824219
1773150803917639000,1.838638916015625,-35.20198059082031,113.3089599609375,-116.80780029296875
1773150803927741000,1.848740966796875,-35.078521728515625,113.55677795410156,-116.87777709960938
1773150803937842000,1.858842041015625,-34.93919372558594,113.65689086914062,-116.69180297851562
1773150803947944000,1.86894384765625,-35.12992858886719,113.68389892578125,-117.06233215332031
1773150803958045000,1.879044921875,-35.12550354003906,114.01968383789062,-117.17976379394531
1773150803968146000,1.88914599609375,-35.133819580078125,113.99592590332031,-117.49310302734375
1773150803978247000,1.899246826171875,-34.771209716796875,114.29808044433594,-117.5953369140625
1773150803988348000,1.909347900390625,-34.58709716796875,114.26466369628906,-117.89088439941406
1773150803998449000,1.919448974609375,-34.693359375,114.30442810058594,-118.22561645507812
1773150804008550000,1.9295498046875,-34.767303466796875,114.24870300292969,-118.54620361328125
1773150804018651100,1.939651123046875,-34.44610595703125,114.11531066894531,-118.83674621582031
1773150804028750800,1.949750732421875,-34.01213073730469,114.00955200195312,-118.975830078125
1773150804038851000,1.95985107421875,-33.76719665527344,113.93063354492188,-119.28411865234375
1773150804048950000,1.969949951171875,-34.09883117675781,113.89132690429688,-119.74307250976562
1773150804059054300,1.980054443359375,-33.85969543457031,113.92379760742188,-119.95095825195312
1773150804069155300,1.9901552734375,-33.354827880859375,114.02706909179688,-120.36843872070312
1773150804079256600,2.000256591796875,-33.094482421875,113.75323486328125,-120.2877197265625
1773150804089356500,2.0103564453125,-33.31327819824219,113.77548217773438,-120.69305419921875
1773150804099459300,2.020459228515625,-33.111358642578125,113.49928283691406,-121.00808715820312
1773150804109561300,2.030561279296875,-33.05567932128906,113.64408874511719,-121.17927551269531
1773150804119664400,2.040664306640625,-32.94700622558594,113.39286804199219,-121.328125
1773150804129765600,2.050765625,-32.66015625,113.33113098144531,-121.40904235839844
1773150804139866400,2.060866455078125,-32.804168701171875,113.23204040527344,-121.63723754882812
1773150804149968400,2.070968505859375,-32.669464111328125,113.10150146484375,-121.77644348144531
1773150804160071400,2.081071533203125,-32.699005126953125,113.02252197265625,-121.88005065917969
1773150804170174500,2.091174560546875,-32.17765808105469,112.88290405273438,-122.02128601074219
1773150804180276500,2.1012763671875,-31.862213134765625,112.46746826171875,-122.14813232421875
1773150804190378500,2.11137841796875,-32.41047668457031,112.17985534667969,-122.00138854980469
1773150804200480500,2.12148046875,-32.328887939453125,112.02865600585938,-122.34030151367188
1773150804210583600,2.13158349609375,-32.331695556640625,111.84825134277344,-122.27532958984375
1773150804220686300,2.141686279296875,-32.4736328125,111.76942443847656,-122.17202758789062
1773150804230789400,2.151789306640625,-32.34211730957031,111.53155517578125,-122.35835266113281
1773150804240891400,2.161891357421875,-32.45423889160156,111.56019592285156,-122.3358154296875
1773150804250994400,2.171994384765625,-32.398101806640625,111.27030944824219,-122.61585998535156
1773150804261096400,2.182096435546875,-32.388275146484375,111.05769348144531,-122.3968505859375
1773150804271198500,2.192198486328125,-31.919525146484375,111.01580810546875,-122.45584106445312
1773150804281300500,2.202300537109375,-31.825653076171875,110.92483520507812,-122.73780822753906
1773150804291401500,2.2124013671875,-31.80267333984375,110.51280212402344,-122.71632385253906
1773150804301503500,2.22250341796875,-32.24775695800781,110.67967224121094,-123.03387451171875
1773150804311605500,2.23260546875,-31.672164916992188,110.40583801269531,-122.82479858398438
1773150804321706500,2.24270654296875,-31.878921508789062,110.37728881835938,-122.97914123535156
1773150804331808300,2.252808349609375,-31.802322387695312,110.19290161132812,-122.998291015625
1773150804341909500,2.262909423828125,-31.736373901367188,110.14219665527344,-123.18756103515625
1773150804352011500,2.273011474609375,-31.880752563476562,109.79119873046875,-123.06953430175781
1773150804362113500,2.283113525390625,-31.967315673828125,109.69561767578125,-123.12419128417969
1773150804372215600,2.293215576171875,-31.924606323242188,109.59877014160156,-123.1810302734375
1773150804382317600,2.303317626953125,-31.8209228515625,109.51820373535156,-123.27590942382812
1773150804392419300,2.31341943359375,-31.856063842773438,109.50656127929688,-123.25392150878906
1773150804402520300,2.323520263671875,-31.878387451171875,109.2828369140625,-123.1890869140625
1773150804412622300,2.333622314453125,-31.558578491210938,109.37028503417969,-123.27784729003906
1773150804422724600,2.343724609375,-31.189605712890625,108.99116516113281,-123.45710754394531
1773150804432826600,2.35382666015625,-31.508956909179688,108.69436645507812,-123.32980346679688
1773150804442928600,2.3639287109375,-31.695175170898438,108.79318237304688,-123.28944396972656
1773150804453032400,2.374032470703125,-31.50579833984375,108.63607788085938,-123.44081115722656
1773150804463135500,2.384135498046875,-31.272354125976562,108.71392822265625,-123.37062072753906
1773150804473239300,2.3942392578125,-31.615188598632812,108.45391845703125,-123.64854431152344
1773150804483342300,2.40434228515625,-31.624237060546875,108.46507263183594,-123.67649841308594
1773150804493444400,2.4144443359375,-31.6583251953125,108.59085083007812,-123.80899047851562
1773150804503546400,2.42454638671875,-31.457870483398438,108.57769775390625,-123.86997985839844
1773150804513647600,2.434647705078125,-30.952163696289062,108.70736694335938,-123.9176025390625
1773150804523749400,2.444749267578125,-31.586044311523438,108.55107116699219,-123.90786743164062
1773150804533851400,2.454851318359375,-31.364944458007812,108.47483825683594,-124.0194091796875
1773150804543952400,2.464952392578125,-31.252166748046875,108.55378723144531,-124.05563354492188
1773150804554054400,2.475054443359375,-31.292312622070312,108.40280151367188,-124.00885009765625
1773150804564156400,2.485156494140625,-31.25457763671875,108.16212463378906,-124.06272888183594
1773150804574257400,2.49525732421875,-31.034866333007812,108.16618347167969,-124.01097106933594
1773150804584359400,2.505359375,-31.130172729492188,108.05532836914062,-124.16758728027344
1773150804594461400,2.51546142578125,-31.183547973632812,108.25157165527344,-124.2169189453125
1773150804604562400,2.5255625,-30.871826171875,108.29641723632812,-124.12332153320312
1773150804614662400,2.535662353515625,-31.037078857421875,108.36433410644531,-124.48165893554688
1773150804624763400,2.545763427734375,-31.099563598632812,108.06330871582031,-124.39909362792969
1773150804634865400,2.555865478515625,-30.889144897460938,108.28736877441406,-124.47773742675781
1773150804644967700,2.5659677734375,-31.184783935546875,108.25285339355469,-124.32354736328125
1773150804655068400,2.576068359375,-30.93853759765625,108.28443908691406,-124.09954833984375
1773150804665169400,2.58616943359375,-30.899490356445312,108.13104248046875,-124.38182067871094
1773150804675271400,2.596271484375,-31.090423583984375,108.12052917480469,-124.38037109375
1773150804685372400,2.606372314453125,-30.756011962890625,107.84819030761719,-124.18247985839844
1773150804695472400,2.616472412109375,-31.02069091796875,108.06900024414062,-124.33489990234375
1773150804705573400,2.626573486328125,-30.89385986328125,108.014892578125,-124.35887145996094
1773150804715675400,2.63667529296875,-30.687576293945312,107.99259948730469,-124.467041015625
1773150804725776400,2.6467763671875,-30.4931640625,108.04747009277344,-124.431884765625
1773150804735878400,2.65687841796875,-30.85162353515625,108.00361633300781,-124.46504211425781
1773150804745978400,2.666978271484375,-30.732879638671875,108.10919189453125,-124.50431823730469
1773150804756078600,2.67707861328125,-30.768386840820312,108.22984313964844,-124.6162109375
1773150804766178300,2.68717822265625,-30.713775634765625,108.07540893554688,-124.708251953125
1773150804776279600,2.697279541015625,-30.816146850585938,107.8974609375,-124.67080688476562
1773150804786379300,2.707379150390625,-30.680496215820312,107.90476989746094,-124.74349975585938
1773150804796480500,2.71748046875,-30.0211181640625,107.74334716796875,-124.48747253417969
1773150804806580500,2.72758056640625,-30.559478759765625,107.70751953125,-124.87922668457031
1773150804816681500,2.737681396484375,-30.426681518554688,107.89642333984375,-124.69876098632812
1773150804826782500,2.747782470703125,-30.252349853515625,107.63458251953125,-124.67262268066406
1773150804836882400,2.75788232421875,-30.311782836914062,107.70413208007812,-124.76838684082031
1773150804846984400,2.767984375,-30.253952026367188,107.67025756835938,-124.63876342773438
1773150804857085400,2.77808544921875,-30.353485107421875,107.71839904785156,-124.82157897949219
1773150804867187500,2.7881875,-30.305252075195312,107.83726501464844,-124.91456604003906
1773150804877288400,2.798288330078125,-30.34210205078125,107.69252014160156,-124.76789855957031
1773150804887388400,2.808388427734375,-30.212799072265625,107.69839477539062,-124.88116455078125
1773150804897488400,2.81848828125,-30.063812255859375,107.71670532226562,-124.904296875
1773150804907588600,2.828588623046875,-30.007308959960938,107.53514099121094,-124.96005249023438
1773150804917689300,2.838689453125,-30.037307739257812,107.4029541015625,-125.01664733886719
1773150804927791400,2.848791259765625,-29.915618896484375,107.533935546875,-124.92189025878906
1773150804937894400,2.858894287109375,-30.060440063476562,107.49594116210938,-125.0787353515625
1773150804947996400,2.868996337890625,-29.985260009765625,107.62808227539062,-125.16206359863281
1773150804958096400,2.879096435546875,-30.066680908203125,107.45198059082031,-125.10688781738281
1773150804968198700,2.88919873046875,-29.939849853515625,107.26618957519531,-125.13435363769531
1773150804978300400,2.899300537109375,-29.93121337890625,107.53041076660156,-125.07829284667969
1773150804988400400,2.909400390625,-29.542984008789062,107.47100830078125,-124.78489685058594
1773150804998502400,2.91950244140625,-30.088668823242188,107.34500122070312,-125.21971130371094
1773150805008604400,2.9296044921875,-29.913986206054688,107.46572875976562,-125.11695861816406
1773150805018705400,2.939705322265625,-29.740386962890625,107.78013610839844,-125.22512817382812
1773150805028807400,2.949807373046875,-29.729629516601562,107.63272094726562,-125.40809631347656
1773150805038909400,2.959909423828125,-29.899444580078125,107.66380310058594,-125.16348266601562
1773150805049010400,2.970010498046875,-30.08831787109375,107.45051574707031,-125.17706298828125
1773150805059108600,2.980108642578125,-29.906219482421875,107.45881652832031,-125.25027465820312
1773150805069211600,2.990211669921875,-29.903335571289062,107.42149353027344,-125.35964965820312
1773150805079314700,3.000314697265625,-29.551239013671875,107.30455017089844,-125.28742980957031
1773150805089416700,3.010416748046875,-29.89337158203125,107.52151489257812,-125.33035278320312
1773150805099519700,3.020519775390625,-30.021743774414062,107.60501098632812,-125.47512817382812
1773150805109620500,3.030620361328125,-29.936508178710938,107.53572082519531,-125.37464904785156
1773150805119722500,3.040722412109375,-29.734237670898438,107.59686279296875,-125.41592407226562
1773150805129825500,3.050825439453125,-29.744644165039062,107.63034057617188,-125.29147338867188
1773150805139927600,3.060927490234375,-30.12164306640625,107.44586181640625,-125.587890625
1773150805150028800,3.07102880859375,-30.076248168945312,107.58737182617188,-125.66441345214844
1773150805160130800,3.081130859375,-29.8133544921875,107.47396850585938,-125.56613159179688
1773150805170232800,3.09123291015625,-29.872177124023438,107.38113403320312,-125.52864074707031
1773150805180334800,3.1013349609375,-29.759368896484375,107.22978210449219,-125.29177856445312
1773150805190436600,3.1114365234375,-29.745040893554688,107.34861755371094,-125.46113586425781
1773150805200537600,3.12153759765625,-29.845657348632812,107.36227416992188,-125.32948303222656
1773150805210639600,3.1316396484375,-29.770751953125,106.99110412597656,-125.34837341308594
1773150805220741600,3.14174169921875,-29.953155517578125,107.36372375488281,-125.41696166992188
1773150805230842600,3.151842529296875,-29.981704711914062,107.11238098144531,-125.284423828125
1773150805240944600,3.161944580078125,-29.938568115234375,107.16560363769531,-125.34661865234375
1773150805251046700,3.172046630859375,-29.805938720703125,107.25936889648438,-125.20050048828125
1773150805261150700,3.182150634765625,-30.005599975585938,106.98367309570312,-125.21841430664062
1773150805271252700,3.192252685546875,-29.704696655273438,107.14338684082031,-125.25440979003906
1773150805281355500,3.20235546875,-29.8892822265625,107.41984558105469,-125.47384643554688
1773150805291456800,3.212456787109375,-29.8511962890625,107.27932739257812,-125.44102478027344
1773150805301558800,3.222558837890625,-29.732025146484375,107.25410461425781,-125.36943054199219
1773150805311661800,3.232661865234375,-29.727401733398438,107.28181457519531,-125.34233093261719
1773150805321763800,3.242763916015625,-29.7138671875,107.4107666015625,-125.29336547851562
1773150805331863600,3.252863525390625,-29.903182983398438,107.39704895019531,-125.44862365722656
1773150805341965600,3.262965576171875,-29.745834350585938,107.34353637695312,-125.6051025390625
1773150805352066800,3.27306689453125,-29.860488891601562,107.22836303710938,-125.58787536621094
1773150805362167600,3.28316748046875,-30.008102416992188,107.14340209960938,-125.55415344238281
1773150805372267800,3.293267822265625,-29.827896118164062,106.99545288085938,-125.36482238769531
1773150805382367500,3.303367431640625,-29.51806640625,107.15948486328125,-125.197998046875
1773150805392467700,3.3134677734375,-29.740081787109375,107.03829956054688,-125.5875244140625
1773150805402567700,3.323567626953125,-29.634689331054688,106.95030212402344,-125.49317932128906
1773150805412669700,3.333669677734375,-29.800491333007812,107.03700256347656,-125.53036499023438
1773150805422769700,3.343769775390625,-29.405502319335938,107.103759765625,-125.53916931152344
1773150805432869600,3.35386962890625,-29.79443359375,106.97819519042969,-125.4276123046875
1773150805442969900,3.363969970703125,-29.46990966796875,106.77960205078125,-125.48274230957031
1773150805453069600,3.374069580078125,-29.533157348632812,106.66506958007812,-125.29307556152344
1773150805463170800,3.3841708984375,-29.435989379882812,106.72257995605469,-125.23204040527344
1773150805473269800,3.394269775390625,-29.528594970703125,106.73240661621094,-125.51904296875
1773150805483370800,3.404370849609375,-29.676803588867188,106.66572570800781,-125.36349487304688
1773150805493470700,3.414470703125,-29.80047607421875,106.8084716796875,-125.369140625
1773150805503571700,3.42457177734375,-29.887924194335938,106.70263671875,-125.34521484375
1773150805513672700,3.434672607421875,-29.556243896484375,106.4443359375,-125.167236328125
1773150805523772700,3.444772705078125,-29.690353393554688,106.44441223144531,-125.28915405273438
1773150805533872600,3.45487255859375,-29.315093994140625,106.35017395019531,-125.39894104003906
1773150805543972600,3.46497265625,-29.532730102539062,106.46115112304688,-125.28111267089844
1773150805554073600,3.475073486328125,-29.58746337890625,106.27107238769531,-125.45443725585938
1773150805564174600,3.485174560546875,-29.546737670898438,106.33360290527344,-125.26200866699219
1773150805574275800,3.49527587890625,-29.49853515625,106.48008728027344,-125.41084289550781
1773150805584375600,3.50537548828125,-29.481277465820312,106.10783386230469,-125.37504577636719
1773150805594475800,3.515475830078125,-29.419418334960938,106.18487548828125,-125.38583374023438
1773150805604576500,3.525576416015625,-29.231857299804688,106.28814697265625,-125.45518493652344
1773150805614676700,3.5356767578125,-29.621429443359375,105.95587158203125,-125.34355163574219
1773150805624778800,3.54577880859375,-29.610641479492188,105.75296020507812,-125.29194641113281
1773150805634878700,3.555878662109375,-29.017501831054688,105.76388549804688,-125.13412475585938
1773150805644979700,3.565979736328125,-29.132293701171875,105.95765686035156,-125.00752258300781
1773150805655080700,3.576080810546875,-28.931640625,106.05596923828125,-125.12661743164062
1773150805665179000,3.586178955078125,-29.124267578125,105.90260314941406,-125.01039123535156
1773150805675277800,3.59627783203125,-29.041030883789062,105.87191772460938,-125.02882385253906
1773150805685375700,3.606375732421875,-29.343231201171875,106.01873779296875,-125.15303039550781
1773150805695475500,3.616475341796875,-29.26068115234375,105.83332824707031,-125.15216064453125
1773150805705575700,3.62657568359375,-29.28204345703125,105.96148681640625,-125.07212829589844
1773150805715674600,3.636674560546875,-28.859512329101562,105.82730102539062,-124.9620361328125
1773150805725773600,3.646773681640625,-28.987823486328125,105.91819763183594,-125.34320068359375
1773150805735873800,3.656873779296875,-29.397430419921875,106.12348937988281,-125.19911193847656
1773150805745972700,3.66697265625,-29.301712036132812,105.74140930175781,-125.3406982421875
1773150805756071700,3.67707177734375,-29.232376098632812,105.82279968261719,-125.39399719238281
1773150805766172700,3.687172607421875,-28.824905395507812,105.80595397949219,-125.10092163085938
1773150805776273700,3.697273681640625,-29.563095092773438,105.89958190917969,-125.4693603515625
1773150805786373600,3.70737353515625,-29.411865234375,105.772705078125,-125.36705017089844
1773150805796473900,3.717473876953125,-29.109329223632812,105.71220397949219,-125.26083374023438
1773150805806572800,3.72757275390625,-29.186248779296875,105.58680725097656,-125.32598876953125
1773150805816671500,3.73767138671875,-29.1094970703125,105.5511474609375,-125.3525390625
1773150805826770700,3.747770751953125,-29.20660400390625,105.30264282226562,-125.279541015625
1773150805836869600,3.75786962890625,-29.038375854492188,105.14541625976562,-125.25076293945312
1773150805846969600,3.767969482421875,-28.8577880859375,105.02354431152344,-125.09817504882812
1773150805857069800,3.77806982421875,-29.297637939453125,105.1787109375,-125.21376037597656
1773150805867168800,3.788168701171875,-29.305404663085938,105.08305358886719,-125.30574035644531
1773150805877269800,3.798269775390625,-28.969711303710938,104.841552734375,-125.0030517578125
1773150805887369700,3.80836962890625,-29.1109619140625,104.92713928222656,-125.11251831054688
1773150805897470700,3.818470703125,-28.819808959960938,104.70932006835938,-124.89019775390625
1773150805907570700,3.82857080078125,-28.741256713867188,104.66839599609375,-125.18594360351562
1773150805917671700,3.838671630859375,-29.044754028320312,104.68023681640625,-125.25250244140625
1773150805927773700,3.848773681640625,-29.009841918945312,104.60609436035156,-125.06434631347656
1773150805937875700,3.858875732421875,-28.938613891601562,104.58238220214844,-125.21710205078125
1773150805947976700,3.868976806640625,-28.860260009765625,104.26203918457031,-125.09751892089844
1773150805958078700,3.87907861328125,-28.591033935546875,104.28054809570312,-125.016845703125
1773150805968179700,3.8891796875,-28.70025634765625,104.01484680175781,-125.07083129882812
1773150805978281700,3.89928173828125,-28.913848876953125,104.06761169433594,-125.0714111328125
1773150805988382500,3.909382568359375,-28.568161010742188,104.16203308105469,-124.94091796875
1773150805998484700,3.919484619140625,-28.879684448242188,103.88363647460938,-124.91049194335938
1773150806008587500,3.92958740234375,-28.391555786132812,104.07273864746094,-125.00462341308594
1773150806018688800,3.939688720703125,-28.706588745117188,103.91145324707031,-125.02407836914062
1773150806028788700,3.949788818359375,-28.694793701171875,103.92247009277344,-124.93310546875
1773150806038889700,3.9598896484375,-28.440887451171875,103.77505493164062,-124.88679504394531
1773150806048991700,3.96999169921875,-28.65057373046875,103.63505554199219,-124.92205810546875
1773150806059097300,3.980097412109375,-28.646713256835938,103.29142761230469,-124.83401489257812
1773150806069198300,3.9901982421875,-29.03302001953125,103.44599914550781,-124.96678161621094
1773150806079301400,4.00030126953125,-28.845230102539062,103.39016723632812,-124.81996154785156
1773150806089403400,4.0104033203125,-28.676589965820312,103.38656616210938,-124.76043701171875
1773150806099505400,4.02050537109375,-28.952972412109375,103.34930419921875,-124.71690368652344
1773150806109608400,4.0306083984375,-28.944992065429688,103.3255615234375,-124.800537109375
1773150806119710500,4.04071044921875,-28.658737182617188,103.22921752929688,-124.66525268554688
1773150806129811200,4.050811279296875,-28.941940307617188,103.11540222167969,-124.66902160644531
1773150806139913200,4.060913330078125,-28.831207275390625,103.26742553710938,-124.54072570800781
1773150806150014500,4.071014404296875,-28.894134521484375,103.12371826171875,-124.70747375488281
1773150806160115200,4.081115234375,-29.096054077148438,102.93553161621094,-124.4110107421875
1773150806170216400,4.091216552734375,-29.073043823242188,103.11355590820312,-124.63473510742188
1773150806180316400,4.10131640625,-28.778289794921875,103.14378356933594,-124.11187744140625
1773150806190418200,4.111418212890625,-28.87384033203125,103.34101867675781,-124.46034240722656
1773150806200519400,4.12151953125,-28.798126220703125,103.30322265625,-124.38638305664062
1773150806210620400,4.131620361328125,-28.935211181640625,103.03369140625,-124.29507446289062
1773150806220720400,4.141720458984375,-29.090911865234375,103.09297180175781,-124.40072631835938
1773150806230820400,4.1518203125,-28.726226806640625,103.33674621582031,-124.28033447265625
1773150806240921300,4.16192138671875,-29.09326171875,103.21713256835938,-124.32290649414062
1773150806251022300,4.172022216796875,-29.287109375,103.41571044921875,-124.37799072265625
1773150806261124400,4.182124267578125,-29.163558959960938,103.42587280273438,-124.307373046875
1773150806271226400,4.192226318359375,-29.172164916992188,103.29940795898438,-124.48916625976562
1773150806281327400,4.202327392578125,-29.122482299804688,103.53038024902344,-124.13934326171875
1773150806291427300,4.21242724609375,-29.29937744140625,103.46650695800781,-124.0177001953125
1773150806301528600,4.222528564453125,-29.561569213867188,103.5272216796875,-123.98335266113281
1773150806311628300,4.232628173828125,-29.79132080078125,103.48971557617188,-123.55113220214844
1773150806321729500,4.2427294921875,-30.112579345703125,103.70497131347656,-123.21270751953125
1773150806331831600,4.25283154296875,-30.839889526367188,103.43948364257812,-123.0025634765625
1773150806341931300,4.26293115234375,-30.871002197265625,103.75607299804688,-122.60983276367188
1773150806352033300,4.273033203125,-31.106338500976562,103.71696472167969,-122.48139953613281
1773150806362134500,4.283134521484375,-31.390899658203125,103.72311401367188,-122.03984069824219
1773150806372235300,4.2932353515625,-31.743988037109375,103.76713562011719,-121.43711853027344
1773150806382335500,4.30333544921875,-32.22552490234375,103.70498657226562,-121.21430969238281
1773150806392435200,4.313435302734375,-32.66636657714844,103.4398193359375,-120.64450073242188
1773150806402534100,4.3235341796875,-33.06761169433594,103.38580322265625,-119.99446105957031
1773150806412635400,4.333635498046875,-33.86802673339844,103.18966674804688,-119.07598876953125
1773150806422736400,4.343736328125,-33.82313537597656,102.95187377929688,-117.95863342285156
1773150806432838400,4.35383837890625,-34.76202392578125,102.04399108886719,-116.95654296875
1773150806442939400,4.363939453125,-35.886474609375,101.08615112304688,-115.20497131347656
1773150806453042200,4.374042236328125,-36.966400146484375,99.84915161132812,-113.04945373535156
1773150806463142400,4.384142333984375,-37.4141845703125,98.48712158203125,-110.86245727539062
1773150806473243100,4.3942431640625,-37.320648193359375,97.76539611816406,-110.10464477539062
1773150806483344400,4.404344482421875,-38.26031494140625,98.18170166015625,-109.04396057128906
1773150806493445400,4.4144453125,-39.079010009765625,98.75579833984375,-107.30558776855469
1773150806503546000,4.424546142578125,-39.88850402832031,99.93110656738281,-105.26007080078125
1773150806513648400,4.4346484375,-40.706878662109375,101.39729309082031,-102.78009033203125
1773150806523749400,4.444749267578125,-41.34065246582031,103.05335998535156,-101.01010131835938
1773150806533850400,4.454850341796875,-42.27919006347656,104.2783203125,-99.23297119140625
1773150806543952400,4.464952392578125,-42.678558349609375,106.16801452636719,-98.09573364257812
1773150806554053400,4.475053466796875,-42.67041015625,107.46635437011719,-98.04850769042969
1773150806564154400,4.485154296875,-42.64476013183594,108.63533020019531,-97.70152282714844
1773150806574254300,4.49525439453125,-42.88880920410156,109.82725524902344,-97.90815734863281
1773150806584355300,4.505355224609375,-42.99006652832031,110.67236328125,-98.18937683105469
1773150806594455300,4.515455322265625,-42.83705139160156,111.52064514160156,-98.80255126953125
1773150806604556300,4.525556396484375,-42.76683044433594,112.31202697753906,-99.42756652832031
1773150806614657300,4.5356572265625,-42.216796875,112.81983947753906,-99.82943725585938
1773150806624757200,4.54575732421875,-42.44120788574219,113.60702514648438,-100.76254272460938
1773150806634859300,4.555859375,-42.034210205078125,114.35791015625,-101.59097290039062
1773150806644960500,4.56596044921875,-41.76318359375,114.72554016113281,-102.35676574707031
1773150806655062500,4.5760625,-41.473358154296875,115.81095886230469,-103.18055725097656
1773150806665163300,4.586163330078125,-40.854949951171875,116.4505615234375,-103.8590087890625
1773150806675265300,4.596265380859375,-40.855194091796875,117.31547546386719,-104.33705139160156
1773150806685366300,4.6063662109375,-40.622833251953125,118.52096557617188,-104.85057067871094
1773150806695467500,4.616467529296875,-40.233917236328125,119.77349853515625,-105.23970031738281
1773150806705569300,4.6265693359375,-39.546722412109375,121.07373046875,-105.61097717285156
1773150806715670300,4.636670166015625,-39.07426452636719,122.19209289550781,-106.29086303710938
1773150806725771500,4.646771484375,-38.2603759765625,123.50503540039062,-107.09355163574219
1773150806735873500,4.65687353515625,-37.62567138671875,124.66230773925781,-107.60272216796875
1773150806745975300,4.666975341796875,-36.87315368652344,125.77276611328125,-108.60887145996094
1773150806756077300,4.677077392578125,-35.74090576171875,127.14698791503906,-109.11331176757812
1773150806766178300,4.68717822265625,-35.07676696777344,128.15892028808594,-110.36572265625
1773150806776280300,4.6972802734375,-34.04383850097656,129.31146240234375,-111.38534545898438
1773150806786381300,4.70738134765625,-32.85542297363281,130.37173461914062,-112.36247253417969
1773150806796483300,4.7174833984375,-31.524993896484375,131.25515747070312,-113.34434509277344
1773150806806585300,4.72758544921875,-30.07000732421875,132.30206298828125,-114.69694519042969
1773150806816687400,4.737687255859375,-28.714279174804688,133.04078674316406,-115.69898986816406
1773150806826788400,4.747788330078125,-27.042892456054688,134.1159210205078,-116.73606872558594
1773150806836888300,4.757888427734375,-25.722793579101562,135.38560485839844,-117.436767578125
1773150806846990300,4.767990234375,-24.451629638671875,136.6401824951172,-117.38731384277344
1773150806857093400,4.77809326171875,-22.965682983398438,137.87991333007812,-117.65629577636719
1773150806867194400,4.7881943359375,-21.37469482421875,139.5601043701172,-117.4263916015625
1773150806877295400,4.79829541015625,-20.2421875,141.29473876953125,-116.73564147949219
1773150806887397400,4.8083974609375,-19.50653076171875,142.86253356933594,-115.69599914550781
1773150806897497300,4.818497314453125,-18.6116943359375,144.64166259765625,-114.19631958007812
1773150806907599400,4.828599365234375,-18.434158325195312,146.1453094482422,-112.66169738769531
1773150806917701000,4.838701171875,-17.900192260742188,147.76280212402344,-110.74002075195312
1773150806927802400,4.84880224609375,-17.346328735351562,148.90695190429688,-108.42433166503906
1773150806937904400,4.858904296875,-16.925918579101562,150.24403381347656,-106.02174377441406
1773150806948006400,4.86900634765625,-16.04266357421875,151.42147827148438,-103.2686767578125
1773150806958108400,4.8791083984375,-16.364089965820312,151.58514404296875,-100.57675170898438
1773150806968209200,4.889209228515625,-16.102020263671875,152.32577514648438,-97.97222900390625
1773150806978309400,4.899309326171875,-16.201812744140625,152.40341186523438,-95.18496704101562
1773150806988410400,4.909410400390625,-16.344223022460938,152.40695190429688,-92.50920104980469
1773150806998512400,4.919512451171875,-16.596710205078125,152.01022338867188,-90.31526184082031
1773150807008612400,4.9296123046875,-17.396728515625,151.39810180664062,-88.25697326660156
1773150807018713600,4.939713623046875,-17.72186279296875,150.50579833984375,-86.77593994140625
1773150807028814300,4.949814453125,-18.440139770507812,149.85671997070312,-85.06211853027344
1773150807038916400,4.959916259765625,-18.892654418945312,149.07603454589844,-83.61465454101562
1773150807049017300,4.970017333984375,-19.499755859375,148.01144409179688,-82.26536560058594
1773150807059119000,4.980119140625,-20.550537109375,147.20484924316406,-81.38655090332031
1773150807069219000,4.990218994140625,-20.903045654296875,146.328125,-80.08441162109375
1773150807079318300,5.000318359375,-21.303298950195312,145.2763214111328,-78.69334411621094
1773150807089418200,5.010418212890625,-21.037322998046875,144.89938354492188,-77.5474853515625
1773150807099517200,5.02051708984375,-21.702423095703125,143.95127868652344,-76.77830505371094
1773150807109619200,5.030619140625,-21.965316772460938,143.59866333007812,-75.97148132324219
1773150807119719200,5.04071923828125,-22.026687622070312,143.33448791503906,-75.67738342285156
1773150807129820200,5.050820068359375,-22.105224609375,143.0670928955078,-75.41107177734375
1773150807139919400,5.06091943359375,-22.11444091796875,143.02027893066406,-75.34158325195312
1773150807150019000,5.07101904296875,-22.267303466796875,142.93157958984375,-75.61930847167969
1773150807160118000,5.081117919921875,-22.224899291992188,142.97286987304688,-75.68743896484375
1773150807170218200,5.09121826171875,-22.69317626953125,142.7915496826172,-76.12063598632812
1773150807180320300,5.1013203125,-22.947158813476562,142.70794677734375,-76.26887512207031
1773150807190420200,5.111420166015625,-23.3857421875,142.4757843017578,-76.82577514648438
1773150807200521200,5.121521240234375,-23.757293701171875,142.62384033203125,-77.34672546386719
1773150807210623200,5.131623291015625,-23.66351318359375,142.65658569335938,-77.59330749511719
1773150807220724200,5.14172412109375,-24.050064086914062,142.72549438476562,-77.97254943847656
1773150807230825200,5.1518251953125,-23.596405029296875,142.90960693359375,-77.59196472167969
1773150807240925200,5.16192529296875,-23.854949951171875,142.78427124023438,-77.84512329101562
1773150807251025200,5.172025146484375,-24.013320922851562,142.98562622070312,-77.85922241210938
1773150807261126400,5.18212646484375,-24.289871215820312,142.5773468017578,-77.7349853515625
1773150807271227100,5.19222705078125,-24.636459350585938,142.36155700683594,-77.89888000488281
1773150807281328000,5.202328125,-24.620590209960938,141.98326110839844,-77.25750732421875
1773150807291430100,5.21243017578125,-24.652694702148438,142.08798217773438,-77.31796264648438
1773150807301532200,5.2225322265625,-24.616500854492188,141.7698516845703,-76.814453125
1773150807311633200,5.232633056640625,-24.6134033203125,141.39596557617188,-76.63273620605469
1773150807321736200,5.242736083984375,-24.908248901367188,141.6332550048828,-76.99441528320312
1773150807331838200,5.252838134765625,-24.967254638671875,141.35646057128906,-77.46588134765625
1773150807341941000,5.26294091796875,-25.570358276367188,141.4814910888672,-78.50868225097656
1773150807352043300,5.273043212890625,-26.431045532226562,141.60987854003906,-80.11801147460938
1773150807362143200,5.283143310546875,-27.219497680664062,141.4857940673828,-81.5885009765625
1773150807372243200,5.2932431640625,-27.309356689453125,141.4861602783203,-83.25025939941406
1773150807382344200,5.30334423828125,-28.103866577148438,141.57151794433594,-85.23304748535156
1773150807392446200,5.3134462890625,-28.116317749023438,141.87896728515625,-87.157958984375
1773150807402547200,5.323547119140625,-28.6287841796875,141.81588745117188,-89.13400268554688
1773150807412647200,5.333647216796875,-28.374008178710938,142.41311645507812,-90.91732788085938
1773150807422747100,5.3437470703125,-27.919723510742188,142.85548400878906,-92.37586975097656
1773150807432846300,5.353846435546875,-27.757614135742188,143.09344482421875,-93.87315368652344
1773150807442946300,5.3639462890625,-26.996612548828125,143.79550170898438,-94.97138977050781
1773150807453046000,5.3740458984375,-26.749343872070312,144.2939453125,-96.17475891113281
1773150807463147300,5.384147216796875,-25.739334106445312,144.65296936035156,-97.18157958984375
1773150807473248300,5.394248291015625,-25.32452392578125,144.8961181640625,-98.19453430175781
1773150807483351300,5.404351318359375,-25.059661865234375,145.47694396972656,-99.36271667480469
1773150807493452000,5.4144521484375,-24.425567626953125,145.82852172851562,-100.19248962402344
1773150807503553300,5.42455322265625,-23.832077026367188,146.0265655517578,-100.93704223632812
1773150807513654300,5.434654296875,-23.025360107421875,146.5932159423828,-101.54219055175781
1773150807523753200,5.444753173828125,-22.361785888671875,146.79869079589844,-102.13818359375
1773150807533854200,5.454854248046875,-22.082748413085938,146.90768432617188,-102.88786315917969
1773150807543954200,5.4649541015625,-21.875778198242188,147.05430603027344,-103.577880859375
1773150807554055200,5.47505517578125,-21.58160400390625,146.91505432128906,-104.22358703613281
1773150807564156400,5.485156494140625,-21.149932861328125,146.64532470703125,-104.76235961914062
1773150807574257200,5.495257080078125,-21.37841796875,146.48936462402344,-105.04791259765625
1773150807584358100,5.505358154296875,-21.153961181640625,146.7602081298828,-105.34823608398438
1773150807594460200,5.515460205078125,-20.960494995117188,146.7007598876953,-105.66285705566406
1773150807604563200,5.525563232421875,-20.931808471679688,146.9931182861328,-105.48783874511719
1773150807614665200,5.535665283203125,-20.53704833984375,147.02752685546875,-104.97453308105469
1773150807624767200,5.545767333984375,-20.624908447265625,147.14573669433594,-104.79217529296875
1773150807634869000,5.555868896484375,-20.284332275390625,147.20188903808594,-104.35694885253906
1773150807644971000,5.565970947265625,-20.40484619140625,147.5902557373047,-103.87870788574219
1773150807655073300,5.5760732421875,-20.622940063476562,147.23243713378906,-103.65419006347656
1773150807665175300,5.58617529296875,-20.747467041015625,147.48324584960938,-103.5526123046875
1773150807675277300,5.59627734375,-20.271102905273438,147.43594360351562,-104.07414245605469
1773150807685379300,5.60637939453125,-20.353286743164062,147.33023071289062,-104.79045104980469
1773150807695482400,5.616482421875,-19.806304931640625,147.33035278320312,-105.53726196289062
1773150807705583000,5.6265830078125,-19.428421020507812,147.23594665527344,-106.69120788574219
1773150807715685000,5.63668505859375,-18.886260986328125,147.29112243652344,-108.16455078125
1773150807725786000,5.6467861328125,-17.96527099609375,147.12942504882812,-109.54316711425781
1773150807735887400,5.656887451171875,-17.29571533203125,147.058837890625,-111.14155578613281
1773150807745988000,5.666988037109375,-16.756637573242188,146.45089721679688,-112.44096374511719
1773150807756090000,5.677090087890625,-16.298980712890625,146.28660583496094,-113.22941589355469
1773150807766193200,5.687193115234375,-16.217483520507812,145.87924194335938,-113.95167541503906
1773150807776296200,5.697296142578125,-16.33477783203125,145.67611694335938,-114.79141235351562
1773150807786398200,5.707398193359375,-16.756637573242188,145.02639770507812,-115.27253723144531
1773150807796500200,5.717500244140625,-17.074417114257812,144.6805877685547,-115.57272338867188
1773150807806601200,5.727601318359375,-17.488021850585938,144.1017608642578,-115.794921875
1773150807816701200,5.737701171875,-17.919586181640625,143.69993591308594,-116.56382751464844
1773150807826801400,5.747801513671875,-17.826797485351562,143.43496704101562,-117.05107116699219
1773150807836901000,5.757901123046875,-17.992218017578125,142.9688262939453,-117.58694458007812
1773150807847003100,5.768003173828125,-17.31500244140625,142.86907958984375,-118.05589294433594
1773150807857104400,5.7781044921875,-16.645660400390625,142.95948791503906,-118.87908935546875
1773150807867206100,5.7882060546875,-15.543426513671875,143.01290893554688,-119.58164978027344
1773150807877306000,5.79830615234375,-14.30694580078125,143.44859313964844,-120.28961181640625
1773150807887406000,5.808406005859375,-13.350006103515625,143.79922485351562,-120.85711669921875
1773150807897507000,5.818507080078125,-11.920501708984375,144.28195190429688,-120.95797729492188
1773150807907608300,5.8286083984375,-11.293563842773438,144.8130645751953,-120.94528198242188
1773150807917709000,5.838708984375,-10.690750122070312,145.22039794921875,-120.65681457519531
1773150807927811000,5.84881103515625,-9.769821166992188,145.42706298828125,-120.50502014160156
1773150807937913000,5.8589130859375,-9.290374755859375,146.2123260498047,-120.3856201171875
1773150807948014300,5.869014404296875,-8.111068725585938,146.5785675048828,-120.26461791992188
1773150807958116400,5.879116455078125,-7.773101806640625,146.70314025878906,-120.54196166992188
1773150807968216000,5.889216064453125,-6.83251953125,146.5920867919922,-120.66233825683594
1773150807978317300,5.8993173828125,-6.3613739013671875,146.46490478515625,-121.12493896484375
1773150807988417000,5.9094169921875,-6.0650634765625,146.1580352783203,-121.48501586914062
1773150807998518300,5.919518310546875,-5.6823883056640625,145.83070373535156,-121.77098083496094
1773150808008619000,5.929618896484375,-6.377166748046875,145.22348022460938,-122.39558410644531
1773150808018721000,5.939720947265625,-7.0001373291015625,144.7486572265625,-122.50531005859375
1773150808028821200,5.9498212890625,-7.470428466796875,144.27178955078125,-122.50363159179688
1773150808038922000,5.959921875,-9.058822631835938,144.05162048339844,-122.40737915039062
1773150808049022200,5.970022216796875,-10.24761962890625,144.02838134765625,-121.8916015625
1773150808059122400,5.980122314453125,-11.143157958984375,143.98367309570312,-121.39039611816406
1773150808069223400,5.990223388671875,-12.632644653320312,143.75454711914062,-120.65953063964844
1773150808079323400,6.000323486328125,-13.498321533203125,143.88470458984375,-119.7581787109375
1773150808089423400,6.01042333984375,-14.574081420898438,144.099609375,-118.62103271484375
1773150808099525000,6.020525146484375,-15.049880981445312,144.28321838378906,-118.07589721679688
1773150808109627100,6.030627197265625,-15.891448974609375,144.32786560058594,-117.01231384277344
1773150808119728400,6.040728271484375,-16.617584228515625,144.39190673828125,-116.24362182617188
1773150808129829400,6.050829345703125,-17.42352294921875,144.9434051513672,-115.66555786132812
1773150808139930400,6.060930419921875,-17.423660278320312,144.82376098632812,-115.08161926269531
1773150808150032400,6.071032470703125,-18.218978881835938,144.83660888671875,-114.91841125488281
1773150808160135200,6.08113525390625,-17.923675537109375,144.8705596923828,-114.70709228515625
1773150808170238200,6.09123828125,-18.180587768554688,144.60826110839844,-114.69554138183594
1773150808180340200,6.10134033203125,-17.913299560546875,144.7584991455078,-114.8477783203125
1773150808190441500,6.11144140625,-17.84466552734375,144.9362335205078,-114.76715087890625
1773150808200543500,6.12154345703125,-17.951019287109375,145.147705078125,-114.70999145507812
1773150808210645200,6.131645263671875,-17.716018676757812,145.31027221679688,-114.66265869140625
1773150808220746200,6.141746337890625,-17.579986572265625,145.54635620117188,-114.49052429199219
1773150808230849300,6.151849365234375,-17.039352416992188,145.79098510742188,-114.11123657226562
1773150808240950300,6.1619501953125,-16.872604370117188,145.9832763671875,-113.84779357910156
1773150808251051500,6.172051513671875,-17.085800170898438,146.15476989746094,-114.02798461914062
1773150808261153300,6.1821533203125,-16.973388671875,146.4690704345703,-113.67288208007812
1773150808271254300,6.192254150390625,-17.179550170898438,146.3810577392578,-113.29226684570312
1773150808281355300,6.202355224609375,-17.446258544921875,146.49490356445312,-112.97354125976562
1773150808291456300,6.212456298828125,-17.574600219726562,146.552734375,-112.73823547363281
1773150808301558300,6.222558349609375,-17.75494384765625,146.27638244628906,-112.26686096191406
1773150808311660300,6.232660400390625,-18.348251342773438,146.51255798339844,-111.87919616699219
1773150808321762300,6.24276220703125,-18.336944580078125,146.3968505859375,-111.61116027832031
1773150808331864300,6.2528642578125,-18.254562377929688,146.4259490966797,-111.24697875976562
1773150808341965300,6.26296533203125,-18.645187377929688,146.09136962890625,-111.04722595214844
1773150808352067300,6.2730673828125,-19.03826904296875,146.1869659423828,-111.35325622558594
1773150808362169300,6.28316943359375,-19.383499145507812,146.37106323242188,-111.4326171875
1773150808372270300,6.293270263671875,-19.388473510742188,146.10801696777344,-111.32566833496094
1773150808382372400,6.303372314453125,-19.3642578125,145.8920135498047,-111.34890747070312
1773150808392472300,6.313472412109375,-19.3914794921875,145.68502807617188,-111.4674072265625
1773150808402574300,6.32357421875,-19.215133666992188,145.6342010498047,-111.40902709960938
1773150808412675300,6.33367529296875,-19.24658203125,145.69540405273438,-111.66346740722656
1773150808422777300,6.34377734375,-19.226654052734375,145.63427734375,-111.71553039550781
1773150808432878300,6.35387841796875,-19.377822875976562,145.4901580810547,-111.67765808105469
1773150808442980400,6.36398046875,-19.425643920898438,145.21376037597656,-111.78105163574219
1773150808453080300,6.374080322265625,-19.32257080078125,145.51470947265625,-111.97491455078125
1773150808463181300,6.384181396484375,-19.49493408203125,145.1367645263672,-112.09370422363281
1773150808473282300,6.3942822265625,-19.406036376953125,145.20425415039062,-111.86984252929688
1773150808483383300,6.40438330078125,-19.755035400390625,144.98626708984375,-112.21791076660156
1773150808493485300,6.4144853515625,-19.752105712890625,144.9140167236328,-112.08984375
1773150808503587300,6.42458740234375,-19.94488525390625,145.00648498535156,-112.27326965332031
1773150808513690000,6.434690185546875,-20.055633544921875,144.89205932617188,-112.183837890625
1773150808523793200,6.444793212890625,-19.341964721679688,144.9786376953125,-112.11021423339844
1773150808533897500,6.4548974609375,-19.841796875,145.05035400390625,-112.53195190429688
1773150808544000500,6.46500048828125,-19.86090087890625,145.07150268554688,-112.51527404785156
1773150808554103300,6.475103271484375,-19.792221069335938,144.96160888671875,-112.32951354980469
1773150808564206300,6.485206298828125,-19.788803100585938,145.09527587890625,-112.50984191894531
1773150808574308400,6.495308349609375,-19.838516235351562,145.02401733398438,-112.51512145996094
1773150808584410400,6.505410400390625,-19.908538818359375,145.08468627929688,-112.53179931640625
1773150808594513400,6.515513427734375,-20.20263671875,145.13412475585938,-112.59584045410156
1773150808604614100,6.5256142578125,-20.019638061523438,145.0518798828125,-112.35415649414062
1773150808614715400,6.53571533203125,-20.203262329101562,145.14158630371094,-112.326904296875
1773150808624818400,6.545818359375,-20.438568115234375,144.9486846923828,-112.27911376953125
1773150808634920400,6.55592041015625,-20.457046508789062,144.8405303955078,-112.07893371582031
1773150808645023200,6.566023193359375,-20.9046630859375,144.9827117919922,-112.00910949707031
1773150808655125500,6.57612548828125,-20.981155395507812,144.76885986328125,-111.58699035644531
1773150808665227500,6.5862275390625,-21.461502075195312,145.0246124267578,-111.309814453125
1773150808675330300,6.596330322265625,-21.871337890625,144.69677734375,-111.09727478027344
1773150808685433300,6.606433349609375,-22.264129638671875,144.72715759277344,-110.57164001464844
1773150808695536400,6.616536376953125,-23.190628051757812,144.4584197998047,-109.99909973144531
1773150808705639400,6.626639404296875,-23.718551635742188,144.30796813964844,-109.22689819335938
1773150808715742500,6.636742431640625,-24.450088500976562,144.03778076171875,-108.2230224609375
1773150808725845200,6.64684521484375,-25.246536254882812,143.95895385742188,-107.44694519042969
1773150808735947300,6.656947265625,-25.9849853515625,143.3490447998047,-106.52012634277344
1773150808746049300,6.66704931640625,-26.936721801757812,143.12208557128906,-105.45614624023438
1773150808756149200,6.677149169921875,-27.46630859375,142.73004150390625,-104.56459045410156
1773150808766251300,6.687251220703125,-28.391525268554688,142.24400329589844,-103.8114013671875
1773150808776353300,6.697353271484375,-29.247299194335938,141.5160369873047,-103.14450073242188
1773150808786454300,6.707454345703125,-29.859848022460938,140.82127380371094,-102.46871948242188
1773150808796556300,6.717556396484375,-30.333206176757812,140.25889587402344,-102.1231689453125
1773150808806658300,6.727658203125,-31.078170776367188,139.52481079101562,-101.86929321289062
1773150808816758300,6.73775830078125,-31.8377685546875,138.79135131835938,-102.13552856445312
1773150808826858200,6.747858154296875,-31.88824462890625,137.781494140625,-102.35983276367188
1773150808836959500,6.75795947265625,-32.46327209472656,137.41517639160156,-102.99620056152344
1773150808847061500,6.7680615234375,-32.686767578125,136.6913299560547,-103.28717041015625
1773150808857162200,6.778162353515625,-32.84228515625,136.0104522705078,-103.08775329589844
1773150808867264300,6.78826416015625,-33.22358703613281,135.8640594482422,-103.40934753417969
1773150808877365200,6.798365234375,-33.43206787109375,135.53797912597656,-102.982421875
1773150808887468300,6.80846826171875,-33.450439453125,135.40333557128906,-102.67379760742188
1773150808897570300,6.8185703125,-33.574493408203125,135.28631591796875,-102.44776916503906
1773150808907671300,6.82867138671875,-33.93757629394531,135.0737762451172,-102.30276489257812
1773150808917772300,6.838772216796875,-33.98377990722656,135.0680389404297,-102.12017822265625
1773150808927874300,6.848874267578125,-34.00526428222656,134.9868621826172,-101.66000366210938
1773150808937975300,6.858975341796875,-33.9439697265625,135.29763793945312,-101.75393676757812
1773150808948077300,6.869077392578125,-33.67094421386719,135.88873291015625,-101.54182434082031
1773150808958178300,6.87917822265625,-33.49925231933594,135.88858032226562,-101.48884582519531
1773150808968280300,6.8892802734375,-33.43635559082031,136.28045654296875,-101.4952392578125
1773150808978383400,6.89938330078125,-33.12336730957031,136.457275390625,-101.38821411132812
1773150808988484400,6.909484375,-33.34974670410156,137.11746215820312,-101.41534423828125
1773150808998586400,6.91958642578125,-32.55967712402344,137.69583129882812,-101.39045715332031
1773150809008687400,6.929687255859375,-32.55450439453125,137.6263885498047,-101.590087890625
1773150809018787300,6.939787353515625,-32.21588134765625,138.1232452392578,-102.19273376464844
1773150809028888300,6.949888427734375,-31.892654418945312,138.43875122070312,-102.69044494628906
1773150809038990300,6.959990234375,-31.467071533203125,138.30308532714844,-103.52984619140625
1773150809049092400,6.97009228515625,-30.962890625,138.47671508789062,-104.12196350097656
1773150809059195000,6.98019482421875,-31.162796020507812,138.67886352539062,-105.07582092285156
1773150809069295900,6.9902958984375,-30.944473266601562,138.34591674804688,-105.44842529296875
1773150809079398000,7.00039794921875,-31.23785400390625,138.47251892089844,-105.51116943359375
1773150809089499600,7.010499755859375,-31.279739379882812,137.81114196777344,-105.29063415527344
1773150809099601700,7.0206015625,-31.55084228515625,137.4927215576172,-104.948974609375
1773150809109703000,7.030702880859375,-31.90594482421875,137.28854370117188,-104.70849609375
1773150809119805000,7.040804931640625,-32.312255859375,137.1027069091797,-104.31405639648438
1773150809129908000,7.050907958984375,-32.42425537109375,136.88926696777344,-103.83392333984375
1773150809140010000,7.061010009765625,-32.5145263671875,136.82701110839844,-103.41786193847656
1773150809150112000,7.071112060546875,-32.32823181152344,136.63670349121094,-103.09971618652344
1773150809160213800,7.0812138671875,-32.895538330078125,136.68869018554688,-102.648681640625
1773150809170314800,7.091314697265625,-33.161865234375,136.59840393066406,-102.21510314941406
1773150809180416800,7.101416748046875,-33.2445068359375,136.3494110107422,-101.56204223632812
1773150809190518000,7.11151806640625,-33.22496032714844,136.467041015625,-101.12294006347656
1773150809200617700,7.12161767578125,-33.340362548828125,136.13392639160156,-100.56156921386719
1773150809210718000,7.131718017578125,-33.3009033203125,136.43910217285156,-100.12249755859375
1773150809220818700,7.141818603515625,-33.45314025878906,136.68617248535156,-99.65579223632812
1773150809230919000,7.1519189453125,-33.32319641113281,136.7342071533203,-99.18386840820312
1773150809241019000,7.162018798828125,-33.291961669921875,136.8257293701172,-98.93379211425781
1773150809251119900,7.172119873046875,-33.38728332519531,136.59451293945312,-99.04769897460938
1773150809261222000,7.182221923828125,-33.29656982421875,136.95562744140625,-99.30799865722656
1773150809271324000,7.192323974609375,-33.29252624511719,136.8083953857422,-99.88279724121094
1773150809281425700,7.20242578125,-33.09327697753906,137.0054168701172,-100.3463134765625
1773150809291527700,7.212527587890625,-32.740814208984375,136.83242797851562,-101.26876831054688
1773150809301630700,7.222630615234375,-33.10719299316406,136.84371948242188,-101.76683044433594
1773150809311732700,7.232732666015625,-32.94404602050781,136.99464416503906,-102.33177185058594
1773150809321834800,7.242834716796875,-32.945343017578125,136.56956481933594,-102.73811340332031
1773150809331937800,7.252937744140625,-32.68070983886719,136.68959045410156,-102.94837951660156
1773150809342038800,7.263038818359375,-32.55938720703125,136.650390625,-103.62149047851562
1773150809352139800,7.273139892578125,-32.472930908203125,136.62576293945312,-104.16937255859375
1773150809362241800,7.28324169921875,-32.487030029296875,136.61228942871094,-104.77531433105469
1773150809372343800,7.29334375,-32.56849670410156,136.4822540283203,-105.18254089355469
1773150809382444800,7.30344482421875,-32.47297668457031,136.48094177246094,-105.36798095703125
1773150809392544800,7.313544677734375,-32.58695983886719,135.9249267578125,-105.69091796875
1773150809402645800,7.323645751953125,-32.74629211425781,135.2257843017578,-105.51026916503906
1773150809412747000,7.3337470703125,-33.07330322265625,134.63490295410156,-105.00288391113281
1773150809422847700,7.34384765625,-33.83949279785156,133.9364776611328,-104.27278137207031
1773150809432948700,7.35394873046875,-34.12324523925781,133.4359588623047,-103.02825927734375
1773150809443050000,7.364050048828125,-34.26835632324219,133.14361572265625,-101.85037231445312
1773150809453150700,7.374150634765625,-34.79093933105469,132.90615844726562,-100.70066833496094
1773150809463251000,7.3842509765625,-34.8297119140625,132.42056274414062,-99.38607788085938
1773150809473350700,7.3943505859375,-35.210723876953125,132.0316619873047,-98.13348388671875
1773150809483452700,7.40445263671875,-35.8751220703125,131.28872680664062,-97.22430419921875
1773150809493554000,7.414553955078125,-36.13072204589844,130.3795928955078,-96.72541809082031
1773150809503656000,7.424656005859375,-36.10313415527344,130.62991333007812,-96.655517578125
1773150809513756700,7.434756591796875,-36.35511779785156,130.09278869628906,-96.77780151367188
1773150809523858000,7.44485791015625,-36.2457275390625,129.44961547851562,-96.30023193359375
1773150809533960000,7.4549599609375,-36.723876953125,128.8489532470703,-95.79525756835938
1773150809544062000,7.46506201171875,-36.98545837402344,128.0702667236328,-94.95071411132812
1773150809554162700,7.47516259765625,-37.25299072265625,127.41374206542969,-94.28147888183594
1773150809564263000,7.485262939453125,-37.25323486328125,127.11671447753906,-94.07856750488281
1773150809574363600,7.49536376953125,-37.25993347167969,126.92167663574219,-94.19009399414062
1773150809584466700,7.505466796875,-37.48974609375,126.49176025390625,-94.67941284179688
1773150809594567700,7.515567626953125,-37.537353515625,125.92170715332031,-95.06770324707031
1773150809604669700,7.525669677734375,-37.55815124511719,125.21360778808594,-95.58436584472656
1773150809614772000,7.53577197265625,-37.79095458984375,124.43638610839844,-96.3089599609375
1773150809624873000,7.545873046875,-38.28132629394531,123.81138610839844,-97.34376525878906
1773150809634973700,7.5559736328125,-38.37174987792969,123.08932495117188,-98.06829833984375
1773150809645074000,7.566073974609375,-38.267791748046875,122.71235656738281,-98.40647888183594
1773150809655174000,7.576173828125,-38.273040771484375,122.23104858398438,-98.65554809570312
1773150809665273900,7.58627392578125,-38.30206298828125,122.02224731445312,-98.4853515625
1773150809675372800,7.596372802734375,-38.45404052734375,121.59280395507812,-98.46588134765625
1773150809685472800,7.60647265625,-38.578857421875,121.49891662597656,-98.39533996582031
1773150809695572000,7.616572021484375,-38.7938232421875,120.99557495117188,-97.84051513671875
1773150809705671000,7.6266708984375,-38.94914245605469,120.71148681640625,-97.34365844726562
1773150809715769900,7.636769775390625,-38.89338684082031,120.56057739257812,-96.86346435546875
1773150809725867800,7.64686767578125,-39.321868896484375,120.43858337402344,-96.99531555175781
1773150809735968000,7.656968017578125,-38.981170654296875,119.90826416015625,-96.91061401367188
1773150809746066700,7.667066650390625,-39.16645812988281,119.64961242675781,-96.98167419433594
1773150809756165600,7.67716552734375,-39.155242919921875,119.29884338378906,-96.97830200195312
1773150809766265900,7.687265869140625,-39.24664306640625,118.95074462890625,-96.98886108398438
1773150809776364800,7.69736474609375,-39.59590148925781,118.44474792480469,-97.24397277832031
1773150809786465000,7.707465087890625,-39.09278869628906,118.10917663574219,-97.58203125
1773150809796564700,7.717564697265625,-39.43449401855469,117.89115905761719,-97.98272705078125
1773150809806664700,7.727664794921875,-39.52128601074219,117.32652282714844,-97.97904968261719
1773150809816765000,7.737764892578125,-39.3779296875,117.20793151855469,-98.0338134765625
1773150809826864600,7.74786474609375,-39.88676452636719,116.55197143554688,-98.13262939453125
1773150809836963800,7.7579638671875,-39.83601379394531,116.39453125,-98.27806091308594
1773150809847063800,7.768063720703125,-40.12147521972656,115.93580627441406,-98.447998046875
1773150809857164000,7.7781640625,-40.070892333984375,115.83760070800781,-98.32421875
1773150809867265800,7.788265869140625,-40.12370300292969,115.29728698730469,-98.49781799316406
1773150809877366800,7.79836669921875,-39.93536376953125,115.40170288085938,-98.61605834960938
1773150809887467800,7.8084677734375,-40.204376220703125,114.89324951171875,-98.65238952636719
1773150809897568800,7.81856884765625,-40.23176574707031,114.566650390625,-98.74406433105469
1773150809907669800,7.828669677734375,-40.04826354980469,114.48640441894531,-98.58750915527344
1773150809917768700,7.838768798828125,-40.755584716796875,113.99085998535156,-98.78938293457031
1773150809927869700,7.84886962890625,-40.69757080078125,114.05763244628906,-98.90693664550781
1773150809937970000,7.858969970703125,-40.23240661621094,113.99165344238281,-99.02479553222656
1773150809948070000,7.86906982421875,-40.53492736816406,113.76640319824219,-99.15811157226562
1773150809958169600,7.879169677734375,-40.38726806640625,113.53073120117188,-99.27880859375
1773150809968269800,7.889269775390625,-40.311859130859375,113.34126281738281,-99.8604736328125
1773150809978370800,7.899370849609375,-40.4112548828125,113.28530883789062,-100.13548278808594
1773150809988470800,7.909470703125,-40.58811950683594,113.19772338867188,-100.39395141601562
1773150809998571000,7.919571044921875,-40.60337829589844,112.96745300292969,-100.4056396484375
1773150810008670000,7.929669921875,-40.411346435546875,113.05317687988281,-100.59568786621094
1773150810018769700,7.939769775390625,-40.69390869140625,112.83885192871094,-100.94248962402344
1773150810028868900,7.949868896484375,-40.678314208984375,112.5604248046875,-100.90330505371094
1773150810038967800,7.9599677734375,-40.714752197265625,112.50248718261719,-101.06698608398438
1773150810049067800,7.97006787109375,-40.19073486328125,112.31416320800781,-100.85372924804688
1773150810059167700,7.980167724609375,-40.49211120605469,112.42561340332031,-101.26335144042969
1773150810069267700,7.990267822265625,-40.61082458496094,112.0843505859375,-101.44012451171875
1773150810079368700,8.00036865234375,-40.7220458984375,111.84695434570312,-101.36001586914062
1773150810089468700,8.01046875,-40.77778625488281,111.54327392578125,-101.41903686523438
1773150810099570000,8.02056982421875,-40.6898193359375,111.682373046875,-101.46173095703125
1773150810109668600,8.030668701171875,-40.9686279296875,111.11833190917969,-101.61946105957031
1773150810119768600,8.0407685546875,-40.462432861328125,110.98428344726562,-101.8511962890625
1773150810129867800,8.05086767578125,-40.53607177734375,110.85185241699219,-102.08352661132812
1773150810139966700,8.060966796875,-40.73907470703125,110.36433410644531,-102.17758178710938
1773150810150065700,8.071065673828125,-40.54512023925781,110.30984497070312,-102.07089233398438
1773150810160164600,8.08116455078125,-40.55204772949219,110.06178283691406,-102.21781921386719
1773150810170263800,8.091263916015626,-40.75874328613281,110.11003112792969,-102.25094604492188
1773150810180364500,8.101364501953125,-40.60992431640625,110.08724975585938,-102.33642578125
1773150810190463700,8.111463623046875,-40.430328369140625,110.09327697753906,-102.29859924316406
1773150810200562700,8.121562744140626,-40.55499267578125,109.86233520507812,-102.23808288574219
1773150810210659800,8.131659912109376,-40.771484375,109.74667358398438,-102.23283386230469
1773150810220756700,8.1417568359375,-41.03587341308594,109.40675354003906,-101.97929382324219
1773150810230855700,8.151855712890624,-40.66630554199219,109.23056030273438,-102.12042236328125
1773150810240954600,8.16195458984375,-40.61015319824219,109.24969482421875,-102.04841613769531
1773150810251054800,8.172054931640625,-41.00732421875,109.00634765625,-102.10052490234375
1773150810261154600,8.182154541015626,-40.87495422363281,109.00318908691406,-102.119873046875
1773150810271254800,8.1922548828125,-40.83387756347656,108.84251403808594,-102.20722961425781
1773150810281354800,8.202354736328125,-40.58393859863281,108.83216857910156,-102.05734252929688
1773150810291455700,8.212455810546874,-40.68695068359375,108.71560668945312,-101.84487915039062
1773150810301555700,8.2225556640625,-41.006866455078125,108.81924438476562,-101.89059448242188
1773150810311655700,8.23265576171875,-40.89195251464844,108.86885070800781,-101.73086547851562
1773150810321753900,8.24275390625,-40.927978515625,108.92369079589844,-101.74855041503906
1773150810331851800,8.252851806640624,-40.80384826660156,108.9149169921875,-101.57666015625
1773150810341951500,8.262951416015625,-40.838653564453125,108.72775268554688,-101.3468017578125
1773150810352050700,8.27305078125,-40.816741943359375,108.72372436523438,-101.26689147949219
1773150810362149600,8.283149658203126,-40.7042236328125,108.73333740234375,-101.04914855957031
1773150810372248600,8.29324853515625,-40.83869934082031,108.79084777832031,-100.84228515625
1773150810382348800,8.303348876953125,-41.04901123046875,109.174072265625,-100.74681091308594
1773150810392447700,8.31344775390625,-41.03349304199219,109.322998046875,-100.71231079101562
1773150810402546700,8.323546630859376,-41.010284423828125,109.60993957519531,-100.59664916992188
1773150810412645600,8.333645751953124,-41.20849609375,109.8505859375,-100.27171325683594
1773150810422743800,8.343743896484375,-41.07441711425781,109.89710998535156,-99.95375061035156
1773150810432842800,8.3538427734375,-40.87347412109375,110.15603637695312,-99.50605773925781
1773150810442942700,8.363942626953126,-41.21723937988281,110.31965637207031,-99.4400634765625
1773150810453041700,8.374041748046874,-41.184356689453125,110.50869750976562,-99.27192687988281
1773150810463141600,8.3841416015625,-41.178070068359375,111.01203918457031,-98.88568115234375
1773150810473240600,8.394240478515625,-41.085052490234375,111.29521179199219,-98.65641784667969
1773150810483340800,8.4043408203125,-41.06736755371094,111.63323974609375,-98.67236328125
1773150810493440500,8.4144404296875,-41.14930725097656,112.04701232910156,-98.32637023925781
1773150810503540700,8.424540771484375,-41.1983642578125,112.4188232421875,-98.2340087890625
1773150810513640700,8.434640625,-41.138946533203125,112.44976806640625,-98.01657104492188
1773150810523739600,8.44473974609375,-41.075958251953125,113.25556945800781,-97.79330444335938
1773150810533838800,8.4548388671875,-40.934844970703125,113.53787231445312,-97.78173828125
1773150810543936800,8.464936767578125,-41.02117919921875,113.91197204589844,-97.48197937011719
1773150810554035700,8.47503564453125,-40.983245849609375,114.44572448730469,-97.40478515625
1773150810564135700,8.4851357421875,-40.85942077636719,114.98304748535156,-97.34303283691406
1773150810574232600,8.495232666015625,-40.789398193359375,115.6025390625,-96.91748046875
1773150810584331800,8.505331787109375,-40.94694519042969,115.99472045898438,-96.76541137695312
1773150810594430700,8.5154306640625,-41.105804443359375,116.42715454101562,-96.73178100585938
1773150810604530700,8.52553076171875,-40.84088134765625,116.70509338378906,-96.62071228027344
1773150810614629600,8.535629638671875,-40.45005798339844,117.52226257324219,-96.39569091796875
1773150810624728600,8.545728515625,-40.50160217285156,117.94097900390625,-96.05403137207031
1773150810634826800,8.55582666015625,-40.55818176269531,118.49880981445312,-96.05119323730469
1773150810644926700,8.5659267578125,-40.47247314453125,119.03787231445312,-95.89146423339844
1773150810655025700,8.576025634765625,-40.48670959472656,119.25637817382812,-95.74429321289062
1773150810665125600,8.586125732421875,-40.09803771972656,120.0931396484375,-95.60092163085938
1773150810675225900,8.596225830078126,-39.99125671386719,120.37950134277344,-95.29093933105469
1773150810685325600,8.60632568359375,-39.7222900390625,120.70896911621094,-95.04669189453125
1773150810695425800,8.61642578125,-39.72621154785156,121.44430541992188,-95.17404174804688
1773150810705526500,8.626526611328124,-39.818359375,122.16160583496094,-95.137939453125
1773150810715625700,8.636625732421875,-39.48396301269531,122.66307067871094,-94.91130065917969
1773150810725725700,8.6467255859375,-39.656494140625,122.83102416992188,-94.73812866210938
1773150810735826700,8.65682666015625,-39.73045349121094,123.34684753417969,-94.66853332519531
1773150810745927700,8.666927734375,-39.14518737792969,123.97537231445312,-94.49259948730469
1773150810756026600,8.677026611328126,-38.96266174316406,124.47128295898438,-94.59410095214844
1773150810766127600,8.687127685546875,-38.70506286621094,124.70361328125,-94.01866149902344
1773150810776227800,8.697227783203125,-38.49067687988281,125.31573486328125,-94.34056091308594
1773150810786326500,8.707326416015626,-38.595184326171875,125.92091369628906,-94.25384521484375
1773150810796426800,8.7174267578125,-38.74476623535156,126.08824157714844,-94.10137939453125
1773150810806525700,8.727525634765625,-38.314544677734375,126.8189697265625,-94.1956787109375
1773150810816625700,8.737625732421876,-38.3660888671875,127.16629028320312,-93.81570434570312
1773150810826726700,8.7477265625,-38.256988525390625,127.69740295410156,-93.98416137695312
1773150810836827000,8.757826904296875,-38.205291748046875,128.2126922607422,-93.85368347167969
1773150810846926600,8.767926513671876,-37.6641845703125,128.68722534179688,-94.1300048828125
1773150810857026600,8.778026611328125,-37.692230224609375,129.04391479492188,-93.92539978027344
1773150810867126800,8.788126708984375,-37.4302978515625,129.64051818847656,-93.99652099609375
1773150810877227800,8.798227783203124,-36.70701599121094,130.1346893310547,-94.16023254394531
1773150810887328500,8.80832861328125,-36.74043273925781,130.64976501464844,-94.27104187011719
1773150810897428700,8.8184287109375,-36.775054931640625,131.3063201904297,-94.43617248535156
1773150810907528700,8.82852880859375,-36.1834716796875,131.881591796875,-94.33322143554688
1773150810917628700,8.838628662109375,-36.12872314453125,132.37478637695312,-94.44822692871094
1773150810927728600,8.848728759765624,-36.09855651855469,133.07118225097656,-94.49494934082031
1773150810937829600,8.85882958984375,-35.672821044921875,133.42596435546875,-94.50364685058594
1773150810947930600,8.8689306640625,-35.394989013671875,133.9750518798828,-94.53669738769531
1773150810958029800,8.87902978515625,-35.2572021484375,134.0613555908203,-95.01165771484375
1773150810968130600,8.889130615234375,-35.34832763671875,134.33094787597656,-96.16261291503906
1773150810978230800,8.899230712890626,-35.28955078125,134.2062530517578,-97.41363525390625
1773150810988330500,8.90933056640625,-35.02827453613281,133.9402313232422,-98.91476440429688
1773150810998432500,8.9194326171875,-34.93194580078125,133.63990783691406,-100.45681762695312
1773150811008533800,8.92953369140625,-34.777496337890625,133.51742553710938,-101.74186706542969
1773150811018635800,8.9396357421875,-34.53355407714844,133.60916137695312,-102.88130187988281
1773150811028736500,8.949736572265625,-34.64668273925781,133.38543701171875,-103.23919677734375
1773150811038838500,8.959838623046876,-34.50166320800781,133.64138793945312,-103.04818725585938
1773150811048939800,8.969939697265625,-34.538543701171875,134.29258728027344,-102.57167053222656
1773150811059037000,8.980036865234375,-34.347869873046875,134.3510284423828,-101.35514831542969
1773150811069139000,8.990138916015624,-34.3101806640625,134.76559448242188,-100.88446044921875
1773150811079240200,9.000240234375,-34.35905456542969,134.95318603515625,-100.59927368164062
1773150811089340000,9.01033984375,-34.37895202636719,134.85560607910156,-100.34080505371094
1773150811099441200,9.020441162109375,-34.30613708496094,134.69847106933594,-100.17399597167969
1773150811109543200,9.030543212890626,-34.51823425292969,134.53140258789062,-100.21844482421875
1773150811119644200,9.04064404296875,-34.69017028808594,134.27085876464844,-100.09133911132812
1773150811129745000,9.050744873046876,-34.812591552734375,133.8745574951172,-99.41998291015625
1773150811139847200,9.06084716796875,-35.03282165527344,133.98553466796875,-98.6080322265625
1773150811149950000,9.070949951171874,-35.211273193359375,133.85040283203125,-97.40045166015625
1773150811160051200,9.08105126953125,-35.32550048828125,133.85606384277344,-96.59355163574219
1773150811170152000,9.09115185546875,-35.19560241699219,134.01625061035156,-95.38133239746094
1773150811180252200,9.101252197265625,-35.18931579589844,134.62646484375,-94.43443298339844
1773150811190352000,9.111351806640625,-34.736968994140625,135.28358459472656,-93.90663146972656
1773150811200454000,9.121453857421875,-34.26934814453125,135.989501953125,-93.7623291015625
1773150811210555100,9.13155517578125,-33.59019470214844,136.79501342773438,-94.15939331054688
1773150811220656000,9.14165625,-33.30741882324219,137.47946166992188,-94.99699401855469
1773150811230756000,9.151756103515625,-32.797515869140625,138.16720581054688,-95.60676574707031
1773150811240856000,9.16185595703125,-32.15678405761719,139.04507446289062,-96.43553161621094
1773150811250956000,9.1719560546875,-31.858917236328125,139.2042236328125,-97.46035766601562
1773150811261056000,9.182055908203125,-32.00950622558594,139.39999389648438,-98.55931091308594
1773150811271157000,9.192156982421874,-31.583160400390625,139.4080352783203,-100.11399841308594
1773150811281257200,9.20225732421875,-31.278457641601562,139.31808471679688,-101.33351135253906
1773150811291357000,9.21235693359375,-30.757156372070312,139.95396423339844,-102.46711730957031
1773150811301458200,9.222458251953125,-30.52288818359375,139.92897033691406,-103.86192321777344
1773150811311558000,9.232557861328125,-29.744247436523438,140.15261840820312,-104.7080078125
1773150811321658000,9.242658203125,-29.2850341796875,140.68911743164062,-105.67845153808594
1773150811331758000,9.252758056640625,-28.57098388671875,141.052001953125,-106.5023193359375
1773150811341859000,9.262859130859376,-27.663421630859375,141.39683532714844,-107.40982055664062
1773150811351960000,9.2729599609375,-27.037384033203125,141.76890563964844,-108.35794067382812
1773150811362060000,9.28306005859375,-26.642135620117188,141.89920043945312,-109.30712890625
1773150811372160000,9.293159912109376,-25.971588134765625,142.32762145996094,-110.01121520996094
1773150811382258200,9.303258056640624,-24.754714965820312,142.95132446289062,-110.80807495117188
1773150811392357000,9.313357177734375,-24.235519409179688,143.61221313476562,-111.24342346191406
1773150811402457000,9.32345703125,-23.482879638671875,143.9315185546875,-111.09568786621094
1773150811412557000,9.33355712890625,-23.28961181640625,144.60104370117188,-110.99311828613281
1773150811422657000,9.343656982421875,-22.598129272460938,145.10093688964844,-110.73779296875
1773150811432758000,9.353758056640626,-22.141632080078125,145.4239959716797,-110.52546691894531
1773150811442858000,9.36385791015625,-22.385726928710938,145.30201721191406,-110.59895324707031
1773150811452958200,9.373958251953125,-22.70684814453125,145.15797424316406,-110.52069091796875
1773150811463058000,9.384057861328126,-23.035293579101562,144.56507873535156,-110.88615417480469
1773150811473158100,9.394158203125,-23.121307373046875,144.1017303466797,-111.14366149902344
1773150811483259000,9.4042587890625,-23.2166748046875,143.80189514160156,-111.27346801757812
1773150811493359000,9.414359130859374,-23.25372314453125,143.38580322265625,-111.98460388183594
1773150811503459000,9.424458984375,-23.484725952148438,143.2818603515625,-112.52607727050781
1773150811513559000,9.43455908203125,-23.232330322265625,142.9975128173828,-112.52015686035156
1773150811523660000,9.444659912109374,-22.8597412109375,142.83001708984375,-112.54866027832031
1773150811533760000,9.454760009765625,-22.672500610351562,143.0987091064453,-112.64675903320312
1773150811543860000,9.46485986328125,-22.508865356445312,143.50730895996094,-112.60287475585938
1773150811553961000,9.4749609375,-22.352508544921875,143.81825256347656,-112.36199951171875
1773150811564061200,9.485061279296875,-22.414291381835938,144.4951171875,-111.96697998046875
1773150811574160100,9.49516015625,-22.384201049804688,144.6190948486328,-111.07792663574219
1773150811584260000,9.505260009765625,-22.964523315429688,145.05201721191406,-109.92127990722656
1773150811594360000,9.515360107421875,-23.341079711914062,145.13067626953125,-108.56468200683594
1773150811604459000,9.525458984375,-24.093704223632812,145.03195190429688,-107.18084716796875
1773150811614559200,9.535559326171875,-25.078292846679688,144.87298583984375,-106.02171325683594
1773150811624659000,9.545658935546875,-25.422958374023438,144.7344207763672,-104.70440673828125
1773150811634758000,9.5557578125,-25.82440185546875,144.6034393310547,-104.05055236816406
1773150811644859100,9.565859130859375,-25.953842163085938,144.7001495361328,-103.76966857910156
1773150811654960000,9.575960205078125,-25.829620361328125,144.6637420654297,-103.71659851074219
1773150811665060000,9.58606005859375,-25.746963500976562,144.79217529296875,-104.18759155273438
1773150811675161000,9.5961611328125,-25.133499145507812,144.95008850097656,-104.84428405761719
1773150811685262000,9.606261962890626,-25.341232299804688,144.9789276123047,-105.83564758300781
1773150811695363000,9.616363037109375,-24.695541381835938,144.97340393066406,-107.10969543457031
1773150811705465000,9.626465087890624,-23.637832641601562,145.31410217285156,-108.2552490234375
1773150811715566000,9.636566162109375,-23.41455078125,145.10633850097656,-109.54627990722656
1773150811725667000,9.6466669921875,-22.727096557617188,145.22476196289062,-110.60475158691406
1773150811735769000,9.65676904296875,-22.556686401367188,145.1912841796875,-111.62379455566406
1773150811745871000,9.66687109375,-21.843704223632812,145.1624298095703,-111.921142578125
1773150811755971000,9.67697119140625,-21.671905517578125,145.0809326171875,-111.96376037597656
1773150811766070000,9.687070068359375,-21.723892211914062,145.3689422607422,-111.98117065429688
1773150811776170000,9.697169921875,-22.037857055664062,145.11964416503906,-111.7808837890625
1773150811786269000,9.70726904296875,-22.305694580078125,145.03260803222656,-111.68960571289062
1773150811796369200,9.717369140625,-22.419387817382812,144.8435821533203,-111.58140563964844
1773150811806468900,9.72746875,-22.725967407226562,144.80776977539062,-111.30996704101562
1773150811816569000,9.737569091796875,-22.511398315429688,145.05604553222656,-111.12762451171875
1773150811826670000,9.747670166015626,-22.639022827148438,145.1664276123047,-111.38784790039062
1773150811836769000,9.75776904296875,-22.578994750976562,145.0464630126953,-111.26103210449219
1773150811846870000,9.7678701171875,-22.492462158203125,145.36802673339844,-111.12889099121094
1773150811856971000,9.777970947265626,-22.126998901367188,145.46054077148438,-111.15914916992188
1773150811867071200,9.7880712890625,-22.227569580078125,145.46536254882812,-110.79298400878906
1773150811877173000,9.798173095703126,-22.467132568359375,145.8196258544922,-110.81007385253906
1773150811887273000,9.80827294921875,-22.862503051757812,145.44485473632812,-110.38075256347656
1773150811897374200,9.818374267578125,-23.18707275390625,145.3348846435547,-110.18006896972656
1773150811907475000,9.828474853515624,-23.580917358398438,145.15293884277344,-109.90892028808594
1773150811917575200,9.8385751953125,-24.256759643554688,144.79385375976562,-109.25473022460938
1773150811927676000,9.848676025390626,-25.059326171875,144.2517852783203,-108.57000732421875
1773150811937778000,9.85877783203125,-25.937545776367188,143.91310119628906,-107.97927856445312
1773150811947880000,9.8688798828125,-26.631881713867188,143.47393798828125,-107.11753845214844
1773150811957981200,9.878981201171875,-27.391921997070312,143.12661743164062,-106.19851684570312
1773150811968082000,9.88908203125,-27.905776977539062,142.3474578857422,-105.18589782714844
1773150811978183000,9.899182861328125,-29.217025756835938,142.0588836669922,-104.05722045898438
1773150811988283100,9.909283203125,-30.010040283203125,141.1859893798828,-103.15708923339844
1773150811998383900,9.9193837890625,-30.725311279296875,140.6318817138672,-101.80522155761719
1773150812008485000,9.929485107421876,-31.399871826171875,139.86306762695312,-100.60527038574219
1773150812018586000,9.939586181640625,-32.23492431640625,139.0419921875,-99.62652587890625
1773150812028687000,9.94968701171875,-33.051727294921875,138.1011199951172,-98.89936828613281
1773150812038787000,9.959787109375,-33.51780700683594,137.41033935546875,-98.65487670898438
1773150812048889000,9.96988916015625,-33.81526184082031,136.78811645507812,-98.84007263183594
1773150812058989600,9.979989501953124,-34.19529724121094,136.02430725097656,-99.22518920898438
1773150812069088500,9.990088623046875,-34.38873291015625,135.38143920898438,-100.02485656738281
1773150812079188500,10.0001884765625,-34.56971740722656,134.52626037597656,-100.40554809570312
1773150812089289700,10.010289794921874,-34.87211608886719,133.84291076660156,-100.6279296875
1773150812099390500,10.020390380859375,-35.19270324707031,133.22190856933594,-100.50990295410156
1773150812109489700,10.03048974609375,-35.71527099609375,132.59893798828125,-100.18330383300781
1773150812119589600,10.040589599609374,-35.94972229003906,132.23406982421875,-99.34451293945312
1773150812129687600,10.0506875,-35.926361083984375,132.171142578125,-98.36660766601562
1773150812139787800,10.060787841796875,-35.97929382324219,132.16049194335938,-97.25689697265625
1773150812149887500,10.070887451171876,-35.97416687011719,132.45265197753906,-96.20896911621094
1773150812159987500,10.080987548828125,-35.90751647949219,132.97596740722656,-95.46977233886719
1773150812170089500,10.09108935546875,-35.71354675292969,133.0184326171875,-94.79353332519531
1773150812180190500,10.1011904296875,-35.748779296875,133.3758087158203,-94.57664489746094
1773150812190289400,10.111289306640625,-35.67875671386719,133.8898162841797,-94.45034790039062
1773150812200389600,10.1213896484375,-34.938995361328125,134.4608612060547,-94.75700378417969
1773150812210489600,10.131489501953125,-35.13783264160156,134.7891082763672,-95.44174194335938
1773150812220588500,10.141588623046875,-34.85722351074219,135.27418518066406,-96.22756958007812
1773150812230688500,10.1516884765625,-34.30793762207031,135.5674591064453,-97.23262023925781
1773150812240787500,10.161787353515624,-34.20623779296875,135.67506408691406,-98.38026428222656
1773150812250886700,10.17188671875,-33.99114990234375,136.3290252685547,-99.85008239746094
1773150812260985600,10.181985595703125,-33.381866455078125,136.32830810546875,-100.79180908203125
1773150812271085600,10.19208544921875,-32.9830322265625,136.3877410888672,-101.90386962890625
1773150812281184800,10.202184814453124,-33.315155029296875,136.5223846435547,-102.6239013671875
1773150812291285500,10.212285400390625,-33.02171325683594,136.27027893066406,-102.78547668457031
1773150812301386500,10.222386474609374,-33.33686828613281,136.08428955078125,-102.9981689453125
1773150812311487700,10.23248779296875,-33.463958740234375,135.67556762695312,-102.6429443359375
1773150812321588500,10.24258837890625,-33.23304748535156,135.72840881347656,-102.27084350585938
1773150812331689500,10.252689453125,-33.92854309082031,135.35914611816406,-101.79510498046875
1773150812341788400,10.262788330078125,-33.98687744140625,134.94161987304688,-101.08543395996094
1773150812351886600,10.272886474609376,-34.479400634765625,134.7755126953125,-101.07882690429688
1773150812361984500,10.282984619140626,-34.63117980957031,134.64700317382812,-100.88116455078125
1773150812372083700,10.293083740234374,-34.67161560058594,134.50689697265625,-100.66485595703125
1773150812382182700,10.3031826171875,-34.85862731933594,134.2084197998047,-100.45721435546875
1773150812392280600,10.313280517578125,-34.66358947753906,134.10093688964844,-100.02679443359375
1773150812402378500,10.32337841796875,-35.04624938964844,134.02203369140625,-99.9227294921875
1773150812412477400,10.3334775390625,-35.23394775390625,133.84381103515625,-99.70982360839844
1773150812422576600,10.34357666015625,-35.32417297363281,133.6254119873047,-99.51972961425781
1773150812432675600,10.353675537109375,-35.571563720703125,133.60653686523438,-99.33753967285156
1773150812442776600,10.363776611328126,-35.39625549316406,133.312744140625,-99.30532836914062
1773150812452874800,10.373874755859376,-35.37890625,133.6495819091797,-99.31239318847656
1773150812462973700,10.3839736328125,-35.45965576171875,133.5996551513672,-99.36016845703125
1773150812473073400,10.394073486328125,-35.18711853027344,134.03306579589844,-99.40249633789062
1773150812483172600,10.404172607421875,-35.603240966796875,133.9644317626953,-98.63368225097656
1773150812493271600,10.414271484375,-35.837615966796875,133.6513214111328,-97.5302734375
1773150812503371500,10.42437158203125,-36.01231384277344,132.9644775390625,-96.0556640625
1773150812513470700,10.434470703125,-36.40020751953125,132.26809692382812,-95.08158874511719
1773150812523569700,10.444569580078126,-36.388397216796875,131.66636657714844,-94.57133483886719
1773150812533669400,10.45466943359375,-36.57359313964844,130.8728485107422,-94.30552673339844
1773150812543770600,10.4647705078125,-37.17247009277344,129.70806884765625,-95.08261108398438
1773150812553869600,10.47486962890625,-37.72700500488281,128.7017364501953,-96.35374450683594
1773150812563967500,10.484967529296876,-37.660369873046875,128.15057373046875,-97.84255981445312
1773150812574066700,10.495066650390624,-37.78578186035156,127.45376586914062,-99.43510437011719
1773150812584165600,10.50516552734375,-37.2957763671875,126.54376220703125,-100.38519287109375
1773150812594264600,10.5152646484375,-37.778106689453125,126.09432983398438,-100.73025512695312
1773150812604363800,10.52536376953125,-37.92094421386719,125.79472351074219,-100.39315795898438
1773150812614462700,10.535462646484374,-38.26084899902344,125.18536376953125,-99.87760925292969
1773150812624562400,10.5455625,-38.068572998046875,124.32267761230469,-99.10011291503906
1773150812634661600,10.55566162109375,-38.447296142578125,123.85934448242188,-98.21611022949219
1773150812644761600,10.56576171875,-38.73030090332031,123.57682800292969,-97.50996398925781
1773150812654862600,10.575862548828125,-38.98545837402344,123.31027221679688,-96.84843444824219
1773150812664963600,10.585963623046876,-38.959808349609375,123.15248107910156,-96.01046752929688
1773150812675064600,10.596064697265625,-38.94535827636719,123.24398803710938,-95.40437316894531
1773150812685166600,10.60616650390625,-39.41764831542969,122.82334899902344,-95.24583435058594
1773150812695266600,10.6162666015625,-39.38038635253906,122.21649169921875,-95.35810852050781
1773150812705367600,10.626367431640626,-39.5118408203125,121.43450927734375,-96.45921325683594
1773150812715468500,10.636468505859375,-39.86225891113281,120.74281311035156,-97.46791076660156
1773150812725568500,10.646568603515625,-39.12272644042969,120.28465270996094,-98.00761413574219
1773150812735669500,10.65666943359375,-39.7384033203125,119.43963623046875,-99.07148742675781
1773150812745770500,10.6667705078125,-39.89154052734375,119.10569763183594,-99.6046142578125
1773150812755871500,10.67687158203125,-39.80387878417969,118.61863708496094,-100.12112426757812
1773150812765971700,10.6869716796875,-39.862640380859375,118.16896057128906,-100.35861206054688
1773150812776072400,10.697072509765626,-39.948272705078125,118.00213623046875,-100.38223266601562
1773150812786173700,10.707173583984375,-40.06678771972656,117.604248046875,-100.20904541015625
1773150812796275700,10.717275634765626,-39.928680419921875,117.31007385253906,-100.24676513671875
1773150812806377700,10.727377685546875,-39.83906555175781,117.01710510253906,-99.99447631835938
1773150812816478500,10.737478515625,-40.032379150390625,116.92633056640625,-99.94732666015625
1773150812826580500,10.74758056640625,-40.14842224121094,116.70838928222656,-99.82554626464844
1773150812836682500,10.7576826171875,-40.29913330078125,116.50962829589844,-99.76643371582031
1773150812846783700,10.76778369140625,-40.25469970703125,116.07301330566406,-99.98677062988281
1773150812856884500,10.777884521484374,-40.4832763671875,115.77362060546875,-100.36709594726562
1773150812866985500,10.7879853515625,-40.41436767578125,115.81930541992188,-100.43194580078125
1773150812877087500,10.79808740234375,-40.573974609375,115.4520263671875,-100.86940002441406
1773150812887188700,10.808188720703125,-40.500213623046875,115.03370666503906,-101.12721252441406
1773150812897289500,10.81828955078125,-40.54597473144531,114.70585632324219,-101.39717102050781
1773150812907390700,10.828390625,-40.46107482910156,114.6929931640625,-101.92054748535156
1773150812917490400,10.838490478515626,-40.36552429199219,114.53236389160156,-101.94259643554688
1773150812927589600,10.848589599609374,-40.35205078125,114.37336730957031,-102.38153076171875
1773150812937689600,10.858689697265625,-40.398101806640625,114.25296020507812,-102.46736145019531
1773150812947789600,10.86878955078125,-40.49165344238281,114.3702392578125,-102.69309997558594
1773150812957890600,10.878890625,-40.38873291015625,114.23291015625,-102.65316772460938
1773150812967990500,10.888990478515625,-40.414154052734375,114.42459106445312,-102.86215209960938
1773150812978091500,10.899091552734374,-40.50799560546875,114.13815307617188,-103.211669921875
1773150812988194600,10.909194580078125,-40.30949401855469,113.89262390136719,-103.35208129882812
1773150812998296600,10.919296630859375,-40.4149169921875,113.77493286132812,-103.55255126953125
1773150813008397600,10.9293974609375,-40.44987487792969,113.89944458007812,-103.744140625
1773150813018498600,10.93949853515625,-40.325531005859375,113.60557556152344,-103.96453857421875
1773150813028597500,10.949597412109375,-40.388763427734375,113.44126892089844,-104.16860961914062
1773150813038698800,10.95969873046875,-40.44804382324219,113.70797729492188,-104.50474548339844
1773150813048799500,10.969799560546875,-40.28863525390625,113.26545715332031,-104.61962890625
1773150813058902500,10.979902587890624,-40.0125732421875,113.0953369140625,-104.60121154785156
1773150813069004800,10.9900048828125,-40.286712646484375,113.07142639160156,-104.83525085449219
1773150813079105800,11.000105712890624,-40.17491149902344,112.81648254394531,-104.96696472167969
1773150813089207800,11.010207763671875,-40.42466735839844,113.01075744628906,-105.18594360351562
1773150813099308800,11.020308837890624,-40.26231384277344,112.92176818847656,-105.22523498535156
1773150813109409800,11.030409912109375,-40.04789733886719,112.88223266601562,-105.22067260742188
1773150813119509800,11.040509765625,-40.08436584472656,112.75688171386719,-105.40261840820312
1773150813129609700,11.050609619140625,-40.07646179199219,112.60726928710938,-105.55471801757812
1773150813139711000,11.0607109375,-40.21757507324219,112.22930908203125,-105.90679931640625
1773150813149812700,11.070812744140625,-40.50376892089844,112.18118286132812,-106.08612060546875
1773150813159916000,11.080916015625,-40.23248291015625,111.77386474609375,-106.20588684082031
1773150813170015700,11.091015625,-40.21331787109375,111.37031555175781,-106.41336059570312
1773150813180117000,11.101116943359376,-39.98211669921875,111.16587829589844,-106.43183898925781
1773150813190219000,11.111218994140625,-40.193511962890625,111.06983947753906,-106.55050659179688
1773150813200318700,11.121318603515626,-39.95924377441406,110.82719421386719,-106.69384765625
1773150813210420000,11.131419921875,-39.87297058105469,110.86143493652344,-106.99844360351562
1773150813220519700,11.141519775390625,-39.821502685546875,110.77458190917969,-106.99984741210938
1773150813230621000,11.151620849609374,-39.946319580078125,110.34825134277344,-107.01792907714844
1773150813240720600,11.161720703125,-39.93809509277344,110.2547607421875,-106.94390869140625
1773150813250820900,11.17182080078125,-39.72279357910156,109.88494873046875,-106.5447998046875
1773150813260919800,11.181919921875,-40.05659484863281,109.72264099121094,-106.90010070800781
1773150813271019800,11.192019775390625,-40.31036376953125,109.19258117675781,-106.57490539550781
1773150813281119700,11.20211962890625,-40.219573974609375,109.27194213867188,-106.6185302734375
1773150813291219700,11.2122197265625,-40.25041198730469,108.98931884765625,-106.42674255371094
1773150813301319000,11.22231884765625,-40.36882019042969,108.76768493652344,-106.35421752929688
1773150813311419000,11.2324189453125,-40.2608642578125,108.53445434570312,-106.31739807128906
1773150813321519900,11.242519775390624,-40.38261413574219,108.55268859863281,-106.12571716308594
1773150813331620900,11.252620849609375,-40.37440490722656,108.343994140625,-106.08232116699219
1773150813341720800,11.262720947265626,-40.37855529785156,108.23291015625,-105.78497314453125
1773150813351821800,11.27282177734375,-40.48356628417969,108.13841247558594,-105.5673828125
1773150813361922800,11.2829228515625,-40.56523132324219,107.945556640625,-105.26029968261719
1773150813372022800,11.293022705078124,-40.490325927734375,108.13575744628906,-105.21994018554688
1773150813382123800,11.303123779296875,-40.8839111328125,108.01191711425781,-104.95216369628906
1773150813392223700,11.3132236328125,-40.49101257324219,107.90188598632812,-104.48112487792969
1773150813402325000,11.323324951171875,-40.82597351074219,107.99835205078125,-104.42172241210938
1773150813412424700,11.3334248046875,-40.78352355957031,107.94073486328125,-104.2535400390625
1773150813422526000,11.34352587890625,-40.6959228515625,108.19844055175781,-104.05828857421875
1773150813432626700,11.353626708984375,-40.8551025390625,108.23931884765625,-103.71078491210938
1773150813442727000,11.363726806640624,-40.806243896484375,108.26118469238281,-102.94187927246094
1773150813452826600,11.37382666015625,-40.88923645019531,108.56929016113281,-102.97268676757812
1773150813462926800,11.3839267578125,-40.70210266113281,108.9306640625,-102.53343200683594
1773150813473027600,11.394027587890625,-40.96046447753906,109.37464904785156,-102.19151306152344
1773150813483128800,11.40412890625,-40.99909973144531,109.54757690429688,-101.91456604003906
1773150813493230800,11.41423095703125,-41.098480224609375,109.82374572753906,-101.50175476074219
1773150813503332900,11.424332763671876,-41.27418518066406,110.01617431640625,-101.2783203125
1773150813513432800,11.434432861328125,-41.293182373046875,110.355712890625,-100.9010009765625
1773150813523533800,11.444533935546875,-41.1700439453125,110.73875427246094,-100.57554626464844
1773150813533632800,11.4546328125,-40.986083984375,111.1209716796875,-100.19540405273438
1773150813543733000,11.46473291015625,-41.21974182128906,111.16598510742188,-100.09100341796875
1773150813553832700,11.474832763671875,-40.987823486328125,111.41598510742188,-99.93484497070312
1773150813563933000,11.484932861328126,-41.29896545410156,112.04161071777344,-99.8394775390625
1773150813574033000,11.495032958984375,-41.214691162109375,112.43649291992188,-99.61697387695312
1773150813584132900,11.5051328125,-40.97453308105469,112.75404357910156,-99.14900207519531
1773150813594232800,11.51523291015625,-41.267364501953125,112.97030639648438,-99.09063720703125
1773150813604333800,11.525333740234375,-41.15968322753906,113.55693054199219,-98.89633178710938
1773150813614435800,11.535435791015624,-41.07273864746094,114.02883911132812,-98.82473754882812
1773150813624535800,11.545535888671875,-40.96319580078125,114.69618225097656,-98.40545654296875
1773150813634636800,11.55563671875,-41.07502746582031,115.06999206542969,-97.87757873535156
1773150813644737800,11.56573779296875,-41.08183288574219,115.58195495605469,-97.84611511230469
1773150813654838800,11.5758388671875,-40.92414855957031,116.19120788574219,-97.41908264160156
1773150813664939000,11.58593896484375,-40.69554138183594,116.81675720214844,-97.14579772949219
1773150813675038700,11.596038818359375,-40.83488464355469,117.10809326171875,-96.66581726074219
1773150813685137700,11.6061376953125,-40.569793701171875,117.74946594238281,-96.46064758300781
1773150813695239000,11.616239013671875,-40.75128173828125,118.29212951660156,-96.37351989746094
1773150813705340000,11.62633984375,-40.55656433105469,118.50700378417969,-96.30873107910156
1773150813715439900,11.63643994140625,-40.355438232421875,119.0208740234375,-96.19853210449219
1773150813725538800,11.646538818359375,-40.30169677734375,119.44277954101562,-95.86637878417969
1773150813735638000,11.656637939453125,-40.265228271484375,120.00788879394531,-95.69606018066406
1773150813745738800,11.66673876953125,-40.091766357421875,120.45817565917969,-95.68475341796875
1773150813755839700,11.67683984375,-40.010650634765625,121.01702880859375,-95.85003662109375
1773150813765941800,11.686941650390626,-40.08880615234375,121.384765625,-95.58772277832031
1773150813776043800,11.697043701171875,-40.034393310546875,122.04116821289062,-95.35212707519531
1773150813786146000,11.70714599609375,-39.808837890625,122.51708984375,-95.45870971679688
1773150813796247800,11.717247802734375,-39.578857421875,123.228759765625,-95.4000244140625
1773150813806348800,11.727348876953124,-39.333038330078125,123.72811889648438,-95.22148132324219
1773150813816451800,11.737451904296876,-39.31150817871094,124.13705444335938,-94.81181335449219
1773150813826552800,11.747552734375,-38.75614929199219,124.90342712402344,-94.80044555664062
1773150813836653800,11.75765380859375,-38.866302490234375,125.42050170898438,-94.92762756347656
1773150813846753800,11.76775390625,-38.78565979003906,126.10769653320312,-94.99128723144531
1773150813856853800,11.777853759765625,-38.53326416015625,126.89006042480469,-95.2371826171875
1773150813866953700,11.78795361328125,-38.228118896484375,127.581787109375,-95.17263793945312
1773150813877055000,11.798054931640625,-37.947662353515625,128.42051696777344,-95.27812194824219
1773150813887155700,11.80815576171875,-37.550323486328125,129.14613342285156,-95.31376647949219
1773150813897254700,11.818254638671876,-37.61756896972656,129.95118713378906,-95.07771301269531
1773150813907355000,11.82835498046875,-37.14556884765625,130.63827514648438,-94.95333862304688
1773150813917453800,11.838453857421875,-36.87322998046875,131.33056640625,-94.55836486816406
1773150813927551700,11.8485517578125,-36.55482482910156,132.06918334960938,-94.88728332519531
1773150813937651000,11.85865087890625,-36.36558532714844,132.5136260986328,-94.93925476074219
1773150813947751000,11.8687509765625,-35.978729248046875,132.93275451660156,-95.45574951171875
1773150813957850600,11.8788505859375,-36.08525085449219,133.1369171142578,-96.27043151855469
1773150813967952000,11.888951904296874,-35.688385009765625,133.16354370117188,-97.34085083007812
1773150813978052900,11.899052978515625,-36.14166259765625,132.86099243164062,-98.92601013183594
1773150813988153600,11.909153564453124,-35.96177673339844,132.73187255859375,-100.12767028808594
1773150813998255600,11.919255615234375,-35.9163818359375,132.71820068359375,-100.82839965820312
1773150814008356900,11.92935693359375,-35.895538330078125,133.0759735107422,-101.2113037109375
1773150814018457900,11.939457763671875,-35.34580993652344,133.28880310058594,-101.00215148925781
1773150814028560000,11.949559814453124,-35.346771240234375,133.78976440429688,-101.03727722167969
1773150814038661600,11.95966162109375,-34.793670654296875,134.10105895996094,-100.84315490722656
1773150814048763600,11.969763671875,-34.67295837402344,134.53831481933594,-100.76698303222656
1773150814058863900,11.97986376953125,-34.7940673828125,134.45997619628906,-100.85888671875
1773150814068968700,11.98996875,-34.86506652832031,134.1935272216797,-101.03201293945312
1773150814079070700,12.00007080078125,-35.18377685546875,134.209716796875,-101.00540161132812
1773150814089172700,12.0101728515625,-35.23822021484375,133.9522247314453,-100.83883666992188
1773150814099276800,12.02027685546875,-35.229461669921875,134.0373992919922,-100.34622192382812
1773150814109378800,12.03037890625,-34.969635009765625,133.9201202392578,-99.37626647949219
1773150814119480800,12.040480712890625,-35.69236755371094,133.98992919921875,-98.72528076171875
1773150814129582600,12.05058251953125,-35.538909912109375,134.57797241210938,-97.75709533691406
1773150814139683800,12.060683837890625,-35.64558410644531,134.57199096679688,-96.6898193359375
1773150814149785900,12.070785888671875,-35.59590148925781,135.20993041992188,-95.83905029296875
1773150814159888000,12.080887939453126,-35.07563781738281,135.59893798828125,-94.97218322753906
1773150814169990000,12.090989990234375,-34.73524475097656,135.98037719726562,-94.61175537109375
1773150814180091600,12.101091552734376,-34.32768249511719,136.5581817626953,-94.31732177734375
1773150814190193700,12.111193603515625,-33.98248291015625,137.3009796142578,-94.36778259277344
1773150814200295700,12.121295654296874,-33.332611083984375,137.87496948242188,-94.36085510253906
1773150814210397700,12.131397705078125,-33.28880310058594,138.35812377929688,-94.63529968261719
1773150814220499700,12.141499755859375,-33.09480285644531,138.6780548095703,-95.0853271484375
1773150814230601700,12.151601806640626,-32.90155029296875,139.04156494140625,-95.96170043945312
1773150814240702700,12.16170263671875,-32.406005859375,139.454833984375,-96.95152282714844
1773150814250804700,12.1718046875,-32.04896545410156,139.80291748046875,-98.21757507324219
1773150814260905700,12.18190576171875,-31.548797607421875,139.4844970703125,-99.47599792480469
1773150814271007700,12.1920078125,-31.600448608398438,139.83450317382812,-100.76983642578125
1773150814281108700,12.202108642578125,-31.276138305664062,140.02688598632812,-101.89822387695312
1773150814291208700,12.212208740234376,-30.916824340820312,139.9352569580078,-102.66114807128906
1773150814301309700,12.222309814453125,-30.66448974609375,140.01483154296875,-103.19329833984375
1773150814311408600,12.23240869140625,-30.660415649414062,140.2884521484375,-104.07437133789062
1773150814321510000,12.242510009765626,-30.189743041992188,140.90289306640625,-104.7933349609375
1773150814331611600,12.252611572265625,-29.90032958984375,140.70285034179688,-105.39614868164062
1773150814341712600,12.262712646484376,-29.193328857421875,141.1896209716797,-106.01106262207031
1773150814351812900,12.272812744140625,-28.79595947265625,141.71942138671875,-106.62004089355469
1773150814361912800,12.282912841796875,-28.337234497070312,141.74497985839844,-107.24520874023438
1773150814372013800,12.293013916015624,-28.02947998046875,141.9239044189453,-107.62844848632812
1773150814382115800,12.30311572265625,-27.4993896484375,142.1521453857422,-107.96066284179688
1773150814392216600,12.313216552734374,-26.906570434570312,142.84579467773438,-108.40492248535156
1773150814402317800,12.32331787109375,-26.486083984375,142.92782592773438,-108.60075378417969
1773150814412419800,12.333419921875,-25.815399169921875,143.4537811279297,-108.72975158691406
1773150814422521900,12.34352197265625,-25.411544799804688,143.78662109375,-108.84600830078125
1773150814432622600,12.35362255859375,-25.075714111328125,144.16580200195312,-108.84123229980469
1773150814442725600,12.3637255859375,-24.673049926757812,144.42898559570312,-108.50531005859375
1773150814452828700,12.37382861328125,-24.993850708007812,144.34950256347656,-108.32315063476562
1773150814462929700,12.3839296875,-24.74005126953125,144.7032470703125,-108.36888122558594
1773150814473031700,12.39403173828125,-25.1475830078125,144.16903686523438,-108.12156677246094
1773150814483133000,12.4041328125,-25.124740600585938,144.09341430664062,-108.04782104492188
1773150814493232600,12.414232666015625,-25.365081787109375,143.74871826171875,-107.83848571777344
1773150814503332600,12.42433251953125,-25.632431030273438,143.43711853027344,-108.24734497070312
1773150814513434600,12.4344345703125,-25.595733642578125,143.28216552734375,-108.52767944335938
1773150814523536600,12.44453662109375,-25.527542114257812,142.95591735839844,-108.87269592285156
1773150814533635600,12.454635498046875,-24.917984008789062,143.12156677246094,-109.48356628417969
1773150814543735800,12.46473583984375,-24.490524291992188,143.111083984375,-109.78163146972656
1773150814553836800,12.4748369140625,-24.105087280273438,143.24754333496094,-110.150390625
1773150814563937800,12.484937744140625,-23.620101928710938,143.83348083496094,-110.20626831054688
1773150814574038800,12.495038818359374,-23.240264892578125,144.34718322753906,-110.20223999023438
1773150814584139800,12.505139892578125,-22.616073608398438,145.00205993652344,-109.97607421875
1773150814594240800,12.51524072265625,-22.053634643554688,145.42190551757812,-109.99734497070312
1773150814604340700,12.5253408203125,-21.887939453125,145.76605224609375,-109.89936828613281
1773150814614441700,12.535441650390625,-21.535842895507812,146.1490936279297,-109.48385620117188
1773150814624541700,12.545541748046874,-21.403167724609375,146.28964233398438,-108.8756103515625
1773150814634643000,12.555642822265625,-21.698715209960938,146.53517150878906,-107.86000061035156
1773150814644742000,12.565741943359376,-22.065139770507812,146.3207244873047,-107.22477722167969
1773150814654842600,12.575842529296875,-22.696304321289062,146.3262176513672,-106.71244812011719
1773150814664943600,12.585943603515625,-23.004486083984375,146.23941040039062,-106.19136047363281
1773150814675044900,12.596044921875,-23.221160888671875,146.07554626464844,-106.13702392578125
1773150814685144600,12.60614453125,-23.25506591796875,146.17755126953125,-106.05158996582031
1773150814695246600,12.61624658203125,-23.26934814453125,145.85098266601562,-106.35707092285156
1773150814705347800,12.626347900390625,-23.283294677734375,145.85987854003906,-106.54850769042969
1773150814715448600,12.636448486328124,-23.260406494140625,145.85316467285156,-107.08784484863281
1773150814725549800,12.6465498046875,-23.043243408203125,145.826171875,-107.78517150878906
1773150814735649800,12.65664990234375,-22.838546752929688,145.6960906982422,-108.39982604980469
1773150814745750800,12.666750732421875,-22.394180297851562,145.87838745117188,-108.85801696777344
1773150814755851800,12.676851806640625,-22.059478759765625,146.0285186767578,-109.0772705078125
1773150814765952800,12.686952880859375,-22.13116455078125,146.1183624267578,-109.23825073242188
1773150814776052700,12.697052734375,-21.691513061523438,146.04705810546875,-109.1982421875
1773150814786153700,12.70715380859375,-21.885360717773438,145.952880859375,-109.29940795898438
1773150814796253700,12.717253662109375,-21.82110595703125,145.65867614746094,-109.12086486816406
1773150814806354700,12.727354736328126,-21.838470458984375,145.87059020996094,-109.16035461425781
1773150814816453600,12.73745361328125,-22.359512329101562,145.89566040039062,-109.12419128417969
1773150814826552600,12.747552490234375,-21.724502563476562,145.9394073486328,-109.07568359375
1773150814836651800,12.75765185546875,-22.158294677734375,146.11524963378906,-109.29258728027344
1773150814846751700,12.767751708984376,-22.062911987304688,145.88833618164062,-109.41213989257812
1773150814856851700,12.777851806640625,-22.067337036132812,145.96490478515625,-109.60031127929688
1773150814866951700,12.78795166015625,-22.081512451171875,145.96258544921875,-109.54518127441406
1773150814877052000,12.798052001953126,-21.93878173828125,146.03216552734375,-109.42488098144531
1773150814887152600,12.808152587890625,-22.413482666015625,146.1376953125,-109.63813781738281
1773150814897252900,12.8182529296875,-22.146530151367188,146.11465454101562,-109.71635437011719
1773150814907351800,12.828351806640624,-22.12506103515625,145.9068145751953,-109.68588256835938
1773150814917451500,12.838451416015625,-22.13238525390625,145.9654083251953,-109.6939697265625
1773150814927550700,12.84855078125,-22.346160888671875,146.05628967285156,-109.82868957519531
1773150814937650700,12.858650634765626,-22.487274169921875,146.06533813476562,-109.70921325683594
1773150814947748600,12.86874853515625,-22.4381103515625,146.0226593017578,-109.53602600097656
