absolute_timestamp,accel_x,accel_y,accel_z
1775575326385,-0.092,-0.797,-0.596
1775575326405,-0.092,-0.793,-0.595
1775575326425,-0.093,-0.785,-0.593
1775575326444,-0.094,-0.789,-0.586
1775575326464,-0.091,-0.796,-0.582
1775575326484,-0.097,-0.796,-0.577
1775575326503,-0.094,-0.794,-0.576
1775575326523,-0.095,-0.782,-0.577
1775575326543,-0.097,-0.784,-0.578
1775575326563,-0.100,-0.784,-0.582
1775575326582,-0.103,-0.806,-0.581
1775575326602,-0.106,-0.804,-0.577
1775575326622,-0.102,-0.805,-0.575
1775575326641,-0.102,-0.797,-0.572
1775575326661,-0.104,-0.797,-0.573
1775575326681,-0.101,-0.798,-0.575
1775575326701,-0.096,-0.812,-0.571
1775575326720,-0.100,-0.807,-0.571
1775575326740,-0.094,-0.812,-0.565
1775575326760,-0.096,-0.775,-0.569
1775575326779,-0.096,-0.786,-0.567
1775575326799,-0.101,-0.804,-0.564
1775575326819,-0.101,-0.814,-0.568
1775575326839,-0.102,-0.804,-0.577
1775575326858,-0.096,-0.803,-0.578
1775575326878,-0.095,-0.804,-0.577
1775575326898,-0.095,-0.799,-0.574
1775575326917,-0.093,-0.803,-0.579
1775575326937,-0.088,-0.801,-0.573
1775575326957,-0.079,-0.791,-0.577
1775575326977,-0.080,-0.793,-0.582
1775575326996,-0.078,-0.799,-0.586
1775575327016,-0.078,-0.795,-0.583
1775575327036,-0.077,-0.791,-0.592
1775575327055,-0.072,-0.802,-0.596
1775575327075,-0.070,-0.794,-0.594
1775575327095,-0.068,-0.791,-0.594
1775575327115,-0.067,-0.797,-0.602
1775575327134,-0.063,-0.789,-0.628
1775575327154,-0.045,-0.772,-0.663
1775575327174,-0.043,-0.761,-0.677
1775575327194,-0.045,-0.760,-0.677
1775575327213,-0.050,-0.748,-0.697
1775575327233,-0.024,-0.690,-0.774
1775575327253,-0.008,-0.676,-0.813
1775575327272,-0.039,-0.761,-0.705
1775575327292,-0.070,-0.811,-0.594
1775575327312,-0.072,-0.790,-0.586
1775575327332,-0.065,-0.760,-0.620
1775575327351,-0.055,-0.737,-0.629
1775575327371,-0.038,-0.735,-0.582
1775575327391,-0.044,-0.840,-0.513
1775575327410,-0.027,-0.770,-0.576
1775575327430,-0.018,-0.763,-0.633
1775575327450,-0.005,-0.765,-0.630
1775575327470,0.008,-0.751,-0.616
1775575327489,0.017,-0.737,-0.610
1775575327509,0.020,-0.736,-0.597
1775575327529,0.029,-0.755,-0.594
1775575327548,0.033,-0.748,-0.617
1775575327568,0.036,-0.748,-0.635
1775575327588,0.039,-0.752,-0.628
1775575327608,0.037,-0.755,-0.617
1775575327627,0.039,-0.741,-0.628
1775575327647,0.034,-0.756,-0.642
1775575327667,0.037,-0.766,-0.630
1775575327686,0.043,-0.761,-0.622
1775575327706,0.044,-0.764,-0.623
1775575327726,0.046,-0.768,-0.625
1775575327746,0.048,-0.771,-0.621
1775575327765,0.052,-0.763,-0.612
1775575327785,0.054,-0.758,-0.613
1775575327805,0.058,-0.780,-0.618
1775575327824,0.058,-0.772,-0.622
1775575327844,0.057,-0.759,-0.630
1775575327864,0.058,-0.760,-0.631
1775575327884,0.058,-0.766,-0.624
1775575327903,0.056,-0.754,-0.623
1775575327923,0.054,-0.758,-0.621
1775575327943,0.055,-0.755,-0.625
1775575327962,0.054,-0.766,-0.629
1775575327982,0.053,-0.772,-0.627
1775575328002,0.052,-0.765,-0.625
1775575328022,0.054,-0.761,-0.624
1775575328041,0.056,-0.767,-0.621
1775575328061,0.055,-0.766,-0.625
1775575328081,0.056,-0.768,-0.629
1775575328100,0.058,-0.760,-0.637
1775575328120,0.060,-0.762,-0.636
1775575328140,0.064,-0.756,-0.631
1775575328160,0.062,-0.756,-0.628
1775575328179,0.065,-0.761,-0.633
1775575328199,0.065,-0.767,-0.633
1775575328219,0.067,-0.761,-0.634
1775575328238,0.066,-0.751,-0.637
1775575328258,0.068,-0.756,-0.631
1775575328278,0.072,-0.746,-0.626
1775575328298,0.069,-0.756,-0.634
1775575328317,0.075,-0.763,-0.642
1775575328337,0.075,-0.751,-0.636
1775575328357,0.078,-0.749,-0.631
1775575328376,0.075,-0.740,-0.632
1775575328396,0.071,-0.743,-0.635
1775575328416,0.070,-0.759,-0.633
1775575328436,0.062,-0.768,-0.632
1775575328455,0.064,-0.749,-0.632
1775575328475,0.061,-0.754,-0.631
1775575328495,0.058,-0.745,-0.632
1775575328514,0.061,-0.749,-0.630
1775575328534,0.062,-0.764,-0.628
1775575328554,0.061,-0.757,-0.621
1775575328574,0.064,-0.741,-0.623
1775575328593,0.066,-0.734,-0.627
1775575328613,0.068,-0.761,-0.627
1775575328633,0.069,-0.752,-0.619
1775575328652,0.067,-0.737,-0.610
1775575328672,0.065,-0.732,-0.606
1775575328692,0.065,-0.744,-0.617
1775575328712,0.058,-0.745,-0.628
1775575328731,0.059,-0.723,-0.624
1775575328751,0.052,-0.733,-0.622
1775575328771,0.038,-0.727,-0.621
1775575328790,0.026,-0.740,-0.614
1775575328810,0.012,-0.740,-0.610
1775575328830,0.010,-0.731,-0.613
1775575328850,-0.001,-0.733,-0.628
1775575328869,-0.017,-0.732,-0.637
1775575328889,-0.011,-0.734,-0.642
1775575328909,-0.016,-0.730,-0.646
1775575328928,-0.021,-0.733,-0.657
1775575328948,-0.028,-0.723,-0.663
1775575328968,-0.038,-0.740,-0.678
1775575328988,-0.042,-0.739,-0.668
1775575329007,-0.058,-0.734,-0.665
1775575329027,-0.070,-0.716,-0.668
1775575329047,-0.083,-0.702,-0.665
1775575329066,-0.093,-0.734,-0.673
1775575329086,-0.101,-0.742,-0.665
1775575329106,-0.105,-0.738,-0.647
1775575329126,-0.109,-0.716,-0.640
1775575329145,-0.123,-0.703,-0.645
1775575329165,-0.141,-0.725,-0.650
1775575329185,-0.160,-0.748,-0.633
1775575329204,-0.179,-0.743,-0.623
1775575329224,-0.199,-0.732,-0.631
1775575329244,-0.219,-0.730,-0.632
1775575329264,-0.235,-0.752,-0.636
1775575329283,-0.245,-0.770,-0.639
1775575329303,-0.264,-0.766,-0.642
1775575329323,-0.291,-0.743,-0.633
1775575329342,-0.315,-0.741,-0.609
1775575329362,-0.335,-0.724,-0.612
1775575329382,-0.350,-0.742,-0.629
1775575329402,-0.361,-0.752,-0.616
1775575329421,-0.371,-0.756,-0.597
1775575329441,-0.369,-0.752,-0.581
1775575329461,-0.371,-0.746,-0.572
1775575329480,-0.371,-0.710,-0.593
1775575329500,-0.363,-0.704,-0.603
1775575329520,-0.351,-0.729,-0.592
1775575329540,-0.349,-0.727,-0.606
1775575329559,-0.341,-0.719,-0.635
1775575329579,-0.332,-0.723,-0.627
1775575329599,-0.316,-0.740,-0.639
1775575329619,-0.309,-0.732,-0.646
1775575329638,-0.295,-0.724,-0.632
1775575329658,-0.284,-0.727,-0.625
1775575329678,-0.274,-0.732,-0.622
1775575329717,-0.250,-0.712,-0.631
1775575329737,-0.241,-0.719,-0.629
1775575329757,-0.229,-0.722,-0.614
1775575329776,-0.227,-0.727,-0.618
1775575329796,-0.219,-0.724,-0.629
1775575329816,-0.221,-0.728,-0.620
1775575329835,-0.217,-0.745,-0.620
1775575329855,-0.216,-0.751,-0.614
1775575329875,-0.215,-0.754,-0.610
1775575329895,-0.217,-0.760,-0.603
1775575329914,-0.212,-0.778,-0.579
1775575329934,-0.210,-0.784,-0.571
1775575329954,-0.207,-0.772,-0.585
1775575329973,-0.202,-0.776,-0.570
1775575329993,-0.196,-0.783,-0.557
1775575330013,-0.187,-0.792,-0.553
1775575330033,-0.183,-0.805,-0.559
1775575330052,-0.177,-0.783,-0.559
1775575330072,-0.170,-0.788,-0.543
1775575330092,-0.162,-0.792,-0.540
1775575330112,-0.158,-0.787,-0.556
1775575330131,-0.152,-0.804,-0.549
1775575330151,-0.146,-0.817,-0.532
1775575330171,-0.146,-0.799,-0.545
1775575330190,-0.147,-0.790,-0.568
1775575330210,-0.146,-0.808,-0.556
1775575330230,-0.155,-0.815,-0.549
1775575330250,-0.157,-0.831,-0.547
1775575330269,-0.165,-0.838,-0.530
1775575330289,-0.170,-0.828,-0.510
1775575330309,-0.171,-0.838,-0.527
1775575330328,-0.168,-0.837,-0.527
1775575330348,-0.161,-0.851,-0.522
1775575330368,-0.155,-0.848,-0.525
1775575330388,-0.145,-0.855,-0.505
1775575330407,-0.141,-0.838,-0.467
1775575330427,-0.132,-0.850,-0.440
1775575330447,-0.134,-0.856,-0.445
1775575330466,-0.137,-0.818,-0.472
1775575330486,-0.136,-0.824,-0.494
1775575330506,-0.134,-0.828,-0.492
1775575330526,-0.129,-0.810,-0.517
1775575330545,-0.122,-0.784,-0.568
1775575330565,-0.123,-0.793,-0.594
1775575330585,-0.122,-0.819,-0.587
1775575330605,-0.128,-0.844,-0.567
1775575330624,-0.144,-0.841,-0.564
1775575330644,-0.155,-0.849,-0.563
1775575330664,-0.164,-0.848,-0.542
1775575330683,-0.170,-0.866,-0.526
1775575330703,-0.178,-0.849,-0.522
1775575330723,-0.182,-0.852,-0.499
1775575330743,-0.179,-0.880,-0.451
1775575330762,-0.181,-0.893,-0.422
1775575330782,-0.183,-0.896,-0.404
1775575330802,-0.185,-0.882,-0.389
1775575330821,-0.176,-0.886,-0.376
1775575330841,-0.184,-0.902,-0.368
1775575330861,-0.181,-0.917,-0.365
1775575330881,-0.183,-0.907,-0.352
1775575330900,-0.184,-0.896,-0.334
1775575330920,-0.182,-0.882,-0.349
1775575330940,-0.178,-0.902,-0.362
1775575330959,-0.172,-0.923,-0.335
1775575330979,-0.172,-0.925,-0.296
1775575330999,-0.174,-0.929,-0.295
1775575331019,-0.178,-0.907,-0.315
1775575331038,-0.175,-0.917,-0.334
1775575331058,-0.167,-0.941,-0.324
1775575331078,-0.171,-0.933,-0.304
1775575331097,-0.171,-0.900,-0.309
1775575331117,-0.167,-0.923,-0.302
1775575331137,-0.164,-0.957,-0.294
1775575331157,-0.163,-0.953,-0.296
1775575331176,-0.156,-0.945,-0.293
1775575331196,-0.153,-0.918,-0.286
1775575331216,-0.151,-0.925,-0.293
1775575331235,-0.148,-0.930,-0.307
1775575331255,-0.140,-0.942,-0.291
1775575331275,-0.140,-0.943,-0.275
1775575331295,-0.143,-0.922,-0.281
1775575331314,-0.139,-0.920,-0.291
1775575331334,-0.134,-0.945,-0.293
1775575331354,-0.128,-0.946,-0.287
1775575331373,-0.132,-0.928,-0.292
1775575331393,-0.132,-0.919,-0.301
1775575331413,-0.133,-0.907,-0.307
1775575331433,-0.129,-0.950,-0.312
1775575331452,-0.123,-0.961,-0.304
1775575331472,-0.123,-0.944,-0.291
1775575331492,-0.120,-0.916,-0.300
1775575331512,-0.118,-0.920,-0.319
1775575331531,-0.119,-0.911,-0.328
1775575331551,-0.117,-0.923,-0.325
1775575331571,-0.116,-0.942,-0.321
1775575331590,-0.114,-0.916,-0.317
1775575331610,-0.110,-0.919,-0.324
1775575331630,-0.113,-0.912,-0.333
1775575331650,-0.112,-0.914,-0.344
1775575331669,-0.115,-0.927,-0.343
1775575331689,-0.115,-0.911,-0.331
1775575331709,-0.112,-0.924,-0.336
1775575331728,-0.117,-0.920,-0.350
1775575331748,-0.112,-0.947,-0.359
1775575331768,-0.109,-0.940,-0.344
1775575331788,-0.111,-0.922,-0.332
1775575331807,-0.105,-0.919,-0.344
1775575331827,-0.110,-0.918,-0.351
1775575331847,-0.114,-0.911,-0.357
1775575331866,-0.112,-0.920,-0.363
1775575331886,-0.110,-0.925,-0.351
1775575331906,-0.109,-0.911,-0.349
1775575331926,-0.109,-0.896,-0.360
1775575331945,-0.110,-0.907,-0.373
1775575331965,-0.109,-0.925,-0.383
1775575331985,-0.110,-0.922,-0.363
1775575332004,-0.104,-0.914,-0.356
1775575332024,-0.103,-0.892,-0.364
1775575332044,-0.107,-0.893,-0.394
1775575332064,-0.111,-0.906,-0.418
1775575332083,-0.110,-0.910,-0.414
1775575332103,-0.110,-0.922,-0.393
1775575332123,-0.109,-0.899,-0.383
1775575332142,-0.109,-0.898,-0.396
1775575332162,-0.113,-0.888,-0.412
1775575332182,-0.109,-0.893,-0.416
1775575332202,-0.108,-0.910,-0.398
1775575332221,-0.109,-0.905,-0.379
1775575332241,-0.109,-0.891,-0.386
1775575332261,-0.111,-0.908,-0.403
1775575332280,-0.113,-0.906,-0.403
1775575332300,-0.109,-0.914,-0.400
1775575332320,-0.112,-0.912,-0.394
1775575332340,-0.109,-0.904,-0.396
1775575332359,-0.108,-0.900,-0.396
1775575332379,-0.108,-0.904,-0.406
1775575332399,-0.110,-0.895,-0.416
1775575332418,-0.112,-0.887,-0.419
1775575332438,-0.108,-0.899,-0.422
1775575332458,-0.112,-0.892,-0.418
1775575332478,-0.109,-0.889,-0.419
1775575332497,-0.114,-0.880,-0.425
1775575332517,-0.113,-0.891,-0.432
1775575332537,-0.114,-0.892,-0.430
1775575332556,-0.112,-0.874,-0.431
1775575332576,-0.117,-0.879,-0.439
1775575332596,-0.120,-0.878,-0.446
1775575332616,-0.121,-0.879,-0.453
1775575332635,-0.120,-0.886,-0.450
1775575332655,-0.122,-0.883,-0.435
1775575332675,-0.126,-0.872,-0.432
1775575332694,-0.136,-0.876,-0.431
1775575332714,-0.142,-0.891,-0.431
1775575332734,-0.138,-0.888,-0.406
1775575332754,-0.139,-0.889,-0.405
1775575332773,-0.147,-0.856,-0.443
1775575332793,-0.149,-0.858,-0.468
1775575332813,-0.139,-0.886,-0.443
1775575332833,-0.132,-0.900,-0.428
1775575332852,-0.143,-0.879,-0.446
1775575332872,-0.143,-0.856,-0.468
1775575332892,-0.142,-0.857,-0.462
1775575332911,-0.143,-0.871,-0.472
1775575332931,-0.145,-0.886,-0.495
1775575332951,-0.148,-0.870,-0.506
1775575332971,-0.148,-0.858,-0.507
1775575332990,-0.152,-0.857,-0.501
1775575333010,-0.156,-0.863,-0.498
1775575333030,-0.162,-0.853,-0.494
1775575333049,-0.164,-0.869,-0.496
1775575333069,-0.161,-0.876,-0.475
1775575333089,-0.157,-0.881,-0.459
1775575333109,-0.155,-0.877,-0.448
1775575333128,-0.148,-0.868,-0.449
1775575333148,-0.144,-0.871,-0.449
1775575333168,-0.138,-0.865,-0.448
1775575333187,-0.134,-0.861,-0.454
1775575333207,-0.135,-0.849,-0.453
1775575333227,-0.133,-0.860,-0.456
1775575333247,-0.133,-0.860,-0.455
1775575333266,-0.136,-0.860,-0.462
1775575333286,-0.142,-0.864,-0.460
1775575333306,-0.145,-0.868,-0.454
1775575333325,-0.148,-0.873,-0.437
1775575333345,-0.145,-0.874,-0.423
1775575333365,-0.149,-0.870,-0.423
1775575333385,-0.146,-0.870,-0.425
1775575333404,-0.143,-0.877,-0.413
1775575333424,-0.138,-0.874,-0.410
1775575333444,-0.141,-0.855,-0.408
1775575333463,-0.140,-0.855,-0.405
1775575333483,-0.135,-0.863,-0.402
1775575333503,-0.134,-0.861,-0.404
1775575333523,-0.137,-0.863,-0.407
1775575333542,-0.134,-0.857,-0.397
1775575333562,-0.134,-0.843,-0.396
1775575333582,-0.135,-0.859,-0.409
1775575333601,-0.141,-0.881,-0.403
1775575333621,-0.148,-0.868,-0.384
1775575333641,-0.148,-0.849,-0.363
1775575333661,-0.159,-0.846,-0.360
1775575333680,-0.160,-0.877,-0.376
1775575333700,-0.173,-0.884,-0.344
1775575333720,-0.170,-0.880,-0.303
1775575333739,-0.172,-0.863,-0.265
1775575333759,-0.174,-0.879,-0.235
1775575333779,-0.175,-0.918,-0.216
1775575333799,-0.174,-0.925,-0.187
1775575333818,-0.175,-0.914,-0.163
1775575333838,-0.165,-0.894,-0.149
1775575333858,-0.165,-0.901,-0.156
1775575333877,-0.157,-0.894,-0.156
1775575333897,-0.150,-0.921,-0.116
1775575333917,-0.146,-0.924,-0.051
1775575333937,-0.148,-0.890,-0.036
1775575333956,-0.148,-0.902,-0.061
1775575333976,-0.156,-0.922,-0.062
1775575333996,-0.160,-0.950,0.002
1775575334015,-0.163,-0.964,0.081
1775575334035,-0.211,-0.946,0.082
1775575334055,-0.143,-0.924,0.027
1775575334075,-0.179,-1.011,0.096
1775575334094,-0.159,-0.974,0.200
1775575334114,-0.167,-0.923,0.208
1775575334134,-0.155,-0.871,0.132
1775575334153,-0.158,-0.930,0.167
1775575334173,-0.150,-0.965,0.274
1775575334193,-0.154,-0.913,0.323
1775575334213,-0.137,-0.859,0.190
1775575334232,-0.128,-0.917,0.167
1775575334252,-0.156,-0.926,0.424
1775575334272,-0.147,-0.834,0.612
1775575334291,-0.153,-0.869,0.498
1775575334311,-0.095,-0.851,0.293
1775575334331,-0.123,-0.884,0.525
1775575334351,-0.123,-0.900,0.750
1775575334370,-0.153,-0.878,0.766
1775575334390,-0.132,-0.870,0.632
1775575334410,-0.116,-0.794,0.634
1775575334429,-0.149,-0.823,0.728
1775575334449,-0.147,-0.919,0.840
1775575334469,-0.159,-0.919,0.890
1775575334489,-0.111,-0.771,0.723
1775575334508,-0.089,-0.732,0.722
1775575334528,-0.096,-0.709,0.804
1775575334548,-0.092,-0.686,0.817
1775575334567,-0.081,-0.641,0.815
1775575334587,-0.074,-0.620,0.843
1775575334607,-0.067,-0.595,0.878
1775575334627,-0.078,-0.601,0.882
1775575334646,-0.071,-0.606,0.882
1775575334666,-0.092,-0.623,0.903
1775575334686,-0.098,-0.596,0.904
1775575334705,-0.099,-0.609,0.889
1775575334725,-0.098,-0.625,0.878
1775575334745,-0.099,-0.589,0.883
1775575334765,-0.093,-0.560,0.923
1775575334784,-0.090,-0.538,0.955
1775575334843,-0.089,-0.565,0.957
1775575334863,-0.082,-0.534,0.958
1775575334883,-0.070,-0.490,0.932
1775575334903,-0.057,-0.476,0.915
1775575334922,-0.050,-0.482,0.920
1775575334942,-0.047,-0.487,0.910
1775575334962,-0.037,-0.487,0.897
1775575334981,-0.031,-0.478,0.894
1775575335001,-0.026,-0.481,0.890
1775575335021,-0.024,-0.497,0.884
1775575335041,-0.025,-0.497,0.888
1775575335060,-0.030,-0.499,0.901
1775575335080,-0.027,-0.513,0.903
1775575335100,-0.019,-0.511,0.903
1775575335119,-0.022,-0.501,0.899
1775575335139,-0.020,-0.502,0.887
1775575335159,-0.022,-0.518,0.898
1775575335179,-0.042,-0.535,0.948
1775575335198,-0.033,-0.495,0.950
1775575335218,-0.038,-0.518,0.907
1775575335238,-0.040,-0.517,0.959
1775575335257,-0.058,-0.543,1.077
1775575335277,-0.061,-0.586,1.087
1775575335297,-0.016,-0.563,0.959
1775575335317,-0.003,-0.485,0.942
1775575335336,-0.024,-0.539,1.064
1775575335356,-0.062,-0.651,1.077
1775575335376,-0.050,-0.611,0.945
1775575335395,-0.053,-0.535,0.952
1775575335415,-0.055,-0.628,1.089
1775575335435,-0.081,-0.754,1.128
1775575335455,-0.071,-0.666,1.011
1775575335474,-0.048,-0.602,0.915
1775575335494,-0.066,-0.731,0.958
1775575335514,-0.067,-0.756,0.885
1775575335533,-0.066,-0.707,0.763
1775575335553,-0.056,-0.746,0.709
1775575335573,-0.069,-0.816,0.686
1775575335593,-0.061,-0.899,0.631
1775575335612,-0.067,-0.847,0.549
1775575335632,-0.063,-0.848,0.461
1775575335652,-0.058,-0.911,0.401
1775575335671,-0.096,-0.970,0.342
1775575335691,-0.085,-1.001,0.269
1775575335711,-0.078,-0.952,0.219
1775575335731,-0.083,-0.890,0.261
1775575335750,-0.085,-0.987,0.286
1775575335770,-0.062,-0.972,0.195
1775575335790,-0.046,-0.890,0.117
1775575335809,-0.038,-0.937,0.056
1775575335829,-0.057,-0.944,0.089
1775575335849,-0.066,-0.900,0.076
1775575335869,-0.055,-0.893,-0.054
1775575335888,-0.056,-0.975,-0.189
1775575335908,-0.066,-1.007,-0.093
1775575335928,-0.084,-0.912,0.000
1775575335947,-0.052,-0.864,-0.138
1775575335967,-0.039,-0.834,-0.249
1775575335987,-0.052,-0.937,-0.278
1775575336007,-0.058,-0.948,-0.126
1775575336026,-0.062,-0.897,-0.142
1775575336046,-0.042,-0.820,-0.282
1775575336066,-0.054,-0.811,-0.359
1775575336085,-0.062,-0.860,-0.334
1775575336105,-0.067,-0.846,-0.244
1775575336125,-0.056,-0.780,-0.301
1775575336145,-0.055,-0.724,-0.375
1775575336164,-0.057,-0.720,-0.443
1775575336184,-0.087,-0.769,-0.477
1775575336204,-0.091,-0.808,-0.454
1775575336223,-0.089,-0.793,-0.426
1775575336243,-0.081,-0.788,-0.446
1775575336263,-0.095,-0.813,-0.466
1775575336283,-0.110,-0.837,-0.487
1775575336302,-0.106,-0.824,-0.481
1775575336322,-0.112,-0.849,-0.445
1775575336342,-0.112,-0.828,-0.445
1775575336361,-0.117,-0.831,-0.506
1775575336381,-0.150,-0.850,-0.555
1775575336401,-0.140,-0.833,-0.543
1775575336421,-0.140,-0.799,-0.518
1775575336440,-0.126,-0.715,-0.512
1775575336460,-0.134,-0.665,-0.553
1775575336480,-0.118,-0.709,-0.624
1775575336499,-0.146,-0.711,-0.647
1775575336519,-0.128,-0.705,-0.644
1775575336539,-0.128,-0.686,-0.648
1775575336559,-0.119,-0.723,-0.683
1775575336578,-0.114,-0.729,-0.722
1775575336598,-0.106,-0.714,-0.716
1775575336618,-0.101,-0.710,-0.682
1775575336637,-0.089,-0.694,-0.695
1775575336657,-0.091,-0.731,-0.731
1775575336677,-0.093,-0.702,-0.758
1775575336697,-0.097,-0.731,-0.777
1775575336716,-0.091,-0.689,-0.768
1775575336736,-0.089,-0.686,-0.766
1775575336756,-0.098,-0.710,-0.786
1775575336775,-0.111,-0.723,-0.806
1775575336795,-0.106,-0.732,-0.805
1775575336815,-0.103,-0.727,-0.743
1775575336835,-0.102,-0.717,-0.706
1775575336854,-0.107,-0.699,-0.733
1775575336874,-0.115,-0.725,-0.725
1775575336894,-0.118,-0.754,-0.678
1775575336914,-0.118,-0.753,-0.645
1775575336933,-0.113,-0.755,-0.627
1775575336953,-0.118,-0.741,-0.616
1775575336973,-0.123,-0.745,-0.613
1775575336992,-0.123,-0.778,-0.621
1775575337012,-0.130,-0.763,-0.609
1775575337032,-0.120,-0.770,-0.590
1775575337052,-0.125,-0.780,-0.572
1775575337071,-0.124,-0.776,-0.571
1775575337091,-0.125,-0.763,-0.583
1775575337111,-0.137,-0.765,-0.570
1775575337130,-0.144,-0.795,-0.551
1775575337150,-0.141,-0.790,-0.531
1775575337170,-0.144,-0.813,-0.506
1775575337190,-0.149,-0.804,-0.480
1775575337209,-0.156,-0.795,-0.453
1775575337229,-0.167,-0.789,-0.438
1775575337249,-0.164,-0.796,-0.421
1775575337268,-0.165,-0.820,-0.371
1775575337288,-0.172,-0.805,-0.318
1775575337308,-0.178,-0.819,-0.307
1775575337328,-0.185,-0.828,-0.298
1775575337347,-0.191,-0.835,-0.272
1775575337367,-0.195,-0.855,-0.239
1775575337387,-0.196,-0.861,-0.209
1775575337407,-0.202,-0.874,-0.200
1775575337426,-0.202,-0.841,-0.188
1775575337446,-0.205,-0.856,-0.164
1775575337466,-0.198,-0.866,-0.099
1775575337485,-0.202,-0.918,-0.023
1775575337505,-0.204,-0.896,-0.002
1775575337525,-0.210,-0.893,-0.066
1775575337545,-0.210,-0.905,-0.074
1775575337564,-0.209,-0.939,0.021
1775575337584,-0.218,-0.966,0.104
1775575337604,-0.209,-0.959,0.093
1775575337623,-0.205,-0.914,0.008
1775575337643,-0.193,-0.886,0.022
1775575337663,-0.190,-0.982,0.170
1775575337683,-0.194,-0.970,0.272
1775575337702,-0.186,-0.930,0.205
1775575337722,-0.167,-0.887,0.106
1775575337742,-0.179,-0.927,0.199
1775575337761,-0.181,-0.948,0.357
1775575337781,-0.201,-0.933,0.444
1775575337801,-0.186,-0.923,0.308
1775575337821,-0.141,-0.833,0.162
1775575337840,-0.187,-0.851,0.409
1775575337860,-0.182,-0.889,0.695
1775575337880,-0.197,-0.801,0.606
1775575337900,-0.140,-0.803,0.326
1775575337919,-0.106,-0.672,0.393
1775575337939,-0.156,-0.797,0.755
1775575337959,-0.180,-0.749,0.785
1775575337978,-0.126,-0.723,0.450
1775575337998,-0.072,-0.614,0.369
1775575338018,-0.104,-0.668,0.771
1775575338038,-0.124,-0.714,0.981
1775575338057,-0.091,-0.630,0.768
1775575338077,-0.048,-0.595,0.640
1775575338097,-0.060,-0.448,0.824
1775575338116,-0.087,-0.609,1.080
1775575338136,-0.104,-0.618,1.137
1775575338156,-0.072,-0.492,1.059
1775575338176,-0.059,-0.505,1.103
1775575338195,-0.052,-0.447,1.159
1775575338215,-0.088,-0.376,1.183
1775575338235,-0.097,-0.480,1.211
1775575338255,-0.100,-0.466,1.201
1775575338274,-0.113,-0.423,1.238
1775575338294,-0.115,-0.408,1.280
1775575338314,-0.107,-0.382,1.268
1775575338333,-0.097,-0.337,1.207
1775575338353,-0.112,-0.376,1.171
1775575338373,-0.082,-0.407,1.037
1775575338393,-0.063,-0.368,0.934
1775575338412,-0.066,-0.340,0.997
1775575338432,-0.088,-0.443,1.128
1775575338452,-0.099,-0.564,1.093
1775575338471,-0.054,-0.439,0.984
1775575338491,-0.045,-0.443,1.071
1775575338511,-0.071,-0.568,1.180
1775575338531,-0.094,-0.565,1.170
1775575338550,-0.066,-0.564,0.987
1775575338570,-0.047,-0.503,0.878
1775575338590,-0.105,-0.550,1.058
1775575338609,-0.139,-0.699,1.123
1775575338629,-0.087,-0.629,0.876
1775575338649,-0.062,-0.562,0.791
1775575338669,-0.107,-0.726,1.014
1775575338688,-0.121,-0.738,0.974
1775575338708,-0.096,-0.662,0.708
1775575338728,-0.051,-0.702,0.597
1775575338747,-0.098,-0.801,0.744
1775575338767,-0.128,-0.867,0.733
1775575338787,-0.084,-0.859,0.518
1775575338807,-0.051,-0.762,0.333
1775575338826,-0.063,-0.796,0.379
1775575338846,-0.125,-1.013,0.499
1775575338866,-0.115,-0.981,0.290
1775575338885,-0.102,-0.876,0.135
1775575338905,-0.063,-0.893,0.061
1775575338925,-0.101,-1.013,0.286
1775575338945,-0.115,-0.996,0.375
1775575338964,-0.058,-0.931,0.118
1775575338984,-0.046,-0.865,-0.102
1775575339004,-0.064,-0.897,-0.259
1775575339023,-0.104,-1.094,0.031
1775575339043,-0.134,-1.089,0.199
1775575339063,-0.058,-0.952,-0.166
1775575339083,-0.044,-0.806,-0.287
1775575339102,-0.064,-0.959,-0.060
1775575339122,-0.072,-1.078,0.161
1775575339142,-0.071,-0.988,0.052
1775575339161,-0.047,-0.831,-0.120
1775575339181,-0.070,-0.874,-0.121
1775575339201,-0.085,-0.981,-0.033
1775575339221,-0.088,-0.950,-0.011
1775575339240,-0.082,-0.859,-0.105
1775575339260,-0.088,-0.777,-0.216
1775575339280,-0.115,-0.786,-0.305
1775575339299,-0.119,-0.871,-0.284
1775575339319,-0.139,-0.906,-0.140
1775575339339,-0.151,-0.907,-0.150
1775575339359,-0.140,-0.858,-0.243
1775575339378,-0.174,-0.863,-0.263
1775575339398,-0.175,-0.881,-0.270
1775575339418,-0.173,-0.854,-0.290
1775575339437,-0.167,-0.825,-0.319
1775575339457,-0.159,-0.852,-0.364
1775575339477,-0.172,-0.843,-0.416
1775575339497,-0.167,-0.824,-0.451
1775575339516,-0.177,-0.802,-0.470
1775575339536,-0.182,-0.806,-0.498
1775575339556,-0.188,-0.826,-0.511
1775575339575,-0.188,-0.808,-0.501
1775575339595,-0.186,-0.792,-0.495
1775575339615,-0.186,-0.779,-0.531
1775575339635,-0.186,-0.766,-0.562
1775575339654,-0.186,-0.768,-0.571
1775575339674,-0.186,-0.739,-0.588
1775575339694,-0.185,-0.753,-0.594
1775575339714,-0.192,-0.742,-0.605
1775575339733,-0.202,-0.739,-0.656
1775575339753,-0.213,-0.739,-0.697
1775575339773,-0.216,-0.736,-0.717
1775575339792,-0.216,-0.716,-0.727
1775575339812,-0.223,-0.715,-0.725
1775575339832,-0.230,-0.704,-0.728
1775575339852,-0.225,-0.715,-0.731
1775575339871,-0.221,-0.749,-0.734
1775575339891,-0.228,-0.726,-0.752
1775575339911,-0.228,-0.698,-0.739
1775575339930,-0.222,-0.704,-0.708
1775575339950,-0.223,-0.729,-0.702
1775575339970,-0.222,-0.739,-0.704
1775575339990,-0.218,-0.736,-0.684
1775575340009,-0.219,-0.742,-0.653
1775575340029,-0.221,-0.752,-0.630
1775575340049,-0.215,-0.755,-0.622
1775575340068,-0.215,-0.750,-0.601
1775575340088,-0.214,-0.764,-0.586
1775575340108,-0.215,-0.777,-0.557
1775575340128,-0.207,-0.806,-0.524
1775575340147,-0.203,-0.810,-0.485
1775575340167,-0.200,-0.791,-0.461
1775575340187,-0.191,-0.798,-0.444
1775575340206,-0.198,-0.816,-0.412
1775575340226,-0.195,-0.839,-0.375
1775575340246,-0.190,-0.849,-0.351
1775575340266,-0.189,-0.826,-0.329
1775575340285,-0.186,-0.823,-0.308
1775575340305,-0.185,-0.817,-0.292
1775575340325,-0.189,-0.850,-0.279
1775575340344,-0.189,-0.862,-0.255
1775575340364,-0.189,-0.854,-0.219
1775575340384,-0.186,-0.839,-0.186
1775575340404,-0.188,-0.834,-0.161
1775575340423,-0.190,-0.877,-0.154
1775575340443,-0.192,-0.912,-0.138
1775575340463,-0.187,-0.859,-0.084
1775575340482,-0.181,-0.859,-0.011
1775575340502,-0.191,-0.897,0.030
1775575340522,-0.176,-0.951,-0.015
1775575340542,-0.177,-0.912,-0.034
1775575340561,-0.173,-0.879,0.041
1775575340581,-0.168,-0.924,0.125
1775575340601,-0.167,-0.994,0.149
1775575340620,-0.154,-0.936,0.056
1775575340640,-0.144,-0.940,0.059
1775575340660,-0.176,-0.921,0.186
1775575340680,-0.147,-0.945,0.253
1775575340699,-0.157,-0.922,0.210
1775575340719,-0.123,-0.880,0.092
1775575340739,-0.154,-0.816,0.154
1775575340759,-0.114,-0.903,0.370
1775575340778,-0.175,-0.965,0.457
1775575340798,-0.151,-0.897,0.271
1775575340818,-0.136,-0.842,0.180
1775575340837,-0.174,-0.860,0.428
1775575340857,-0.171,-0.918,0.628
1775575340877,-0.163,-0.907,0.540
1775575340897,-0.114,-0.864,0.248
1775575340916,-0.085,-0.710,0.177
1775575340936,-0.120,-0.805,0.544
1775575340956,-0.123,-0.709,0.819
1775575340975,-0.132,-0.810,0.594
1775575340995,-0.052,-0.719,0.208
1775575341015,-0.056,-0.564,0.270
1775575341035,-0.155,-0.700,0.848
1775575341054,-0.212,-0.683,1.152
1775575341074,-0.157,-0.770,0.790
1775575341094,-0.101,-0.722,0.519
1775575341113,-0.109,-0.516,0.821
1775575341133,-0.174,-0.539,1.113
1775575341153,-0.216,-0.636,1.238
1775575341173,-0.174,-0.570,1.133
1775575341192,-0.170,-0.528,1.125
1775575341212,-0.189,-0.451,1.213
1775575341232,-0.206,-0.455,1.269
1775575341251,-0.222,-0.512,1.285
1775575341271,-0.223,-0.441,1.264
1775575341291,-0.218,-0.356,1.254
1775575341311,-0.222,-0.369,1.271
1775575341330,-0.241,-0.398,1.262
1775575341350,-0.220,-0.394,1.186
1775575341370,-0.209,-0.401,1.106
1775575341389,-0.176,-0.466,1.083
1775575341409,-0.175,-0.461,1.094
1775575341429,-0.198,-0.451,1.182
1775575341449,-0.200,-0.601,1.234
1775575341468,-0.175,-0.588,1.010
1775575341488,-0.126,-0.580,0.961
1775575341508,-0.176,-0.714,1.236
1775575341527,-0.199,-0.758,1.202
1775575341547,-0.104,-0.539,0.825
1775575341567,-0.122,-0.650,0.802
1775575341587,-0.171,-0.863,1.091
1775575341606,-0.147,-0.753,0.922
1775575341626,-0.118,-0.683,0.661
1775575341646,-0.095,-0.639,0.619
1775575341665,-0.128,-0.771,0.717
1775575341685,-0.112,-0.782,0.566
1775575341705,-0.075,-0.758,0.375
1775575341725,-0.058,-0.796,0.292
1775575341744,-0.090,-0.978,0.410
1775575341764,-0.077,-0.940,0.343
1775575341784,-0.067,-0.864,0.209
1775575341803,-0.056,-0.835,0.095
1775575341823,-0.056,-1.003,0.165
1775575341843,-0.081,-1.050,0.254
1775575341863,-0.053,-0.882,0.079
1775575341882,-0.021,-0.835,-0.120
1775575341902,-0.054,-1.065,-0.113
1775575341922,-0.083,-1.013,0.152
1775575341941,-0.108,-0.912,0.094
1775575341961,-0.074,-0.920,-0.143
1775575341981,-0.097,-0.993,-0.204
1775575342001,-0.097,-1.091,-0.051
1775575342020,-0.117,-0.940,0.098
1775575342040,-0.081,-0.925,-0.045
1775575342060,-0.069,-0.866,-0.212
1775575342079,-0.060,-0.921,-0.307
1775575342099,-0.062,-1.013,-0.239
1775575342119,-0.085,-0.868,-0.080
1775575342139,-0.082,-0.875,-0.183
1775575342158,-0.077,-0.853,-0.284
1775575342178,-0.098,-0.887,-0.272
1775575342198,-0.095,-0.883,-0.292
1775575342217,-0.093,-0.864,-0.303
1775575342237,-0.088,-0.811,-0.250
1775575342257,-0.102,-0.761,-0.258
1775575342277,-0.112,-0.781,-0.359
1775575342296,-0.121,-0.841,-0.406
1775575342316,-0.135,-0.867,-0.353
1775575342336,-0.144,-0.881,-0.358
1775575342355,-0.149,-0.866,-0.393
1775575342375,-0.141,-0.905,-0.399
1775575342395,-0.151,-0.932,-0.400
1775575342414,-0.147,-0.912,-0.367
1775575342434,-0.137,-0.837,-0.364
1775575342454,-0.138,-0.851,-0.374
1775575342474,-0.148,-0.840,-0.355
1775575342493,-0.144,-0.846,-0.406
1775575342513,-0.130,-0.823,-0.459
1775575342533,-0.130,-0.786,-0.467
1775575342552,-0.137,-0.773,-0.468
1775575342572,-0.153,-0.794,-0.470
1775575342592,-0.153,-0.783,-0.475
1775575342612,-0.150,-0.764,-0.493
1775575342631,-0.156,-0.763,-0.523
1775575342651,-0.152,-0.777,-0.538
1775575342671,-0.169,-0.809,-0.525
1775575342690,-0.168,-0.808,-0.558
1775575342710,-0.168,-0.844,-0.612
1775575342730,-0.177,-0.879,-0.652
1775575342750,-0.162,-0.852,-0.651
1775575342769,-0.159,-0.787,-0.631
1775575342789,-0.159,-0.794,-0.645
1775575342809,-0.156,-0.820,-0.673
1775575342828,-0.152,-0.823,-0.687
1775575342848,-0.139,-0.808,-0.661
1775575342868,-0.133,-0.817,-0.632
1775575342888,-0.126,-0.811,-0.621
1775575342907,-0.126,-0.823,-0.629
1775575342927,-0.131,-0.811,-0.623
1775575342947,-0.133,-0.800,-0.581
1775575342966,-0.136,-0.809,-0.544
1775575342986,-0.141,-0.831,-0.535
1775575343006,-0.152,-0.859,-0.533
1775575343026,-0.156,-0.861,-0.535
1775575343045,-0.152,-0.826,-0.516
1775575343065,-0.150,-0.817,-0.485
1775575343085,-0.154,-0.872,-0.468
1775575343104,-0.155,-0.865,-0.465
1775575343124,-0.144,-0.843,-0.445
1775575343144,-0.145,-0.831,-0.399
1775575343164,-0.143,-0.864,-0.356
1775575343183,-0.140,-0.859,-0.332
1775575343203,-0.129,-0.831,-0.285
1775575343223,-0.130,-0.877,-0.238
1775575343242,-0.129,-0.865,-0.213
1775575343262,-0.124,-0.866,-0.204
1775575343282,-0.129,-0.847,-0.182
1775575343302,-0.109,-0.845,-0.142
1775575343321,-0.119,-0.899,-0.091
1775575343341,-0.116,-0.910,-0.078
1775575343361,-0.120,-0.934,-0.099
1775575343380,-0.107,-0.880,-0.056
1775575343400,-0.099,-0.847,-0.004
1775575343420,-0.095,-0.857,0.038
1775575343440,-0.102,-0.915,0.045
1775575343459,-0.105,-0.895,0.036
1775575343479,-0.095,-0.867,0.060
1775575343499,-0.061,-0.856,0.128
1775575343518,-0.069,-0.887,0.205
1775575343538,-0.092,-0.932,0.176
1775575343558,-0.108,-0.920,0.040
1775575343578,-0.110,-0.928,0.055
1775575343597,-0.121,-0.984,0.206
1775575343617,-0.146,-1.058,0.239
1775575343637,-0.136,-1.028,0.113
1775575343657,-0.123,-0.952,0.112
1775575343676,-0.117,-0.965,0.291
1775575343696,-0.105,-0.969,0.356
1775575343716,-0.101,-0.953,0.218
1775575343735,-0.096,-0.889,0.099
1775575343755,-0.092,-0.797,0.180
1775575343775,-0.088,-0.889,0.419
1775575343795,-0.136,-0.930,0.563
1775575343814,-0.140,-0.869,0.453
1775575343834,-0.104,-0.785,0.261
1775575343854,-0.051,-0.714,0.343
1775575343873,-0.114,-0.784,0.704
1775575343893,-0.197,-0.823,0.878
1775575343913,-0.121,-0.774,0.527
1775575343933,-0.083,-0.704,0.333
1775575343952,-0.123,-0.576,0.546
1775575343972,-0.105,-0.745,0.938
1775575343992,-0.142,-0.811,1.003
1775575344011,-0.058,-0.637,0.629
1775575344031,-0.026,-0.548,0.533
1775575344051,-0.084,-0.509,0.779
1775575344071,-0.082,-0.688,1.050
1775575344090,-0.099,-0.738,1.004
1775575344110,-0.015,-0.525,0.883
1775575344130,-0.015,-0.448,1.033
1775575344149,-0.033,-0.460,1.153
1775575344169,-0.055,-0.458,1.255
1775575344189,-0.088,-0.565,1.347
1775575344208,-0.058,-0.545,1.303
1775575344228,-0.019,-0.404,1.293
1775575344248,-0.053,-0.354,1.361
1775575344268,-0.063,-0.383,1.332
1775575344287,-0.051,-0.445,1.210
1775575344307,-0.024,-0.461,1.119
1775575344327,-0.011,-0.330,1.198
1775575344346,-0.059,-0.437,1.396
1775575344366,-0.060,-0.551,1.196
1775575344386,0.042,-0.462,0.918
1775575344406,0.029,-0.386,1.042
1775575344425,-0.092,-0.533,1.366
1775575344445,-0.090,-0.719,1.267
1775575344465,-0.092,-0.637,1.065
1775575344484,-0.070,-0.667,1.228
1775575344504,-0.143,-0.523,1.319
1775575344524,-0.075,-0.505,1.134
1775575344544,-0.063,-0.680,0.895
1775575344563,-0.048,-0.593,0.828
1775575344583,-0.080,-0.636,0.889
1775575344603,-0.096,-0.751,0.709
1775575344622,-0.065,-0.834,0.472
1775575344642,-0.025,-0.804,0.325
1775575344662,-0.108,-0.876,0.449
1775575344682,-0.110,-0.984,0.464
1775575344701,-0.083,-0.935,0.313
1775575344721,-0.080,-0.912,0.170
1775575344741,-0.063,-0.903,0.086
1775575344761,-0.034,-1.030,0.242
1775575344780,-0.046,-0.915,0.223
1775575344800,0.003,-0.816,0.020
1775575344820,0.009,-0.718,-0.106
1775575344839,-0.010,-0.931,-0.070
1775575344859,-0.032,-0.971,0.124
1775575344879,-0.048,-0.823,0.011
1775575344899,-0.051,-0.763,-0.184
1775575344918,-0.091,-0.907,-0.273
1775575344938,-0.084,-1.003,-0.156
1775575344958,-0.131,-0.958,0.002
1775575344977,-0.105,-0.940,-0.149
1775575344997,-0.095,-0.910,-0.244
1775575345017,-0.101,-0.946,-0.196
1775575345037,-0.087,-0.913,-0.149
1775575345056,-0.082,-0.870,-0.200
1775575345076,-0.093,-0.866,-0.242
1775575345096,-0.103,-0.867,-0.276
1775575345115,-0.103,-0.877,-0.271
1775575345135,-0.115,-0.856,-0.232
1775575345155,-0.113,-0.856,-0.251
1775575345175,-0.122,-0.845,-0.325
1775575345194,-0.113,-0.881,-0.317
1775575345214,-0.126,-0.854,-0.293
1775575345234,-0.116,-0.787,-0.328
1775575345253,-0.136,-0.825,-0.379
1775575345273,-0.150,-0.877,-0.429
1775575345293,-0.163,-0.859,-0.443
1775575345313,-0.178,-0.855,-0.417
1775575345332,-0.192,-0.828,-0.414
1775575345352,-0.201,-0.786,-0.416
1775575345372,-0.205,-0.833,-0.417
1775575345391,-0.235,-0.866,-0.435
1775575345411,-0.234,-0.841,-0.450
1775575345431,-0.232,-0.811,-0.437
1775575345451,-0.227,-0.792,-0.452
1775575345470,-0.234,-0.805,-0.464
1775575345490,-0.244,-0.812,-0.467
1775575345510,-0.233,-0.807,-0.493
1775575345529,-0.243,-0.796,-0.521
1775575345549,-0.244,-0.807,-0.535
1775575345569,-0.258,-0.769,-0.563
1775575345589,-0.267,-0.764,-0.619
1775575345608,-0.267,-0.821,-0.657
1775575345628,-0.282,-0.838,-0.647
1775575345648,-0.272,-0.810,-0.640
1775575345667,-0.270,-0.788,-0.652
1775575345687,-0.281,-0.807,-0.664
1775575345707,-0.278,-0.812,-0.665
1775575345727,-0.274,-0.794,-0.641
1775575345746,-0.270,-0.806,-0.586
1775575345766,-0.268,-0.803,-0.554
1775575345786,-0.273,-0.826,-0.544
1775575345805,-0.263,-0.847,-0.514
1775575345825,-0.260,-0.866,-0.473
1775575345845,-0.248,-0.856,-0.454
1775575345865,-0.247,-0.853,-0.437
1775575345884,-0.234,-0.846,-0.417
1775575345904,-0.229,-0.857,-0.396
1775575345924,-0.221,-0.868,-0.368
1775575345943,-0.214,-0.824,-0.354
1775575345963,-0.204,-0.825,-0.347
1775575345983,-0.200,-0.858,-0.320
1775575346003,-0.192,-0.862,-0.288
1775575346022,-0.187,-0.822,-0.257
1775575346042,-0.174,-0.830,-0.217
1775575346062,-0.178,-0.853,-0.170
1775575346081,-0.171,-0.856,-0.143
1775575346101,-0.176,-0.842,-0.114
1775575346121,-0.173,-0.879,-0.062
1775575346141,-0.164,-0.849,-0.024
1775575346160,-0.158,-0.833,-0.037
1775575346180,-0.154,-0.859,-0.038
1775575346200,-0.156,-0.843,-0.007
1775575346219,-0.163,-0.867,0.020
1775575346239,-0.164,-0.849,0.058
1775575346259,-0.160,-0.879,0.092
1775575346279,-0.162,-0.907,0.112
1775575346298,-0.169,-0.865,0.137
1775575346318,-0.166,-0.909,0.161
1775575346338,-0.168,-0.915,0.181
1775575346357,-0.155,-0.902,0.164
1775575346377,-0.154,-0.915,0.184
1775575346397,-0.133,-0.894,0.221
1775575346417,-0.127,-0.904,0.251
1775575346436,-0.135,-0.946,0.223
1775575346456,-0.115,-0.930,0.183
1775575346476,-0.105,-0.893,0.226
1775575346495,-0.115,-0.922,0.327
1775575346515,-0.132,-0.929,0.382
1775575346535,-0.115,-0.938,0.259
1775575346555,-0.096,-0.875,0.193
1775575346574,-0.114,-0.940,0.387
1775575346594,-0.107,-0.879,0.577
1775575346614,-0.127,-0.898,0.559
1775575346633,-0.056,-0.873,0.277
1775575346653,-0.023,-0.715,0.310
1775575346673,-0.122,-0.834,0.718
1775575346693,-0.135,-0.734,0.831
1775575346712,-0.090,-0.770,0.505
1775575346732,-0.051,-0.756,0.288
1775575346752,-0.048,-0.583,0.522
1775575346771,-0.115,-0.722,0.981
1775575346791,-0.153,-0.742,1.040
1775575346811,-0.083,-0.700,0.636
1775575346831,-0.047,-0.643,0.556
1775575346850,-0.137,-0.569,0.853
1775575346870,-0.158,-0.673,1.134
1775575346890,-0.165,-0.686,1.235
1775575346909,-0.138,-0.558,1.220
1775575346929,-0.145,-0.516,1.273
1775575346949,-0.158,-0.510,1.297
1775575346969,-0.175,-0.499,1.256
1775575346988,-0.184,-0.474,1.211
1775575347008,-0.191,-0.474,1.221
1775575347028,-0.204,-0.473,1.251
1775575347047,-0.206,-0.443,1.239
1775575347067,-0.210,-0.436,1.180
1775575347087,-0.211,-0.434,1.175
1775575347107,-0.193,-0.512,1.122
1775575347126,-0.190,-0.529,1.037
1775575347146,-0.196,-0.520,1.122
1775575347166,-0.182,-0.601,1.177
1775575347185,-0.173,-0.589,1.077
1775575347205,-0.166,-0.591,1.044
1775575347225,-0.206,-0.631,1.132
1775575347245,-0.222,-0.754,1.169
1775575347264,-0.231,-0.856,1.023
1775575347284,-0.209,-0.868,0.876
1775575347304,-0.187,-0.849,0.844
1775575347323,-0.190,-0.840,0.783
1775575347343,-0.173,-0.837,0.586
1775575347363,-0.157,-0.816,0.378
1775575347383,-0.111,-0.808,0.264
1775575347402,-0.127,-0.937,0.270
1775575347422,-0.172,-0.985,0.205
1775575347442,-0.107,-0.988,0.077
1775575347461,-0.082,-0.961,-0.025
1775575347481,-0.075,-0.981,0.009
1775575347501,-0.105,-0.906,0.170
1775575347521,-0.088,-0.923,0.063
1775575347540,-0.032,-0.872,-0.120
1775575347560,-0.029,-0.933,-0.176
1775575347580,-0.047,-0.946,0.038
1775575347599,-0.097,-0.841,0.148
1775575347619,-0.019,-0.892,-0.087
1775575347639,0.010,-0.881,-0.230
1775575347659,-0.025,-0.871,-0.220
1775575347678,-0.048,-0.912,-0.115
1775575347698,-0.065,-0.812,-0.091
1775575347718,-0.044,-0.842,-0.233
1775575347737,-0.061,-0.924,-0.318
1775575347757,-0.056,-0.920,-0.326
1775575347777,-0.060,-0.856,-0.316
1775575347797,-0.050,-0.844,-0.363
1775575347816,-0.054,-0.906,-0.430
1775575347836,-0.034,-0.885,-0.469
1775575347856,-0.019,-0.859,-0.453
1775575347876,-0.019,-0.823,-0.454
1775575347895,-0.010,-0.800,-0.443
1775575347915,-0.002,-0.782,-0.423
1775575347935,0.001,-0.801,-0.414
1775575347954,-0.007,-0.812,-0.449
1775575347974,0.006,-0.761,-0.467
1775575347994,0.005,-0.765,-0.470
1775575348014,0.002,-0.772,-0.471
1775575348033,-0.001,-0.786,-0.476
1775575348053,-0.001,-0.805,-0.515
1775575348073,-0.006,-0.758,-0.545
1775575348092,-0.017,-0.752,-0.547
1775575348112,-0.013,-0.789,-0.562
1775575348132,-0.033,-0.825,-0.585
1775575348152,-0.037,-0.804,-0.588
1775575348171,-0.036,-0.773,-0.589
1775575348191,-0.033,-0.756,-0.583
1775575348211,-0.039,-0.779,-0.584
1775575348230,-0.040,-0.771,-0.573
1775575348250,-0.036,-0.781,-0.551
1775575348270,-0.027,-0.746,-0.561
1775575348290,-0.037,-0.729,-0.556
1775575348309,-0.032,-0.731,-0.588
1775575348329,-0.043,-0.694,-0.658
1775575348349,-0.033,-0.720,-0.700
1775575348368,-0.036,-0.726,-0.707
1775575348388,-0.029,-0.683,-0.729
1775575348408,-0.033,-0.661,-0.757
1775575348428,-0.035,-0.699,-0.795
1775575348447,-0.044,-0.730,-0.807
1775575348467,-0.038,-0.713,-0.784
1775575348487,-0.037,-0.688,-0.765
1775575348506,-0.045,-0.667,-0.767
1775575348526,-0.053,-0.701,-0.766
1775575348546,-0.066,-0.729,-0.751
1775575348566,-0.069,-0.734,-0.713
1775575348585,-0.070,-0.740,-0.676
1775575348605,-0.070,-0.734,-0.659
1775575348625,-0.078,-0.731,-0.656
1775575348644,-0.079,-0.747,-0.643
1775575348664,-0.084,-0.750,-0.631
1775575348684,-0.088,-0.767,-0.614
1775575348704,-0.089,-0.788,-0.595
1775575348723,-0.096,-0.782,-0.568
1775575348743,-0.098,-0.842,-0.543
1775575348763,-0.109,-0.837,-0.517
1775575348782,-0.111,-0.842,-0.490
1775575348802,-0.109,-0.844,-0.453
1775575348822,-0.112,-0.847,-0.426
1775575348842,-0.111,-0.862,-0.401
1775575348861,-0.112,-0.862,-0.377
1775575348881,-0.108,-0.874,-0.354
1775575348901,-0.105,-0.860,-0.337
1775575348920,-0.102,-0.817,-0.318
1775575348940,-0.099,-0.827,-0.282
1775575348960,-0.107,-0.856,-0.275
1775575348980,-0.112,-0.861,-0.267
1775575348999,-0.111,-0.858,-0.225
1775575349019,-0.114,-0.860,-0.186
1775575349039,-0.114,-0.880,-0.171
1775575349058,-0.109,-0.856,-0.166
1775575349078,-0.117,-0.868,-0.147
1775575349098,-0.123,-0.895,-0.122
1775575349118,-0.138,-0.898,-0.088
1775575349137,-0.144,-0.893,-0.065
1775575349157,-0.138,-0.873,-0.056
1775575349177,-0.146,-0.891,-0.051
1775575349196,-0.152,-0.852,-0.029
1775575349216,-0.147,-0.896,-0.013
1775575349236,-0.149,-0.879,0.011
1775575349256,-0.148,-0.888,0.011
1775575349275,-0.161,-0.956,0.035
1775575349295,-0.164,-0.979,0.093
1775575349315,-0.160,-0.947,0.128
1775575349334,-0.159,-0.941,0.115
1775575349354,-0.160,-0.936,0.131
1775575349374,-0.163,-0.986,0.149
1775575349393,-0.152,-0.997,0.166
1775575349413,-0.149,-0.968,0.217
1775575349433,-0.147,-0.908,0.247
1775575349453,-0.140,-0.882,0.233
1775575349472,-0.149,-0.911,0.312
1775575349492,-0.161,-0.944,0.453
1775575349512,-0.170,-0.931,0.540
1775575349531,-0.143,-0.873,0.447
1775575349551,-0.096,-0.767,0.338
1775575349571,-0.129,-0.779,0.549
1775575349591,-0.143,-0.872,0.768
1775575349610,-0.142,-0.798,0.633
1775575349630,-0.079,-0.784,0.362
1775575349650,-0.018,-0.583,0.386
1775575349669,-0.057,-0.626,0.771
1775575349689,-0.115,-0.741,0.983
1775575349709,-0.084,-0.697,0.725
1775575349729,-0.051,-0.665,0.500
1775575349748,-0.062,-0.573,0.690
1775575349768,-0.129,-0.662,0.990
1775575349788,-0.164,-0.774,1.039
1775575349807,-0.140,-0.674,0.954
1775575349827,-0.140,-0.642,1.041
1775575349847,-0.159,-0.625,1.179
1775575349867,-0.156,-0.575,1.235
1775575349886,-0.168,-0.591,1.233
1775575349906,-0.176,-0.581,1.213
1775575349926,-0.173,-0.521,1.200
1775575349946,-0.190,-0.527,1.237
1775575349965,-0.205,-0.570,1.219
1775575349985,-0.182,-0.522,1.122
1775575350005,-0.180,-0.535,1.055
1775575350024,-0.164,-0.528,1.041
1775575350044,-0.168,-0.537,1.104
1775575350064,-0.178,-0.622,1.111
1775575350084,-0.132,-0.578,1.004
1775575350103,-0.165,-0.621,1.155
1775575350123,-0.177,-0.704,1.285
1775575350143,-0.184,-0.733,1.153
1775575350162,-0.173,-0.706,0.951
1775575350182,-0.175,-0.799,1.068
1775575350202,-0.240,-0.838,1.126
1775575350222,-0.211,-0.698,0.838
1775575350241,-0.199,-0.855,0.664
1775575350261,-0.170,-0.861,0.672
1775575350281,-0.193,-0.933,0.776
1775575350300,-0.171,-0.832,0.598
1775575350320,-0.118,-0.781,0.374
1775575350340,-0.072,-0.836,0.209
1775575350359,-0.098,-1.009,0.277
1775575350379,-0.093,-1.009,0.235
1775575350399,-0.078,-0.830,0.082
1775575350419,-0.046,-0.822,-0.063
1775575350438,-0.056,-0.929,-0.106
1775575350458,-0.064,-0.928,0.028
1775575350478,-0.057,-0.850,0.042
1775575350497,-0.041,-0.776,-0.071
1775575350517,-0.056,-0.892,-0.158
1775575350537,-0.056,-1.036,-0.079
1775575350557,-0.061,-0.986,0.138
1775575350576,-0.054,-0.870,0.109
1775575350596,-0.031,-0.786,-0.093
1775575350616,-0.034,-0.819,-0.178
1775575350635,-0.053,-0.923,-0.158
1775575350655,-0.069,-0.936,-0.072
1775575350675,-0.082,-0.980,-0.114
1775575350695,-0.064,-0.785,-0.160
1775575350714,-0.093,-0.839,-0.206
1775575350734,-0.123,-0.978,-0.134
1775575350754,-0.131,-0.981,-0.046
1775575350773,-0.130,-0.845,-0.053
1775575350793,-0.127,-0.888,-0.167
1775575350813,-0.110,-0.918,-0.305
1775575350833,-0.118,-0.947,-0.367
1775575350852,-0.109,-0.915,-0.320
1775575350872,-0.114,-0.936,-0.309
1775575350892,-0.102,-0.861,-0.367
1775575350911,-0.098,-0.804,-0.345
1775575350931,-0.107,-0.818,-0.316
1775575350951,-0.108,-0.846,-0.352
1775575350971,-0.114,-0.824,-0.379
1775575350990,-0.118,-0.787,-0.386
1775575351010,-0.130,-0.816,-0.397
1775575351030,-0.135,-0.843,-0.437
1775575351049,-0.150,-0.870,-0.486
1775575351069,-0.139,-0.832,-0.504
1775575351089,-0.159,-0.831,-0.511
1775575351109,-0.159,-0.838,-0.523
1775575351128,-0.168,-0.856,-0.527
1775575351148,-0.165,-0.820,-0.517
1775575351168,-0.163,-0.813,-0.524
1775575351187,-0.171,-0.799,-0.519
1775575351207,-0.175,-0.787,-0.510
1775575351227,-0.180,-0.770,-0.511
1775575351247,-0.173,-0.763,-0.528
1775575351266,-0.178,-0.750,-0.560
1775575351286,-0.182,-0.764,-0.599
1775575351306,-0.186,-0.751,-0.622
1775575351325,-0.188,-0.731,-0.626
1775575351345,-0.193,-0.722,-0.629
1775575351365,-0.189,-0.685,-0.661
1775575351385,-0.197,-0.746,-0.716
1775575351404,-0.208,-0.833,-0.710
1775575351424,-0.193,-0.777,-0.697
1775575351444,-0.174,-0.722,-0.731
1775575351463,-0.172,-0.693,-0.765
1775575351483,-0.179,-0.728,-0.775
1775575351503,-0.189,-0.763,-0.753
1775575351523,-0.186,-0.784,-0.698
1775575351542,-0.188,-0.746,-0.665
1775575351562,-0.179,-0.725,-0.663
1775575351582,-0.182,-0.744,-0.644
1775575351601,-0.185,-0.796,-0.621
1775575351621,-0.188,-0.788,-0.609
1775575351641,-0.175,-0.780,-0.584
1775575351661,-0.172,-0.766,-0.566
1775575351680,-0.173,-0.786,-0.563
1775575351700,-0.183,-0.809,-0.534
1775575351720,-0.175,-0.834,-0.506
1775575351739,-0.173,-0.812,-0.482
1775575351759,-0.177,-0.794,-0.458
1775575351779,-0.175,-0.836,-0.438
1775575351799,-0.180,-0.851,-0.409
1775575351818,-0.173,-0.834,-0.389
1775575351838,-0.172,-0.852,-0.358
1775575351858,-0.174,-0.858,-0.299
1775575351877,-0.174,-0.822,-0.259
1775575351897,-0.174,-0.842,-0.258
1775575351917,-0.183,-0.846,-0.258
1775575351937,-0.179,-0.860,-0.243
1775575351956,-0.179,-0.876,-0.224
1775575351976,-0.182,-0.902,-0.217
1775575351996,-0.182,-0.897,-0.196
1775575352015,-0.180,-0.900,-0.180
1775575352035,-0.180,-0.902,-0.182
1775575352055,-0.176,-0.912,-0.165
1775575352075,-0.179,-0.906,-0.146
1775575352094,-0.179,-0.907,-0.123
1775575352114,-0.182,-0.899,-0.069
1775575352134,-0.176,-0.929,-0.006
1775575352153,-0.173,-0.882,0.036
1775575352173,-0.169,-0.920,0.017
1775575352193,-0.166,-0.919,0.015
1775575352213,-0.157,-0.909,0.049
1775575352232,-0.173,-0.947,0.099
1775575352252,-0.143,-0.923,0.155
1775575352272,-0.141,-0.914,0.161
1775575352291,-0.133,-0.937,0.111
1775575352311,-0.125,-0.939,0.119
1775575352331,-0.133,-0.929,0.204
1775575352350,-0.127,-0.923,0.266
1775575352370,-0.132,-0.914,0.244
1775575352390,-0.113,-0.935,0.128
1775575352410,-0.098,-0.892,0.118
1775575352429,-0.114,-0.876,0.257
1775575352449,-0.079,-0.916,0.398
1775575352469,-0.125,-0.898,0.409
1775575352488,-0.126,-0.905,0.211
1775575352508,-0.088,-0.824,0.213
1775575352528,-0.073,-0.975,0.510
1775575352548,-0.140,-1.051,0.694
1775575352567,-0.112,-0.937,0.490
1775575352587,-0.040,-0.810,0.190
1775575352607,0.009,-0.771,0.208
1775575352626,-0.064,-0.896,0.552
1775575352646,-0.081,-0.904,0.684
1775575352666,-0.025,-0.783,0.477
1775575352686,0.022,-0.715,0.297
1775575352705,0.065,-0.647,0.445
1775575352725,0.053,-0.813,0.845
1775575352745,-0.002,-0.763,1.004
1775575352764,0.110,-0.657,0.668
1775575352784,0.110,-0.699,0.541
1775575352804,0.041,-0.682,0.866
1775575352824,0.017,-0.870,1.156
1775575352843,0.030,-0.810,1.132
1775575352863,0.104,-0.647,0.950
1775575352883,0.114,-0.604,0.995
1775575352902,0.119,-0.560,1.047
1775575352922,0.103,-0.516,1.069
1775575352942,0.080,-0.559,1.157
1775575352962,0.082,-0.491,1.164
1775575352981,0.086,-0.393,1.099
1775575353001,0.078,-0.447,1.061
1775575353021,0.067,-0.477,1.120
1775575353040,-0.009,-0.569,1.237
1775575353060,0.012,-0.572,1.084
1775575353080,0.057,-0.500,0.911
1775575353100,0.094,-0.533,1.094
1775575353119,-0.031,-0.681,1.391
1775575353139,0.031,-0.645,1.189
1775575353159,0.055,-0.531,0.844
1775575353178,0.062,-0.671,1.043
1775575353198,-0.047,-0.754,1.342
1775575353218,-0.065,-0.704,1.100
1775575353238,0.003,-0.910,0.847
1775575353257,0.039,-0.894,1.027
1775575353277,-0.044,-0.767,1.243
1775575353297,-0.008,-0.680,1.013
1775575353316,0.010,-0.721,0.725
1775575353336,0.042,-0.712,0.626
1775575353356,-0.038,-0.761,0.725
1775575353376,-0.028,-0.911,0.680
1775575353395,-0.027,-0.768,0.459
1775575353415,0.015,-0.796,0.280
1775575353435,0.035,-0.933,0.285
1775575353454,-0.022,-0.945,0.405
1775575353474,-0.006,-0.845,0.228
1775575353494,0.011,-0.857,-0.011
1775575353514,0.071,-0.868,-0.115
1775575353533,0.029,-1.021,0.245
1775575353553,-0.053,-0.877,0.395
1775575353573,0.022,-0.843,0.044
1775575353592,0.005,-0.917,-0.171
1775575353612,-0.012,-0.963,-0.080
1775575353632,-0.026,-1.024,0.145
1775575353652,-0.041,-1.016,0.125
1775575353671,0.024,-0.873,-0.148
1775575353691,0.030,-0.837,-0.243
1775575353711,0.004,-0.933,-0.166
1775575353730,0.011,-1.009,-0.065
1775575353750,-0.005,-0.985,0.045
1775575353770,0.011,-0.852,-0.016
1775575353790,-0.015,-0.824,-0.125
1775575353809,-0.046,-0.986,-0.198
1775575353829,-0.025,-0.949,-0.165
1775575353849,-0.048,-0.925,-0.042
1775575353868,-0.035,-0.922,-0.039
1775575353888,-0.030,-0.854,-0.130
1775575353908,-0.051,-0.877,-0.196
1775575353928,-0.046,-0.904,-0.222
1775575353947,-0.043,-0.872,-0.175
1775575353967,-0.062,-0.903,-0.153
1775575353987,-0.074,-0.903,-0.202
1775575354006,-0.077,-0.908,-0.244
1775575354026,-0.082,-0.907,-0.245
1775575354046,-0.087,-0.912,-0.240
1775575354066,-0.098,-0.892,-0.251
1775575354085,-0.116,-0.857,-0.295
1775575354105,-0.127,-0.893,-0.335
1775575354125,-0.149,-0.905,-0.371
1775575354144,-0.149,-0.867,-0.385
1775575354164,-0.157,-0.883,-0.369
1775575354184,-0.173,-0.854,-0.367
1775575354203,-0.172,-0.843,-0.405
1775575354223,-0.179,-0.826,-0.433
1775575354243,-0.173,-0.811,-0.448
1775575354263,-0.169,-0.795,-0.443
1775575354282,-0.172,-0.790,-0.447
1775575354302,-0.192,-0.796,-0.488
1775575354322,-0.214,-0.799,-0.543
1775575354341,-0.222,-0.804,-0.585
1775575354361,-0.221,-0.782,-0.591
1775575354381,-0.231,-0.783,-0.613
1775575354401,-0.242,-0.805,-0.644
1775575354420,-0.247,-0.780,-0.682
1775575354440,-0.238,-0.819,-0.703
1775575354460,-0.247,-0.875,-0.651
1775575354479,-0.235,-0.804,-0.634
1775575354499,-0.235,-0.746,-0.653
1775575354519,-0.243,-0.742,-0.661
1775575354539,-0.251,-0.783,-0.649
1775575354558,-0.256,-0.793,-0.616
1775575354578,-0.261,-0.800,-0.580
1775575354598,-0.260,-0.805,-0.567
1775575354617,-0.261,-0.800,-0.562
1775575354637,-0.255,-0.803,-0.549
1775575354657,-0.253,-0.803,-0.516
1775575354677,-0.248,-0.844,-0.492
1775575354696,-0.241,-0.864,-0.473
1775575354716,-0.234,-0.830,-0.444
1775575354736,-0.226,-0.836,-0.418
1775575354755,-0.222,-0.857,-0.401
1775575354775,-0.210,-0.863,-0.383
1775575354795,-0.198,-0.837,-0.357
1775575354815,-0.191,-0.830,-0.332
1775575354834,-0.198,-0.832,-0.324
1775575354854,-0.189,-0.871,-0.310
1775575354874,-0.195,-0.838,-0.264
1775575354893,-0.189,-0.850,-0.228
1775575354913,-0.201,-0.845,-0.200
1775575354933,-0.209,-0.888,-0.176
1775575354953,-0.207,-0.883,-0.149
1775575354972,-0.207,-0.904,-0.149
1775575354992,-0.189,-0.877,-0.144
1775575355012,-0.178,-0.841,-0.114
1775575355031,-0.160,-0.846,-0.056
1775575355051,-0.151,-0.858,0.006
1775575355071,-0.151,-0.843,0.032
1775575355090,-0.153,-0.822,0.041
1775575355110,-0.150,-0.837,0.068
1775575355130,-0.160,-0.838,0.094
1775575355150,-0.149,-0.835,0.100
1775575355169,-0.152,-0.855,0.098
1775575355189,-0.170,-0.862,0.100
1775575355209,-0.185,-0.899,0.117
1775575355228,-0.175,-0.900,0.106
1775575355248,-0.181,-0.919,0.108
1775575355268,-0.202,-0.934,0.137
1775575355288,-0.211,-0.999,0.140
1775575355307,-0.207,-0.995,0.099
1775575355327,-0.194,-1.012,0.051
1775575355347,-0.175,-0.998,0.052
1775575355366,-0.213,-1.001,0.188
1775575355386,-0.196,-0.894,0.337
1775575355406,-0.214,-0.903,0.364
1775575355426,-0.173,-0.900,0.218
1775575355445,-0.179,-0.956,0.291
1775575355465,-0.187,-0.902,0.483
1775575355485,-0.185,-0.864,0.546
1775575355504,-0.152,-0.872,0.380
1775575355524,-0.102,-0.780,0.222
1775575355544,-0.123,-0.789,0.455
1775575355564,-0.165,-0.819,0.746
1775575355583,-0.179,-0.799,0.712
1775575355603,-0.108,-0.731,0.454
1775575355623,-0.054,-0.641,0.528
1775575355642,-0.089,-0.713,0.817
1775575355662,-0.127,-0.695,0.945
1775575355682,-0.146,-0.765,0.844
1775575355702,-0.169,-0.723,0.734
1775575355721,-0.218,-0.732,0.832
1775575355741,-0.255,-0.717,0.975
1775575355761,-0.303,-0.772,1.069
1775575355780,-0.307,-0.759,1.124
1775575355800,-0.300,-0.705,1.176
1775575355820,-0.309,-0.691,1.221
1775575355839,-0.294,-0.632,1.180
1775575355859,-0.280,-0.578,1.131
1775575355879,-0.298,-0.615,1.178
1775575355899,-0.265,-0.586,1.105
1775575355918,-0.243,-0.583,0.988
1775575355938,-0.262,-0.602,1.002
1775575355958,-0.282,-0.693,1.096
1775575355977,-0.281,-0.753,1.103
1775575355997,-0.266,-0.609,0.891
1775575356017,-0.306,-0.646,0.995
1775575356037,-0.307,-0.855,1.196
1775575356056,-0.350,-0.845,1.157
1775575356076,-0.257,-0.746,0.889
1775575356096,-0.236,-0.799,0.887
1775575356115,-0.291,-0.794,1.024
1775575356135,-0.268,-0.887,0.845
1775575356155,-0.230,-0.821,0.633
1775575356175,-0.202,-0.853,0.577
1775575356194,-0.214,-0.898,0.596
1775575356214,-0.195,-0.939,0.548
1775575356234,-0.172,-0.832,0.419
1775575356253,-0.114,-0.824,0.266
1775575356273,-0.098,-0.868,0.231
1775575356293,-0.087,-0.927,0.237
1775575356313,-0.084,-0.896,0.138
1775575356332,-0.020,-0.924,-0.019
1775575356391,-0.007,-0.946,-0.033
1775575356411,0.006,-0.902,-0.078
1775575356431,0.002,-0.846,-0.138
1775575356451,-0.010,-0.890,-0.207
1775575356470,-0.033,-1.017,-0.149
1775575356490,-0.048,-0.899,-0.027
1775575356510,-0.026,-0.930,-0.107
1775575356529,-0.005,-0.857,-0.231
1775575356549,-0.002,-0.976,-0.311
1775575356569,0.005,-1.025,-0.216
1775575356589,-0.032,-0.903,-0.120
1775575356608,-0.001,-0.899,-0.219
1775575356628,0.027,-0.880,-0.270
1775575356648,0.047,-0.938,-0.271
1775575356667,0.061,-0.890,-0.279
1775575356687,0.052,-0.887,-0.312
1775575356707,0.059,-0.837,-0.312
1775575356727,0.058,-0.799,-0.282
1775575356746,0.063,-0.837,-0.314
1775575356766,0.088,-0.872,-0.348
1775575356786,0.106,-0.826,-0.369
1775575356805,0.104,-0.834,-0.352
1775575356825,0.109,-0.827,-0.338
1775575356845,0.122,-0.852,-0.336
1775575356865,0.148,-0.908,-0.384
1775575356884,0.178,-0.854,-0.404
1775575356904,0.185,-0.828,-0.391
1775575356924,0.182,-0.860,-0.407
1775575356943,0.208,-0.898,-0.442
1775575356963,0.221,-0.854,-0.441
1775575356983,0.225,-0.833,-0.415
1775575357003,0.204,-0.804,-0.426
1775575357022,0.187,-0.841,-0.458
1775575357042,0.184,-0.845,-0.441
1775575357062,0.193,-0.804,-0.406
1775575357081,0.191,-0.778,-0.421
1775575357101,0.184,-0.830,-0.441
1775575357121,0.189,-0.848,-0.428
1775575357141,0.202,-0.836,-0.418
1775575357160,0.217,-0.821,-0.444
1775575357180,0.222,-0.816,-0.483
1775575357200,0.230,-0.869,-0.510
1775575357219,0.248,-0.860,-0.516
1775575357239,0.272,-0.807,-0.536
1775575357259,0.269,-0.777,-0.542
1775575357279,0.276,-0.839,-0.536
1775575357298,0.280,-0.869,-0.559
1775575357318,0.285,-0.830,-0.562
1775575357338,0.274,-0.796,-0.563
1775575357357,0.266,-0.772,-0.573
1775575357377,0.260,-0.795,-0.560
1775575357397,0.252,-0.816,-0.544
1775575357417,0.238,-0.829,-0.521
1775575357436,0.225,-0.815,-0.500
1775575357456,0.212,-0.813,-0.486
1775575357476,0.200,-0.826,-0.473
1775575357495,0.200,-0.859,-0.465
1775575357515,0.190,-0.870,-0.456
1775575357535,0.176,-0.851,-0.457
1775575357555,0.167,-0.855,-0.449
1775575357574,0.158,-0.839,-0.452
1775575357594,0.143,-0.869,-0.448
1775575357614,0.128,-0.882,-0.427
1775575357633,0.116,-0.876,-0.413
1775575357653,0.101,-0.869,-0.397
1775575357673,0.095,-0.882,-0.380
1775575357693,0.077,-0.855,-0.360
1775575357712,0.067,-0.867,-0.331
1775575357732,0.045,-0.870,-0.301
1775575357752,0.028,-0.888,-0.289
1775575357771,0.014,-0.893,-0.261
1775575357791,0.007,-0.891,-0.230
1775575357811,-0.012,-0.874,-0.217
1775575357831,-0.031,-0.883,-0.205
1775575357850,-0.053,-0.914,-0.167
1775575357870,-0.073,-0.934,-0.126
1775575357890,-0.092,-0.915,-0.093
1775575357909,-0.108,-0.897,-0.079
1775575357929,-0.125,-0.886,-0.090
1775575357949,-0.129,-0.884,-0.125
1775575357969,-0.129,-0.863,-0.155
1775575357988,-0.130,-0.861,-0.137
1775575358008,-0.122,-0.890,-0.107
1775575358028,-0.114,-0.922,-0.065
1775575358047,-0.118,-0.910,-0.030
1775575358067,-0.105,-0.828,0.019
1775575358087,-0.131,-0.861,0.060
1775575358107,-0.135,-0.937,0.056
1775575358126,-0.159,-0.997,0.044
1775575358146,-0.204,-0.899,0.093
1775575358166,-0.233,-0.880,0.151
1775575358185,-0.267,-0.936,0.182
1775575358205,-0.294,-0.985,0.181
1775575358225,-0.308,-0.992,0.182
1775575358245,-0.313,-0.945,0.200
1775575358264,-0.310,-0.932,0.226
1775575358284,-0.252,-0.926,0.256
1775575358304,-0.241,-0.817,0.286
1775575358323,-0.234,-0.819,0.312
1775575358343,-0.232,-0.843,0.313
1775575358363,-0.245,-0.911,0.369
1775575358383,-0.303,-0.890,0.446
1775575358402,-0.310,-0.917,0.512
1775575358422,-0.305,-0.771,0.463
1775575358442,-0.300,-0.704,0.413
1775575358462,-0.323,-0.831,0.589
1775575358481,-0.361,-0.828,0.724
1775575358501,-0.322,-0.818,0.656
1775575358521,-0.299,-0.690,0.554
1775575358540,-0.309,-0.696,0.648
1775575358560,-0.348,-0.803,0.797
1775575358580,-0.352,-0.818,0.854
1775575358600,-0.335,-0.771,0.812
1775575358619,-0.309,-0.645,0.891
1775575358639,-0.319,-0.596,1.010
1775575358659,-0.337,-0.603,1.098
1775575358678,-0.351,-0.609,1.165
1775575358698,-0.338,-0.577,1.187
1775575358718,-0.306,-0.543,1.155
1775575358738,-0.265,-0.502,1.136
1775575358757,-0.264,-0.522,1.210
1775575358777,-0.260,-0.553,1.217
1775575358797,-0.213,-0.538,1.067
1775575358816,-0.187,-0.542,0.963
1775575358836,-0.166,-0.534,0.974
1775575358856,-0.206,-0.631,1.137
1775575358876,-0.212,-0.717,1.162
1775575358895,-0.175,-0.616,0.980
1775575358915,-0.187,-0.617,1.006
1775575358935,-0.199,-0.735,1.178
1775575358954,-0.221,-0.818,1.196
1775575358974,-0.190,-0.720,0.948
1775575358994,-0.158,-0.740,0.836
1775575359014,-0.181,-0.825,0.910
1775575359033,-0.166,-0.926,0.862
1775575359053,-0.135,-0.847,0.670
1775575359073,-0.078,-0.800,0.476
1775575359092,-0.060,-0.793,0.393
1775575359112,-0.059,-0.891,0.386
1775575359132,-0.065,-0.937,0.252
1775575359152,-0.058,-0.835,0.053
1775575359171,-0.041,-0.854,-0.077
1775575359191,-0.057,-0.981,-0.081
1775575359211,-0.109,-0.995,-0.087
1775575359230,-0.094,-1.011,-0.232
1775575359250,-0.089,-0.974,-0.314
1775575359270,-0.083,-0.908,-0.275
1775575359290,-0.104,-0.955,-0.222
1775575359309,-0.135,-0.883,-0.199
1775575359329,-0.148,-0.913,-0.256
1775575359349,-0.110,-0.807,-0.258
1775575359368,-0.093,-0.824,-0.235
1775575359388,-0.066,-0.814,-0.247
1775575359408,-0.062,-0.714,-0.327
1775575359428,-0.100,-0.677,-0.421
1775575359447,-0.087,-0.778,-0.492
1775575359467,-0.111,-0.910,-0.470
1775575359487,-0.114,-0.766,-0.419
1775575359506,-0.160,-0.704,-0.496
1775575359526,-0.189,-0.758,-0.600
1775575359546,-0.195,-0.939,-0.575
1775575359566,-0.190,-0.912,-0.437
1775575359585,-0.178,-0.750,-0.398
1775575359605,-0.191,-0.695,-0.428
1775575359625,-0.200,-0.722,-0.506
1775575359644,-0.199,-0.775,-0.523
1775575359664,-0.225,-0.816,-0.408
1775575359684,-0.287,-0.827,-0.239
1775575359704,-0.379,-0.750,-0.157
1775575359723,-0.376,-0.606,-0.281
1775575359743,-0.367,-0.574,-0.481
1775575359763,-0.325,-0.679,-0.592
1775575359782,-0.304,-0.745,-0.623
1775575359802,-0.317,-0.767,-0.647
1775575359822,-0.358,-0.808,-0.664
1775575359842,-0.374,-0.787,-0.606
1775575359861,-0.377,-0.725,-0.547
1775575359881,-0.368,-0.670,-0.535
1775575359901,-0.394,-0.678,-0.503
1775575359920,-0.432,-0.683,-0.478
1775575359940,-0.479,-0.661,-0.504
1775575359960,-0.444,-0.622,-0.524
1775575359980,-0.509,-0.639,-0.544
1775575359999,-0.542,-0.598,-0.573
1775575360019,-0.589,-0.570,-0.621
1775575360039,-0.635,-0.645,-0.623
1775575360058,-0.625,-0.692,-0.550
1775575360078,-0.623,-0.647,-0.544
1775575360098,-0.607,-0.573,-0.607
1775575360118,-0.623,-0.588,-0.627
1775575360137,-0.634,-0.632,-0.625
1775575360157,-0.630,-0.641,-0.611
1775575360177,-0.609,-0.619,-0.594
1775575360196,-0.588,-0.635,-0.582
1775575360216,-0.587,-0.664,-0.578
1775575360236,-0.564,-0.666,-0.568
1775575360256,-0.535,-0.656,-0.549
1775575360275,-0.554,-0.668,-0.551
1775575360295,-0.550,-0.697,-0.535
1775575360315,-0.548,-0.714,-0.502
1775575360334,-0.559,-0.701,-0.489
1775575360354,-0.539,-0.715,-0.489
1775575360374,-0.518,-0.747,-0.486
1775575360394,-0.493,-0.767,-0.471
1775575360413,-0.471,-0.763,-0.435
1775575360433,-0.439,-0.749,-0.428
1775575360453,-0.408,-0.768,-0.413
1775575360472,-0.383,-0.749,-0.374
1775575360492,-0.349,-0.766,-0.331
1775575360512,-0.317,-0.777,-0.309
1775575360532,-0.274,-0.779,-0.291
1775575360551,-0.239,-0.788,-0.262
1775575360571,-0.211,-0.773,-0.246
1775575360591,-0.177,-0.802,-0.224
1775575360610,-0.164,-0.819,-0.179
1775575360630,-0.137,-0.841,-0.147
1775575360650,-0.120,-0.836,-0.114
1775575360670,-0.108,-0.806,-0.103
1775575360689,-0.103,-0.832,-0.102
1775575360709,-0.099,-0.828,-0.098
1775575360729,-0.084,-0.851,-0.078
1775575360748,-0.069,-0.874,-0.017
1775575360768,-0.046,-0.960,0.039
1775575360788,-0.057,-0.917,0.035
1775575360808,-0.040,-0.923,-0.027
1775575360827,0.002,-0.913,0.005
1775575360847,0.003,-1.024,0.125
1775575360867,0.070,-0.893,0.152
1775575360886,0.032,-0.887,0.057
1775575360906,0.047,-0.923,0.002
1775575360926,0.051,-1.052,0.146
1775575360946,0.109,-1.010,0.297
1775575360965,0.060,-0.956,0.283
1775575360985,0.072,-0.903,0.099
1775575361005,0.100,-0.888,0.097
1775575361024,0.086,-1.067,0.339
1775575361044,0.110,-1.048,0.485
1775575361064,0.087,-0.827,0.343
1775575361084,0.088,-0.781,0.113
1775575361103,0.149,-0.827,0.201
1775575361123,0.128,-1.023,0.575
1775575361143,0.122,-0.840,0.656
1775575361162,0.148,-0.721,0.435
1775575361182,0.203,-0.637,0.192
1775575361202,0.239,-0.742,0.375
1775575361222,0.246,-0.976,0.797
1775575361241,0.162,-0.793,0.873
1775575361261,0.246,-0.628,0.525
1775575361281,0.300,-0.611,0.352
1775575361300,0.268,-0.676,0.715
1775575361320,0.271,-0.693,1.050
1775575361340,0.255,-0.639,1.135
1775575361360,0.343,-0.514,1.010
1775575361379,0.328,-0.483,1.071
1775575361399,0.274,-0.514,1.259
1775575361419,0.287,-0.502,1.365
1775575361438,0.265,-0.486,1.412
1775575361458,0.258,-0.445,1.363
1775575361478,0.251,-0.422,1.283
1775575361498,0.208,-0.448,1.286
1775575361517,0.164,-0.530,1.233
1775575361537,0.140,-0.517,1.037
1775575361557,0.162,-0.511,0.924
1775575361576,0.175,-0.524,1.038
1775575361596,0.192,-0.595,1.237
1775575361616,0.163,-0.628,1.255
1775575361636,0.235,-0.504,0.979
1775575361655,0.247,-0.611,0.993
1775575361675,0.196,-0.861,1.292
1775575361695,0.164,-0.601,1.209
1775575361714,0.134,-0.533,0.861
1775575361734,0.078,-0.816,0.809
1775575361754,0.036,-0.977,0.911
1775575361774,0.001,-0.829,0.821
1775575361793,-0.021,-0.783,0.666
1775575361813,0.002,-0.829,0.483
1775575361833,-0.015,-0.863,0.377
1775575361852,-0.018,-0.951,0.366
1775575361872,-0.033,-0.904,0.261
1775575361892,0.003,-0.779,0.086
1775575361912,0.003,-0.831,-0.036
1775575361931,-0.017,-1.003,0.105
1775575361951,-0.028,-0.924,0.216
1775575361971,-0.029,-0.853,0.024
1775575361990,-0.051,-0.791,-0.112
1775575362010,-0.072,-0.849,-0.118
1775575362030,-0.089,-1.081,0.002
1775575362050,-0.103,-1.037,0.045
1775575362069,-0.089,-0.820,-0.109
1775575362089,-0.114,-0.759,-0.284
1775575362109,-0.138,-0.941,-0.401
1775575362128,-0.133,-1.172,-0.266
1775575362148,-0.154,-1.190,-0.021
1775575362168,-0.145,-0.946,-0.167
1775575362188,-0.102,-0.884,-0.373
1775575362207,-0.113,-0.830,-0.320
1775575362227,-0.129,-0.886,-0.264
1775575362247,-0.164,-0.862,-0.285
1775575362266,-0.187,-0.902,-0.297
1775575362286,-0.201,-0.914,-0.304
1775575362306,-0.205,-0.829,-0.313
1775575362326,-0.227,-0.770,-0.304
1775575362345,-0.222,-0.795,-0.324
1775575362365,-0.226,-0.803,-0.325
1775575362385,-0.226,-0.800,-0.320
1775575362404,-0.221,-0.771,-0.350
1775575362424,-0.215,-0.719,-0.376
1775575362444,-0.229,-0.763,-0.399
1775575362464,-0.250,-0.837,-0.445
1775575362483,-0.254,-0.830,-0.413
1775575362503,-0.268,-0.809,-0.409
1775575362523,-0.268,-0.745,-0.480
1775575362542,-0.261,-0.793,-0.489
1775575362562,-0.272,-0.880,-0.451
1775575362582,-0.262,-0.836,-0.465
1775575362602,-0.266,-0.733,-0.490
1775575362621,-0.269,-0.744,-0.505
1775575362641,-0.279,-0.748,-0.522
1775575362661,-0.287,-0.740,-0.538
1775575362680,-0.294,-0.707,-0.544
1775575362700,-0.284,-0.677,-0.554
1775575362720,-0.288,-0.672,-0.595
1775575362740,-0.289,-0.656,-0.617
1775575362759,-0.293,-0.682,-0.646
1775575362779,-0.298,-0.694,-0.679
1775575362799,-0.306,-0.664,-0.706
1775575362818,-0.295,-0.652,-0.713
1775575362838,-0.323,-0.594,-0.761
1775575362858,-0.299,-0.671,-0.799
1775575362878,-0.338,-0.724,-0.765
1775575362897,-0.310,-0.710,-0.735
1775575362917,-0.298,-0.639,-0.754
1775575362937,-0.324,-0.634,-0.776
1775575362956,-0.343,-0.683,-0.776
1775575362976,-0.341,-0.710,-0.735
1775575362996,-0.339,-0.720,-0.687
1775575363016,-0.315,-0.697,-0.668
1775575363035,-0.291,-0.675,-0.690
1775575363055,-0.286,-0.718,-0.663
1775575363075,-0.287,-0.742,-0.619
1775575363094,-0.279,-0.749,-0.592
1775575363114,-0.272,-0.731,-0.563
1775575363134,-0.269,-0.731,-0.542
1775575363154,-0.268,-0.758,-0.529
1775575363173,-0.273,-0.795,-0.510
1775575363193,-0.269,-0.777,-0.474
1775575363213,-0.262,-0.774,-0.439
1775575363233,-0.270,-0.762,-0.415
1775575363252,-0.269,-0.808,-0.402
1775575363272,-0.266,-0.834,-0.372
1775575363292,-0.259,-0.826,-0.341
1775575363311,-0.249,-0.814,-0.294
1775575363331,-0.253,-0.788,-0.259
1775575363351,-0.256,-0.784,-0.247
1775575363371,-0.259,-0.797,-0.245
1775575363390,-0.267,-0.811,-0.240
1775575363410,-0.278,-0.835,-0.216
1775575363430,-0.280,-0.810,-0.177
1775575363449,-0.279,-0.823,-0.157
1775575363469,-0.269,-0.844,-0.138
1775575363489,-0.289,-0.862,-0.111
1775575363509,-0.292,-0.857,-0.096
1775575363528,-0.294,-0.863,-0.060
1775575363548,-0.311,-0.879,0.015
1775575363568,-0.314,-0.885,0.029
1775575363587,-0.301,-0.887,0.009
1775575363607,-0.284,-0.905,-0.060
1775575363627,-0.267,-0.911,-0.080
1775575363647,-0.267,-0.899,-0.012
1775575363666,-0.268,-0.906,0.039
1775575363686,-0.228,-0.849,0.042
1775575363706,-0.210,-0.865,0.139
1775575363725,-0.224,-0.858,0.276
1775575363745,-0.241,-0.870,0.350
1775575363765,-0.211,-0.838,0.259
1775575363785,-0.188,-0.859,0.198
1775575363804,-0.208,-0.894,0.369
1775575363824,-0.223,-0.918,0.578
1775575363844,-0.236,-0.864,0.610
1775575363863,-0.196,-0.859,0.429
1775575363883,-0.158,-0.862,0.382
1775575363903,-0.198,-0.924,0.559
1775575363923,-0.192,-0.888,0.572
1775575363942,-0.194,-0.853,0.403
1775575363962,-0.171,-0.771,0.362
1775575363982,-0.175,-0.754,0.566
1775575364001,-0.140,-0.779,0.729
1775575364021,-0.133,-0.778,0.645
1775575364041,-0.120,-0.728,0.597
1775575364061,-0.100,-0.615,0.690
1775575364080,-0.100,-0.525,0.771
1775575364100,-0.110,-0.737,0.977
1775575364120,-0.137,-0.823,0.898
1775575364139,-0.101,-0.652,0.711
1775575364159,-0.023,-0.662,0.733
1775575364179,-0.044,-0.649,0.884
1775575364199,-0.082,-0.724,0.990
1775575364218,-0.113,-0.676,0.963
1775575364238,-0.117,-0.577,0.969
1775575364258,-0.104,-0.629,0.984
1775575364277,-0.081,-0.589,0.973
1775575364297,-0.078,-0.554,1.040
1775575364317,-0.098,-0.536,1.062
1775575364337,-0.131,-0.497,1.046
1775575364356,-0.147,-0.481,1.077
1775575364376,-0.163,-0.448,1.084
1775575364396,-0.144,-0.425,1.069
1775575364415,-0.124,-0.446,1.050
1775575364435,-0.108,-0.453,1.007
1775575364455,-0.126,-0.438,1.053
1775575364475,-0.130,-0.484,1.050
1775575364494,-0.125,-0.553,0.956
1775575364514,-0.107,-0.543,0.875
1775575364534,-0.093,-0.521,0.761
1775575364553,-0.144,-0.494,0.953
1775575364573,-0.158,-0.489,1.056
1775575364593,-0.197,-0.544,0.994
1775575364613,-0.198,-0.553,0.986
1775575364632,-0.235,-0.520,0.982
1775575364652,-0.245,-0.596,1.020
1775575364672,-0.224,-0.395,1.074
1775575364691,-0.283,-0.799,1.205
1775575364711,-0.250,-0.756,0.883
1775575364731,-0.208,-0.550,0.732
1775575364751,-0.221,-0.604,0.893
1775575364770,-0.258,-0.709,1.062
1775575364790,-0.233,-0.928,0.993
1775575364810,-0.202,-0.657,0.667
1775575364829,-0.158,-0.659,0.694
1775575364849,-0.231,-0.905,1.004
1775575364869,-0.196,-0.853,0.862
1775575364889,-0.168,-0.788,0.540
1775575364908,-0.140,-0.825,0.449
1775575364928,-0.112,-0.825,0.621
1775575364948,-0.135,-0.909,0.695
1775575364967,-0.086,-0.912,0.429
1775575364987,-0.052,-0.828,0.276
1775575365007,-0.030,-0.880,0.259
1775575365027,-0.067,-0.942,0.365
1775575365046,-0.088,-0.977,0.281
1775575365066,-0.047,-0.961,0.163
1775575365086,-0.031,-0.864,0.092
1775575365106,-0.054,-0.924,0.116
1775575365125,-0.088,-0.909,0.142
1775575365145,-0.073,-1.032,0.081
1775575365165,-0.037,-0.907,-0.001
1775575365184,-0.035,-0.856,-0.055
1775575365204,-0.039,-0.990,-0.042
1775575365224,-0.082,-1.034,0.029
1775575365244,-0.059,-0.962,-0.077
1775575365263,-0.018,-0.858,-0.191
1775575365283,-0.026,-0.946,-0.155
1775575365303,-0.057,-0.967,-0.067
1775575365322,-0.056,-0.928,-0.098
1775575365342,-0.050,-0.883,-0.185
1775575365362,-0.038,-0.888,-0.281
1775575365381,-0.036,-0.926,-0.363
1775575365401,-0.049,-0.914,-0.268
1775575365421,-0.076,-0.908,-0.175
1775575365441,-0.053,-0.849,-0.264
1775575365460,-0.057,-0.863,-0.318
1775575365480,-0.067,-0.924,-0.287
1775575365500,-0.064,-0.893,-0.254
1775575365519,-0.084,-0.887,-0.266
1775575365539,-0.066,-0.843,-0.296
1775575365559,-0.061,-0.798,-0.338
1775575365579,-0.073,-0.811,-0.392
1775575365598,-0.074,-0.862,-0.432
1775575365618,-0.081,-0.895,-0.412
1775575365638,-0.087,-0.857,-0.351
1775575365658,-0.083,-0.834,-0.348
1775575365677,-0.083,-0.852,-0.384
1775575365697,-0.084,-0.867,-0.423
1775575365717,-0.091,-0.900,-0.422
1775575365736,-0.094,-0.876,-0.395
1775575365756,-0.096,-0.853,-0.383
1775575365776,-0.108,-0.851,-0.411
1775575365796,-0.105,-0.877,-0.438
1775575365815,-0.115,-0.882,-0.458
1775575365835,-0.115,-0.870,-0.449
1775575365855,-0.122,-0.871,-0.423
1775575365874,-0.123,-0.876,-0.419
1775575365894,-0.123,-0.871,-0.431
1775575365914,-0.123,-0.883,-0.421
1775575365934,-0.127,-0.865,-0.388
1775575365953,-0.124,-0.878,-0.360
1775575365973,-0.122,-0.888,-0.357
1775575365993,-0.119,-0.900,-0.381
1775575366012,-0.116,-0.874,-0.360
1775575366032,-0.126,-0.887,-0.328
1775575366052,-0.119,-0.901,-0.308
1775575366072,-0.116,-0.930,-0.300
1775575366091,-0.119,-0.910,-0.295
1775575366111,-0.128,-0.906,-0.260
1775575366131,-0.121,-0.933,-0.210
1775575366150,-0.114,-0.945,-0.189
1775575366170,-0.115,-0.949,-0.183
1775575366190,-0.120,-0.930,-0.141
1775575366210,-0.109,-0.949,-0.087
1775575366229,-0.096,-0.937,-0.064
1775575366249,-0.087,-0.925,-0.083
1775575366269,-0.086,-0.947,-0.079
1775575366288,-0.087,-0.956,-0.033
1775575366308,-0.078,-0.934,-0.023
1775575366328,-0.072,-0.887,-0.043
1775575366348,-0.075,-0.900,-0.042
1775575366367,-0.075,-0.930,0.000
1775575366387,-0.091,-0.965,0.059
1775575366407,-0.086,-0.957,0.109
1775575366426,-0.077,-0.897,0.083
1775575366446,-0.070,-0.905,0.090
1775575366466,-0.084,-0.971,0.137
1775575366486,-0.097,-0.955,0.201
1775575366505,-0.108,-0.978,0.218
1775575366525,-0.109,-0.939,0.206
1775575366545,-0.100,-0.983,0.249
1775575366564,-0.100,-0.940,0.336
1775575366584,-0.113,-0.917,0.379
1775575366604,-0.114,-0.903,0.311
1775575366624,-0.111,-0.931,0.321
1775575366643,-0.110,-0.913,0.435
1775575366663,-0.091,-0.861,0.504
1775575366683,-0.081,-0.831,0.463
1775575366702,-0.061,-0.812,0.414
1775575366722,-0.059,-0.815,0.521
1775575366742,-0.058,-0.817,0.602
1775575366762,-0.057,-0.803,0.611
1775575366781,-0.063,-0.783,0.564
1775575366801,-0.056,-0.747,0.593
1775575366821,-0.075,-0.778,0.689
1775575366840,-0.079,-0.740,0.746
1775575366860,-0.083,-0.708,0.751
1775575366880,-0.068,-0.673,0.758
1775575366900,-0.054,-0.645,0.848
1775575366919,-0.073,-0.656,0.998
1775575366939,-0.075,-0.598,1.025
1775575366959,-0.066,-0.575,1.003
1775575366979,-0.062,-0.541,1.013
1775575366998,-0.061,-0.530,1.056
1775575367018,-0.075,-0.536,1.081
1775575367038,-0.081,-0.499,1.095
1775575367057,-0.091,-0.497,1.110
1775575367077,-0.085,-0.528,1.097
1775575367097,-0.086,-0.452,1.053
1775575367117,-0.096,-0.484,1.037
1775575367136,-0.086,-0.518,0.990
1775575367156,-0.090,-0.473,0.951
1775575367176,-0.099,-0.458,0.972
1775575367195,-0.142,-0.577,1.011
1775575367215,-0.112,-0.541,0.877
1775575367235,-0.100,-0.516,0.858
1775575367255,-0.107,-0.517,1.040
1775575367274,-0.162,-0.657,1.197
1775575367294,-0.097,-0.583,0.936
1775575367314,-0.097,-0.541,0.793
1775575367333,-0.159,-0.646,0.960
1775575367353,-0.179,-0.752,0.992
1775575367373,-0.167,-0.718,0.901
1775575367393,-0.160,-0.654,0.858
1775575367412,-0.177,-0.740,0.836
1775575367432,-0.131,-0.716,0.792
1775575367452,-0.167,-0.702,0.894
1775575367471,-0.177,-0.776,0.935
1775575367491,-0.154,-0.762,0.713
1775575367511,-0.131,-0.680,0.485
1775575367531,-0.150,-0.823,0.531
1775575367550,-0.183,-0.890,0.701
1775575367570,-0.181,-0.841,0.622
1775575367590,-0.164,-0.740,0.375
1775575367609,-0.142,-0.789,0.224
1775575367629,-0.193,-0.918,0.413
1775575367649,-0.270,-0.941,0.628
1775575367669,-0.228,-0.934,0.385
1775575367688,-0.186,-0.870,0.124
1775575367708,-0.194,-0.832,0.056
1775575367728,-0.215,-1.019,0.163
1775575367748,-0.220,-1.021,0.244
1775575367767,-0.185,-0.902,0.060
1775575367787,-0.160,-0.834,-0.126
1775575367807,-0.199,-0.976,-0.148
1775575367826,-0.199,-1.059,0.171
1775575367846,-0.267,-0.953,0.258
1775575367866,-0.208,-0.916,-0.070
1775575367886,-0.198,-0.880,-0.214
1775575367905,-0.211,-0.978,-0.088
1775575367925,-0.201,-1.043,0.044
1775575367945,-0.203,-0.945,-0.063
1775575367964,-0.173,-0.865,-0.239
1775575367984,-0.177,-0.912,-0.297
1775575368004,-0.181,-1.062,-0.146
1775575368024,-0.207,-1.032,0.000
1775575368043,-0.195,-0.967,-0.112
1775575368063,-0.180,-0.828,-0.247
1775575368083,-0.179,-0.910,-0.228
1775575368102,-0.174,-1.029,-0.173
1775575368122,-0.150,-0.918,-0.148
1775575368142,-0.149,-0.856,-0.263
1775575368162,-0.127,-0.833,-0.378
1775575368181,-0.129,-0.916,-0.401
1775575368201,-0.152,-1.100,-0.228
1775575368221,-0.153,-1.015,-0.187
1775575368241,-0.131,-0.876,-0.281
1775575368260,-0.124,-0.781,-0.279
1775575368280,-0.118,-0.842,-0.346
1775575368300,-0.113,-0.958,-0.360
1775575368319,-0.108,-0.925,-0.290
1775575368339,-0.094,-0.848,-0.314
1775575368359,-0.058,-0.768,-0.381
1775575368379,-0.048,-0.750,-0.439
1775575368398,-0.046,-0.813,-0.453
1775575368418,-0.053,-0.840,-0.410
1775575368438,-0.059,-0.829,-0.373
1775575368457,-0.072,-0.789,-0.376
1775575368477,-0.081,-0.764,-0.394
1775575368497,-0.095,-0.795,-0.399
1775575368517,-0.102,-0.812,-0.381
1775575368536,-0.105,-0.811,-0.359
1775575368556,-0.111,-0.790,-0.317
1775575368576,-0.139,-0.771,-0.209
1775575368595,-0.140,-0.750,-0.267
1775575368615,-0.114,-0.810,-0.407
1775575368635,-0.155,-0.902,-0.411
1775575368655,-0.190,-0.901,-0.385
1775575368674,-0.250,-0.897,-0.319
1775575368694,-0.275,-0.923,-0.246
1775575368714,-0.292,-0.927,-0.198
1775575368733,-0.290,-0.871,-0.169
1775575368753,-0.294,-0.850,-0.135
1775575368773,-0.273,-0.932,-0.101
1775575368793,-0.267,-0.919,-0.056
1775575368812,-0.253,-0.843,-0.034
1775575368832,-0.251,-0.863,-0.010
1775575368852,-0.255,-0.915,-0.001
1775575368871,-0.247,-1.003,0.045
1775575368891,-0.206,-0.908,0.107
1775575368911,-0.203,-0.843,0.154
1775575368931,-0.195,-0.835,0.188
1775575368950,-0.180,-0.896,0.269
1775575368970,-0.155,-0.870,0.330
1775575368990,-0.136,-0.827,0.335
1775575369009,-0.108,-0.816,0.333
1775575369029,-0.080,-0.848,0.447
1775575369049,-0.066,-0.792,0.595
1775575369069,-0.067,-0.789,0.706
1775575369088,-0.047,-0.778,0.687
1775575369108,-0.006,-0.751,0.672
1775575369128,0.011,-0.729,0.812
1775575369148,0.004,-0.687,0.983
1775575369167,0.027,-0.660,1.099
1775575369187,0.043,-0.581,1.119
1775575369207,0.065,-0.516,1.151
1775575369226,0.064,-0.436,1.209
1775575369246,0.064,-0.416,1.260
1775575369266,0.060,-0.419,1.289
1775575369286,0.046,-0.376,1.322
1775575369305,0.023,-0.377,1.320
1775575369325,0.019,-0.402,1.243
1775575369345,0.023,-0.440,1.162
1775575369364,0.033,-0.444,1.073
1775575369384,0.046,-0.486,1.013
1775575369404,0.028,-0.558,1.016
1775575369424,0.042,-0.562,0.960
1775575369443,0.065,-0.561,0.910
1775575369463,0.072,-0.578,0.943
1775575369483,0.086,-0.615,1.052
1775575369502,0.037,-0.662,1.125
1775575369522,0.066,-0.559,0.905
1775575369542,0.072,-0.665,0.809
1775575369562,0.084,-0.668,0.874
1775575369581,0.096,-0.748,0.989
1775575369601,0.041,-0.712,0.943
1775575369621,0.082,-0.626,0.684
1775575369640,0.064,-0.710,0.477
1775575369660,0.086,-0.749,0.401
1775575369680,0.056,-0.853,0.592
1775575369700,0.034,-0.824,0.622
1775575369719,0.077,-0.795,0.389
1775575369739,0.105,-0.823,0.283
1775575369759,0.072,-0.915,0.365
1775575369778,0.091,-1.010,0.476
1775575369798,0.075,-0.975,0.437
1775575369818,0.112,-0.891,0.236
1775575369838,0.127,-0.878,0.110
1775575369857,0.128,-0.967,0.173
1775575369877,0.105,-1.123,0.470
1775575369897,0.107,-0.978,0.416
1775575369916,0.151,-0.927,0.132
1775575369936,0.155,-0.881,0.016
1775575369956,0.106,-1.101,0.268
1775575369976,0.065,-1.201,0.474
1775575369995,0.111,-1.079,0.230
1775575370015,0.124,-0.909,-0.013
1775575370035,0.144,-0.905,0.010
1775575370054,0.123,-1.086,0.215
1775575370074,0.134,-1.135,0.140
1775575370094,0.178,-0.959,-0.039
1775575370114,0.195,-0.825,-0.126
1775575370133,0.145,-1.013,-0.048
1775575370153,0.131,-1.082,0.075
1775575370173,0.147,-1.007,-0.022
1775575370192,0.157,-0.846,-0.129
1775575370212,0.120,-0.818,-0.205
1775575370232,0.107,-0.967,-0.245
1775575370252,0.079,-1.023,-0.142
1775575370271,0.076,-0.893,-0.142
1775575370291,0.083,-0.794,-0.274
1775575370311,0.065,-0.828,-0.394
1775575370331,0.042,-0.959,-0.345
1775575370350,0.007,-0.879,-0.234
1775575370370,0.004,-0.894,-0.286
1775575370390,-0.029,-0.908,-0.331
1775575370409,-0.038,-0.949,-0.350
1775575370429,-0.049,-0.889,-0.311
1775575370449,-0.057,-0.795,-0.307
1775575370468,-0.065,-0.789,-0.363
1775575370488,-0.067,-0.879,-0.408
1775575370508,-0.068,-0.909,-0.403
1775575370528,-0.077,-0.875,-0.351
1775575370547,-0.076,-0.849,-0.381
1775575370567,-0.074,-0.831,-0.430
1775575370587,-0.084,-0.871,-0.454
1775575370606,-0.084,-0.903,-0.449
1775575370626,-0.083,-0.844,-0.403
1775575370646,-0.093,-0.793,-0.403
1775575370666,-0.101,-0.820,-0.457
1775575370685,-0.115,-0.847,-0.509
1775575370705,-0.120,-0.864,-0.518
1775575370725,-0.118,-0.817,-0.482
1775575370745,-0.111,-0.813,-0.493
1775575370764,-0.113,-0.816,-0.519
1775575370784,-0.117,-0.784,-0.529
1775575370804,-0.112,-0.749,-0.530
1775575370823,-0.108,-0.731,-0.534
1775575370843,-0.110,-0.688,-0.538
1775575370863,-0.108,-0.633,-0.547
1775575370883,-0.100,-0.583,-0.559
1775575370902,-0.110,-0.587,-0.538
1775575370922,-0.113,-0.563,-0.508
1775575370942,-0.124,-0.552,-0.469
1775575370961,-0.139,-0.538,-0.417
1775575370981,-0.143,-0.569,-0.359
1775575371001,-0.147,-0.558,-0.293
1775575371021,-0.168,-0.640,-0.245
1775575371040,-0.175,-0.674,-0.194
1775575371060,-0.141,-0.663,-0.083
1775575371080,-0.154,-0.726,0.044
1775575371099,-0.142,-0.763,0.109
1775575371119,-0.110,-0.757,0.186
1775575371139,-0.107,-0.736,0.342
1775575371159,-0.070,-0.769,0.577
1775575371178,-0.087,-0.866,0.824
1775575371198,-0.078,-0.834,1.047
1775575371218,-0.066,-0.866,1.375
1775575371237,-0.144,-0.746,1.895
1775575371257,-0.278,-0.593,2.477
1775575371277,-0.210,-0.571,2.238
1775575371297,-0.047,-0.386,1.817
1775575371316,-0.270,-0.215,2.107
1775575371336,-0.242,-0.319,1.694
1775575371356,-0.070,-0.256,1.101
1775575371375,-0.034,-0.210,0.896
1775575371395,-0.036,-0.221,0.802
1775575371415,-0.047,-0.265,0.724
1775575371435,-0.047,-0.341,0.634
1775575371454,-0.054,-0.442,0.613
1775575371474,-0.091,-0.514,0.700
1775575371494,-0.120,-0.558,0.799
1775575371513,-0.138,-0.615,0.874
1775575371533,-0.147,-0.659,0.932
1775575371553,-0.131,-0.663,0.963
1775575371573,-0.152,-0.645,1.004
1775575371592,-0.141,-0.641,0.986
1775575371612,-0.162,-0.613,1.060
1775575371632,-0.158,-0.595,1.025
1775575371651,-0.121,-0.608,0.866
1775575371671,-0.134,-0.593,0.912
1775575371691,-0.168,-0.660,1.186
1775575371710,-0.192,-0.647,1.300
1775575371730,-0.118,-0.522,0.997
1775575371750,-0.176,-0.564,0.941
1775575371770,-0.185,-0.847,1.219
1775575371789,-0.196,-0.799,1.112
1775575371809,-0.129,-0.736,0.758
1775575371829,-0.116,-0.836,0.792
1775575371848,-0.167,-0.906,0.945
1775575371868,-0.130,-0.809,0.670
1775575371888,-0.103,-0.747,0.403
1775575371908,-0.101,-0.827,0.274
1775575371927,-0.097,-0.916,0.326
1775575371947,-0.152,-0.965,0.311
1775575371967,-0.125,-0.952,0.138
1775575371986,-0.103,-0.909,-0.010
1775575372006,-0.085,-1.011,-0.037
1775575372026,-0.105,-0.934,0.004
1775575372046,-0.082,-0.896,-0.076
1775575372065,-0.066,-0.918,-0.190
1775575372085,-0.076,-0.944,-0.209
1775575372105,-0.075,-0.911,-0.124
1775575372124,-0.107,-0.965,-0.094
1775575372144,-0.083,-0.875,-0.171
1775575372164,-0.066,-0.855,-0.226
1775575372184,-0.071,-0.917,-0.116
1775575372203,-0.085,-0.879,-0.019
1775575372223,-0.079,-0.877,-0.152
1775575372243,-0.042,-0.854,-0.293
1775575372262,-0.054,-0.812,-0.298
1775575372282,-0.091,-0.786,-0.262
1775575372302,-0.095,-0.799,-0.323
1775575372322,-0.104,-0.870,-0.384
1775575372341,-0.106,-1.000,-0.389
1775575372361,-0.113,-0.969,-0.267
1775575372381,-0.120,-0.829,-0.276
1775575372400,-0.105,-0.838,-0.360
1775575372420,-0.109,-0.854,-0.391
1775575372440,-0.104,-0.915,-0.376
1775575372460,-0.106,-0.956,-0.283
1775575372479,-0.105,-0.851,-0.283
1775575372499,-0.101,-0.774,-0.357
1775575372519,-0.110,-0.797,-0.412
1775575372538,-0.112,-0.882,-0.432
1775575372558,-0.121,-0.842,-0.368
1775575372578,-0.141,-0.818,-0.346
1775575372598,-0.140,-0.817,-0.404
1775575372617,-0.150,-0.846,-0.438
1775575372637,-0.149,-0.868,-0.433
1775575372657,-0.152,-0.890,-0.377
1775575372676,-0.159,-0.859,-0.356
1775575372696,-0.158,-0.868,-0.402
1775575372716,-0.161,-0.849,-0.434
1775575372736,-0.165,-0.881,-0.456
1775575372755,-0.168,-0.888,-0.449
1775575372775,-0.164,-0.874,-0.431
1775575372795,-0.175,-0.853,-0.433
1775575372814,-0.172,-0.843,-0.456
1775575372834,-0.172,-0.834,-0.464
1775575372854,-0.164,-0.856,-0.464
1775575372874,-0.169,-0.858,-0.443
1775575372893,-0.169,-0.830,-0.439
1775575372913,-0.183,-0.835,-0.435
1775575372933,-0.181,-0.870,-0.449
1775575372952,-0.187,-0.846,-0.451
1775575372972,-0.186,-0.863,-0.436
1775575372992,-0.189,-0.868,-0.419
1775575373012,-0.190,-0.834,-0.420
1775575373031,-0.187,-0.858,-0.421
1775575373051,-0.188,-0.875,-0.420
1775575373071,-0.187,-0.867,-0.423
1775575373090,-0.186,-0.868,-0.418
1775575373110,-0.190,-0.858,-0.415
1775575373130,-0.184,-0.850,-0.422
1775575373150,-0.188,-0.857,-0.413
1775575373169,-0.195,-0.855,-0.401
1775575373189,-0.201,-0.867,-0.391
1775575373209,-0.206,-0.882,-0.364
1775575373228,-0.211,-0.881,-0.356
1775575373248,-0.208,-0.893,-0.357
1775575373268,-0.212,-0.881,-0.347
1775575373288,-0.216,-0.922,-0.337
1775575373307,-0.213,-0.905,-0.307
1775575373327,-0.214,-0.907,-0.306
1775575373347,-0.225,-0.892,-0.308
1775575373366,-0.237,-0.927,-0.290
1775575373386,-0.239,-0.915,-0.262
1775575373406,-0.247,-0.925,-0.258
1775575373426,-0.247,-0.900,-0.263
1775575373445,-0.247,-0.891,-0.270
1775575373465,-0.245,-0.919,-0.258
1775575373485,-0.238,-0.887,-0.239
1775575373504,-0.236,-0.930,-0.215
1775575373524,-0.229,-0.900,-0.197
1775575373544,-0.213,-0.919,-0.189
1775575373564,-0.222,-0.913,-0.152
1775575373583,-0.232,-0.993,-0.073
1775575373603,-0.238,-0.979,-0.007
1775575373623,-0.241,-0.927,-0.046
1775575373642,-0.241,-0.903,-0.091
1775575373662,-0.247,-0.898,-0.112
1775575373682,-0.255,-0.956,-0.111
1775575373701,-0.268,-0.913,-0.094
1775575373721,-0.274,-0.902,-0.116
1775575373741,-0.286,-0.894,-0.117
1775575373761,-0.283,-0.905,-0.104
1775575373780,-0.279,-0.875,-0.122
1775575373800,-0.276,-0.860,-0.128
1775575373820,-0.273,-0.826,-0.126
1775575373839,-0.263,-0.791,-0.129
1775575373859,-0.254,-0.798,-0.131
1775575373879,-0.259,-0.809,-0.130
1775575373899,-0.250,-0.829,-0.097
1775575373918,-0.258,-0.765,-0.065
1775575373938,-0.264,-0.787,-0.054
1775575373958,-0.265,-0.813,-0.008
1775575373977,-0.277,-0.814,0.079
1775575373997,-0.273,-0.839,0.162
1775575374017,-0.284,-0.810,0.200
1775575374037,-0.267,-0.759,0.215
1775575374056,-0.267,-0.712,0.282
1775575374076,-0.294,-0.711,0.407
1775575374096,-0.322,-0.675,0.547
1775575374115,-0.332,-0.614,0.677
1775575374135,-0.327,-0.566,0.827
1775575374155,-0.316,-0.583,1.004
1775575374175,-0.327,-0.624,1.220
1775575374194,-0.330,-0.543,1.385
1775575374214,-0.332,-0.511,1.470
1775575374234,-0.309,-0.445,1.487
1775575374254,-0.308,-0.448,1.632
1775575374273,-0.305,-0.413,1.698
1775575374293,-0.261,-0.393,1.586
1775575374313,-0.205,-0.385,1.436
1775575374332,-0.173,-0.313,1.227
1775575374352,-0.131,-0.280,1.047
1775575374372,-0.145,-0.400,1.034
1775575374392,-0.115,-0.408,0.987
1775575374411,-0.075,-0.349,0.892
1775575374431,-0.082,-0.332,0.979
1775575374451,-0.147,-0.578,1.249
1775575374470,-0.155,-0.664,1.039
1775575374490,-0.134,-0.540,0.806
1775575374510,-0.189,-0.629,0.972
1775575374530,-0.230,-0.798,1.054
1775575374549,-0.190,-0.829,0.904
1775575374569,-0.203,-0.836,0.793
1775575374589,-0.191,-0.892,0.855
1775575374608,-0.165,-0.893,0.800
1775575374628,-0.170,-0.871,0.663
1775575374648,-0.147,-0.854,0.476
1775575374668,-0.103,-0.882,0.327
1775575374687,-0.087,-0.939,0.296
1775575374707,-0.091,-0.988,0.276
1775575374727,-0.072,-0.852,0.128
1775575374746,-0.057,-0.900,-0.075
1775575374766,-0.043,-0.931,-0.184
1775575374786,-0.085,-0.927,-0.073
1775575374806,-0.108,-1.004,-0.056
1775575374825,-0.087,-0.932,-0.175
1775575374845,-0.078,-0.833,-0.225
1775575374865,-0.097,-0.948,-0.230
1775575374884,-0.090,-1.000,-0.132
1775575374904,-0.110,-0.810,-0.071
1775575374924,-0.088,-0.824,-0.204
1775575374944,-0.068,-0.824,-0.330
1775575374963,-0.058,-0.935,-0.346
1775575374983,-0.068,-0.931,-0.200
1775575375003,-0.081,-0.867,-0.175
1775575375022,-0.060,-0.761,-0.282
1775575375042,-0.057,-0.786,-0.381
1775575375062,-0.047,-0.930,-0.452
1775575375082,-0.058,-0.985,-0.345
1775575375101,-0.063,-0.872,-0.268
1775575375121,-0.049,-0.792,-0.351
1775575375141,-0.046,-0.771,-0.397
1775575375160,-0.050,-0.850,-0.439
1775575375180,-0.044,-0.887,-0.461
1775575375200,-0.040,-0.873,-0.422
1775575375220,-0.041,-0.835,-0.414
1775575375239,-0.034,-0.811,-0.447
1775575375259,-0.039,-0.783,-0.461
1775575375279,-0.041,-0.813,-0.485
1775575375298,-0.047,-0.826,-0.471
1775575375318,-0.044,-0.817,-0.434
1775575375338,-0.042,-0.782,-0.425
1775575375358,-0.038,-0.761,-0.462
1775575375377,-0.043,-0.822,-0.527
1775575375397,-0.049,-0.822,-0.542
1775575375417,-0.047,-0.811,-0.509
1775575375437,-0.048,-0.802,-0.489
1775575375456,-0.056,-0.829,-0.510
1775575375476,-0.061,-0.840,-0.541
1775575375496,-0.068,-0.836,-0.539
1775575375515,-0.072,-0.862,-0.500
1775575375535,-0.075,-0.866,-0.469
1775575375555,-0.082,-0.871,-0.462
1775575375575,-0.083,-0.880,-0.488
1775575375594,-0.089,-0.883,-0.508
1775575375614,-0.084,-0.875,-0.476
1775575375634,-0.090,-0.835,-0.439
1775575375653,-0.094,-0.840,-0.435
1775575375673,-0.099,-0.879,-0.459
1775575375693,-0.100,-0.857,-0.449
1775575375713,-0.106,-0.848,-0.424
1775575375732,-0.111,-0.841,-0.391
1775575375752,-0.112,-0.844,-0.375
1775575375772,-0.132,-0.858,-0.382
1775575375791,-0.134,-0.843,-0.385
1775575375811,-0.137,-0.844,-0.370
1775575375831,-0.149,-0.871,-0.336
1775575375851,-0.145,-0.858,-0.321
1775575375870,-0.148,-0.858,-0.338
1775575375890,-0.168,-0.862,-0.350
1775575375910,-0.167,-0.886,-0.331
1775575375929,-0.172,-0.889,-0.288
1775575375949,-0.175,-0.868,-0.255
1775575375969,-0.175,-0.856,-0.241
1775575375989,-0.180,-0.871,-0.237
1775575376008,-0.189,-0.896,-0.230
1775575376028,-0.192,-0.892,-0.184
1775575376048,-0.192,-0.873,-0.140
1775575376067,-0.198,-0.857,-0.122
1775575376087,-0.212,-0.900,-0.124
1775575376107,-0.223,-0.910,-0.107
1775575376127,-0.227,-0.889,-0.071
1775575376146,-0.231,-0.898,-0.004
1775575376166,-0.226,-0.880,0.046
1775575376186,-0.240,-0.884,0.023
1775575376205,-0.252,-0.867,0.020
1775575376225,-0.235,-0.930,0.085
1775575376245,-0.229,-0.954,0.185
1775575376265,-0.223,-0.927,0.226
1775575376284,-0.222,-0.874,0.192
1775575376304,-0.211,-0.854,0.180
1775575376324,-0.198,-0.844,0.266
1775575376343,-0.159,-0.789,0.381
1775575376363,-0.128,-0.797,0.423
1775575376383,-0.102,-0.780,0.378
1775575376403,-0.086,-0.715,0.354
1775575376422,-0.084,-0.712,0.532
1775575376442,-0.084,-0.710,0.799
1775575376462,-0.115,-0.713,0.862
1775575376481,-0.080,-0.752,0.724
1775575376501,-0.065,-0.683,0.751
1775575376521,-0.105,-0.693,0.964
1775575376540,-0.106,-0.703,1.123
1775575376560,-0.102,-0.658,1.094
1775575376580,-0.072,-0.565,1.074
1775575376600,-0.053,-0.517,1.157
1775575376619,-0.078,-0.500,1.241
1775575376639,-0.078,-0.483,1.227
1775575376659,-0.046,-0.434,1.172
1775575376678,-0.053,-0.436,1.153
1775575376698,-0.061,-0.416,1.159
1775575376718,-0.061,-0.369,1.172
1775575376738,-0.064,-0.368,1.164
1775575376757,-0.083,-0.351,1.202
1775575376777,-0.070,-0.437,1.207
1775575376797,-0.033,-0.433,1.042
1775575376817,0.000,-0.381,1.001
1775575376836,-0.037,-0.443,1.147
1775575376856,-0.024,-0.525,1.019
1775575376876,0.004,-0.498,0.769
1775575376895,-0.014,-0.560,0.812
1775575376915,-0.012,-0.469,0.831
1775575376935,-0.075,-0.520,1.032
1775575376955,-0.074,-0.702,1.075
1775575376974,-0.026,-0.572,0.754
1775575376994,0.005,-0.554,0.736
1775575377014,0.016,-0.435,0.846
1775575377033,-0.083,-0.609,1.145
1775575377053,-0.058,-0.690,0.998
1775575377073,-0.046,-0.663,0.669
1775575377093,-0.022,-0.564,0.690
1775575377112,-0.099,-0.711,0.958
1775575377132,-0.056,-0.680,0.866
1775575377152,-0.054,-0.717,0.770
1775575377171,-0.020,-0.624,0.760
1775575377191,-0.071,-0.906,0.950
1775575377211,-0.060,-0.704,0.744
1775575377231,-0.032,-0.750,0.643
1775575377250,-0.031,-0.739,0.766
1775575377270,-0.048,-0.732,0.875
1775575377290,-0.039,-0.943,0.747
1775575377309,-0.008,-0.729,0.523
1775575377329,-0.006,-0.710,0.435
1775575377349,-0.004,-0.811,0.526
1775575377369,-0.077,-0.850,0.634
1775575377388,-0.051,-0.875,0.397
1775575377408,-0.030,-0.819,0.236
1775575377428,-0.043,-0.788,0.304
1775575377447,-0.059,-0.871,0.471
1775575377467,-0.094,-0.845,0.482
1775575377487,-0.090,-0.873,0.298
1775575377507,-0.072,-0.908,0.140
1775575377526,-0.062,-0.886,0.123
1775575377546,-0.075,-0.962,0.278
1775575377566,-0.081,-0.884,0.307
1775575377585,-0.081,-0.948,0.184
1775575377605,-0.037,-0.982,0.173
1775575377625,-0.047,-1.034,0.443
1775575377645,-0.058,-0.911,0.514
1775575377664,-0.032,-1.021,0.311
1775575377684,-0.025,-0.929,0.191
1775575377704,-0.048,-0.968,0.128
1775575377723,-0.036,-1.107,0.110
1775575377743,-0.063,-1.058,0.186
1775575377763,-0.060,-0.965,0.113
1775575377783,-0.064,-0.950,0.021
1775575377802,-0.060,-0.869,0.044
1775575377822,-0.086,-0.968,0.124
1775575377842,-0.090,-0.915,0.106
1775575377861,-0.095,-0.918,0.019
1775575377881,-0.087,-0.884,-0.034
1775575377901,-0.090,-0.884,-0.048
1775575377921,-0.081,-0.859,-0.078
1775575377940,-0.080,-0.816,-0.133
1775575377960,-0.086,-0.866,-0.181
1775575377980,-0.091,-0.870,-0.167
1775575377999,-0.099,-0.837,-0.128
1775575378019,-0.104,-0.854,-0.088
1775575378039,-0.114,-0.832,-0.051
1775575378059,-0.147,-0.859,-0.041
1775575378078,-0.168,-0.924,-0.012
1775575378098,-0.154,-0.983,0.106
1775575378118,-0.174,-0.985,0.260
1775575378137,-0.183,-0.861,0.235
1775575378157,-0.142,-0.990,-0.058
1775575378177,-0.117,-0.937,-0.134
1775575378197,-0.144,-1.002,0.058
1775575378216,-0.147,-0.960,0.164
1775575378236,-0.143,-0.877,0.187
1775575378256,-0.142,-0.865,0.196
1775575378275,-0.146,-0.827,0.191
1775575378295,-0.148,-0.788,0.199
1775575378315,-0.153,-0.767,0.235
1775575378335,-0.162,-0.771,0.266
1775575378354,-0.152,-0.758,0.295
1775575378374,-0.153,-0.710,0.313
1775575378394,-0.140,-0.746,0.387
1775575378413,-0.153,-0.753,0.519
1775575378433,-0.144,-0.706,0.602
1775575378453,-0.123,-0.786,0.678
1775575378473,-0.103,-0.708,0.703
1775575378492,-0.090,-0.714,0.812
1775575378512,-0.095,-0.683,0.978
1775575378532,-0.092,-0.675,1.095
1775575378551,-0.086,-0.634,1.159
1775575378571,-0.070,-0.543,1.219
1775575378591,-0.035,-0.521,1.309
1775575378611,-0.019,-0.447,1.336
1775575378630,-0.043,-0.487,1.273
1775575378650,-0.031,-0.473,1.132
1775575378670,-0.053,-0.398,1.087
1775575378689,-0.064,-0.349,1.105
1775575378709,-0.075,-0.341,1.113
1775575378729,-0.066,-0.359,1.098
1775575378749,-0.050,-0.341,1.044
1775575378768,-0.051,-0.332,1.006
1775575378788,-0.062,-0.367,0.968
1775575378808,-0.054,-0.432,0.911
1775575378827,-0.053,-0.464,0.902
1775575378847,-0.049,-0.476,0.900
1775575378867,-0.051,-0.483,0.894
1775575378887,-0.049,-0.514,0.905
1775575378906,-0.049,-0.540,0.912
1775575378926,-0.045,-0.530,0.905
1775575378946,-0.042,-0.510,0.894
1775575378965,-0.045,-0.488,0.888
1775575378985,-0.046,-0.511,0.888
1775575379005,-0.042,-0.469,0.837
1775575379025,-0.046,-0.530,0.901
1775575379044,-0.042,-0.505,0.916
1775575379064,-0.037,-0.427,0.864
1775575379084,-0.037,-0.446,0.875
1775575379103,-0.046,-0.465,0.886
1775575379123,-0.047,-0.462,0.889
1775575379143,-0.048,-0.463,0.918
1775575379163,-0.049,-0.456,0.934
1775575379182,-0.048,-0.443,0.935
1775575379202,-0.048,-0.459,0.919
1775575379222,-0.044,-0.444,0.898
1775575379241,-0.043,-0.455,0.896
1775575379261,-0.039,-0.453,0.891
1775575379281,-0.040,-0.438,0.919
1775575379301,-0.043,-0.439,0.911
1775575379320,-0.038,-0.458,0.867
1775575379340,-0.035,-0.467,0.857
1775575379360,-0.039,-0.485,0.873
1775575379379,-0.048,-0.512,0.895
1775575379399,-0.054,-0.483,0.907
1775575379419,-0.065,-0.481,0.907
1775575379439,-0.059,-0.489,0.907
1775575379458,-0.071,-0.459,0.918
1775575379478,-0.081,-0.483,0.916
1775575379498,-0.074,-0.506,0.884
1775575379517,-0.054,-0.498,0.865
1775575379537,-0.054,-0.467,0.882
1775575379557,-0.051,-0.460,0.908
1775575379577,-0.046,-0.484,0.905
1775575379596,-0.038,-0.476,0.894
1775575379616,-0.039,-0.460,0.900
1775575379636,-0.027,-0.449,0.898
1775575379655,-0.018,-0.468,0.886
1775575379675,-0.012,-0.475,0.878
1775575379695,-0.027,-0.506,0.878
1775575379715,-0.027,-0.507,0.884
1775575379734,-0.052,-0.471,0.886
1775575379754,-0.064,-0.438,0.886
1775575379774,-0.065,-0.468,0.906
1775575379793,-0.077,-0.483,0.900
1775575379813,-0.079,-0.477,0.905
1775575379833,-0.083,-0.481,0.934
1775575379853,-0.071,-0.494,0.940
1775575379872,-0.084,-0.484,0.960
1775575379892,-0.082,-0.511,0.964
1775575379912,-0.080,-0.534,0.976
1775575379931,-0.073,-0.505,0.978
1775575379951,-0.072,-0.502,0.965
1775575379971,-0.067,-0.567,0.942
1775575379991,-0.029,-0.570,0.922
1775575380010,-0.003,-0.563,0.898
1775575380030,0.017,-0.560,0.837
1775575380050,0.031,-0.587,0.763
1775575380069,0.062,-0.632,0.720
1775575380089,0.086,-0.644,0.702
1775575380109,0.097,-0.616,0.667
1775575380129,0.121,-0.656,0.625
1775575380148,0.141,-0.672,0.599
1775575380168,0.170,-0.663,0.606
1775575380188,0.190,-0.664,0.626
1775575380207,0.210,-0.662,0.600
1775575380227,0.219,-0.669,0.602
1775575380247,0.219,-0.679,0.669
1775575380266,0.231,-0.664,0.701
1775575380286,0.239,-0.657,0.691
1775575380306,0.227,-0.664,0.715
1775575380326,0.217,-0.675,0.748
1775575380345,0.216,-0.644,0.763
1775575380365,0.216,-0.644,0.775
1775575380385,0.205,-0.656,0.780
1775575380404,0.191,-0.633,0.765
1775575380424,0.174,-0.617,0.759
1775575380444,0.166,-0.636,0.762
1775575380464,0.167,-0.641,0.776
1775575380483,0.159,-0.641,0.776
1775575380503,0.152,-0.629,0.770
1775575380523,0.152,-0.659,0.774
1775575380542,0.160,-0.666,0.761
1775575380562,0.161,-0.654,0.759
1775575380582,0.158,-0.648,0.767
1775575380602,0.154,-0.637,0.758
1775575380621,0.159,-0.651,0.756
1775575380641,0.162,-0.655,0.762
1775575380661,0.159,-0.655,0.766
1775575380680,0.156,-0.640,0.764
1775575380700,0.142,-0.623,0.757
1775575380720,0.144,-0.650,0.753
1775575380740,0.142,-0.666,0.766
1775575380759,0.140,-0.637,0.781
1775575380779,0.135,-0.615,0.786
1775575380799,0.138,-0.636,0.778
1775575380818,0.138,-0.640,0.775
1775575380838,0.141,-0.629,0.783
1775575380858,0.141,-0.619,0.788
1775575380878,0.139,-0.617,0.793
1775575380897,0.138,-0.636,0.784
1775575380917,0.144,-0.636,0.778
1775575380937,0.150,-0.645,0.785
1775575380956,0.138,-0.617,0.792
1775575380976,0.142,-0.612,0.785
1775575380996,0.155,-0.665,0.777
1775575381016,0.164,-0.641,0.742
1775575381035,0.158,-0.629,0.753
1775575381055,0.145,-0.608,0.784
1775575381075,0.140,-0.634,0.791
1775575381094,0.140,-0.634,0.774
1775575381114,0.140,-0.637,0.777
1775575381134,0.142,-0.622,0.776
1775575381154,0.141,-0.629,0.778
1775575381173,0.145,-0.620,0.783
1775575381193,0.126,-0.632,0.787
1775575381213,0.124,-0.640,0.774
1775575381232,0.125,-0.639,0.782
1775575381252,0.130,-0.651,0.797
1775575381272,0.148,-0.631,0.797
1775575381292,0.151,-0.609,0.792
1775575381311,0.150,-0.587,0.761
1775575381331,0.147,-0.610,0.738
1775575381351,0.156,-0.638,0.763
1775575381370,0.158,-0.634,0.788
1775575381390,0.145,-0.629,0.794
1775575381410,0.145,-0.625,0.778
1775575381430,0.135,-0.639,0.776
1775575381449,0.138,-0.644,0.787
1775575381469,0.136,-0.624,0.777
1775575381489,0.125,-0.628,0.784
1775575381508,0.125,-0.622,0.795
1775575381528,0.127,-0.646,0.814
1775575381548,0.135,-0.630,0.804
1775575381568,0.147,-0.600,0.774
1775575381587,0.152,-0.618,0.775
1775575381607,0.141,-0.623,0.781
1775575381627,0.149,-0.607,0.769
1775575381646,0.149,-0.610,0.774
1775575381666,0.136,-0.614,0.791
1775575381686,0.122,-0.633,0.818
1775575381706,0.131,-0.628,0.813
1775575381725,0.132,-0.626,0.808
1775575381745,0.124,-0.634,0.818
1775575381765,0.138,-0.632,0.806
1775575381784,0.141,-0.622,0.766
1775575381804,0.151,-0.619,0.718
1775575381824,0.142,-0.630,0.728
1775575381844,0.142,-0.668,0.758
1775575381863,0.157,-0.654,0.768
1775575381883,0.133,-0.648,0.773
1775575381903,0.118,-0.652,0.774
1775575381922,0.119,-0.676,0.766
1775575381942,0.124,-0.656,0.748
1775575381962,0.118,-0.656,0.768
1775575381981,0.113,-0.671,0.794
1775575382001,0.119,-0.654,0.787
1775575382021,0.125,-0.673,0.777
1775575382041,0.126,-0.658,0.756
1775575382060,0.131,-0.652,0.735
1775575382080,0.134,-0.662,0.740
1775575382100,0.135,-0.673,0.732
1775575382119,0.142,-0.654,0.705
1775575382139,0.149,-0.673,0.721
1775575382159,0.139,-0.661,0.729
1775575382179,0.139,-0.659,0.723
1775575382198,0.140,-0.671,0.727
1775575382218,0.136,-0.678,0.739
1775575382238,0.136,-0.681,0.758
1775575382257,0.137,-0.681,0.767
1775575382277,0.146,-0.681,0.750
1775575382297,0.145,-0.676,0.721
1775575382317,0.147,-0.676,0.722
1775575382336,0.152,-0.674,0.731
1775575382356,0.155,-0.660,0.715
1775575382376,0.158,-0.662,0.730
1775575382395,0.141,-0.661,0.748
1775575382415,0.140,-0.680,0.768
1775575382435,0.135,-0.673,0.782
1775575382455,0.141,-0.670,0.786
1775575382474,0.150,-0.652,0.780
1775575382494,0.149,-0.630,0.743
1775575382514,0.141,-0.635,0.744
1775575382533,0.133,-0.674,0.746
1775575382553,0.129,-0.672,0.728
1775575382573,0.138,-0.664,0.733
1775575382593,0.134,-0.662,0.743
1775575382612,0.140,-0.668,0.742
1775575382632,0.150,-0.655,0.753
1775575382652,0.144,-0.654,0.762
1775575382671,0.142,-0.665,0.778
1775575382691,0.143,-0.666,0.772
1775575382711,0.140,-0.666,0.756
1775575382731,0.137,-0.659,0.756
1775575382750,0.133,-0.669,0.762
1775575382770,0.137,-0.654,0.745
1775575382790,0.143,-0.653,0.744
1775575382809,0.138,-0.655,0.753
1775575382829,0.135,-0.655,0.744
1775575382849,0.136,-0.663,0.749
1775575382869,0.141,-0.659,0.758
1775575382888,0.149,-0.653,0.765
1775575382908,0.147,-0.644,0.760
1775575382928,0.137,-0.638,0.769
1775575382947,0.133,-0.655,0.772
1775575382967,0.139,-0.657,0.765
1775575382987,0.134,-0.656,0.762
1775575383007,0.135,-0.654,0.756
1775575383026,0.134,-0.657,0.754
1775575383046,0.137,-0.632,0.759
1775575383066,0.134,-0.660,0.781
1775575383085,0.138,-0.653,0.779
1775575383105,0.134,-0.618,0.754
1775575383125,0.128,-0.610,0.740
1775575383145,0.115,-0.659,0.756
1775575383164,0.117,-0.668,0.770
1775575383184,0.112,-0.642,0.776
1775575383204,0.114,-0.644,0.778
1775575383223,0.113,-0.644,0.785
1775575383243,0.116,-0.645,0.802
1775575383263,0.129,-0.635,0.793
1775575383283,0.133,-0.633,0.777
1775575383302,0.124,-0.614,0.764
1775575383322,0.122,-0.639,0.764
1775575383342,0.120,-0.650,0.772
1775575383361,0.120,-0.642,0.786
1775575383381,0.115,-0.630,0.794
1775575383401,0.119,-0.620,0.782
1775575383421,0.119,-0.652,0.783
1775575383440,0.116,-0.650,0.789
1775575383460,0.113,-0.634,0.786
1775575383480,0.111,-0.613,0.781
1775575383500,0.109,-0.617,0.782
1775575383519,0.105,-0.631,0.786
1775575383539,0.106,-0.644,0.790
1775575383559,0.106,-0.633,0.799
1775575383578,0.108,-0.622,0.791
1775575383598,0.108,-0.610,0.807
1775575383618,0.111,-0.616,0.817
1775575383638,0.112,-0.621,0.806
1775575383657,0.111,-0.617,0.801
1775575383677,0.114,-0.622,0.801
1775575383697,0.119,-0.621,0.782
1775575383716,0.125,-0.600,0.778
1775575383736,0.113,-0.602,0.792
1775575383756,0.122,-0.608,0.796
1775575383776,0.127,-0.609,0.793
1775575383795,0.133,-0.588,0.794
1775575383815,0.138,-0.573,0.823
1775575383835,0.129,-0.577,0.847
1775575383854,0.137,-0.581,0.815
1775575383874,0.146,-0.602,0.793
1775575383894,0.142,-0.614,0.801
1775575383914,0.139,-0.609,0.789
1775575383933,0.137,-0.628,0.763
1775575383953,0.127,-0.639,0.749
1775575383973,0.130,-0.637,0.768
1775575383992,0.119,-0.614,0.795
1775575384012,0.111,-0.591,0.808
1775575384032,0.105,-0.597,0.809
1775575384052,0.101,-0.625,0.814
1775575384071,0.098,-0.613,0.802
1775575384091,0.099,-0.615,0.782
1775575384111,0.114,-0.626,0.778
1775575384170,0.130,-0.604,0.836
1775575384190,0.138,-0.590,0.808
1775575384209,0.134,-0.600,0.799
1775575384229,0.118,-0.584,0.797
1775575384249,0.120,-0.585,0.822
1775575384268,0.113,-0.614,0.847
1775575384288,0.107,-0.615,0.826
1775575384308,0.106,-0.632,0.800
1775575384328,0.101,-0.646,0.800
1775575384347,0.107,-0.620,0.776
1775575384367,0.089,-0.629,0.769
1775575384387,0.082,-0.654,0.750
1775575384406,0.078,-0.661,0.726
1775575384426,0.066,-0.657,0.718
1775575384446,0.071,-0.676,0.753
1775575384466,0.082,-0.713,0.795
1775575384485,0.087,-0.678,0.802
1775575384505,0.086,-0.626,0.771
1775575384525,0.089,-0.626,0.743
1775575384544,0.082,-0.687,0.761
1775575384564,0.072,-0.680,0.758
1775575384584,0.054,-0.660,0.745
1775575384604,0.055,-0.679,0.735
1775575384623,0.054,-0.720,0.740
1775575384643,0.028,-0.709,0.761
1775575384663,0.014,-0.693,0.759
1775575384682,0.009,-0.698,0.745
1775575384702,-0.008,-0.734,0.738
1775575384722,-0.022,-0.711,0.699
1775575384742,-0.050,-0.718,0.714
1775575384761,-0.059,-0.728,0.711
1775575384781,-0.076,-0.782,0.709
1775575384801,-0.093,-0.790,0.690
1775575384820,-0.092,-0.733,0.662
1775575384840,-0.102,-0.750,0.660
1775575384860,-0.119,-0.783,0.616
1775575384879,-0.129,-0.774,0.594
1775575384899,-0.140,-0.840,0.589
1775575384919,-0.134,-0.825,0.564
1775575384939,-0.145,-0.795,0.576
1775575384958,-0.154,-0.817,0.565
1775575384978,-0.158,-0.852,0.528
1775575384998,-0.159,-0.849,0.514
1775575385017,-0.167,-0.842,0.510
1775575385037,-0.170,-0.853,0.486
1775575385057,-0.175,-0.847,0.454
1775575385077,-0.180,-0.861,0.433
1775575385096,-0.184,-0.864,0.427
1775575385116,-0.187,-0.870,0.417
1775575385136,-0.187,-0.873,0.399
1775575385155,-0.193,-0.883,0.394
1775575385175,-0.197,-0.873,0.391
1775575385195,-0.206,-0.867,0.404
1775575385215,-0.212,-0.886,0.397
1775575385234,-0.210,-0.888,0.379
1775575385254,-0.221,-0.898,0.390
1775575385274,-0.222,-0.897,0.382
1775575385294,-0.223,-0.887,0.383
1775575385313,-0.225,-0.895,0.400
1775575385333,-0.219,-0.907,0.404
1775575385353,-0.224,-0.899,0.400
1775575385372,-0.223,-0.891,0.408
1775575385392,-0.220,-0.899,0.408
1775575385412,-0.214,-0.898,0.405
1775575385432,-0.214,-0.894,0.418
1775575385451,-0.201,-0.889,0.408
1775575385471,-0.205,-0.874,0.407
1775575385491,-0.203,-0.900,0.403
1775575385510,-0.204,-0.894,0.401
1775575385530,-0.205,-0.909,0.413
1775575385550,-0.208,-0.893,0.419
1775575385570,-0.206,-0.877,0.417
1775575385589,-0.206,-0.891,0.411
1775575385609,-0.205,-0.899,0.399
1775575385629,-0.208,-0.900,0.400
1775575385648,-0.206,-0.895,0.392
1775575385668,-0.208,-0.896,0.398
1775575385688,-0.210,-0.899,0.395
1775575385708,-0.206,-0.892,0.392
1775575385727,-0.209,-0.890,0.410
1775575385747,-0.206,-0.901,0.406
1775575385767,-0.209,-0.896,0.400
1775575385786,-0.211,-0.898,0.397
1775575385806,-0.212,-0.888,0.401
1775575385826,-0.209,-0.890,0.411
1775575385846,-0.204,-0.898,0.408
1775575385865,-0.201,-0.892,0.404
1775575385885,-0.205,-0.896,0.411
1775575385905,-0.198,-0.890,0.409
1775575385924,-0.200,-0.894,0.408
1775575385944,-0.201,-0.890,0.407
1775575385964,-0.201,-0.893,0.406
1775575385984,-0.205,-0.896,0.405
1775575386003,-0.201,-0.892,0.408
1775575386023,-0.208,-0.886,0.421
1775575386043,-0.206,-0.893,0.434
1775575386062,-0.208,-0.891,0.450
1775575386082,-0.206,-0.885,0.437
1775575386102,-0.201,-0.881,0.418
1775575386122,-0.203,-0.885,0.418
1775575386141,-0.205,-0.894,0.437
1775575386161,-0.213,-0.886,0.436
1775575386181,-0.214,-0.873,0.429
1775575386200,-0.217,-0.905,0.439
1775575386220,-0.222,-0.903,0.449
1775575386240,-0.223,-0.886,0.449
1775575386259,-0.229,-0.881,0.447
1775575386279,-0.217,-0.891,0.445
1775575386299,-0.219,-0.882,0.442
1775575386319,-0.212,-0.859,0.410
1775575386338,-0.208,-0.889,0.408
1775575386358,-0.206,-0.891,0.407
1775575386378,-0.208,-0.872,0.399
1775575386397,-0.206,-0.884,0.411
1775575386417,-0.206,-0.885,0.410
1775575386437,-0.206,-0.899,0.410
1775575386457,-0.206,-0.883,0.412
1775575386476,-0.211,-0.869,0.415
1775575386496,-0.210,-0.898,0.412
1775575386516,-0.216,-0.899,0.425
1775575386535,-0.214,-0.885,0.426
1775575386555,-0.218,-0.888,0.431
1775575386575,-0.223,-0.887,0.450
1775575386595,-0.219,-0.877,0.447
1775575386614,-0.222,-0.878,0.452
1775575386634,-0.226,-0.894,0.462
1775575386654,-0.225,-0.868,0.462
1775575386673,-0.227,-0.869,0.462
1775575386693,-0.224,-0.886,0.462
1775575386713,-0.226,-0.891,0.447
1775575386733,-0.221,-0.882,0.442
1775575386752,-0.220,-0.881,0.438
1775575386772,-0.214,-0.893,0.439
1775575386792,-0.216,-0.890,0.443
1775575386811,-0.208,-0.882,0.439
1775575386831,-0.220,-0.874,0.424
1775575386851,-0.211,-0.882,0.419
1775575386870,-0.211,-0.889,0.431
1775575386890,-0.205,-0.898,0.426
1775575386910,-0.205,-0.886,0.426
1775575386930,-0.205,-0.884,0.435
1775575386949,-0.198,-0.908,0.437
1775575386969,-0.194,-0.898,0.428
1775575386989,-0.193,-0.874,0.406
1775575387008,-0.188,-0.874,0.397
1775575387028,-0.192,-0.898,0.402
1775575387048,-0.195,-0.886,0.411
1775575387068,-0.193,-0.892,0.413
1775575387087,-0.201,-0.884,0.422
1775575387107,-0.204,-0.904,0.420
1775575387127,-0.212,-0.893,0.427
1775575387146,-0.214,-0.907,0.418
1775575387166,-0.214,-0.899,0.401
1775575387186,-0.213,-0.895,0.410
1775575387206,-0.214,-0.896,0.418
1775575387225,-0.213,-0.893,0.421
1775575387245,-0.203,-0.892,0.432
1775575387265,-0.202,-0.886,0.417
1775575387284,-0.202,-0.896,0.406
1775575387304,-0.202,-0.894,0.410
1775575387324,-0.206,-0.901,0.411
1775575387344,-0.203,-0.901,0.421
1775575387363,-0.203,-0.888,0.419
1775575387383,-0.201,-0.891,0.410
1775575387403,-0.203,-0.906,0.407
1775575387422,-0.202,-0.896,0.414
1775575387442,-0.202,-0.901,0.423
1775575387462,-0.194,-0.895,0.415
1775575387481,-0.192,-0.895,0.418
1775575387501,-0.189,-0.889,0.415
1775575387521,-0.187,-0.883,0.423
1775575387541,-0.189,-0.886,0.424
1775575387560,-0.190,-0.891,0.425
1775575387580,-0.194,-0.904,0.420
1775575387600,-0.195,-0.884,0.412
1775575387619,-0.196,-0.905,0.418
1775575387639,-0.202,-0.898,0.438
1775575387659,-0.204,-0.894,0.439
1775575387679,-0.205,-0.888,0.409
1775575387698,-0.203,-0.903,0.398
1775575387718,-0.206,-0.901,0.395
1775575387738,-0.203,-0.893,0.409
1775575387757,-0.202,-0.896,0.425
1775575387777,-0.199,-0.901,0.425
1775575387797,-0.200,-0.895,0.430
1775575387817,-0.197,-0.892,0.422
1775575387836,-0.195,-0.887,0.415
1775575387856,-0.197,-0.888,0.420
1775575387876,-0.195,-0.895,0.412
1775575387895,-0.199,-0.890,0.415
1775575387915,-0.202,-0.898,0.420
1775575387935,-0.202,-0.896,0.422
1775575387955,-0.202,-0.893,0.419
1775575387974,-0.204,-0.901,0.420
1775575387994,-0.202,-0.905,0.414
1775575388014,-0.205,-0.893,0.423
1775575388033,-0.199,-0.894,0.420
1775575388053,-0.200,-0.895,0.426
1775575388073,-0.201,-0.893,0.420
1775575388093,-0.197,-0.896,0.409
1775575388112,-0.202,-0.898,0.410
1775575388132,-0.198,-0.893,0.412
1775575388152,-0.201,-0.895,0.421
1775575388171,-0.192,-0.898,0.415
1775575388191,-0.194,-0.894,0.418
1775575388211,-0.192,-0.897,0.413
1775575388230,-0.191,-0.894,0.419
1775575388250,-0.193,-0.895,0.422
1775575388270,-0.196,-0.891,0.417
1775575388290,-0.194,-0.896,0.416
1775575388309,-0.193,-0.899,0.421
1775575388329,-0.206,-0.902,0.441
1775575388349,-0.191,-0.897,0.421
1775575388368,-0.186,-0.903,0.403
1775575388388,-0.188,-0.902,0.413
1775575388408,-0.195,-0.891,0.406
1775575388428,-0.192,-0.895,0.404
1775575388447,-0.197,-0.898,0.412
1775575388467,-0.193,-0.897,0.410
1775575388487,-0.189,-0.887,0.404
1775575388506,-0.191,-0.894,0.407
1775575388526,-0.195,-0.890,0.408
1775575388546,-0.195,-0.902,0.404
1775575388566,-0.202,-0.904,0.396
1775575388585,-0.200,-0.897,0.398
1775575388605,-0.207,-0.915,0.412
1775575388625,-0.204,-0.902,0.420
1775575388644,-0.199,-0.893,0.417
1775575388664,-0.201,-0.901,0.420
1775575388684,-0.200,-0.896,0.431
1775575388704,-0.199,-0.894,0.428
1775575388723,-0.197,-0.897,0.425
1775575388743,-0.198,-0.897,0.416
1775575388763,-0.204,-0.886,0.411
1775575388782,-0.205,-0.888,0.405
1775575388802,-0.209,-0.899,0.412
1775575388822,-0.207,-0.891,0.419
1775575388841,-0.216,-0.905,0.427
1775575388861,-0.227,-0.895,0.430
1775575388881,-0.238,-0.924,0.462
1775575388901,-0.247,-0.928,0.486
1775575388920,-0.247,-0.917,0.468
1775575388940,-0.268,-0.929,0.484
1775575388960,-0.278,-0.950,0.492
1775575388979,-0.285,-0.979,0.453
1775575388999,-0.271,-0.974,0.467
1775575389019,-0.270,-0.964,0.477
1775575389039,-0.293,-0.944,0.464
1775575389058,-0.312,-0.941,0.405
1775575389078,-0.315,-1.022,0.321
1775575389098,-0.334,-1.063,0.358
1775575389117,-0.379,-1.050,0.424
1775575389137,-0.400,-1.019,0.357
1775575389157,-0.376,-1.043,0.296
1775575389177,-0.395,-1.029,0.326
1775575389196,-0.385,-0.985,0.291
1775575389216,-0.350,-0.997,0.195
1775575389236,-0.315,-1.063,0.154
1775575389255,-0.303,-1.018,0.147
1775575389275,-0.300,-0.956,0.092
1775575389295,-0.263,-0.978,0.011
1775575389315,-0.273,-0.978,-0.028
1775575389334,-0.246,-0.971,-0.013
1775575389354,-0.253,-0.945,-0.006
1775575389374,-0.268,-0.944,-0.037
1775575389393,-0.262,-0.883,-0.017
1775575389413,-0.236,-0.921,-0.047
1775575389433,-0.242,-0.906,-0.121
1775575389453,-0.248,-0.910,-0.163
1775575389472,-0.275,-0.910,-0.167
1775575389492,-0.281,-0.936,-0.166
1775575389512,-0.295,-0.928,-0.195
1775575389531,-0.281,-0.897,-0.179
1775575389551,-0.305,-0.935,-0.204
1775575389571,-0.305,-0.914,-0.230
1775575389591,-0.298,-0.947,-0.268
1775575389610,-0.280,-0.965,-0.300
1775575389630,-0.261,-0.937,-0.310
1775575389650,-0.252,-0.953,-0.256
1775575389669,-0.218,-0.911,-0.199
1775575389689,-0.193,-0.880,-0.202
1775575389709,-0.181,-0.882,-0.272
1775575389729,-0.163,-0.845,-0.305
1775575389748,-0.142,-0.844,-0.293
1775575389768,-0.123,-0.870,-0.287
1775575389788,-0.127,-0.851,-0.332
1775575389807,-0.135,-0.808,-0.384
1775575389827,-0.131,-0.824,-0.383
1775575389847,-0.128,-0.882,-0.358
1775575389867,-0.118,-0.857,-0.393
1775575389886,-0.127,-0.841,-0.429
1775575389906,-0.134,-0.850,-0.382
1775575389926,-0.132,-0.850,-0.329
1775575389945,-0.119,-0.815,-0.364
1775575389965,-0.112,-0.839,-0.425
1775575389985,-0.113,-0.811,-0.452
1775575390005,-0.115,-0.774,-0.460
1775575390024,-0.110,-0.781,-0.480
1775575390044,-0.115,-0.839,-0.489
1775575390064,-0.107,-0.829,-0.517
1775575390083,-0.093,-0.803,-0.555
1775575390103,-0.089,-0.814,-0.559
1775575390123,-0.087,-0.803,-0.562
1775575390143,-0.088,-0.800,-0.580
1775575390162,-0.084,-0.774,-0.587
1775575390182,-0.091,-0.778,-0.581
1775575390202,-0.091,-0.788,-0.559
1775575390221,-0.091,-0.778,-0.563
1775575390241,-0.077,-0.781,-0.574
1775575390261,-0.075,-0.769,-0.574
1775575390281,-0.071,-0.783,-0.567
1775575390300,-0.076,-0.805,-0.562
1775575390320,-0.069,-0.801,-0.578
1775575390340,-0.069,-0.794,-0.591
1775575390360,-0.063,-0.806,-0.577
1775575390379,-0.055,-0.796,-0.563
1775575390399,-0.046,-0.792,-0.575
1775575390419,-0.042,-0.818,-0.573
1775575390438,-0.033,-0.824,-0.572
1775575390458,-0.026,-0.812,-0.590
1775575390478,-0.016,-0.823,-0.579
1775575390498,-0.008,-0.799,-0.565
1775575390517,-0.003,-0.817,-0.565
1775575390537,-0.007,-0.819,-0.566
1775575390557,0.002,-0.804,-0.566
1775575390576,0.010,-0.815,-0.559
1775575390596,0.014,-0.851,-0.556
1775575390616,0.012,-0.830,-0.576
1775575390636,0.011,-0.821,-0.581
1775575390655,0.008,-0.834,-0.565
1775575390675,0.007,-0.821,-0.556
1775575390695,-0.001,-0.846,-0.557
1775575390714,-0.006,-0.838,-0.540
1775575390734,-0.013,-0.823,-0.542
1775575390754,-0.022,-0.831,-0.539
1775575390774,-0.026,-0.845,-0.535
1775575390793,-0.025,-0.850,-0.533
1775575390813,-0.030,-0.862,-0.531
1775575390833,-0.033,-0.841,-0.524
1775575390852,-0.029,-0.830,-0.529
1775575390872,-0.029,-0.858,-0.525
1775575390892,-0.028,-0.863,-0.526
1775575390912,-0.026,-0.857,-0.538
1775575390931,-0.024,-0.853,-0.526
1775575390951,-0.018,-0.842,-0.527
1775575390971,-0.018,-0.845,-0.529
1775575390990,-0.020,-0.862,-0.524
1775575391010,-0.018,-0.859,-0.517
1775575391030,-0.013,-0.859,-0.522
