absolute_timestamp,accel_x,accel_y,accel_z
1144509733.386,0.179009,0.212643,-0.757121
1144509733.396,0.131927,0.623642,-0.643972
1144509733.406,-0.036783,0.651042,-0.569840
1144509733.416,-0.197646,0.345729,-0.495708
1144509733.426,-0.362433,-0.347098,-0.366953
1144509733.436,-0.605689,-1.251297,-0.292821
1144509733.446,-0.727317,-1.881495,-0.480101
1144509733.456,-0.542913,-1.634896,-0.495708
1144509733.466,-0.727317,-2.104609,-0.480101
1144509733.477,-0.782246,-2.719150,-0.452790
1144509733.486,-1.001962,-3.294549,-0.503512
1144509733.496,-1.119667,-3.748605,-0.581545
1144509733.506,-1.072585,-4.081319,-0.706399
1144509733.516,-0.966650,-4.171348,-0.870269
1144509733.526,-0.684159,-3.959976,-1.018533
1144509733.536,-0.315351,-3.486349,-1.131682
1144509733.546,0.069152,-2.750465,-1.198010
1144509733.556,0.437960,-1.803210,-1.225322
1144509733.566,0.732222,-0.754183,-1.205813
1144509733.576,0.963708,0.345729,-1.135583
1144509733.586,1.093183,1.410412,-1.045845
1144509733.596,1.120648,2.357667,-0.979516
1144509733.606,1.042178,3.077894,-0.905384
1144509733.616,0.885238,3.449750,-0.846859
1144509733.626,0.669446,3.441922,-0.796137
1144509733.636,0.441883,3.054408,-0.702497
1144509733.646,0.175086,2.357667,-0.620562
1144509733.657,-0.087788,1.402583,-0.511315
1144509733.666,-0.350662,0.279186,-0.402068
1144509733.676,-0.637077,-0.891183,-0.324034
1144509733.686,-0.880334,-1.998924,-0.288919
1144509733.705,-1.307994,-3.881691,-0.433281
1144509733.715,-1.366847,-4.461004,-0.593250
1144509733.726,-1.304071,-4.715432,-0.757121
1144509733.735,-1.072585,-4.641061,-0.975615
1144509733.745,-0.719470,-4.265290,-1.139485
1144509733.755,-0.280039,-3.556806,-1.264339
1144509733.765,0.167239,-2.633036,-1.311159
1144509733.775,0.539971,-1.525296,-1.315060
1144509733.785,0.826385,-0.370584,-1.244830
1144509733.795,1.022560,0.795870,-1.162895
1144509733.805,1.112801,1.848811,-1.045845
1144509733.815,1.101030,2.698209,-0.979516
1144509733.825,0.991172,3.257951,-0.913188
1144509733.835,0.818539,3.531950,-0.839056
1144509733.845,0.610593,3.477150,-0.784432
1144509733.855,0.371260,3.101380,-0.710300
1144509733.865,0.124080,2.443781,-0.593250
1144509733.875,-0.123100,1.574812,-0.484003
1144509733.885,-0.389897,0.521871,-0.366953
1144509733.894,-0.664542,-0.632841,-0.296723
1144509733.905,-0.931339,-1.732753,-0.261607
1144509733.914,-1.147131,-2.758293,-0.273313
1144509733.924,-1.319765,-3.639005,-0.366953
1144509733.935,-1.417852,-4.284861,-0.487905
1144509733.945,-1.378617,-4.625403,-0.643972
1144509733.955,-1.194213,-4.637147,-0.811744
1144509733.964,-0.907798,-4.367061,-0.975615
1144509733.975,-0.507602,-3.822977,-1.088763
1144509733.985,-0.091712,-3.055778,-1.174600
1144509733.995,0.312408,-2.096780,-1.221420
1144509734.004,0.657675,-1.016440,-1.213617
1144509734.014,0.920549,0.110872,-1.139485
1144509734.024,1.065719,1.191212,-1.030238
1144509734.035,1.101030,2.146296,-0.940500
1144509734.045,1.018637,2.886094,-0.858564
1144509734.055,0.889161,3.336236,-0.800039
1144509734.065,0.685140,3.469322,-0.741514
1144509734.074,0.465424,3.281436,-0.679087
1144509734.084,0.241785,2.764752,-0.597152
1144509734.094,-0.013242,1.974068,-0.507413
1144509734.104,-0.260422,0.960270,-0.460593
1144509734.114,-0.511525,-0.092670,-0.363051
1144509734.126,-0.746935,-1.165182,-0.277214
1144509734.134,-0.982344,-2.151580,-0.234296
1144509734.144,-1.198136,-3.047950,-0.238197
1144509734.154,-1.374694,-3.744691,-0.292821
1144509734.164,-1.468857,-4.237890,-0.480101
1144509734.174,-1.425699,-4.480575,-0.714202
1144509734.184,-1.217754,-4.445347,-0.932696
1144509734.194,-0.864640,-4.081319,-1.112173
1144509734.204,-0.421285,-3.490263,-1.240929
1144509734.214,0.025993,-2.676093,-1.303355
1144509734.224,0.379107,-1.674039,-1.295552
1144509734.234,0.665522,-0.566298,-1.225322
1144509734.244,0.853850,0.592328,-1.166797
1144509734.254,0.951937,1.668754,-1.139485
1144509734.264,0.959784,2.553381,-1.057550
1144509734.274,0.889161,3.269694,-1.010730
1144509734.284,0.759686,3.676778,-0.924893
1144509734.294,0.559588,3.731578,-0.823449
1144509734.304,0.288867,3.410608,-0.772727
1144509734.314,-0.025012,2.796066,-0.694694
1144509734.324,-0.319274,2.013211,-0.593250
1144509734.333,-0.535066,1.093356,-0.503512
1144509734.344,-0.715547,0.083472,-0.386461
1144509734.354,-0.884257,-0.914669,-0.324034
1144509734.364,-1.088279,-1.854095,-0.320133
1144509734.374,-1.288377,-2.680008,-0.398166
1144509734.383,-1.323688,-2.805264,-0.565938
1144509734.394,-0.954880,-1.764067,-0.675185
1144509734.403,-0.621383,-1.028183,-0.761022
1144509734.414,-0.550760,-0.832469,-0.850761
1144509734.424,-0.472290,-0.801155,-0.920991
1144509734.434,-0.413438,-0.566298,-0.960008
1144509734.444,-0.280039,-0.452784,-0.706399
1144509734.454,-0.240804,-0.198356,-0.913188
1144509734.464,-0.213340,-0.190527,-0.874171
1144509734.474,-0.264345,-0.037871,-0.940500
1144509734.483,-0.174105,-0.026128,-0.827351
1144509734.493,-0.189799,-0.049613,-0.905384
1144509734.503,-0.193722,-0.221842,-0.967811
1144509734.513,-0.232957,-0.300127,-1.061451
1144509734.523,-0.221187,-0.331441,-1.108272
1144509734.533,-0.225110,-0.362756,-1.147288
1144509734.543,-0.213340,-0.413641,-1.119977
1144509734.553,-0.127023,-0.401898,-1.080960
1144509734.563,-0.064247,-0.394070,-1.006828
1144509734.573,-0.076018,-0.397984,-0.987320
1144509734.583,-0.079941,-0.401898,-0.971713
1144509734.595,-0.072094,-0.409727,-0.963910
1144509734.603,-0.044630,-0.417555,-0.956106
1144509734.613,-0.044630,-0.394070,-0.960008
1144509734.623,-0.091712,-0.382327,-0.967811
1144509734.633,-0.134870,-0.397984,-0.983418
1144509734.643,-0.146641,-0.413641,-1.002926
1144509734.653,-0.107406,-0.441041,-1.038041
1144509734.663,-0.025012,-0.484098,-1.065353
1144509734.673,0.037764,-0.527155,-1.096566
1144509734.683,0.061305,-0.570212,-1.061451
1144509734.693,0.045611,-0.534984,-1.006828
1144509734.703,0.029917,-0.484098,-0.967811
1144509734.713,0.033840,-0.480184,-0.979516
1144509734.723,0.049534,-0.495841,-0.999025
1144509734.733,0.049534,-0.488012,-1.034140
1144509734.743,0.057381,-0.444955,-1.045845
1144509734.753,0.037764,-0.378413,-1.077058
1144509734.763,0.041687,-0.307956,-1.077058
1144509734.773,0.049534,-0.257070,-1.080960
1144509734.783,0.045611,-0.206185,-1.053648
1144509734.793,0.022070,-0.159213,-0.991221
1144509734.803,0.014223,-0.123985,-0.960008
1144509734.813,0.037764,-0.077013,-0.928794
1144509734.823,0.033840,-0.010471,-0.901483
1144509734.833,0.041687,0.036501,-0.905384
1144509734.843,0.061305,0.048243,-0.905384
1144509734.853,0.088769,0.048243,-0.917089
1144509734.863,0.088769,0.013015,-0.932696
1144509734.873,0.088769,-0.049613,-0.975615
1144509734.883,0.084846,-0.127899,-0.995123
1144509734.893,0.096616,-0.198356,-0.991221
1144509734.903,0.116233,-0.260984,-1.006828
1144509734.913,0.128004,-0.304041,-0.979516
1144509734.923,0.128004,-0.311870,-0.932696
1144509734.932,0.124080,-0.311870,-0.893679
1144509734.942,0.139774,-0.319699,-0.936598
1144509734.952,0.151545,-0.319699,-0.983418
1144509734.962,0.139774,-0.323613,-0.999025
1144509734.972,0.151545,-0.311870,-1.006828
1144509734.982,0.128004,-0.288384,-0.987320
1144509734.992,0.116233,-0.284470,-0.952205
1144509735.001,0.112310,-0.276641,-0.967811
1144509735.012,0.112310,-0.260984,-0.975615
1144509735.022,0.120157,-0.249242,-0.975615
1144509735.032,0.100539,-0.214013,-0.971713
1144509735.042,0.100539,-0.190527,-0.983418
1144509735.052,0.092693,-0.174870,-0.963910
1144509735.063,0.100539,-0.174870,-0.967811
1144509735.072,0.092693,-0.170956,-0.960008
1144509735.082,0.092693,-0.186613,-0.960008
1144509735.092,0.084846,-0.210099,-0.967811
1144509735.102,0.076999,-0.233584,-0.960008
1144509735.112,0.080922,-0.253156,-0.971713
1144509735.122,0.080922,-0.260984,-0.963910
1144509735.132,0.092693,-0.257070,-0.971713
1144509735.141,0.096616,-0.260984,-0.948303
1144509735.152,0.084846,-0.272727,-0.975615
1144509735.162,0.088769,-0.276641,-0.952205
1144509735.172,0.084846,-0.268813,-0.956106
1144509735.182,0.088769,-0.257070,-0.967811
1144509735.192,0.088769,-0.257070,-0.928794
1144509735.202,0.084846,-0.257070,-0.944401
1144509735.212,0.088769,-0.249242,-0.940500
1144509735.222,0.096616,-0.257070,-0.960008
1144509735.232,0.096616,-0.260984,-0.963910
1144509735.242,0.084846,-0.260984,-0.960008
1144509735.251,0.088769,-0.272727,-0.952205
1144509735.262,0.076999,-0.292299,-0.952205
1144509735.272,0.080922,-0.300127,-0.967811
1144509735.281,0.080922,-0.311870,-0.928794
1144509735.292,0.069152,-0.319699,-0.932696
1144509735.302,0.069152,-0.319699,-0.936598
1144509735.312,0.069152,-0.331441,-0.960008
1144509735.322,0.065228,-0.315784,-0.979516
1144509735.332,0.061305,-0.300127,-0.979516
1144509735.344,0.057381,-0.284470,-0.960008
1144509735.352,0.065228,-0.276641,-0.956106
1144509735.362,0.069152,-0.276641,-0.948303
1144509735.371,0.076999,-0.268813,-0.924893
1144509735.382,0.076999,-0.276641,-0.901483
1144509735.392,0.084846,-0.280556,-0.901483
1144509735.401,0.088769,-0.284470,-0.928794
1144509735.411,0.088769,-0.276641,-0.952205
1144509735.421,0.108386,-0.292299,-0.948303
1144509735.431,0.112310,-0.307956,-0.975615
1144509735.442,0.131927,-0.307956,-0.967811
1144509735.451,0.143698,-0.327527,-0.967811
1144509735.461,0.159392,-0.339270,-0.975615
1144509735.472,0.171162,-0.347098,-0.936598
1144509735.481,0.163315,-0.382327,-0.932696
1144509735.491,0.151545,-0.405813,-0.940500
1144509735.501,0.131927,-0.437127,-0.944401
1144509735.511,0.128004,-0.464527,-0.952205
1144509735.521,0.112310,-0.491927,-0.940500
1144509735.532,0.096616,-0.527155,-0.960008
1144509735.541,0.092693,-0.531069,-0.999025
1144509735.551,0.100539,-0.519327,-1.010730
1144509735.561,0.112310,-0.491927,-1.014631
1144509735.571,0.128004,-0.452784,-0.983418
1144509735.581,0.116233,-0.429298,-0.975615
1144509735.591,0.100539,-0.437127,-0.963910
1144509735.601,0.076999,-0.460613,-0.928794
1144509735.611,0.057381,-0.476270,-0.897581
1144509735.621,0.069152,-0.488012,-0.905384
1144509735.631,0.065228,-0.491927,-0.878073
1144509735.641,0.076999,-0.491927,-0.881974
1144509735.651,0.073075,-0.488012,-0.874171
1144509735.661,0.065228,-0.503670,-0.870269
1144509735.671,0.045611,-0.527155,-0.854663
1144509735.680,0.061305,-0.534984,-0.866368
1144509735.691,0.065228,-0.546727,-0.862466
1144509735.701,0.069152,-0.542812,-0.901483
1144509735.711,0.076999,-0.546727,-0.928794
1144509735.721,0.084846,-0.527155,-0.944401
1144509735.731,0.073075,-0.531069,-0.975615
1144509735.741,0.073075,-0.538898,-0.971713
1144509735.751,0.069152,-0.527155,-0.960008
1144509735.761,0.057381,-0.511498,-0.932696
1144509735.771,0.053458,-0.480184,-0.920991
1144509735.780,0.053458,-0.460613,-0.917089
1144509735.791,0.025993,-0.444955,-0.897581
1144509735.801,0.018146,-0.417555,-0.893679
1144509735.811,0.022070,-0.405813,-0.881974
1144509735.821,-0.005395,-0.413641,-0.893679
1144509735.831,-0.021089,-0.421470,-0.920991
1144509735.841,-0.028936,-0.413641,-0.932696
1144509735.851,-0.021089,-0.417555,-0.940500
1144509735.860,-0.036783,-0.394070,-0.940500
1144509735.871,-0.048553,-0.378413,-0.920991
1144509735.880,-0.079941,-0.370584,-0.917089
1144509735.890,-0.119176,-0.362756,-0.897581
1144509735.901,-0.170181,-0.354927,-0.889778
1144509735.911,-0.209416,-0.347098,-0.905384
1144509735.921,-0.221187,-0.327527,-0.909286
1144509735.930,-0.225110,-0.304041,-0.905384
1144509735.940,-0.236881,-0.276641,-0.893679
1144509735.950,-0.256498,-0.249242,-0.889778
1144509735.960,-0.299657,-0.229670,-0.893679
1144509735.970,-0.338892,-0.206185,-0.881974
1144509735.980,-0.378127,-0.178785,-0.866368
1144509735.990,-0.413438,-0.167042,-0.893679
1144509736.000,-0.433055,-0.139642,-0.901483
1144509736.010,-0.433055,-0.127899,-0.917089
1144509736.020,-0.421285,-0.116156,-0.924893
1144509736.030,-0.413438,-0.120070,-0.940500
1144509736.040,-0.409515,-0.104413,-0.917089
1144509736.050,-0.429132,-0.088756,-0.917089
1144509736.060,-0.452673,-0.069185,-0.909286
1144509736.070,-0.487984,-0.069185,-0.878073
1144509736.080,-0.535066,-0.069185,-0.881974
1144509736.090,-0.554684,-0.045699,-0.881974
1144509736.100,-0.523296,-0.006556,-0.866368
1144509736.110,-0.495831,0.013015,-0.881974
1144509736.120,-0.464443,0.028672,-0.897581
1144509736.130,-0.448749,0.044329,-0.866368
1144509736.140,-0.448749,0.056072,-0.858564
1144509736.150,-0.476214,0.044329,-0.827351
1144509736.160,-0.519372,0.013015,-0.831253
1144509736.170,-0.566454,-0.006556,-0.803941
1144509736.180,-0.597842,-0.002642,-0.807842
1144509736.190,-0.605689,0.024758,-0.815646
1144509736.200,-0.570378,0.048243,-0.803941
1144509736.210,-0.538990,0.095215,-0.800039
1144509736.220,-0.535066,0.138272,-0.800039
1144509736.230,-0.538990,0.173500,-0.796137
1144509736.240,-0.535066,0.173500,-0.772727
1144509736.250,-0.542913,0.181329,-0.761022
1144509736.260,-0.554684,0.161757,-0.764924
1144509736.270,-0.574301,0.142186,-0.745416
1144509736.281,-0.586072,0.157843,-0.757121
1144509736.290,-0.586072,0.196986,-0.725907
1144509736.300,-0.570378,0.220472,-0.710300
1144509736.310,-0.558607,0.243957,-0.706399
1144509736.320,-0.546837,0.271357,-0.702497
1144509736.330,-0.550760,0.279186,-0.694694
1144509736.340,-0.562531,0.279186,-0.682989
1144509736.349,-0.582148,0.279186,-0.679087
1144509736.359,-0.574301,0.275272,-0.671284
1144509736.370,-0.597842,0.283100,-0.663480
1144509736.379,-0.625306,0.294843,-0.647874
1144509736.389,-0.652771,0.306586,-0.640070
1144509736.399,-0.688082,0.322243,-0.655677
1144509736.409,-0.676312,0.365300,-0.643972
1144509736.419,-0.656694,0.400528,-0.647874
1144509736.429,-0.644924,0.404443,-0.636169
1144509736.439,-0.644924,0.416186,-0.636169
1144509736.449,-0.637077,0.424014,-0.643972
1144509736.459,-0.621383,0.408357,-0.612759
1144509736.470,-0.652771,0.377043,-0.632267
1144509736.479,-0.676312,0.373128,-0.628365
1144509736.489,-0.688082,0.369214,-0.636169
1144509736.499,-0.680235,0.377043,-0.651775
1144509736.509,-0.672388,0.392700,-0.663480
1144509736.519,-0.652771,0.404443,-0.655677
1144509736.529,-0.613536,0.447500,-0.663480
1144509736.539,-0.593919,0.470985,-0.651775
1144509736.549,-0.589995,0.510128,-0.643972
1144509736.559,-0.578225,0.545357,-0.628365
1144509736.569,-0.586072,0.576671,-0.601053
1144509736.579,-0.589995,0.580585,-0.585447
1144509736.589,-0.597842,0.596242,-0.558135
1144509736.599,-0.625306,0.600157,-0.573742
1144509736.608,-0.637077,0.572757,-0.569840
1144509736.619,-0.641000,0.533614,-0.558135
1144509736.629,-0.664542,0.490557,-0.495708
1144509736.639,-0.715547,0.459243,-0.468396
1144509736.649,-0.727317,0.463157,-0.452790
1144509736.659,-0.723394,0.498385,-0.405970
1144509736.669,-0.695929,0.541442,-0.366953
1144509736.679,-0.695929,0.596242,-0.312329
1144509736.689,-0.727317,0.631471,-0.300624
1144509736.699,-0.758705,0.631471,-0.285018
1144509736.709,-0.774399,0.627557,-0.312329
1144509736.719,-0.766552,0.584499,-0.324034
1144509736.728,-0.750858,0.541442,-0.386461
1144509736.739,-0.735164,0.521871,-0.413773
1144509736.750,-0.707700,0.525785,-0.437183
1144509736.759,-0.680235,0.553185,-0.433281
1144509736.769,-0.664542,0.588414,-0.402068
1144509736.778,-0.648848,0.631471,-0.366953
1144509736.788,-0.660618,0.670614,-0.335739
1144509736.798,-0.680235,0.713671,-0.320133
1144509736.808,-0.703776,0.717585,-0.324034
1144509736.818,-0.707700,0.698014,-0.331838
1144509736.828,-0.699853,0.701928,-0.316231
1144509736.838,-0.715547,0.686271,-0.304526
1144509736.848,-0.719470,0.662785,-0.292821
1144509736.858,-0.739088,0.678442,-0.269411
1144509736.868,-0.746935,0.678442,-0.269411
1144509736.878,-0.758705,0.678442,-0.281116
1144509736.888,-0.770476,0.674528,-0.285018
1144509736.898,-0.794017,0.678442,-0.296723
1144509736.908,-0.801864,0.678442,-0.296723
1144509736.918,-0.790093,0.674528,-0.320133
1144509736.928,-0.770476,0.694099,-0.308428
1144509736.938,-0.758705,0.705842,-0.296723
1144509736.948,-0.743011,0.721499,-0.288919
1144509736.958,-0.750858,0.717585,-0.265509
1144509736.968,-0.746935,0.717585,-0.253804
1144509736.978,-0.750858,0.709756,-0.273313
1144509736.988,-0.750858,0.705842,-0.277214
1144509736.998,-0.743011,0.686271,-0.316231
1144509737.008,-0.731241,0.662785,-0.351346
1144509737.018,-0.719470,0.643214,-0.343543
1144509737.027,-0.719470,0.639299,-0.335739
1144509737.038,-0.711623,0.654957,-0.324034
1144509737.048,-0.711623,0.666699,-0.288919
1144509737.058,-0.723394,0.658871,-0.285018
1144509737.068,-0.739088,0.658871,-0.281116
1144509737.078,-0.758705,0.647128,-0.296723
1144509737.088,-0.743011,0.654957,-0.327936
1144509737.098,-0.746935,0.647128,-0.320133
1144509737.108,-0.739088,0.647128,-0.343543
1144509737.118,-0.731241,0.647128,-0.366953
1144509737.128,-0.723394,0.647128,-0.386461
1144509737.138,-0.723394,0.654957,-0.378658
1144509737.148,-0.707700,0.658871,-0.359149
1144509737.158,-0.715547,0.658871,-0.351346
1144509737.168,-0.727317,0.651042,-0.339641
1144509737.178,-0.731241,0.647128,-0.363051
1144509737.188,-0.735164,0.639299,-0.351346
1144509737.198,-0.750858,0.647128,-0.324034
1144509737.208,-0.754782,0.631471,-0.339641
1144509737.219,-0.743011,0.627557,-0.359149
1144509737.227,-0.739088,0.623642,-0.370854
1144509737.237,-0.719470,0.627557,-0.398166
1144509737.247,-0.711623,0.627557,-0.417675
1144509737.257,-0.715547,0.631471,-0.417675
1144509737.267,-0.692006,0.635385,-0.409871
1144509737.277,-0.699853,0.635385,-0.409871
1144509737.287,-0.684159,0.619728,-0.386461
1144509737.297,-0.684159,0.604071,-0.398166
1144509737.307,-0.699853,0.588414,-0.378658
1144509737.317,-0.707700,0.572757,-0.378658
1144509737.327,-0.719470,0.572757,-0.402068
1144509737.337,-0.719470,0.568842,-0.409871
1144509737.347,-0.715547,0.576671,-0.437183
1144509737.357,-0.695929,0.588414,-0.464495
1144509737.367,-0.676312,0.584499,-0.491807
1144509737.377,-0.656694,0.564928,-0.503512
1144509737.387,-0.668465,0.553185,-0.519118
1144509737.397,-0.688082,0.549271,-0.495708
1144509737.407,-0.676312,0.529700,-0.511315
1144509737.417,-0.668465,0.510128,-0.511315
1144509737.427,-0.672388,0.521871,-0.499610
1144509737.437,-0.672388,0.510128,-0.499610
1144509737.447,-0.664542,0.506214,-0.542528
1144509737.457,-0.641000,0.494471,-0.562037
1144509737.468,-0.617460,0.486643,-0.585447
1144509737.477,-0.593919,0.502300,-0.608857
1144509737.487,-0.597842,0.506214,-0.616660
1144509737.497,-0.574301,0.498385,-0.601053
1144509737.507,-0.566454,0.494471,-0.604955
1144509737.517,-0.589995,0.474900,-0.581545
1144509737.527,-0.605689,0.459243,-0.589348
1144509737.537,-0.613536,0.435757,-0.593250
1144509737.547,-0.605689,0.431843,-0.643972
1144509737.557,-0.586072,0.420100,-0.636169
1144509737.567,-0.562531,0.412271,-0.655677
1144509737.577,-0.538990,0.404443,-0.663480
1144509737.587,-0.531143,0.404443,-0.655677
1144509737.597,-0.531143,0.392700,-0.667382
1144509737.607,-0.535066,0.384871,-0.636169
1144509737.617,-0.550760,0.365300,-0.663480
1144509737.627,-0.546837,0.349643,-0.686890
1144509737.637,-0.546837,0.341814,-0.686890
1144509737.647,-0.542913,0.341814,-0.733711
1144509737.657,-0.523296,0.345729,-0.729809
1144509737.667,-0.495831,0.361386,-0.776629
1144509737.677,-0.456596,0.357471,-0.780531
1144509737.688,-0.440902,0.349643,-0.792236
1144509737.697,-0.436979,0.345729,-0.764924
1144509737.706,-0.429132,0.337900,-0.737612
1144509737.716,-0.464443,0.314414,-0.729809
1144509737.726,-0.480137,0.287014,-0.741514
1144509737.736,-0.495831,0.263529,-0.780531
1144509737.746,-0.487984,0.243957,-0.850761
1144509737.756,-0.452673,0.247872,-0.878073
1144509737.766,-0.413438,0.259614,-0.901483
1144509737.777,-0.393821,0.275272,-0.885876
1144509737.786,-0.374203,0.255700,-0.846859
1144509737.796,-0.378127,0.232215,-0.827351
1144509737.806,-0.405591,0.196986,-0.800039
1144509737.816,-0.425208,0.165672,-0.819547
1144509737.826,-0.456596,0.138272,-0.839056
1144509737.836,-0.472290,0.126529,-0.889778
1144509737.846,-0.448749,0.138272,-0.909286
1144509737.856,-0.405591,0.165672,-0.975615
1144509737.866,-0.358509,0.177415,-0.963910
1144509737.876,-0.327121,0.181329,-0.963910
1144509737.886,-0.323198,0.177415,-0.917089
1144509737.896,-0.323198,0.142186,-0.893679
1144509737.906,-0.323198,0.110872,-0.881974
1144509737.916,-0.354586,0.063901,-0.893679
1144509737.926,-0.374203,0.040415,-0.936598
1144509737.936,-0.362433,0.020844,-0.963910
1144509737.946,-0.327121,0.040415,-0.995123
1144509737.956,-0.276116,0.052158,-1.002926
1144509737.966,-0.229034,0.071729,-0.983418
1144509737.976,-0.209416,0.079558,-0.956106
1144509737.996,-0.193722,-0.006556,-0.920991
1144509738.006,-0.213340,-0.057442,-0.905384
1144509738.016,-0.252575,-0.108328,-0.956106
1144509738.026,-0.291810,-0.135728,-0.975615
1144509738.036,-0.272192,-0.131813,-1.045845
1144509738.046,-0.201569,-0.116156,-1.038041
1144509738.055,-0.158411,-0.053528,-0.987320
1144509738.065,-0.142717,-0.014385,-0.928794
1144509738.076,-0.162334,-0.033956,-0.901483
1144509738.086,-0.185875,-0.088756,-0.928794
1144509738.096,-0.209416,-0.139642,-0.979516
1144509738.106,-0.252575,-0.194442,-1.022435
1144509738.116,-0.272192,-0.206185,-1.034140
1144509738.126,-0.248651,-0.170956,-1.073157
1144509738.136,-0.181952,-0.116156,-1.026336
1144509738.146,-0.146641,-0.022214,-0.956106
1144509738.157,-0.146641,-0.018299,-0.913188
1144509738.166,-0.154487,-0.065271,-0.897581
1144509738.175,-0.154487,-0.139642,-0.948303
1144509738.185,-0.185875,-0.206185,-0.979516
1144509738.195,-0.229034,-0.257070,-1.018533
1144509738.205,-0.221187,-0.257070,-1.014631
1144509738.215,-0.170181,-0.237499,-0.999025
1144509738.225,-0.095635,-0.214013,-0.960008
1144509738.235,-0.068171,-0.182699,-0.905384
1144509738.245,-0.060324,-0.206185,-0.885876
1144509738.255,-0.048553,-0.225756,-0.905384
1144509738.265,-0.036783,-0.272727,-0.928794
1144509738.275,-0.044630,-0.343184,-0.999025
1144509738.285,-0.044630,-0.394070,-1.018533
1144509738.295,-0.032859,-0.397984,-1.018533
1144509738.305,-0.005395,-0.386241,-1.002926
1144509738.315,0.045611,-0.374498,-0.987320
1144509738.325,0.076999,-0.347098,-0.948303
1144509738.335,0.100539,-0.331441,-0.920991
1144509738.345,0.112310,-0.343184,-0.913188
1144509738.355,0.084846,-0.382327,-0.905384
1144509738.365,0.100539,-0.433213,-0.952205
1144509738.375,0.096616,-0.511498,-0.987320
1144509738.385,0.108386,-0.538898,-1.014631
1144509738.395,0.112310,-0.550641,-1.006828
1144509738.405,0.116233,-0.534984,-0.987320
1144509738.415,0.139774,-0.499755,-0.967811
1144509738.425,0.179009,-0.476270,-0.936598
1144509738.435,0.194703,-0.444955,-0.893679
1144509738.445,0.230015,-0.448870,-0.885876
1144509738.455,0.261403,-0.495841,-0.881974
1144509738.465,0.273173,-0.527155,-0.862466
1144509738.475,0.261403,-0.566298,-0.862466
1144509738.485,0.265326,-0.605441,-0.866368
1144509738.495,0.253556,-0.656326,-0.866368
1144509738.505,0.253556,-0.671983,-0.850761
1144509738.515,0.226091,-0.683726,-0.819547
1144509738.525,0.226091,-0.691555,-0.800039
1144509738.535,0.198627,-0.671983,-0.741514
1144509738.545,0.206474,-0.664155,-0.761022
1144509738.555,0.222168,-0.652412,-0.737612
1144509738.565,0.210397,-0.660241,-0.729809
1144509738.575,0.206474,-0.644583,-0.729809
1144509738.585,0.194703,-0.652412,-0.753219
1144509738.595,0.175086,-0.640669,-0.749317
1144509738.605,0.167239,-0.628926,-0.764924
1144509738.615,0.167239,-0.621098,-0.792236
1144509738.626,0.179009,-0.601527,-0.800039
1144509738.635,0.202550,-0.589784,-0.796137
1144509738.645,0.222168,-0.589784,-0.792236
1144509738.655,0.210397,-0.601527,-0.803941
1144509738.665,0.186856,-0.597612,-0.776629
1144509738.675,0.159392,-0.597612,-0.780531
1144509738.685,0.131927,-0.613269,-0.800039
1144509738.694,0.104463,-0.621098,-0.819547
1144509738.704,0.100539,-0.617184,-0.862466
1144509738.714,0.096616,-0.601527,-0.913188
1144509738.724,0.116233,-0.570212,-0.932696
1144509738.734,0.124080,-0.554555,-0.936598
1144509738.744,0.088769,-0.531069,-0.920991
1144509738.754,0.053458,-0.511498,-0.924893
1144509738.764,0.018146,-0.480184,-0.905384
1144509738.774,-0.009318,-0.468441,-0.901483
1144509738.784,-0.017165,-0.456698,-0.913188
1144509738.794,-0.013242,-0.476270,-0.924893
1144509738.804,-0.013242,-0.464527,-0.905384
1144509738.814,-0.009318,-0.464527,-0.928794
1144509738.824,-0.028936,-0.456698,-0.920991
1144509738.834,-0.052477,-0.437127,-0.944401
1144509738.844,-0.056400,-0.425384,-0.960008
1144509738.854,-0.044630,-0.417555,-0.971713
1144509738.864,-0.025012,-0.456698,-0.983418
1144509738.874,-0.005395,-0.468441,-0.999025
1144509738.884,0.014223,-0.495841,-0.979516
1144509738.894,-0.005395,-0.491927,-0.991221
1144509738.904,-0.025012,-0.468441,-0.944401
1144509738.914,-0.025012,-0.444955,-0.940500
1144509738.924,-0.040706,-0.468441,-0.975615
1144509738.934,-0.044630,-0.499755,-0.975615
1144509738.944,-0.040706,-0.534984,-0.952205
1144509738.954,-0.056400,-0.538898,-0.936598
1144509738.964,-0.076018,-0.527155,-0.928794
1144509738.974,-0.087788,-0.480184,-0.928794
1144509738.984,-0.103482,-0.444955,-0.952205
1144509738.994,-0.103482,-0.429298,-0.936598
1144509739.003,-0.123100,-0.421470,-0.940500
1144509739.014,-0.158411,-0.405813,-0.948303
1144509739.024,-0.146641,-0.425384,-0.940500
1144509739.034,-0.134870,-0.460613,-0.948303
1144509739.044,-0.162334,-0.456698,-0.944401
1144509739.054,-0.178028,-0.394070,-0.928794
1144509739.064,-0.185875,-0.343184,-0.924893
1144509739.074,-0.185875,-0.319699,-0.940500
1144509739.084,-0.197646,-0.331441,-0.920991
1144509739.095,-0.240804,-0.370584,-0.913188
1144509739.104,-0.276116,-0.382327,-0.885876
1144509739.114,-0.276116,-0.382327,-0.897581
1144509739.124,-0.252575,-0.413641,-0.897581
1144509739.134,-0.264345,-0.425384,-0.893679
1144509739.144,-0.295733,-0.386241,-0.878073
1144509739.154,-0.311427,-0.343184,-0.870269
1144509739.164,-0.323198,-0.319699,-0.893679
1144509739.174,-0.346739,-0.315784,-0.881974
1144509739.184,-0.378127,-0.300127,-0.862466
1144509739.194,-0.425208,-0.288384,-0.850761
1144509739.204,-0.468367,-0.257070,-0.858564
1144509739.214,-0.425208,-0.214013,-0.866368
1144509739.224,-0.358509,-0.206185,-0.866368
1144509739.234,-0.342815,-0.221842,-0.897581
1144509739.243,-0.401668,-0.210099,-0.885876
1144509739.253,-0.444826,-0.159213,-0.878073
1144509739.263,-0.464443,-0.139642,-0.874171
1144509739.273,-0.507602,-0.151385,-0.893679
1144509739.283,-0.554684,-0.151385,-0.885876
1144509739.293,-0.582148,-0.123985,-0.870269
1144509739.303,-0.566454,-0.096585,-0.893679
1144509739.313,-0.515449,-0.077013,-0.885876
1144509739.323,-0.476214,-0.049613,-0.909286
1144509739.332,-0.456596,-0.010471,-0.936598
1144509739.343,-0.436979,-0.006556,-0.920991
1144509739.353,-0.429132,-0.018299,-0.909286
1144509739.363,-0.433055,-0.022214,-0.889778
1144509739.373,-0.444826,-0.049613,-0.866368
1144509739.383,-0.456596,-0.053528,-0.878073
1144509739.393,-0.452673,-0.041785,-0.881974
1144509739.403,-0.440902,-0.049613,-0.866368
1144509739.413,-0.433055,-0.080928,-0.870269
1144509739.423,-0.405591,-0.108328,-0.862466
1144509739.432,-0.374203,-0.155299,-0.839056
1144509739.443,-0.370280,-0.163127,-0.815646
1144509739.453,-0.366356,-0.155299,-0.800039
1144509739.464,-0.358509,-0.127899,-0.780531
1144509739.473,-0.389897,-0.112242,-0.757121
1144509739.483,-0.421285,-0.080928,-0.768826
1144509739.493,-0.417361,-0.057442,-0.772727
1144509739.503,-0.425208,-0.037871,-0.792236
1144509739.513,-0.405591,-0.045699,-0.796137
1144509739.523,-0.382050,-0.033956,-0.835154
1144509739.533,-0.346739,-0.006556,-0.870269
1144509739.543,-0.342815,0.024758,-0.878073
1144509739.553,-0.378127,0.028672,-0.905384
1144509739.564,-0.366356,0.052158,-0.917089
1144509739.573,-0.385974,0.059986,-0.928794
1144509739.583,-0.389897,0.091301,-0.874171
1144509739.593,-0.421285,0.130443,-0.885876
1144509739.603,-0.452673,0.142186,-0.854663
1144509739.613,-0.464443,0.153929,-0.839056
1144509739.623,-0.464443,0.181329,-0.835154
1144509739.633,-0.460520,0.177415,-0.819547
1144509739.643,-0.464443,0.173500,-0.819547
1144509739.653,-0.476214,0.161757,-0.811744
1144509739.663,-0.511525,0.173500,-0.803941
1144509739.673,-0.538990,0.181329,-0.784432
1144509739.683,-0.574301,0.173500,-0.807842
1144509739.693,-0.582148,0.185243,-0.800039
1144509739.703,-0.574301,0.185243,-0.803941
1144509739.713,-0.546837,0.208729,-0.800039
1144509739.722,-0.538990,0.220472,-0.788334
1144509739.733,-0.554684,0.232215,-0.792236
1144509739.743,-0.554684,0.240043,-0.788334
1144509739.752,-0.570378,0.283100,-0.800039
1144509739.763,-0.578225,0.279186,-0.800039
1144509739.772,-0.562531,0.255700,-0.831253
1144509739.782,-0.546837,0.247872,-0.842958
1144509739.792,-0.542913,0.236129,-0.831253
1144509739.802,-0.550760,0.228300,-0.842958
1144509739.812,-0.554684,0.216557,-0.842958
1144509739.822,-0.554684,0.232215,-0.780531
1144509739.832,-0.574301,0.232215,-0.792236
1144509739.844,-0.582148,0.251786,-0.776629
1144509739.852,-0.593919,0.279186,-0.741514
1144509739.862,-0.593919,0.298757,-0.737612
1144509739.872,-0.574301,0.310500,-0.729809
1144509739.882,-0.562531,0.322243,-0.702497
1144509739.892,-0.574301,0.333986,-0.698595
1144509739.902,-0.578225,0.361386,-0.718104
1144509739.912,-0.589995,0.400528,-0.706399
1144509739.922,-0.589995,0.439671,-0.710300
1144509739.932,-0.582148,0.517957,-0.694694
1144509739.942,-0.558607,0.604071,-0.722005
1144509739.952,-0.531143,0.682356,-0.722005
1144509739.962,-0.484061,0.760642,-0.753219
1144509739.972,-0.444826,0.701928,-0.745416
1144509739.982,-0.452673,0.553185,-0.745416
1144509739.992,-0.499755,0.392700,-0.737612
1144509740.002,-0.593919,0.314414,-0.741514
1144509740.012,-0.656694,0.236129,-0.694694
1144509740.022,-0.711623,0.220472,-0.690792
1144509740.032,-0.735164,0.259614,-0.663480
1144509740.042,-0.684159,0.294843,-0.647874
1144509740.052,-0.695929,0.361386,-0.636169
1144509740.062,-0.684159,0.400528,-0.624464
1144509740.072,-0.684159,0.408357,-0.643972
1144509740.082,-0.676312,0.447500,-0.667382
1144509740.092,-0.660618,0.470985,-0.710300
1144509740.102,-0.637077,0.459243,-0.729809
1144509740.112,-0.629230,0.447500,-0.749317
1144509740.122,-0.597842,0.427928,-0.776629
1144509740.132,-0.597842,0.412271,-0.764924
1144509740.141,-0.582148,0.424014,-0.745416
1144509740.152,-0.582148,0.416186,-0.733711
1144509740.162,-0.601766,0.427928,-0.710300
1144509740.172,-0.613536,0.431843,-0.714202
1144509740.182,-0.629230,0.420100,-0.682989
1144509740.192,-0.625306,0.431843,-0.663480
1144509740.202,-0.629230,0.435757,-0.682989
1144509740.211,-0.625306,0.443585,-0.667382
1144509740.222,-0.625306,0.439671,-0.679087
1144509740.232,-0.613536,0.451414,-0.706399
1144509740.242,-0.605689,0.455328,-0.718104
1144509740.251,-0.605689,0.451414,-0.722005
1144509740.262,-0.605689,0.447500,-0.737612
1144509740.271,-0.613536,0.455328,-0.733711
1144509740.282,-0.613536,0.439671,-0.764924
1144509740.292,-0.609613,0.420100,-0.780531
1144509740.302,-0.605689,0.404443,-0.784432
1144509740.313,-0.601766,0.380957,-0.780531
1144509740.322,-0.589995,0.373128,-0.788334
1144509740.331,-0.586072,0.353557,-0.788334
1144509740.342,-0.574301,0.357471,-0.803941
1144509740.352,-0.558607,0.337900,-0.792236
1144509740.362,-0.542913,0.330071,-0.784432
1144509740.371,-0.531143,0.322243,-0.788334
1144509740.382,-0.531143,0.310500,-0.784432
1144509740.392,-0.531143,0.310500,-0.761022
1144509740.402,-0.538990,0.290929,-0.776629
1144509740.411,-0.546837,0.275272,-0.780531
1144509740.421,-0.535066,0.271357,-0.796137
1144509740.431,-0.527219,0.267443,-0.796137
1144509740.441,-0.503678,0.251786,-0.815646
1144509740.451,-0.487984,0.224386,-0.811744
1144509740.461,-0.476214,0.208729,-0.811744
1144509740.471,-0.468367,0.185243,-0.819547
1144509740.481,-0.472290,0.173500,-0.815646
1144509740.491,-0.491908,0.165672,-0.796137
1144509740.501,-0.503678,0.165672,-0.784432
1144509740.511,-0.515449,0.157843,-0.784432
1144509740.521,-0.503678,0.146100,-0.780531
1144509740.531,-0.515449,0.161757,-0.776629
1144509740.541,-0.491908,0.134358,-0.807842
1144509740.551,-0.480137,0.122615,-0.819547
1144509740.561,-0.456596,0.103043,-0.827351
1144509740.571,-0.452673,0.087386,-0.854663
1144509740.580,-0.444826,0.063901,-0.842958
1144509740.591,-0.436979,0.048243,-0.842958
1144509740.601,-0.452673,0.044329,-0.835154
1144509740.611,-0.464443,0.028672,-0.827351
1144509740.621,-0.460520,0.028672,-0.823449
1144509740.631,-0.476214,0.024758,-0.835154
1144509740.641,-0.464443,0.032586,-0.842958
1144509740.651,-0.452673,0.024758,-0.870269
1144509740.661,-0.413438,0.020844,-0.881974
1144509740.671,-0.366356,0.001272,-0.917089
1144509740.680,-0.350662,-0.026128,-0.913188
1144509740.691,-0.354586,-0.053528,-0.920991
1144509740.701,-0.382050,-0.065271,-0.913188
1144509740.711,-0.405591,-0.080928,-0.870269
1144509740.721,-0.429132,-0.069185,-0.862466
1144509740.731,-0.429132,-0.080928,-0.866368
1144509740.741,-0.413438,-0.069185,-0.878073
1144509740.751,-0.374203,-0.073099,-0.897581
1144509740.761,-0.331045,-0.104413,-0.924893
1144509740.771,-0.276116,-0.135728,-0.932696
1144509740.782,-0.252575,-0.170956,-0.920991
1144509740.791,-0.244728,-0.202270,-0.905384
1144509740.801,-0.287886,-0.202270,-0.881974
1144509740.811,-0.338892,-0.198356,-0.874171
1144509740.821,-0.374203,-0.190527,-0.874171
1144509740.831,-0.346739,-0.198356,-0.866368
1144509740.841,-0.303580,-0.198356,-0.901483
1144509740.850,-0.280039,-0.214013,-0.924893
1144509740.861,-0.217263,-0.229670,-0.932696
1144509740.870,-0.185875,-0.241413,-0.940500
1144509740.880,-0.197646,-0.241413,-0.920991
1144509740.891,-0.240804,-0.241413,-0.905384
1144509740.900,-0.287886,-0.225756,-0.893679
1144509740.910,-0.299657,-0.221842,-0.881974
1144509740.920,-0.299657,-0.237499,-0.905384
1144509740.930,-0.315351,-0.249242,-0.932696
1144509740.940,-0.268269,-0.253156,-0.960008
1144509740.950,-0.225110,-0.268813,-0.979516
1144509740.960,-0.166258,-0.264899,-0.967811
1144509740.970,-0.162334,-0.260984,-0.944401
1144509740.980,-0.166258,-0.253156,-0.909286
1144509740.990,-0.170181,-0.288384,-0.889778
1144509741.000,-0.181952,-0.319699,-0.881974
1144509741.010,-0.209416,-0.354927,-0.870269
1144509741.020,-0.205493,-0.397984,-0.885876
1144509741.030,-0.162334,-0.421470,-0.893679
1144509741.040,-0.119176,-0.429298,-0.889778
1144509741.050,-0.072094,-0.421470,-0.854663
1144509741.060,-0.036783,-0.425384,-0.839056
1144509741.070,-0.028936,-0.444955,-0.811744
1144509741.080,-0.044630,-0.468441,-0.800039
1144509741.090,-0.083865,-0.511498,-0.807842
1144509741.100,-0.123100,-0.542812,-0.800039
1144509741.110,-0.162334,-0.578041,-0.823449
1144509741.120,-0.178028,-0.589784,-0.854663
1144509741.130,-0.150564,-0.574126,-0.874171
1144509741.139,-0.091712,-0.523241,-0.874171
1144509741.150,-0.064247,-0.460613,-0.858564
1144509741.160,-0.048553,-0.437127,-0.858564
1144509741.170,-0.072094,-0.433213,-0.846859
1144509741.180,-0.103482,-0.468441,-0.839056
1144509741.190,-0.119176,-0.491927,-0.858564
1144509741.200,-0.158411,-0.527155,-0.874171
1144509741.210,-0.162334,-0.550641,-0.909286
1144509741.220,-0.119176,-0.574126,-0.893679
1144509741.230,-0.056400,-0.546727,-0.881974
1144509741.240,0.014223,-0.511498,-0.831253
1144509741.251,0.065228,-0.507584,-0.796137
1144509741.259,0.084846,-0.531069,-0.780531
1144509741.269,0.088769,-0.585869,-0.757121
1144509741.279,0.092693,-0.628926,-0.733711
1144509741.289,0.096616,-0.695469,-0.722005
1144509741.299,0.088769,-0.734612,-0.725907
1144509741.309,0.076999,-0.789412,-0.729809
1144509741.319,0.076999,-0.820726,-0.718104
1144509741.329,0.104463,-0.836383,-0.737612
1144509741.339,0.163315,-0.840297,-0.729809
1144509741.349,0.230015,-0.832469,-0.718104
1144509741.360,0.273173,-0.812897,-0.702497
1144509741.369,0.296714,-0.828555,-0.679087
1144509741.379,0.320255,-0.848126,-0.663480
1144509741.389,0.335949,-0.852040,-0.640070
1144509741.399,0.355566,-0.867697,-0.616660
1144509741.409,0.375184,-0.875526,-0.608857
1144509741.419,0.390878,-0.895097,-0.569840
1144509741.429,0.398725,-0.899012,-0.573742
1144509741.439,0.430113,-0.930326,-0.550332
1144509741.449,0.430113,-0.953811,-0.554233
1144509741.460,0.441883,-0.985126,-0.542528
1144509741.469,0.457577,-0.996868,-0.519118
1144509741.479,0.469348,-1.000783,-0.523020
1144509741.489,0.473271,-0.992954,-0.515217
1144509741.499,0.457577,-0.977297,-0.519118
1144509741.509,0.453654,-0.949897,-0.499610
1144509741.519,0.430113,-0.926411,-0.472298
1144509741.529,0.410495,-0.891183,-0.480101
1144509741.539,0.398725,-0.855954,-0.441085
1144509741.549,0.383031,-0.820726,-0.452790
1144509741.559,0.379107,-0.797240,-0.433281
1144509741.569,0.390878,-0.781583,-0.452790
1144509741.579,0.398725,-0.769840,-0.476200
1144509741.589,0.375184,-0.769840,-0.495708
1144509741.599,0.371260,-0.773755,-0.511315
1144509741.609,0.371260,-0.773755,-0.515217
1144509741.619,0.371260,-0.777669,-0.538627
1144509741.629,0.379107,-0.808983,-0.534725
1144509741.639,0.386954,-0.824640,-0.554233
1144509741.649,0.371260,-0.832469,-0.581545
1144509741.659,0.339873,-0.844212,-0.589348
1144509741.669,0.308485,-0.867697,-0.601053
1144509741.679,0.277097,-0.859869,-0.593250
1144509741.689,0.265326,-0.859869,-0.640070
1144509741.699,0.265326,-0.855954,-0.659579
1144509741.709,0.304561,-0.863783,-0.694694
1144509741.720,0.328102,-0.859869,-0.722005
1144509741.728,0.320255,-0.848126,-0.764924
1144509741.738,0.284944,-0.820726,-0.741514
1144509741.748,0.257479,-0.781583,-0.772727
1144509741.758,0.226091,-0.758098,-0.780531
1144509741.768,0.222168,-0.742441,-0.784432
1144509741.778,0.222168,-0.734612,-0.788334
1144509741.788,0.210397,-0.726783,-0.764924
1144509741.798,0.171162,-0.711126,-0.745416
1144509741.808,0.124080,-0.695469,-0.749317
1144509741.818,0.092693,-0.671983,-0.745416
1144509741.828,0.073075,-0.687641,-0.772727
1144509741.838,0.080922,-0.687641,-0.772727
1144509741.848,0.100539,-0.703298,-0.811744
1144509741.858,0.112310,-0.711126,-0.788334
1144509741.868,0.084846,-0.703298,-0.792236
1144509741.878,0.041687,-0.679812,-0.784432
1144509741.888,0.010299,-0.644583,-0.780531
1144509741.898,-0.021089,-0.625012,-0.772727
1144509741.908,-0.032859,-0.609355,-0.761022
1144509741.918,-0.036783,-0.597612,-0.733711
1144509741.928,-0.017165,-0.589784,-0.749317
1144509741.938,-0.001471,-0.617184,-0.714202
1144509741.948,0.022070,-0.632841,-0.753219
1144509741.958,0.006376,-0.625012,-0.764924
1144509741.967,0.006376,-0.605441,-0.780531
1144509741.977,0.002452,-0.585869,-0.803941
1144509741.988,-0.013242,-0.585869,-0.815646
1144509741.997,-0.028936,-0.593698,-0.835154
1144509742.007,-0.036783,-0.609355,-0.854663
1144509742.018,-0.056400,-0.617184,-0.862466
1144509742.027,-0.064247,-0.632841,-0.881974
1144509742.038,-0.068171,-0.613269,-0.881974
1144509742.048,-0.079941,-0.597612,-0.874171
1144509742.058,-0.103482,-0.578041,-0.862466
1144509742.067,-0.130947,-0.546727,-0.881974
1144509742.078,-0.170181,-0.531069,-0.893679
1144509742.088,-0.197646,-0.503670,-0.885876
1144509742.098,-0.217263,-0.495841,-0.885876
1144509742.108,-0.225110,-0.484098,-0.881974
1144509742.118,-0.229034,-0.480184,-0.874171
1144509742.128,-0.225110,-0.456698,-0.862466
1144509742.138,-0.252575,-0.433213,-0.874171
1144509742.148,-0.244728,-0.433213,-0.854663
1144509742.158,-0.276116,-0.421470,-0.858564
1144509742.168,-0.319274,-0.401898,-0.854663
1144509742.177,-0.338892,-0.397984,-0.874171
1144509742.189,-0.354586,-0.390156,-0.885876
1144509742.197,-0.362433,-0.386241,-0.901483
1144509742.207,-0.350662,-0.370584,-0.885876
1144509742.217,-0.311427,-0.354927,-0.893679
1144509742.227,-0.264345,-0.339270,-0.897581
1144509742.237,-0.268269,-0.327527,-0.893679
1144509742.247,-0.295733,-0.315784,-0.885876
1144509742.257,-0.334968,-0.315784,-0.862466
1144509742.267,-0.366356,-0.307956,-0.874171
1144509742.277,-0.378127,-0.307956,-0.881974
1144509742.287,-0.378127,-0.304041,-0.874171
1144509742.297,-0.354586,-0.284470,-0.885876
1144509742.307,-0.323198,-0.288384,-0.866368
1144509742.317,-0.307504,-0.296213,-0.870269
1144509742.327,-0.299657,-0.296213,-0.870269
1144509742.337,-0.295733,-0.311870,-0.870269
1144509742.348,-0.315351,-0.304041,-0.885876
1144509742.357,-0.311427,-0.288384,-0.862466
1144509742.367,-0.323198,-0.280556,-0.866368
1144509742.377,-0.358509,-0.284470,-0.870269
1144509742.387,-0.374203,-0.280556,-0.874171
1144509742.397,-0.374203,-0.260984,-0.885876
1144509742.407,-0.354586,-0.233584,-0.893679
1144509742.417,-0.374203,-0.214013,-0.893679
1144509742.427,-0.370280,-0.202270,-0.905384
1144509742.437,-0.374203,-0.182699,-0.897581
1144509742.447,-0.366356,-0.186613,-0.905384
1144509742.457,-0.389897,-0.182699,-0.897581
1144509742.467,-0.417361,-0.202270,-0.932696
1144509742.477,-0.429132,-0.206185,-0.944401
1144509742.487,-0.425208,-0.198356,-0.956106
1144509742.497,-0.417361,-0.210099,-0.975615
1144509742.507,-0.417361,-0.202270,-0.971713
1144509742.517,-0.425208,-0.214013,-0.987320
1144509742.527,-0.413438,-0.229670,-0.987320
1144509742.537,-0.405591,-0.241413,-0.971713
1144509742.547,-0.393821,-0.237499,-0.960008
1144509742.557,-0.378127,-0.237499,-0.936598
1144509742.567,-0.378127,-0.229670,-0.932696
1144509742.577,-0.382050,-0.214013,-0.885876
1144509742.587,-0.401668,-0.182699,-0.870269
1144509742.597,-0.389897,-0.163127,-0.862466
1144509742.607,-0.374203,-0.159213,-0.831253
1144509742.617,-0.366356,-0.155299,-0.831253
1144509742.627,-0.350662,-0.143556,-0.819547
1144509742.637,-0.350662,-0.139642,-0.796137
1144509742.647,-0.350662,-0.127899,-0.796137
1144509742.657,-0.354586,-0.120070,-0.764924
1144509742.667,-0.385974,-0.131813,-0.757121
1144509742.677,-0.393821,-0.108328,-0.776629
1144509742.687,-0.401668,-0.116156,-0.768826
1144509742.697,-0.405591,-0.100499,-0.803941
1144509742.707,-0.370280,-0.092670,-0.815646
1144509742.717,-0.350662,-0.088756,-0.807842
1144509742.727,-0.346739,-0.080928,-0.784432
1144509742.737,-0.374203,-0.080928,-0.764924
1144509742.747,-0.385974,-0.065271,-0.776629
1144509742.757,-0.393821,-0.049613,-0.776629
1144509742.767,-0.405591,-0.030042,-0.764924
1144509742.777,-0.401668,0.024758,-0.764924
1144509742.787,-0.405591,0.044329,-0.788334
1144509742.796,-0.385974,0.048243,-0.803941
1144509742.806,-0.401668,0.075643,-0.811744
1144509742.816,-0.405591,0.114786,-0.835154
1144509742.826,-0.389897,0.161757,-0.846859
1144509742.836,-0.393821,0.165672,-0.874171
1144509742.846,-0.370280,0.150015,-0.874171
1144509742.856,-0.385974,0.118700,-0.905384
1144509742.866,-0.378127,0.079558,-0.893679
1144509742.876,-0.393821,0.052158,-0.901483
1144509742.886,-0.417361,0.040415,-0.940500
1144509742.896,-0.425208,0.028672,-0.971713
1144509742.906,-0.440902,0.013015,-0.975615
1144509742.916,-0.436979,0.028672,-1.006828
1144509742.926,-0.429132,0.028672,-0.999025
1144509742.938,-0.440902,0.036501,-0.967811
1144509742.946,-0.440902,0.040415,-0.944401
1144509742.956,-0.448749,0.059986,-0.928794
1144509742.966,-0.452673,0.071729,-0.936598
1144509742.976,-0.480137,0.095215,-0.960008
1144509742.986,-0.495831,0.103043,-0.999025
1144509742.996,-0.499755,0.056072,-1.002926
1144509743.006,-0.515449,0.013015,-0.975615
1144509743.016,-0.538990,-0.022214,-0.944401
1144509743.026,-0.554684,-0.049613,-0.870269
1144509743.036,-0.562531,-0.077013,-0.850761
1144509743.046,-0.558607,-0.104413,-0.854663
1144509743.056,-0.550760,-0.116156,-0.881974
1144509743.066,-0.535066,-0.092670,-0.893679
1144509743.076,-0.531143,-0.053528,-0.905384
1144509743.086,-0.515449,-0.018299,-0.940500
1144509743.106,-0.464443,0.044329,-0.944401
1144509743.116,-0.440902,0.063901,-0.975615
1144509743.126,-0.436979,0.083472,-0.987320
1144509743.136,-0.429132,0.095215,-0.999025
1144509743.145,-0.413438,0.103043,-0.975615
1144509743.156,-0.421285,0.083472,-0.987320
1144509743.166,-0.433055,0.075643,-0.991221
1144509743.176,-0.444826,0.052158,-0.979516
1144509743.186,-0.440902,0.048243,-0.944401
1144509743.196,-0.440902,0.024758,-0.936598
1144509743.206,-0.440902,0.013015,-0.913188
1144509743.216,-0.444826,0.001272,-0.905384
1144509743.226,-0.429132,-0.010471,-0.905384
1144509743.236,-0.421285,-0.033956,-0.905384
1144509743.246,-0.425208,-0.041785,-0.901483
1144509743.256,-0.440902,-0.065271,-0.881974
1144509743.266,-0.456596,-0.100499,-0.839056
1144509743.275,-0.476214,-0.116156,-0.846859
1144509743.286,-0.484061,-0.120070,-0.827351
1144509743.296,-0.491908,-0.135728,-0.831253
1144509743.305,-0.468367,-0.139642,-0.842958
1144509743.315,-0.468367,-0.155299,-0.854663
1144509743.325,-0.456596,-0.159213,-0.893679
1144509743.335,-0.433055,-0.163127,-0.885876
1144509743.345,-0.417361,-0.178785,-0.905384
1144509743.356,-0.413438,-0.206185,-0.897581
1144509743.365,-0.413438,-0.214013,-0.878073
1144509743.375,-0.397744,-0.229670,-0.870269
1144509743.385,-0.401668,-0.237499,-0.846859
1144509743.395,-0.413438,-0.257070,-0.839056
1144509743.407,-0.409515,-0.264899,-0.842958
1144509743.415,-0.397744,-0.284470,-0.858564
1144509743.425,-0.393821,-0.284470,-0.862466
1144509743.435,-0.382050,-0.288384,-0.874171
1144509743.445,-0.385974,-0.292299,-0.870269
1144509743.456,-0.370280,-0.304041,-0.850761
1144509743.465,-0.370280,-0.319699,-0.839056
1144509743.475,-0.358509,-0.315784,-0.823449
1144509743.485,-0.354586,-0.300127,-0.807842
1144509743.495,-0.334968,-0.292299,-0.811744
1144509743.505,-0.303580,-0.304041,-0.807842
1144509743.515,-0.299657,-0.319699,-0.807842
1144509743.525,-0.303580,-0.335356,-0.807842
1144509743.535,-0.303580,-0.347098,-0.796137
1144509743.545,-0.303580,-0.362756,-0.784432
1144509743.555,-0.323198,-0.370584,-0.776629
1144509743.565,-0.334968,-0.362756,-0.776629
1144509743.575,-0.327121,-0.358841,-0.784432
1144509743.585,-0.307504,-0.358841,-0.792236
1144509743.595,-0.280039,-0.358841,-0.803941
1144509743.605,-0.244728,-0.362756,-0.815646
1144509743.615,-0.252575,-0.358841,-0.811744
1144509743.625,-0.260422,-0.374498,-0.776629
1144509743.635,-0.260422,-0.401898,-0.776629
1144509743.645,-0.287886,-0.401898,-0.780531
1144509743.655,-0.303580,-0.374498,-0.764924
1144509743.665,-0.311427,-0.374498,-0.772727
1144509743.675,-0.283963,-0.394070,-0.796137
1144509743.685,-0.248651,-0.390156,-0.811744
1144509743.695,-0.209416,-0.394070,-0.815646
1144509743.705,-0.197646,-0.421470,-0.796137
1144509743.715,-0.201569,-0.452784,-0.823449
1144509743.725,-0.225110,-0.491927,-0.803941
1144509743.735,-0.240804,-0.523241,-0.807842
1144509743.745,-0.260422,-0.550641,-0.811744
1144509743.754,-0.283963,-0.574126,-0.831253
1144509743.764,-0.276116,-0.574126,-0.842958
1144509743.774,-0.248651,-0.585869,-0.839056
1144509743.784,-0.217263,-0.578041,-0.839056
1144509743.794,-0.178028,-0.566298,-0.823449
1144509743.804,-0.181952,-0.581955,-0.796137
1144509743.814,-0.193722,-0.578041,-0.776629
1144509743.824,-0.193722,-0.609355,-0.753219
1144509743.834,-0.217263,-0.609355,-0.761022
1144509743.844,-0.217263,-0.625012,-0.776629
1144509743.854,-0.205493,-0.632841,-0.780531
1144509743.864,-0.154487,-0.656326,-0.784432
1144509743.876,-0.111329,-0.679812,-0.780531
1144509743.884,-0.083865,-0.691555,-0.780531
1144509743.894,-0.052477,-0.722869,-0.757121
1144509743.904,-0.072094,-0.746355,-0.725907
1144509743.914,-0.076018,-0.738526,-0.718104
1144509743.924,-0.079941,-0.726783,-0.682989
1144509743.934,-0.087788,-0.707212,-0.679087
1144509743.944,-0.087788,-0.699383,-0.671284
1144509743.954,-0.079941,-0.715040,-0.663480
1144509743.964,-0.060324,-0.730698,-0.702497
1144509743.974,-0.005395,-0.742441,-0.702497
1144509743.984,0.018146,-0.754183,-0.710300
1144509743.994,0.029917,-0.765926,-0.706399
1144509744.004,0.025993,-0.797240,-0.706399
1144509744.014,0.025993,-0.765926,-0.698595
1144509744.024,0.037764,-0.730698,-0.671284
1144509744.034,0.025993,-0.691555,-0.655677
1144509744.044,0.010299,-0.687641,-0.651775
1144509744.054,0.022070,-0.699383,-0.667382
1144509744.064,0.057381,-0.707212,-0.682989
1144509744.074,0.100539,-0.722869,-0.655677
1144509744.084,0.135851,-0.734612,-0.655677
1144509744.094,0.131927,-0.718955,-0.671284
1144509744.104,0.139774,-0.711126,-0.651775
1144509744.114,0.135851,-0.711126,-0.624464
1144509744.124,0.131927,-0.703298,-0.612759
1144509744.134,0.112310,-0.699383,-0.581545
1144509744.143,0.116233,-0.707212,-0.550332
1144509744.154,0.143698,-0.750269,-0.534725
1144509744.164,0.194703,-0.773755,-0.550332
1144509744.174,0.226091,-0.773755,-0.554233
1144509744.184,0.245709,-0.765926,-0.565938
1144509744.194,0.249632,-0.758098,-0.519118
1144509744.204,0.269250,-0.754183,-0.519118
1144509744.214,0.277097,-0.762012,-0.503512
1144509744.224,0.269250,-0.777669,-0.495708
1144509744.234,0.257479,-0.801155,-0.472298
1144509744.244,0.261403,-0.828555,-0.484003
1144509744.254,0.292791,-0.879440,-0.519118
1144509744.264,0.351643,-0.926411,-0.526922
1144509744.274,0.398725,-0.961640,-0.554233
1144509744.284,0.434036,-0.973383,-0.530823
1144509744.293,0.445807,-0.957726,-0.526922
1144509744.303,0.430113,-0.949897,-0.495708
1144509744.313,0.410495,-0.934240,-0.480101
1144509744.323,0.386954,-0.891183,-0.452790
1144509744.333,0.375184,-0.899012,-0.456691
1144509744.345,0.402648,-0.914669,-0.429380
1144509744.353,0.437960,-0.926411,-0.429380
1144509744.363,0.473271,-0.953811,-0.405970
1144509744.373,0.512506,-0.969468,-0.409871
1144509744.383,0.536047,-0.957726,-0.382560
1144509744.393,0.575282,-0.961640,-0.343543
1144509744.403,0.594900,-0.953811,-0.316231
1144509744.413,0.610593,-0.945983,-0.277214
1144509744.423,0.622364,-0.938154,-0.230394
1144509744.434,0.614517,-0.926411,-0.183574
1144509744.443,0.634134,-0.938154,-0.167967
1144509744.453,0.634134,-0.965554,-0.132852
1144509744.463,0.661599,-0.985126,-0.128950
1144509744.473,0.685140,-1.000783,-0.109442
1144509744.483,0.712604,-1.004697,-0.097737
1144509744.493,0.696910,-0.969468,-0.097737
1144509744.503,0.685140,-0.938154,-0.109442
1144509744.513,0.673369,-0.910754,-0.097737
1144509744.523,0.669446,-0.895097,-0.093835
1144509744.533,0.681216,-0.891183,-0.086032
1144509744.543,0.689063,-0.902926,-0.101639
1144509744.553,0.665522,-0.918583,-0.097737
1144509744.563,0.657675,-0.926411,-0.082130
1144509744.573,0.630211,-0.910754,-0.058720
1144509744.583,0.638058,-0.899012,-0.050917
1144509744.593,0.649828,-0.887269,-0.027507
1144509744.603,0.641981,-0.879440,-0.043114
1144509744.613,0.641981,-0.855954,-0.035310
1144509744.623,0.618440,-0.844212,-0.050917
1144509744.633,0.590976,-0.840297,-0.058720
1144509744.643,0.539971,-0.824640,-0.089934
1144509744.653,0.500736,-0.824640,-0.136754
1144509744.663,0.488965,-0.840297,-0.191377
1144509744.673,0.485042,-0.859869,-0.265509
1144509744.683,0.473271,-0.887269,-0.324034
1144509744.693,0.481118,-0.949897,-0.425478
1144509744.703,0.516430,-0.977297,-0.476200
1144509744.713,0.528200,-0.996868,-0.530823
1144509744.723,0.516430,-1.004697,-0.554233
1144509744.733,0.477195,-0.985126,-0.565938
1144509744.743,0.398725,-0.973383,-0.577643
1144509744.753,0.339873,-0.965554,-0.581545
1144509744.763,0.308485,-0.969468,-0.534725
1144509744.773,0.300638,-0.981211,-0.534725
1144509744.783,0.300638,-0.953811,-0.519118
1144509744.793,0.277097,-0.914669,-0.491807
1144509744.803,0.218244,-0.883354,-0.472298
1144509744.814,0.147621,-0.863783,-0.507413
1144509744.823,0.120157,-0.867697,-0.526922
1144509744.833,0.131927,-0.859869,-0.550332
1144509744.843,0.147621,-0.871612,-0.538627
1144509744.853,0.198627,-0.902926,-0.569840
1144509744.863,0.206474,-0.895097,-0.581545
1144509744.873,0.186856,-0.867697,-0.562037
1144509744.883,0.175086,-0.859869,-0.569840
1144509744.893,0.151545,-0.852040,-0.542528
1144509744.903,0.128004,-0.844212,-0.526922
1144509744.913,0.116233,-0.820726,-0.538627
1144509744.923,0.100539,-0.805069,-0.538627
1144509744.932,0.116233,-0.797240,-0.515217
1144509744.942,0.131927,-0.777669,-0.519118
1144509744.952,0.120157,-0.750269,-0.511315
1144509744.962,0.112310,-0.738526,-0.499610
1144509744.973,0.096616,-0.734612,-0.507413
1144509744.982,0.076999,-0.746355,-0.515217
1144509744.992,0.041687,-0.730698,-0.519118
1144509745.002,-0.005395,-0.715040,-0.511315
1144509745.012,-0.087788,-0.691555,-0.526922
1144509745.022,-0.170181,-0.668069,-0.562037
1144509745.032,-0.232957,-0.632841,-0.604955
1144509745.042,-0.244728,-0.593698,-0.636169
1144509745.052,-0.264345,-0.554555,-0.624464
1144509745.062,-0.291810,-0.511498,-0.663480
1144509745.072,-0.327121,-0.503670,-0.682989
1144509745.082,-0.378127,-0.534984,-0.718104
1144509745.092,-0.401668,-0.558469,-0.733711
1144509745.102,-0.436979,-0.570212,-0.768826
1144509745.112,-0.452673,-0.554555,-0.803941
1144509745.122,-0.472290,-0.542812,-0.827351
1144509745.131,-0.440902,-0.538898,-0.862466
1144509745.142,-0.385974,-0.534984,-0.881974
1144509745.152,-0.338892,-0.546727,-0.917089
1144509745.162,-0.342815,-0.546727,-0.913188
1144509745.172,-0.350662,-0.558469,-0.901483
1144509745.182,-0.370280,-0.550641,-0.920991
1144509745.192,-0.389897,-0.550641,-0.889778
1144509745.202,-0.393821,-0.558469,-0.905384
1144509745.212,-0.393821,-0.546727,-0.881974
1144509745.222,-0.346739,-0.554555,-0.874171
1144509745.232,-0.323198,-0.550641,-0.846859
1144509745.242,-0.331045,-0.562384,-0.842958
1144509745.251,-0.338892,-0.578041,-0.846859
1144509745.262,-0.338892,-0.578041,-0.784432
1144509745.272,-0.346739,-0.562384,-0.780531
1144509745.282,-0.362433,-0.534984,-0.764924
1144509745.292,-0.374203,-0.519327,-0.757121
1144509745.302,-0.370280,-0.499755,-0.741514
1144509745.312,-0.350662,-0.488012,-0.768826
1144509745.322,-0.331045,-0.480184,-0.772727
1144509745.332,-0.315351,-0.476270,-0.772727
1144509745.342,-0.315351,-0.476270,-0.761022
1144509745.352,-0.338892,-0.476270,-0.772727
1144509745.362,-0.350662,-0.444955,-0.753219
1144509745.372,-0.362433,-0.413641,-0.737612
1144509745.382,-0.358509,-0.397984,-0.725907
1144509745.391,-0.370280,-0.401898,-0.745416
1144509745.401,-0.370280,-0.417555,-0.757121
1144509745.412,-0.362433,-0.417555,-0.784432
1144509745.421,-0.346739,-0.421470,-0.811744
1144509745.431,-0.342815,-0.409727,-0.803941
1144509745.441,-0.346739,-0.417555,-0.811744
1144509745.452,-0.366356,-0.417555,-0.811744
1144509745.461,-0.374203,-0.409727,-0.827351
1144509745.471,-0.382050,-0.394070,-0.827351
1144509745.482,-0.370280,-0.370584,-0.823449
1144509745.491,-0.366356,-0.362756,-0.850761
1144509745.501,-0.354586,-0.354927,-0.846859
1144509745.511,-0.362433,-0.335356,-0.846859
1144509745.521,-0.354586,-0.331441,-0.846859
1144509745.531,-0.354586,-0.319699,-0.835154
1144509745.541,-0.354586,-0.311870,-0.823449
1144509745.551,-0.370280,-0.304041,-0.835154
1144509745.563,-0.385974,-0.280556,-0.823449
1144509745.571,-0.382050,-0.260984,-0.831253
1144509745.581,-0.370280,-0.214013,-0.850761
1144509745.591,-0.370280,-0.202270,-0.839056
1144509745.601,-0.385974,-0.186613,-0.819547
1144509745.611,-0.397744,-0.186613,-0.839056
1144509745.620,-0.405591,-0.194442,-0.811744
1144509745.631,-0.405591,-0.182699,-0.796137
1144509745.641,-0.401668,-0.178785,-0.788334
1144509745.651,-0.401668,-0.190527,-0.772727
1144509745.661,-0.417361,-0.159213,-0.776629
1144509745.671,-0.425208,-0.155299,-0.768826
1144509745.680,-0.413438,-0.147470,-0.780531
1144509745.691,-0.413438,-0.159213,-0.807842
1144509745.701,-0.409515,-0.170956,-0.807842
1144509745.711,-0.405591,-0.178785,-0.815646
1144509745.721,-0.417361,-0.198356,-0.842958
1144509745.731,-0.433055,-0.206185,-0.823449
1144509745.741,-0.464443,-0.170956,-0.893679
1144509745.751,-0.464443,-0.049613,-0.975615
1144509745.761,-0.413438,0.016929,-0.979516
1144509745.771,-0.303580,-0.210099,-1.006828
1144509745.780,-0.362433,-0.194442,-1.049746
1144509745.791,-0.519372,-0.057442,-0.987320
1144509745.801,-0.519372,-0.069185,-0.897581
1144509745.811,-0.491908,-0.120070,-0.823449
1144509745.821,-0.503678,-0.135728,-0.823449
1144509745.831,-0.538990,-0.123985,-0.846859
1144509745.840,-0.515449,-0.139642,-0.897581
1144509745.851,-0.456596,-0.135728,-0.905384
1144509745.860,-0.452673,-0.116156,-0.901483
1144509745.871,-0.499755,-0.120070,-0.905384
1144509745.880,-0.531143,-0.127899,-0.932696
1144509745.891,-0.527219,-0.139642,-0.920991
1144509745.901,-0.515449,-0.135728,-0.893679
1144509745.911,-0.511525,-0.147470,-0.909286
1144509745.921,-0.491908,-0.159213,-0.924893
1144509745.930,-0.491908,-0.167042,-0.936598
1144509745.940,-0.464443,-0.163127,-0.963910
1144509745.950,-0.448749,-0.167042,-0.971713
1144509745.960,-0.436979,-0.178785,-0.963910
1144509745.970,-0.429132,-0.182699,-0.956106
1144509745.980,-0.456596,-0.174870,-0.940500
1144509745.990,-0.460520,-0.155299,-0.924893
1144509746.000,-0.476214,-0.155299,-0.936598
1144509746.010,-0.480137,-0.143556,-0.952205
1144509746.020,-0.476214,-0.167042,-0.920991
1144509746.032,-0.464443,-0.155299,-0.928794
1144509746.040,-0.468367,-0.182699,-0.928794
1144509746.050,-0.464443,-0.167042,-0.905384
1144509746.060,-0.480137,-0.167042,-0.889778
1144509746.070,-0.503678,-0.163127,-0.905384
1144509746.080,-0.484061,-0.143556,-0.889778
1144509746.090,-0.484061,-0.151385,-0.885876
1144509746.100,-0.472290,-0.147470,-0.889778
1144509746.110,-0.472290,-0.151385,-0.870269
1144509746.120,-0.472290,-0.147470,-0.854663
1144509746.129,-0.487984,-0.167042,-0.842958
1144509746.140,-0.464443,-0.178785,-0.827351
1144509746.150,-0.460520,-0.194442,-0.831253
1144509746.160,-0.444826,-0.237499,-0.831253
1144509746.170,-0.436979,-0.245327,-0.835154
1144509746.180,-0.421285,-0.257070,-0.811744
1144509746.190,-0.440902,-0.260984,-0.831253
1144509746.200,-0.440902,-0.257070,-0.835154
1144509746.210,-0.429132,-0.268813,-0.835154
1144509746.220,-0.401668,-0.272727,-0.823449
1144509746.230,-0.393821,-0.272727,-0.827351
1144509746.240,-0.374203,-0.300127,-0.850761
1144509746.250,-0.350662,-0.335356,-0.862466
1144509746.260,-0.354586,-0.358841,-0.874171
1144509746.270,-0.350662,-0.382327,-0.862466
1144509746.280,-0.354586,-0.397984,-0.874171
1144509746.290,-0.342815,-0.394070,-0.878073
1144509746.300,-0.323198,-0.405813,-0.866368
1144509746.310,-0.331045,-0.397984,-0.874171
1144509746.320,-0.327121,-0.394070,-0.858564
1144509746.330,-0.323198,-0.370584,-0.846859
1144509746.339,-0.327121,-0.382327,-0.819547
1144509746.349,-0.327121,-0.378413,-0.800039
1144509746.359,-0.334968,-0.374498,-0.811744
1144509746.369,-0.342815,-0.362756,-0.811744
1144509746.379,-0.350662,-0.362756,-0.788334
1144509746.389,-0.346739,-0.382327,-0.788334
1144509746.399,-0.342815,-0.401898,-0.800039
1144509746.409,-0.299657,-0.409727,-0.819547
1144509746.419,-0.287886,-0.425384,-0.803941
1144509746.429,-0.244728,-0.444955,-0.800039
1144509746.439,-0.240804,-0.433213,-0.835154
1144509746.449,-0.225110,-0.444955,-0.811744
1144509746.459,-0.225110,-0.472355,-0.800039
1144509746.469,-0.240804,-0.503670,-0.780531
1144509746.479,-0.225110,-0.527155,-0.780531
1144509746.489,-0.197646,-0.550641,-0.784432
1144509746.501,-0.166258,-0.538898,-0.780531
1144509746.509,-0.115253,-0.562384,-0.749317
1144509746.519,-0.115253,-0.585869,-0.749317
1144509746.529,-0.119176,-0.589784,-0.725907
1144509746.539,-0.138794,-0.597612,-0.729809
1144509746.549,-0.142717,-0.613269,-0.718104
1144509746.559,-0.150564,-0.617184,-0.698595
1144509746.569,-0.150564,-0.609355,-0.679087
1144509746.579,-0.142717,-0.625012,-0.655677
1144509746.589,-0.134870,-0.632841,-0.640070
1144509746.599,-0.119176,-0.656326,-0.608857
1144509746.609,-0.111329,-0.675898,-0.628365
1144509746.619,-0.123100,-0.691555,-0.632267
1144509746.629,-0.134870,-0.711126,-0.616660
1144509746.639,-0.142717,-0.707212,-0.616660
1144509746.649,-0.138794,-0.715040,-0.647874
1144509746.659,-0.119176,-0.742441,-0.671284
1144509746.669,-0.095635,-0.777669,-0.690792
1144509746.679,-0.040706,-0.793326,-0.686890
1144509746.689,-0.001471,-0.808983,-0.675185
1144509746.699,0.041687,-0.801155,-0.647874
1144509746.709,0.057381,-0.812897,-0.640070
1144509746.719,0.049534,-0.808983,-0.608857
1144509746.729,0.033840,-0.805069,-0.601053
1144509746.739,0.018146,-0.820726,-0.562037
1144509746.749,0.049534,-0.852040,-0.562037
1144509746.759,0.088769,-0.891183,-0.538627
1144509746.769,0.147621,-0.914669,-0.487905
1144509746.779,0.214321,-0.934240,-0.444986
1144509746.789,0.257479,-0.949897,-0.405970
1144509746.799,0.241785,-0.942069,-0.386461
1144509746.809,0.167239,-0.922497,-0.370854
1144509746.819,0.080922,-0.902926,-0.374756
1144509746.829,0.029917,-0.895097,-0.378658
1144509746.839,0.022070,-0.875526,-0.448888
1144509746.849,0.088769,-0.891183,-0.484003
1144509746.859,0.175086,-0.910754,-0.534725
1144509746.869,0.253556,-0.930326,-0.550332
1144509746.879,0.277097,-0.918583,-0.604955
1144509746.889,0.230015,-0.871612,-0.577643
1144509746.899,0.135851,-0.840297,-0.593250
1144509746.909,0.080922,-0.808983,-0.589348
1144509746.919,0.029917,-0.773755,-0.589348
1144509746.929,-0.005395,-0.765926,-0.589348
1144509746.939,-0.017165,-0.765926,-0.577643
1144509746.949,0.002452,-0.785497,-0.593250
1144509746.959,0.080922,-0.824640,-0.608857
1144509746.970,0.171162,-0.848126,-0.581545
1144509746.979,0.194703,-0.840297,-0.530823
1144509746.988,0.179009,-0.832469,-0.534725
1144509746.998,0.163315,-0.844212,-0.495708
1144509747.008,0.167239,-0.840297,-0.468396
1144509747.018,0.182933,-0.852040,-0.441085
1144509747.029,0.194703,-0.844212,-0.390363
1144509747.038,0.226091,-0.852040,-0.366953
1144509747.048,0.284944,-0.883354,-0.312329
1144509747.058,0.363413,-0.930326,-0.308428
1144509747.068,0.422266,-0.981211,-0.296723
1144509747.078,0.461501,-1.028183,-0.320133
1144509747.088,0.485042,-1.039925,-0.316231
1144509747.098,0.512506,-1.039925,-0.320133
1144509747.108,0.536047,-1.020354,-0.285018
1144509747.118,0.536047,-1.012526,-0.257706
1144509747.128,0.563512,-1.020354,-0.199181
1144509747.138,0.571359,-1.032097,-0.195279
1144509747.148,0.575282,-1.043840,-0.175771
1144509747.158,0.606670,-1.059497,-0.191377
1144509747.168,0.610593,-1.051668,-0.167967
1144509747.178,0.606670,-1.059497,-0.195279
1144509747.188,0.641981,-1.024268,-0.226492
1144509747.198,0.681216,-0.985126,-0.226492
1144509747.208,0.692987,-0.977297,-0.230394
1144509747.218,0.665522,-0.973383,-0.191377
1144509747.228,0.645905,-0.957726,-0.203082
1144509747.238,0.634134,-0.945983,-0.187476
1144509747.248,0.630211,-0.910754,-0.152361
1144509747.258,0.630211,-0.879440,-0.148459
1144509747.268,0.606670,-0.887269,-0.144557
1144509747.278,0.583129,-0.902926,-0.140655
1144509747.288,0.579206,-0.906840,-0.148459
1144509747.298,0.567435,-0.883354,-0.152361
1144509747.308,0.563512,-0.871612,-0.117245
1144509747.318,0.571359,-0.828555,-0.113344
1144509747.328,0.590976,-0.781583,-0.082130
1144509747.338,0.614517,-0.742441,-0.093835
1144509747.348,0.638058,-0.722869,-0.101639
1144509747.358,0.638058,-0.726783,-0.136754
1144509747.368,0.634134,-0.738526,-0.148459
1144509747.378,0.614517,-0.765926,-0.183574
1144509747.388,0.575282,-0.793326,-0.210886
1144509747.398,0.488965,-0.812897,-0.257706
1144509747.408,0.430113,-0.836383,-0.308428
1144509747.418,0.453654,-0.875526,-0.351346
1144509747.427,0.496812,-0.945983,-0.425478
1144509747.439,0.524277,-0.989040,-0.476200
1144509747.449,0.543894,-1.016440,-0.507413
1144509747.458,0.532124,-1.020354,-0.507413
1144509747.468,0.524277,-1.024268,-0.526922
1144509747.477,0.516430,-1.051668,-0.526922
1144509747.487,0.516430,-1.063411,-0.534725
1144509747.497,0.488965,-1.059497,-0.507413
1144509747.507,0.465424,-1.036011,-0.503512
1144509747.517,0.437960,-0.996868,-0.499610
1144509747.527,0.394801,-0.949897,-0.515217
1144509747.537,0.355566,-0.922497,-0.526922
1144509747.547,0.359490,-0.895097,-0.526922
1144509747.557,0.359490,-0.879440,-0.523020
1144509747.567,0.351643,-0.875526,-0.554233
1144509747.577,0.320255,-0.883354,-0.534725
1144509747.587,0.281020,-0.883354,-0.523020
1144509747.597,0.222168,-0.867697,-0.491807
1144509747.607,0.194703,-0.828555,-0.507413
1144509747.617,0.159392,-0.793326,-0.460593
1144509747.627,0.147621,-0.777669,-0.425478
1144509747.637,0.092693,-0.785497,-0.413773
1144509747.647,0.010299,-0.840297,-0.433281
1144509747.657,-0.060324,-0.891183,-0.484003
1144509747.667,-0.115253,-0.891183,-0.565938
1144509747.677,-0.119176,-0.852040,-0.624464
1144509747.687,-0.052477,-0.808983,-0.682989
1144509747.697,-0.001471,-0.769840,-0.729809
1144509747.707,0.018146,-0.718955,-0.757121
1144509747.717,-0.001471,-0.679812,-0.761022
1144509747.727,-0.025012,-0.636755,-0.753219
1144509747.737,-0.048553,-0.585869,-0.768826
1144509747.747,-0.048553,-0.546727,-0.780531
1144509747.757,-0.044630,-0.515412,-0.819547
1144509747.767,0.002452,-0.480184,-0.839056
1144509747.777,0.045611,-0.444955,-0.881974
1144509747.786,0.124080,-0.421470,-0.897581
1144509747.797,0.155468,-0.397984,-0.881974
1144509747.807,0.131927,-0.397984,-0.835154
1144509747.817,0.076999,-0.382327,-0.800039
1144509747.827,-0.005395,-0.382327,-0.772727
1144509747.837,-0.091712,-0.374498,-0.768826
1144509747.847,-0.158411,-0.374498,-0.768826
1144509747.857,-0.193722,-0.378413,-0.784432
1144509747.867,-0.221187,-0.370584,-0.815646
1144509747.877,-0.232957,-0.397984,-0.842958
1144509747.887,-0.205493,-0.437127,-0.858564
1144509747.897,-0.181952,-0.452784,-0.881974
1144509747.907,-0.170181,-0.488012,-0.870269
1144509747.917,-0.189799,-0.511498,-0.866368
1144509747.926,-0.189799,-0.519327,-0.858564
1144509747.936,-0.201569,-0.538898,-0.870269
1144509747.946,-0.189799,-0.542812,-0.870269
1144509747.956,-0.201569,-0.538898,-0.862466
1144509747.966,-0.201569,-0.527155,-0.854663
1144509747.976,-0.193722,-0.534984,-0.831253
1144509747.987,-0.205493,-0.538898,-0.842958
1144509747.996,-0.225110,-0.542812,-0.827351
1144509748.006,-0.244728,-0.527155,-0.815646
1144509748.016,-0.260422,-0.488012,-0.796137
1144509748.026,-0.268269,-0.476270,-0.792236
1144509748.036,-0.276116,-0.452784,-0.796137
1144509748.046,-0.268269,-0.468441,-0.780531
1144509748.056,-0.319274,-0.499755,-0.788334
1144509748.066,-0.334968,-0.507584,-0.784432
1144509748.076,-0.334968,-0.448870,-0.764924
1144509748.086,-0.338892,-0.335356,-0.803941
1144509748.096,-0.342815,-0.221842,-0.788334
1144509748.106,-0.350662,-0.163127,-0.823449
1144509748.116,-0.366356,-0.186613,-0.839056
1144509748.126,-0.354586,-0.245327,-0.839056
1144509748.136,-0.370280,-0.257070,-0.854663
1144509748.146,-0.382050,-0.233584,-0.858564
1144509748.156,-0.393821,-0.206185,-0.846859
1144509748.166,-0.385974,-0.198356,-0.862466
1144509748.176,-0.393821,-0.202270,-0.870269
1144509748.186,-0.382050,-0.260984,-0.885876
1144509748.196,-0.409515,-0.304041,-0.928794
1144509748.206,-0.405591,-0.347098,-0.913188
1144509748.216,-0.382050,-0.339270,-0.889778
1144509748.226,-0.374203,-0.347098,-0.881974
1144509748.236,-0.393821,-0.366670,-0.858564
1144509748.246,-0.393821,-0.354927,-0.858564
1144509748.256,-0.397744,-0.331441,-0.850761
1144509748.266,-0.393821,-0.331441,-0.850761
1144509748.286,-0.374203,-0.343184,-0.846859
1144509748.296,-0.397744,-0.347098,-0.819547
1144509748.306,-0.385974,-0.331441,-0.823449
1144509748.316,-0.374203,-0.300127,-0.803941
1144509748.326,-0.374203,-0.284470,-0.831253
1144509748.335,-0.389897,-0.272727,-0.811744
1144509748.346,-0.397744,-0.257070,-0.831253
1144509748.356,-0.401668,-0.260984,-0.811744
1144509748.366,-0.389897,-0.253156,-0.803941
1144509748.376,-0.393821,-0.253156,-0.796137
1144509748.386,-0.382050,-0.249242,-0.776629
1144509748.396,-0.401668,-0.241413,-0.800039
1144509748.406,-0.409515,-0.229670,-0.792236
1144509748.416,-0.397744,-0.217927,-0.788334
1144509748.425,-0.382050,-0.217927,-0.776629
1144509748.435,-0.385974,-0.210099,-0.788334
1144509748.445,-0.389897,-0.178785,-0.784432
1144509748.455,-0.417361,-0.155299,-0.839056
1144509748.465,-0.409515,-0.077013,-0.854663
1144509748.475,-0.378127,0.083472,-0.913188
1144509748.485,-0.319274,0.126529,-0.999025
1144509748.495,-0.229034,-0.080928,-1.018533
1144509748.505,-0.283963,-0.167042,-1.049746
1144509748.515,-0.456596,-0.096585,-1.018533
1144509748.525,-0.527219,-0.155299,-0.999025
1144509748.535,-0.476214,-0.253156,-1.018533
1144509748.545,-0.476214,-0.284470,-1.041943
1144509748.555,-0.444826,-0.233584,-1.010730
1144509748.565,-0.413438,-0.147470,-0.963910
1144509748.575,-0.374203,-0.100499,-0.932696
1144509748.585,-0.354586,-0.108328,-0.893679
1144509748.595,-0.401668,-0.127899,-0.893679
1144509748.605,-0.452673,-0.127899,-0.913188
1144509748.615,-0.476214,-0.131813,-0.885876
1144509748.625,-0.464443,-0.170956,-0.893679
1144509748.635,-0.452673,-0.206185,-0.881974
1144509748.645,-0.460520,-0.225756,-0.846859
1144509748.657,-0.476214,-0.249242,-0.854663
1144509748.665,-0.464443,-0.241413,-0.839056
1144509748.675,-0.452673,-0.214013,-0.842958
1144509748.685,-0.436979,-0.202270,-0.827351
1144509748.695,-0.433055,-0.170956,-0.827351
1144509748.705,-0.409515,-0.139642,-0.823449
1144509748.715,-0.405591,-0.120070,-0.842958
1144509748.725,-0.409515,-0.108328,-0.862466
1144509748.735,-0.401668,-0.112242,-0.874171
1144509748.745,-0.393821,-0.120070,-0.897581
1144509748.755,-0.393821,-0.127899,-0.913188
1144509748.765,-0.405591,-0.120070,-0.909286
1144509748.775,-0.417361,-0.135728,-0.940500
1144509748.785,-0.425208,-0.170956,-0.944401
1144509748.795,-0.433055,-0.182699,-0.952205
1144509748.805,-0.433055,-0.194442,-0.948303
1144509748.815,-0.444826,-0.198356,-0.920991
1144509748.825,-0.468367,-0.202270,-0.909286
1144509748.835,-0.468367,-0.206185,-0.917089
1144509748.845,-0.484061,-0.190527,-0.901483
1144509748.855,-0.468367,-0.174870,-0.913188
1144509748.865,-0.468367,-0.170956,-0.924893
1144509748.875,-0.464443,-0.186613,-0.963910
1144509748.885,-0.464443,-0.202270,-0.960008
1144509748.895,-0.464443,-0.178785,-0.948303
1144509748.905,-0.456596,-0.194442,-0.944401
1144509748.915,-0.433055,-0.202270,-0.971713
1144509748.925,-0.425208,-0.229670,-0.963910
1144509748.934,-0.405591,-0.237499,-0.928794
1144509748.944,-0.401668,-0.253156,-0.975615
1144509748.954,-0.389897,-0.233584,-0.971713
1144509748.964,-0.393821,-0.221842,-0.995123
1144509748.974,-0.378127,-0.194442,-0.987320
1144509748.984,-0.382050,-0.217927,-0.987320
1144509748.994,-0.354586,-0.237499,-0.979516
1144509749.004,-0.346739,-0.260984,-0.987320
1144509749.014,-0.346739,-0.260984,-0.975615
1144509749.024,-0.362433,-0.268813,-0.952205
1144509749.034,-0.374203,-0.276641,-0.936598
1144509749.044,-0.358509,-0.280556,-0.917089
1144509749.054,-0.362433,-0.276641,-0.905384
1144509749.064,-0.362433,-0.280556,-0.920991
1144509749.074,-0.374203,-0.288384,-0.905384
1144509749.084,-0.350662,-0.307956,-0.905384
1144509749.094,-0.346739,-0.315784,-0.870269
1144509749.104,-0.331045,-0.300127,-0.842958
1144509749.114,-0.319274,-0.311870,-0.835154
1144509749.125,-0.307504,-0.327527,-0.823449
1144509749.134,-0.299657,-0.339270,-0.811744
1144509749.143,-0.299657,-0.347098,-0.776629
1144509749.154,-0.319274,-0.351013,-0.768826
1144509749.164,-0.323198,-0.370584,-0.768826
1144509749.174,-0.303580,-0.382327,-0.745416
1144509749.184,-0.283963,-0.378413,-0.749317
1144509749.194,-0.280039,-0.370584,-0.761022
1144509749.204,-0.283963,-0.390156,-0.753219
1144509749.214,-0.276116,-0.429298,-0.764924
1144509749.224,-0.256498,-0.448870,-0.768826
1144509749.234,-0.260422,-0.456698,-0.764924
1144509749.244,-0.264345,-0.444955,-0.796137
1144509749.254,-0.248651,-0.456698,-0.780531
1144509749.264,-0.229034,-0.468441,-0.757121
1144509749.274,-0.240804,-0.472355,-0.768826
1144509749.284,-0.244728,-0.472355,-0.764924
1144509749.294,-0.217263,-0.480184,-0.737612
1144509749.304,-0.201569,-0.503670,-0.753219
1144509749.314,-0.209416,-0.550641,-0.780531
1144509749.324,-0.221187,-0.558469,-0.757121
1144509749.333,-0.229034,-0.534984,-0.772727
1144509749.343,-0.209416,-0.554555,-0.792236
1144509749.353,-0.209416,-0.570212,-0.803941
1144509749.363,-0.217263,-0.585869,-0.768826
1144509749.373,-0.193722,-0.578041,-0.764924
1144509749.383,-0.185875,-0.550641,-0.722005
1144509749.393,-0.162334,-0.562384,-0.706399
1144509749.403,-0.178028,-0.574126,-0.694694
1144509749.413,-0.170181,-0.601527,-0.686890
1144509749.423,-0.170181,-0.605441,-0.686890
1144509749.434,-0.142717,-0.605441,-0.682989
1144509749.444,-0.127023,-0.605441,-0.682989
1144509749.453,-0.127023,-0.625012,-0.675185
1144509749.463,-0.103482,-0.675898,-0.679087
1144509749.473,-0.079941,-0.687641,-0.643972
1144509749.483,-0.060324,-0.687641,-0.616660
1144509749.493,-0.040706,-0.715040,-0.624464
1144509749.503,-0.009318,-0.750269,-0.581545
1144509749.513,-0.009318,-0.762012,-0.558135
1144509749.523,0.022070,-0.738526,-0.519118
1144509749.533,0.022070,-0.746355,-0.519118
1144509749.543,0.006376,-0.797240,-0.487905
1144509749.553,0.010299,-0.801155,-0.452790
1144509749.563,0.025993,-0.816812,-0.394265
1144509749.573,0.049534,-0.797240,-0.359149
1144509749.583,0.018146,-0.820726,-0.363051
1144509749.594,0.018146,-0.938154,-0.355248
1144509749.603,0.057381,-1.047754,-0.378658
1144509749.613,0.088769,-1.102554,-0.398166
1144509749.623,0.128004,-1.129954,-0.386461
1144509749.633,0.128004,-1.086897,-0.370854
1144509749.643,0.143698,-1.028183,-0.347444
1144509749.653,0.124080,-1.000783,-0.316231
1144509749.663,0.124080,-1.000783,-0.308428
1144509749.673,0.131927,-0.992954,-0.277214
1144509749.683,0.135851,-0.969468,-0.234296
1144509749.693,0.159392,-0.973383,-0.210886
1144509749.703,0.143698,-1.047754,-0.183574
1144509749.713,0.143698,-1.090811,-0.152361
1144509749.723,0.131927,-1.090811,-0.125049
1144509749.733,0.116233,-1.090811,-0.109442
1144509749.743,0.108386,-1.075154,-0.121147
1144509749.752,0.124080,-1.039925,-0.093835
1144509749.763,0.155468,-1.024268,-0.074327
1144509749.773,0.167239,-1.004697,-0.082130
1144509749.783,0.159392,-0.977297,-0.066524
1144509749.793,0.163315,-0.981211,-0.058720
1144509749.803,0.175086,-0.973383,-0.031409
1144509749.813,0.179009,-0.992954,-0.031409
1144509749.823,0.175086,-1.012526,-0.039212
1144509749.832,0.182933,-0.965554,-0.027507
1144509749.842,0.206474,-0.934240,-0.004097
1144509749.852,0.233938,-0.926411,0.015412
1144509749.862,0.249632,-0.934240,0.058330
1144509749.872,0.249632,-0.942069,0.066133
1144509749.883,0.245709,-0.953811,0.101249
1144509749.892,0.257479,-0.957726,0.085642
1144509749.902,0.269250,-0.945983,0.066133
1144509749.912,0.296714,-0.910754,0.058330
1144509749.922,0.320255,-0.883354,0.046625
1144509749.932,0.367337,-0.852040,0.042723
1144509749.942,0.406572,-0.828555,0.066133
1144509749.951,0.449730,-0.836383,0.097347
1144509749.962,0.477195,-0.863783,0.128560
1144509749.972,0.496812,-0.899012,0.171479
1144509749.982,0.532124,-0.926411,0.210496
1144509749.992,0.563512,-0.957726,0.261217
1144509750.002,0.571359,-0.996868,0.280726
1144509750.012,0.583129,-1.036011,0.269021
1144509750.022,0.590976,-1.063411,0.272922
1144509750.032,0.587053,-1.067325,0.284627
1144509750.042,0.610593,-1.043840,0.276824
1144509750.052,0.638058,-1.008611,0.300234
1144509750.063,0.645905,-0.989040,0.323644
1144509750.072,0.657675,-0.949897,0.323644
1144509750.082,0.638058,-0.957726,0.331448
1144509750.092,0.622364,-0.961640,0.343153
1144509750.102,0.618440,-0.949897,0.335349
1144509750.112,0.618440,-0.938154,0.331448
1144509750.122,0.614517,-0.918583,0.315841
1144509750.132,0.606670,-0.891183,0.315841
1144509750.142,0.630211,-0.820726,0.335349
1144509750.152,0.630211,-0.750269,0.378268
1144509750.162,0.645905,-0.726783,0.409481
1144509750.172,0.641981,-0.691555,0.452400
1144509750.182,0.653752,-0.679812,0.479711
1144509750.192,0.653752,-0.691555,0.483613
1144509750.202,0.657675,-0.675898,0.491416
1144509750.212,0.665522,-0.664155,0.487515
1144509750.222,0.665522,-0.675898,0.479711
1144509750.232,0.665522,-0.699383,0.468006
1144509750.242,0.685140,-0.711126,0.444596
1144509750.251,0.696910,-0.718955,0.444596
1144509750.262,0.677293,-0.734612,0.389973
1144509750.272,0.677293,-0.742441,0.382169
1144509750.281,0.704757,-0.750269,0.374366
1144509750.292,0.724375,-0.754183,0.347054
1144509750.302,0.736145,-0.805069,0.304136
1144509750.311,0.740069,-0.859869,0.230004
1144509750.321,0.716528,-0.899012,0.179282
1144509750.331,0.681216,-0.922497,0.148069
1144509750.341,0.649828,-0.930326,0.109052
1144509750.351,0.622364,-0.949897,0.066133
1144509750.361,0.594900,-0.992954,0.038822
1144509750.372,0.579206,-1.036011,-0.004097
1144509750.382,0.547818,-1.075154,-0.004097
1144509750.391,0.524277,-1.086897,-0.027507
1144509750.401,0.504659,-1.079068,-0.039212
1144509750.411,0.492889,-1.055583,-0.031409
1144509750.421,0.465424,-1.032097,-0.031409
1144509750.431,0.453654,-1.047754,-0.035310
1144509750.441,0.402648,-1.086897,-0.066524
1144509750.451,0.359490,-1.098640,-0.074327
1144509750.461,0.339873,-1.094725,-0.070425
1144509750.471,0.320255,-1.075154,-0.097737
1144509750.481,0.284944,-1.039925,-0.101639
1144509750.491,0.273173,-1.028183,-0.121147
1144509750.501,0.265326,-1.032097,-0.128950
1144509750.511,0.241785,-1.024268,-0.164066
1144509750.521,0.214321,-1.008611,-0.152361
1144509750.533,0.179009,-0.989040,-0.148459
1144509750.541,0.135851,-0.977297,-0.164066
1144509750.551,0.076999,-0.949897,-0.187476
1144509750.561,0.029917,-0.914669,-0.222591
1144509750.571,0.029917,-0.875526,-0.253804
1144509750.580,0.049534,-0.844212,-0.257706
1144509750.591,0.076999,-0.824640,-0.265509
1144509750.601,0.069152,-0.805069,-0.277214
1144509750.611,0.057381,-0.812897,-0.304526
1144509750.621,0.037764,-0.820726,-0.304526
1144509750.631,0.041687,-0.832469,-0.292821
1144509750.641,0.029917,-0.832469,-0.324034
1144509750.651,0.006376,-0.812897,-0.292821
1144509750.661,-0.017165,-0.832469,-0.296723
1144509750.671,-0.064247,-0.855954,-0.335739
1144509750.680,-0.115253,-0.867697,-0.351346
1144509750.691,-0.134870,-0.867697,-0.386461
1144509750.701,-0.138794,-0.875526,-0.421576
1144509750.711,-0.154487,-0.902926,-0.456691
1144509750.721,-0.154487,-0.899012,-0.480101
1144509750.731,-0.162334,-0.906840,-0.511315
1144509750.741,-0.178028,-0.887269,-0.519118
1144509750.751,-0.166258,-0.883354,-0.499610
1144509750.761,-0.174105,-0.859869,-0.503512
1144509750.771,-0.197646,-0.844212,-0.487905
1144509750.780,-0.217263,-0.848126,-0.472298
1144509750.791,-0.225110,-0.848126,-0.476200
1144509750.800,-0.244728,-0.859869,-0.476200
1144509750.810,-0.268269,-0.852040,-0.472298
1144509750.820,-0.272192,-0.836383,-0.480101
1144509750.830,-0.252575,-0.820726,-0.526922
1144509750.840,-0.256498,-0.801155,-0.530823
1144509750.850,-0.236881,-0.769840,-0.538627
1144509750.860,-0.213340,-0.773755,-0.565938
1144509750.870,-0.205493,-0.777669,-0.565938
1144509750.880,-0.205493,-0.801155,-0.569840
1144509750.890,-0.229034,-0.824640,-0.562037
1144509750.900,-0.287886,-0.816812,-0.562037
1144509750.910,-0.327121,-0.808983,-0.558135
1144509750.920,-0.342815,-0.820726,-0.581545
1144509750.930,-0.311427,-0.828555,-0.628365
1144509750.940,-0.264345,-0.812897,-0.643972
1144509750.950,-0.229034,-0.793326,-0.663480
1144509750.960,-0.213340,-0.785497,-0.690792
1144509750.970,-0.209416,-0.758098,-0.651775
1144509750.980,-0.221187,-0.718955,-0.624464
1144509750.990,-0.240804,-0.707212,-0.643972
1144509751.001,-0.264345,-0.734612,-0.663480
1144509751.010,-0.264345,-0.734612,-0.714202
1144509751.020,-0.236881,-0.715040,-0.686890
1144509751.029,-0.240804,-0.703298,-0.702497
1144509751.040,-0.225110,-0.699383,-0.729809
1144509751.050,-0.217263,-0.648498,-0.718104
1144509751.059,-0.201569,-0.605441,-0.714202
1144509751.070,-0.201569,-0.550641,-0.729809
1144509751.080,-0.232957,-0.538898,-0.749317
1144509751.090,-0.276116,-0.507584,-0.741514
1144509751.100,-0.307504,-0.491927,-0.753219
1144509751.110,-0.299657,-0.507584,-0.733711
1144509751.120,-0.287886,-0.507584,-0.741514
1144509751.130,-0.291810,-0.499755,-0.753219
1144509751.139,-0.299657,-0.495841,-0.776629
1144509751.149,-0.307504,-0.491927,-0.772727
1144509751.160,-0.311427,-0.495841,-0.784432
1144509751.170,-0.307504,-0.488012,-0.819547
1144509751.180,-0.299657,-0.488012,-0.823449
1144509751.190,-0.307504,-0.480184,-0.811744
1144509751.200,-0.311427,-0.480184,-0.819547
1144509751.210,-0.295733,-0.495841,-0.815646
1144509751.220,-0.295733,-0.503670,-0.866368
1144509751.230,-0.291810,-0.515412,-0.862466
1144509751.240,-0.287886,-0.507584,-0.854663
1144509751.249,-0.283963,-0.511498,-0.842958
1144509751.259,-0.280039,-0.507584,-0.831253
1144509751.269,-0.283963,-0.488012,-0.842958
1144509751.279,-0.283963,-0.480184,-0.811744
1144509751.289,-0.295733,-0.484098,-0.803941
1144509751.299,-0.311427,-0.484098,-0.796137
1144509751.309,-0.315351,-0.491927,-0.780531
1144509751.319,-0.311427,-0.484098,-0.764924
1144509751.329,-0.287886,-0.476270,-0.764924
1144509751.339,-0.276116,-0.491927,-0.733711
1144509751.349,-0.280039,-0.491927,-0.722005
1144509751.359,-0.268269,-0.468441,-0.733711
1144509751.369,-0.260422,-0.460613,-0.710300
1144509751.379,-0.260422,-0.460613,-0.741514
1144509751.389,-0.287886,-0.476270,-0.710300
1144509751.399,-0.303580,-0.499755,-0.706399
1144509751.409,-0.299657,-0.515412,-0.714202
1144509751.419,-0.287886,-0.503670,-0.706399
1144509751.429,-0.303580,-0.480184,-0.694694
1144509751.440,-0.319274,-0.444955,-0.714202
1144509751.449,-0.323198,-0.421470,-0.745416
1144509751.459,-0.350662,-0.421470,-0.764924
1144509751.470,-0.382050,-0.425384,-0.811744
1144509751.479,-0.413438,-0.413641,-0.850761
1144509751.489,-0.413438,-0.405813,-0.881974
1144509751.499,-0.405591,-0.394070,-0.881974
1144509751.509,-0.429132,-0.378413,-0.881974
1144509751.519,-0.448749,-0.315784,-0.905384
1144509751.529,-0.421285,-0.127899,-0.963910
1144509751.539,-0.217263,-0.284470,-0.885876
1144509751.549,-0.244728,-0.534984,-0.987320
1144509751.559,-0.476214,-0.417555,-0.963910
1144509751.569,-0.440902,-0.386241,-0.850761
1144509751.579,-0.421285,-0.534984,-0.854663
1144509751.589,-0.456596,-0.550641,-0.909286
1144509751.599,-0.487984,-0.421470,-0.850761
1144509751.609,-0.421285,-0.339270,-0.823449
1144509751.619,-0.370280,-0.323613,-0.803941
1144509751.629,-0.382050,-0.331441,-0.792236
1144509751.639,-0.417361,-0.335356,-0.800039
1144509751.649,-0.413438,-0.354927,-0.796137
1144509751.659,-0.433055,-0.382327,-0.807842
1144509751.669,-0.452673,-0.413641,-0.803941
1144509751.679,-0.460520,-0.437127,-0.807842
1144509751.689,-0.448749,-0.437127,-0.815646
1144509751.699,-0.425208,-0.437127,-0.792236
1144509751.709,-0.440902,-0.437127,-0.811744
1144509751.719,-0.436979,-0.425384,-0.811744
1144509751.729,-0.413438,-0.421470,-0.811744
1144509751.738,-0.405591,-0.433213,-0.823449
1144509751.748,-0.401668,-0.409727,-0.827351
1144509751.758,-0.409515,-0.401898,-0.839056
1144509751.768,-0.425208,-0.397984,-0.827351
1144509751.778,-0.436979,-0.405813,-0.850761
1144509751.788,-0.452673,-0.405813,-0.858564
1144509751.798,-0.460520,-0.405813,-0.893679
1144509751.808,-0.456596,-0.405813,-0.901483
1144509751.818,-0.448749,-0.401898,-0.901483
1144509751.828,-0.452673,-0.394070,-0.901483
1144509751.838,-0.440902,-0.394070,-0.897581
1144509751.848,-0.405591,-0.409727,-0.893679
1144509751.858,-0.393821,-0.401898,-0.897581
1144509751.868,-0.393821,-0.413641,-0.905384
1144509751.878,-0.393821,-0.386241,-0.901483
1144509751.888,-0.366356,-0.394070,-0.905384
1144509751.898,-0.366356,-0.409727,-0.924893
1144509751.908,-0.327121,-0.413641,-0.889778
1144509751.918,-0.334968,-0.401898,-0.881974
1144509751.928,-0.334968,-0.409727,-0.881974
1144509751.939,-0.307504,-0.413641,-0.878073
1144509751.948,-0.319274,-0.437127,-0.874171
1144509751.958,-0.331045,-0.448870,-0.858564
1144509751.968,-0.346739,-0.456698,-0.862466
1144509751.978,-0.342815,-0.452784,-0.858564
1144509751.988,-0.350662,-0.460613,-0.862466
1144509751.998,-0.366356,-0.448870,-0.858564
1144509752.008,-0.350662,-0.444955,-0.846859
1144509752.018,-0.342815,-0.444955,-0.839056
1144509752.028,-0.323198,-0.452784,-0.842958
1144509752.038,-0.307504,-0.464527,-0.823449
1144509752.048,-0.268269,-0.484098,-0.815646
1144509752.058,-0.252575,-0.503670,-0.811744
1144509752.068,-0.232957,-0.503670,-0.776629
1144509752.078,-0.225110,-0.507584,-0.757121
1144509752.088,-0.232957,-0.527155,-0.772727
1144509752.098,-0.229034,-0.531069,-0.749317
1144509752.108,-0.232957,-0.515412,-0.753219
1144509752.118,-0.225110,-0.523241,-0.741514
1144509752.128,-0.225110,-0.527155,-0.718104
1144509752.138,-0.244728,-0.550641,-0.749317
1144509752.148,-0.236881,-0.542812,-0.737612
1144509752.158,-0.232957,-0.527155,-0.753219
1144509752.168,-0.205493,-0.527155,-0.725907
1144509752.177,-0.205493,-0.511498,-0.725907
1144509752.187,-0.205493,-0.503670,-0.729809
1144509752.197,-0.193722,-0.503670,-0.737612
1144509752.207,-0.189799,-0.542812,-0.718104
1144509752.217,-0.178028,-0.562384,-0.718104
1144509752.227,-0.166258,-0.558469,-0.729809
1144509752.237,-0.162334,-0.546727,-0.733711
1144509752.247,-0.154487,-0.558469,-0.737612
1144509752.257,-0.142717,-0.570212,-0.733711
1144509752.267,-0.142717,-0.628926,-0.745416
1144509752.278,-0.142717,-0.644583,-0.745416
1144509752.287,-0.134870,-0.660241,-0.725907
1144509752.297,-0.123100,-0.671983,-0.679087
1144509752.307,-0.107406,-0.648498,-0.632267
1144509752.317,-0.076018,-0.609355,-0.612759
1144509752.327,-0.103482,-0.636755,-0.581545
1144509752.337,-0.123100,-0.703298,-0.573742
1144509752.347,-0.099559,-0.738526,-0.601053
1144509752.357,-0.107406,-0.789412,-0.643972
1144509752.367,-0.134870,-0.750269,-0.667382
1144509752.377,-0.099559,-0.718955,-0.675185
1144509752.387,-0.056400,-0.742441,-0.663480
1144509752.397,-0.044630,-0.785497,-0.690792
1144509752.408,-0.013242,-0.793326,-0.628365
1144509752.417,0.006376,-0.812897,-0.612759
1144509752.427,0.014223,-0.840297,-0.601053
1144509752.437,0.018146,-0.871612,-0.589348
1144509752.447,0.006376,-0.871612,-0.569840
1144509752.457,-0.025012,-0.875526,-0.585447
1144509752.467,-0.025012,-0.883354,-0.577643
1144509752.477,-0.021089,-0.883354,-0.573742
1144509752.487,-0.017165,-0.863783,-0.554233
1144509752.497,0.002452,-0.863783,-0.558135
1144509752.507,0.022070,-0.848126,-0.519118
1144509752.517,0.037764,-0.859869,-0.503512
1144509752.527,0.041687,-0.879440,-0.499610
1144509752.537,0.041687,-0.875526,-0.499610
1144509752.547,0.045611,-0.852040,-0.515217
1144509752.557,0.029917,-0.832469,-0.484003
1144509752.567,0.014223,-0.808983,-0.484003
1144509752.577,0.014223,-0.824640,-0.460593
1144509752.587,0.014223,-0.820726,-0.464495
1144509752.597,0.033840,-0.824640,-0.487905
1144509752.607,0.049534,-0.828555,-0.476200
1144509752.617,0.092693,-0.855954,-0.526922
1144509752.627,0.108386,-0.883354,-0.487905
1144509752.637,0.143698,-0.918583,-0.456691
1144509752.647,0.147621,-0.918583,-0.448888
1144509752.657,0.135851,-0.914669,-0.413773
1144509752.667,0.128004,-0.914669,-0.374756
1144509752.677,0.108386,-0.910754,-0.374756
1144509752.688,0.120157,-0.914669,-0.343543
1144509752.697,0.124080,-0.902926,-0.351346
1144509752.707,0.155468,-0.906840,-0.351346
1144509752.717,0.202550,-0.899012,-0.316231
1144509752.727,0.226091,-0.887269,-0.320133
1144509752.737,0.249632,-0.906840,-0.288919
1144509752.746,0.237862,-0.926411,-0.296723
1144509752.756,0.249632,-0.934240,-0.269411
1144509752.766,0.241785,-0.934240,-0.253804
1144509752.777,0.214321,-0.934240,-0.265509
1144509752.786,0.202550,-0.942069,-0.273313
1144509752.796,0.214321,-0.942069,-0.273313
1144509752.806,0.237862,-0.938154,-0.304526
1144509752.816,0.249632,-0.910754,-0.277214
1144509752.826,0.233938,-0.902926,-0.277214
1144509752.836,0.233938,-0.867697,-0.273313
1144509752.846,0.233938,-0.836383,-0.281116
1144509752.856,0.206474,-0.832469,-0.265509
1144509752.866,0.206474,-0.859869,-0.265509
1144509752.876,0.194703,-0.895097,-0.281116
1144509752.886,0.206474,-0.926411,-0.312329
1144509752.896,0.261403,-0.953811,-0.320133
1144509752.906,0.328102,-0.942069,-0.273313
1144509752.916,0.355566,-0.938154,-0.214787
1144509752.926,0.335949,-0.949897,-0.175771
1144509752.936,0.328102,-0.957726,-0.144557
1144509752.946,0.332026,-0.957726,-0.086032
1144509752.956,0.343796,-1.008611,-0.058720
1144509752.966,0.367337,-1.016440,-0.015802
1144509752.976,0.386954,-0.985126,-0.000195
1144509752.986,0.418342,-0.957726,0.011510
1144509752.996,0.481118,-0.965554,0.034920
1144509753.006,0.492889,-0.969468,0.054428
1144509753.016,0.512506,-0.985126,0.112954
1144509753.026,0.516430,-0.957726,0.148069
1144509753.036,0.524277,-0.965554,0.163675
1144509753.046,0.536047,-1.012526,0.218299
1144509753.056,0.536047,-1.051668,0.222201
1144509753.066,0.539971,-1.055583,0.265119
1144509753.076,0.520353,-1.047754,0.292431
1144509753.086,0.504659,-1.016440,0.331448
1144509753.096,0.504659,-0.957726,0.331448
1144509753.106,0.520353,-0.906840,0.343153
1144509753.116,0.563512,-0.883354,0.366563
1144509753.126,0.559588,-0.863783,0.335349
1144509753.136,0.543894,-0.848126,0.331448
1144509753.146,0.536047,-0.859869,0.343153
1144509753.157,0.528200,-0.875526,0.343153
1144509753.175,0.543894,-0.805069,0.386071
1144509753.185,0.536047,-0.765926,0.393874
1144509753.195,0.555665,-0.738526,0.409481
1144509753.205,0.594900,-0.730698,0.389973
1144509753.216,0.626287,-0.695469,0.417284
1144509753.226,0.669446,-0.679812,0.421186
1144509753.236,0.669446,-0.695469,0.428989
1144509753.246,0.681216,-0.703298,0.444596
1144509753.256,0.696910,-0.691555,0.448498
1144509753.266,0.696910,-0.683726,0.468006
1144509753.275,0.692987,-0.679812,0.475810
1144509753.285,0.700834,-0.687641,0.518728
1144509753.295,0.732222,-0.695469,0.522630
1144509753.305,0.775380,-0.699383,0.546040
1144509753.315,0.759686,-0.699383,0.534335
1144509753.325,0.724375,-0.734612,0.553843
1144509753.336,0.708681,-0.773755,0.526531
1144509753.345,0.673369,-0.789412,0.483613
1144509753.355,0.681216,-0.777669,0.475810
1144509753.365,0.692987,-0.773755,0.475810
1144509753.375,0.704757,-0.824640,0.452400
1144509753.385,0.696910,-0.942069,0.487515
1144509753.395,0.669446,-1.008611,0.549941
1144509753.405,0.614517,-1.055583,0.561647
1144509753.415,0.543894,-1.126040,0.491416
1144509753.425,0.496812,-1.133868,0.311939
1144509753.438,0.465424,-1.039925,0.194889
1144509753.445,0.512506,-0.910754,0.128560
1144509753.455,0.528200,-0.891183,0.046625
1144509753.465,0.485042,-0.942069,-0.027507
1144509753.475,0.453654,-0.973383,-0.066524
1144509753.485,0.449730,-0.949897,-0.086032
1144509753.495,0.414419,-0.902926,-0.109442
1144509753.505,0.355566,-0.863783,-0.086032
1144509753.515,0.288867,-0.840297,-0.089934
1144509753.525,0.210397,-0.824640,-0.082130
1144509753.535,0.159392,-0.867697,-0.109442
1144509753.545,0.179009,-0.910754,-0.121147
1144509753.555,0.159392,-0.945983,-0.132852
1144509753.565,0.131927,-0.973383,-0.152361
1144509753.575,0.100539,-0.992954,-0.179672
1144509753.585,0.080922,-1.024268,-0.152361
1144509753.595,0.076999,-1.059497,-0.171869
1144509753.605,0.061305,-1.055583,-0.171869
1144509753.615,0.057381,-1.055583,-0.152361
1144509753.627,0.076999,-1.051668,-0.179672
1144509753.635,0.080922,-1.047754,-0.179672
1144509753.645,0.069152,-1.043840,-0.195279
1144509753.655,0.057381,-1.047754,-0.191377
1144509753.665,0.045611,-1.024268,-0.210886
1144509753.675,0.037764,-1.016440,-0.203082
1144509753.685,0.022070,-1.024268,-0.265509
1144509753.695,0.010299,-1.000783,-0.285018
1144509753.705,0.033840,-0.973383,-0.249902
1144509753.715,0.014223,-0.949897,-0.246001
1144509753.725,-0.036783,-0.910754,-0.218689
1144509753.735,-0.068171,-0.910754,-0.222591
1144509753.745,-0.099559,-0.902926,-0.234296
1144509753.755,-0.119176,-0.887269,-0.273313
1144509753.765,-0.130947,-0.863783,-0.292821
1144509753.775,-0.134870,-0.855954,-0.316231
1144509753.785,-0.154487,-0.863783,-0.320133
1144509753.795,-0.158411,-0.867697,-0.347444
1144509753.805,-0.138794,-0.855954,-0.366953
1144509753.815,-0.107406,-0.832469,-0.378658
1144509753.825,-0.107406,-0.836383,-0.398166
1144509753.835,-0.111329,-0.848126,-0.421576
1144509753.845,-0.107406,-0.836383,-0.437183
1144509753.855,-0.119176,-0.820726,-0.448888
1144509753.865,-0.134870,-0.828555,-0.480101
1144509753.874,-0.181952,-0.844212,-0.472298
1144509753.885,-0.217263,-0.844212,-0.495708
1144509753.895,-0.236881,-0.848126,-0.507413
1144509753.905,-0.221187,-0.828555,-0.538627
1144509753.914,-0.209416,-0.855954,-0.542528
1144509753.924,-0.170181,-0.844212,-0.577643
1144509753.934,-0.170181,-0.875526,-0.538627
1144509753.944,-0.185875,-0.891183,-0.542528
1144509753.954,-0.178028,-0.891183,-0.519118
1144509753.964,-0.185875,-0.883354,-0.511315
1144509753.974,-0.205493,-0.883354,-0.487905
1144509753.984,-0.229034,-0.887269,-0.480101
1144509753.994,-0.240804,-0.883354,-0.484003
1144509754.004,-0.240804,-0.891183,-0.491807
1144509754.014,-0.225110,-0.902926,-0.507413
1144509754.024,-0.217263,-0.930326,-0.511315
1144509754.034,-0.213340,-0.942069,-0.507413
1144509754.044,-0.185875,-0.949897,-0.491807
1144509754.054,-0.209416,-0.945983,-0.480101
1144509754.064,-0.225110,-0.934240,-0.456691
1144509754.074,-0.236881,-0.926411,-0.441085
1144509754.084,-0.248651,-0.902926,-0.441085
1144509754.095,-0.272192,-0.887269,-0.429380
1144509754.104,-0.276116,-0.859869,-0.433281
1144509754.114,-0.287886,-0.844212,-0.441085
1144509754.124,-0.264345,-0.840297,-0.460593
1144509754.134,-0.232957,-0.848126,-0.491807
1144509754.144,-0.205493,-0.836383,-0.499610
1144509754.154,-0.193722,-0.820726,-0.484003
1144509754.164,-0.189799,-0.793326,-0.491807
1144509754.174,-0.201569,-0.793326,-0.484003
1144509754.184,-0.201569,-0.797240,-0.484003
1144509754.194,-0.213340,-0.805069,-0.503512
1144509754.204,-0.205493,-0.808983,-0.515217
1144509754.214,-0.213340,-0.797240,-0.511315
1144509754.224,-0.209416,-0.793326,-0.511315
1144509754.234,-0.213340,-0.789412,-0.515217
1144509754.244,-0.205493,-0.773755,-0.507413
1144509754.254,-0.221187,-0.781583,-0.511315
1144509754.264,-0.229034,-0.765926,-0.507413
1144509754.274,-0.244728,-0.769840,-0.515217
1144509754.284,-0.256498,-0.750269,-0.523020
1144509754.294,-0.268269,-0.734612,-0.530823
1144509754.304,-0.272192,-0.715040,-0.558135
1144509754.314,-0.252575,-0.707212,-0.597152
1144509754.324,-0.229034,-0.703298,-0.593250
1144509754.333,-0.240804,-0.691555,-0.597152
1144509754.344,-0.232957,-0.683726,-0.601053
1144509754.354,-0.229034,-0.656326,-0.597152
1144509754.364,-0.240804,-0.640669,-0.608857
1144509754.374,-0.252575,-0.660241,-0.585447
1144509754.383,-0.268269,-0.656326,-0.581545
1144509754.394,-0.264345,-0.648498,-0.573742
1144509754.404,-0.272192,-0.625012,-0.604955
1144509754.414,-0.248651,-0.625012,-0.612759
1144509754.423,-0.244728,-0.632841,-0.624464
1144509754.434,-0.256498,-0.613269,-0.612759
1144509754.443,-0.260422,-0.640669,-0.604955
1144509754.453,-0.272192,-0.617184,-0.628365
1144509754.463,-0.280039,-0.621098,-0.643972
1144509754.473,-0.303580,-0.632841,-0.679087
1144509754.483,-0.323198,-0.632841,-0.686890
1144509754.493,-0.338892,-0.617184,-0.725907
1144509754.502,-0.354586,-0.621098,-0.772727
1144509754.513,-0.378127,-0.636755,-0.811744
1144509754.523,-0.346739,-0.636755,-0.827351
1144509754.533,-0.421285,-0.617184,-0.842958
1144509754.543,-0.393821,-0.609355,-0.839056
1144509754.553,-0.389897,-0.617184,-0.807842
1144509754.564,-0.413438,-0.609355,-0.764924
1144509754.573,-0.464443,-0.523241,-0.628365
1144509754.583,-0.323198,-0.194442,-0.905384
1144509754.593,-0.087788,-0.863783,-0.842958
1144509754.603,-0.417361,-0.765926,-0.846859
1144509754.613,-0.484061,-0.566298,-0.761022
1144509754.623,-0.429132,-0.683726,-0.819547
1144509754.633,-0.382050,-0.750269,-0.831253
1144509754.643,-0.393821,-0.562384,-0.788334
1144509754.653,-0.362433,-0.480184,-0.784432
1144509754.663,-0.354586,-0.523241,-0.827351
1144509754.673,-0.354586,-0.531069,-0.831253
1144509754.683,-0.366356,-0.507584,-0.811744
1144509754.693,-0.405591,-0.519327,-0.788334
1144509754.703,-0.425208,-0.546727,-0.784432
1144509754.713,-0.444826,-0.570212,-0.788334
1144509754.723,-0.440902,-0.566298,-0.796137
1144509754.733,-0.440902,-0.585869,-0.768826
1144509754.743,-0.444826,-0.601527,-0.772727
1144509754.752,-0.440902,-0.589784,-0.745416
1144509754.763,-0.429132,-0.589784,-0.729809
1144509754.773,-0.405591,-0.570212,-0.745416
1144509754.783,-0.393821,-0.570212,-0.737612
1144509754.793,-0.382050,-0.566298,-0.749317
1144509754.803,-0.374203,-0.562384,-0.741514
1144509754.813,-0.346739,-0.550641,-0.757121
1144509754.823,-0.354586,-0.542812,-0.764924
1144509754.833,-0.338892,-0.542812,-0.772727
1144509754.842,-0.319274,-0.558469,-0.784432
1144509754.853,-0.323198,-0.570212,-0.788334
1144509754.863,-0.319274,-0.589784,-0.780531
1144509754.872,-0.319274,-0.597612,-0.764924
1144509754.883,-0.323198,-0.597612,-0.784432
1144509754.892,-0.311427,-0.585869,-0.764924
1144509754.903,-0.319274,-0.601527,-0.761022
1144509754.913,-0.299657,-0.605441,-0.772727
1144509754.922,-0.311427,-0.621098,-0.764924
1144509754.932,-0.311427,-0.617184,-0.745416
1144509754.942,-0.334968,-0.625012,-0.753219
1144509754.952,-0.327121,-0.644583,-0.757121
1144509754.962,-0.319274,-0.671983,-0.776629
1144509754.972,-0.319274,-0.683726,-0.772727
1144509754.982,-0.291810,-0.671983,-0.784432
1144509754.992,-0.272192,-0.675898,-0.780531
1144509755.002,-0.272192,-0.679812,-0.780531
1144509755.012,-0.252575,-0.691555,-0.749317
1144509755.022,-0.252575,-0.711126,-0.745416
1144509755.033,-0.256498,-0.703298,-0.737612
1144509755.042,-0.248651,-0.703298,-0.714202
1144509755.052,-0.252575,-0.711126,-0.706399
1144509755.062,-0.225110,-0.718955,-0.694694
1144509755.072,-0.225110,-0.718955,-0.694694
1144509755.082,-0.205493,-0.718955,-0.671284
1144509755.092,-0.189799,-0.715040,-0.667382
1144509755.102,-0.185875,-0.703298,-0.655677
1144509755.112,-0.181952,-0.691555,-0.632267
1144509755.122,-0.181952,-0.691555,-0.597152
1144509755.132,-0.201569,-0.711126,-0.585447
1144509755.142,-0.213340,-0.703298,-0.569840
1144509755.152,-0.205493,-0.707212,-0.585447
1144509755.162,-0.189799,-0.699383,-0.573742
1144509755.172,-0.162334,-0.715040,-0.581545
1144509755.182,-0.150564,-0.703298,-0.562037
1144509755.192,-0.154487,-0.695469,-0.577643
1144509755.202,-0.154487,-0.715040,-0.573742
1144509755.212,-0.150564,-0.773755,-0.589348
1144509755.222,-0.134870,-0.754183,-0.554233
1144509755.232,-0.083865,-0.640669,-0.499610
1144509755.242,-0.087788,-0.597612,-0.472298
1144509755.251,-0.083865,-0.668069,-0.515217
1144509755.262,-0.064247,-0.695469,-0.526922
1144509755.272,-0.079941,-0.668069,-0.519118
1144509755.281,-0.099559,-0.660241,-0.546430
1144509755.292,-0.103482,-0.695469,-0.565938
1144509755.302,-0.056400,-0.699383,-0.565938
1144509755.313,-0.056400,-0.769840,-0.569840
1144509755.322,-0.025012,-0.812897,-0.542528
1144509755.332,0.006376,-0.777669,-0.523020
1144509755.341,-0.021089,-0.781583,-0.452790
1144509755.351,-0.013242,-0.773755,-0.402068
1144509755.361,0.010299,-0.812897,-0.378658
1144509755.372,0.018146,-0.836383,-0.370854
1144509755.382,0.018146,-0.867697,-0.386461
1144509755.391,0.029917,-0.852040,-0.374756
1144509755.401,0.049534,-0.844212,-0.394265
1144509755.411,0.069152,-0.859869,-0.363051
1144509755.421,0.080922,-0.899012,-0.363051
1144509755.432,0.080922,-0.938154,-0.351346
1144509755.441,0.076999,-0.949897,-0.339641
1144509755.451,0.088769,-0.914669,-0.327936
1144509755.461,0.073075,-0.859869,-0.351346
1144509755.471,0.069152,-0.883354,-0.366953
1144509755.481,0.076999,-0.899012,-0.409871
1144509755.491,0.096616,-0.918583,-0.441085
1144509755.501,0.104463,-0.945983,-0.476200
1144509755.511,0.088769,-0.957726,-0.484003
1144509755.521,0.100539,-0.949897,-0.507413
1144509755.531,0.092693,-0.930326,-0.499610
1144509755.541,0.116233,-0.910754,-0.487905
1144509755.551,0.131927,-0.899012,-0.472298
1144509755.561,0.151545,-0.906840,-0.452790
1144509755.571,0.175086,-0.914669,-0.452790
1144509755.581,0.210397,-0.930326,-0.413773
1144509755.591,0.226091,-0.938154,-0.398166
1144509755.601,0.241785,-0.977297,-0.366953
1144509755.611,0.249632,-0.981211,-0.351346
1144509755.621,0.261403,-0.973383,-0.351346
1144509755.631,0.269250,-0.973383,-0.324034
1144509755.641,0.245709,-0.938154,-0.281116
1144509755.651,0.230015,-0.899012,-0.269411
1144509755.661,0.198627,-0.899012,-0.242099
1144509755.671,0.194703,-0.918583,-0.222591
1144509755.680,0.226091,-0.914669,-0.238197
1144509755.691,0.261403,-0.926411,-0.246001
1144509755.701,0.284944,-0.926411,-0.226492
1144509755.711,0.308485,-0.922497,-0.214787
1144509755.721,0.328102,-0.918583,-0.191377
1144509755.731,0.324179,-0.914669,-0.140655
1144509755.741,0.328102,-0.891183,-0.101639
1144509755.751,0.316332,-0.867697,-0.082130
1144509755.761,0.288867,-0.887269,-0.074327
1144509755.771,0.281020,-0.883354,-0.062622
1144509755.782,0.288867,-0.899012,-0.066524
1144509755.791,0.288867,-0.942069,-0.062622
1144509755.801,0.288867,-0.957726,-0.097737
1144509755.811,0.316332,-0.965554,-0.105540
1144509755.821,0.328102,-0.938154,-0.109442
1144509755.831,0.359490,-0.914669,-0.132852
1144509755.841,0.402648,-0.891183,-0.097737
1144509755.851,0.445807,-0.879440,-0.074327
1144509755.860,0.453654,-0.883354,-0.035310
1144509755.870,0.481118,-0.879440,-0.000195
1144509755.880,0.504659,-0.914669,0.077838
1144509755.891,0.485042,-0.953811,0.128560
1144509755.900,0.461501,-0.996868,0.214397
1144509755.910,0.449730,-1.043840,0.280726
1144509755.920,0.469348,-1.047754,0.347054
1144509755.930,0.488965,-1.032097,0.358759
1144509755.940,0.516430,-1.020354,0.428989
1144509755.950,0.567435,-0.973383,0.495318
1144509755.960,0.618440,-0.961640,0.549941
1144509755.970,0.653752,-0.953811,0.573352
1144509755.980,0.673369,-0.945983,0.585057
1144509755.990,0.673369,-0.934240,0.549941
1144509756.000,0.689063,-0.906840,0.534335
1144509756.010,0.685140,-0.887269,0.507023
1144509756.020,0.689063,-0.840297,0.483613
1144509756.030,0.689063,-0.808983,0.452400
1144509756.040,0.692987,-0.765926,0.468006
1144509756.050,0.704757,-0.730698,0.468006
1144509756.060,0.708681,-0.691555,0.483613
1144509756.070,0.696910,-0.644583,0.444596
1144509756.080,0.696910,-0.613269,0.417284
1144509756.090,0.700834,-0.589784,0.389973
1144509756.100,0.689063,-0.578041,0.354858
1144509756.110,0.696910,-0.578041,0.358759
1144509756.120,0.728298,-0.589784,0.358759
1144509756.130,0.751839,-0.581955,0.382169
1144509756.140,0.779304,-0.589784,0.393874
1144509756.150,0.783227,-0.589784,0.409481
1144509756.160,0.775380,-0.625012,0.409481
1144509756.170,0.771457,-0.656326,0.428989
1144509756.180,0.755763,-0.687641,0.386071
1144509756.190,0.775380,-0.722869,0.397776
1144509756.200,0.791074,-0.762012,0.393874
1144509756.210,0.794998,-0.777669,0.374366
1144509756.220,0.810692,-0.765926,0.397776
1144509756.230,0.775380,-0.797240,0.374366
1144509756.239,0.716528,-0.844212,0.335349
1144509756.251,0.669446,-0.895097,0.311939
1144509756.260,0.626287,-0.902926,0.253414
1144509756.270,0.602746,-0.918583,0.190987
1144509756.280,0.583129,-0.942069,0.148069
1144509756.290,0.575282,-0.938154,0.140265
1144509756.300,0.598823,-0.942069,0.093445
1144509756.310,0.551741,-0.957726,0.062232
1144509756.320,0.481118,-0.957726,0.019313
1144509756.330,0.457577,-0.985126,-0.000195
1144509756.340,0.422266,-1.016440,-0.054819
1144509756.350,0.379107,-1.039925,-0.086032
1144509756.360,0.351643,-1.039925,-0.109442
1144509756.370,0.335949,-1.016440,-0.101639
1144509756.380,0.300638,-0.992954,-0.105540
1144509756.390,0.241785,-0.977297,-0.097737
1144509756.400,0.202550,-0.989040,-0.125049
1144509756.410,0.151545,-1.004697,-0.128950
1144509756.420,0.088769,-1.008611,-0.128950
1144509756.430,0.069152,-1.036011,-0.121147
1144509756.440,0.061305,-1.055583,-0.097737
1144509756.449,0.073075,-1.055583,-0.101639
1144509756.459,0.108386,-1.039925,-0.113344
1144509756.469,0.135851,-1.055583,-0.156262
1144509756.479,0.167239,-1.055583,-0.179672
1144509756.489,0.186856,-1.032097,-0.195279
1144509756.499,0.202550,-1.004697,-0.230394
1144509756.509,0.198627,-0.969468,-0.222591
1144509756.519,0.182933,-0.949897,-0.261607
1144509756.529,0.167239,-0.953811,-0.249902
1144509756.539,0.139774,-0.945983,-0.238197
1144509756.549,0.135851,-0.942069,-0.222591
1144509756.559,0.120157,-0.934240,-0.218689
1144509756.569,0.092693,-0.906840,-0.265509
1144509756.579,0.096616,-0.883354,-0.304526
1144509756.589,0.065228,-0.871612,-0.335739
1144509756.599,0.041687,-0.867697,-0.363051
1144509756.609,0.022070,-0.859869,-0.355248
1144509756.619,-0.013242,-0.848126,-0.366953
1144509756.629,-0.028936,-0.840297,-0.398166
1144509756.639,-0.025012,-0.824640,-0.417675
1144509756.649,-0.013242,-0.824640,-0.437183
1144509756.659,-0.017165,-0.812897,-0.441085
1144509756.669,-0.017165,-0.793326,-0.448888
1144509756.679,-0.013242,-0.801155,-0.452790
1144509756.689,-0.025012,-0.824640,-0.464495
1144509756.699,-0.056400,-0.844212,-0.452790
1144509756.709,-0.091712,-0.855954,-0.460593
1144509756.720,-0.123100,-0.848126,-0.460593
1144509756.729,-0.146641,-0.844212,-0.484003
1144509756.739,-0.138794,-0.836383,-0.507413
1144509756.749,-0.123100,-0.828555,-0.526922
1144509756.759,-0.107406,-0.832469,-0.542528
1144509756.769,-0.099559,-0.832469,-0.554233
1144509756.779,-0.111329,-0.820726,-0.550332
1144509756.789,-0.115253,-0.852040,-0.550332
1144509756.799,-0.111329,-0.855954,-0.554233
1144509756.809,-0.127023,-0.844212,-0.550332
1144509756.819,-0.127023,-0.840297,-0.554233
1144509756.829,-0.142717,-0.812897,-0.565938
1144509756.839,-0.138794,-0.793326,-0.585447
1144509756.849,-0.142717,-0.769840,-0.601053
1144509756.859,-0.130947,-0.742441,-0.601053
1144509756.869,-0.127023,-0.726783,-0.643972
1144509756.879,-0.134870,-0.738526,-0.651775
1144509756.889,-0.138794,-0.726783,-0.667382
1144509756.899,-0.150564,-0.715040,-0.675185
1144509756.909,-0.178028,-0.718955,-0.694694
1144509756.918,-0.174105,-0.726783,-0.710300
1144509756.928,-0.178028,-0.734612,-0.729809
1144509756.938,-0.189799,-0.746355,-0.729809
1144509756.948,-0.205493,-0.742441,-0.737612
1144509756.958,-0.189799,-0.726783,-0.722005
1144509756.968,-0.197646,-0.734612,-0.694694
1144509756.978,-0.209416,-0.738526,-0.698595
1144509756.988,-0.221187,-0.726783,-0.702497
1144509756.998,-0.229034,-0.722869,-0.694694
1144509757.008,-0.221187,-0.711126,-0.679087
1144509757.018,-0.217263,-0.707212,-0.690792
1144509757.028,-0.209416,-0.703298,-0.679087
1144509757.038,-0.213340,-0.679812,-0.663480
1144509757.048,-0.209416,-0.660241,-0.667382
1144509757.058,-0.197646,-0.648498,-0.679087
1144509757.068,-0.189799,-0.636755,-0.671284
1144509757.078,-0.193722,-0.636755,-0.675185
1144509757.088,-0.181952,-0.609355,-0.667382
1144509757.098,-0.178028,-0.613269,-0.659579
1144509757.108,-0.193722,-0.617184,-0.651775
1144509757.118,-0.205493,-0.609355,-0.647874
1144509757.128,-0.217263,-0.613269,-0.647874
1144509757.138,-0.221187,-0.597612,-0.671284
1144509757.148,-0.221187,-0.593698,-0.671284
1144509757.158,-0.229034,-0.593698,-0.671284
1144509757.168,-0.225110,-0.578041,-0.690792
1144509757.178,-0.232957,-0.581955,-0.718104
1144509757.189,-0.240804,-0.597612,-0.706399
1144509757.198,-0.244728,-0.589784,-0.694694
1144509757.208,-0.260422,-0.589784,-0.698595
1144509757.218,-0.276116,-0.578041,-0.722005
1144509757.228,-0.283963,-0.578041,-0.714202
1144509757.238,-0.280039,-0.578041,-0.733711
1144509757.248,-0.276116,-0.589784,-0.733711
1144509757.258,-0.291810,-0.597612,-0.714202
1144509757.267,-0.283963,-0.593698,-0.698595
1144509757.278,-0.291810,-0.574126,-0.718104
1144509757.287,-0.295733,-0.554555,-0.741514
1144509757.297,-0.287886,-0.558469,-0.729809
1144509757.307,-0.287886,-0.542812,-0.741514
1144509757.317,-0.272192,-0.538898,-0.757121
1144509757.327,-0.280039,-0.538898,-0.764924
1144509757.337,-0.303580,-0.542812,-0.749317
1144509757.347,-0.319274,-0.534984,-0.784432
1144509757.357,-0.331045,-0.534984,-0.776629
1144509757.367,-0.342815,-0.523241,-0.815646
1144509757.377,-0.327121,-0.511498,-0.835154
1144509757.387,-0.303580,-0.464527,-0.897581
1144509757.397,-0.209416,-0.515412,-0.967811
1144509757.407,-0.236881,-0.597612,-1.030238
1144509757.417,-0.327121,-0.554555,-1.018533
1144509757.428,-0.334968,-0.546727,-0.995123
1144509757.437,-0.397744,-0.597612,-0.944401
1144509757.447,-0.413438,-0.527155,-0.901483
1144509757.457,-0.382050,-0.468441,-0.811744
1144509757.467,-0.374203,-0.429298,-0.741514
1144509757.477,-0.385974,-0.441041,-0.725907
1144509757.487,-0.413438,-0.452784,-0.706399
1144509757.497,-0.413438,-0.488012,-0.725907
1144509757.507,-0.401668,-0.511498,-0.741514
1144509757.517,-0.409515,-0.527155,-0.749317
1144509757.527,-0.413438,-0.534984,-0.753219
1144509757.537,-0.397744,-0.534984,-0.772727
1144509757.547,-0.382050,-0.531069,-0.780531
1144509757.557,-0.374203,-0.542812,-0.776629
1144509757.567,-0.366356,-0.534984,-0.776629
1144509757.577,-0.362433,-0.527155,-0.803941
1144509757.587,-0.350662,-0.519327,-0.819547
1144509757.597,-0.346739,-0.503670,-0.823449
1144509757.607,-0.338892,-0.503670,-0.831253
1144509757.617,-0.342815,-0.499755,-0.854663
1144509757.627,-0.346739,-0.491927,-0.846859
1144509757.637,-0.338892,-0.488012,-0.839056
1144509757.647,-0.350662,-0.491927,-0.839056
1144509757.658,-0.342815,-0.503670,-0.831253
1144509757.667,-0.350662,-0.507584,-0.819547
1144509757.676,-0.342815,-0.499755,-0.803941
1144509757.686,-0.319274,-0.503670,-0.815646
1144509757.696,-0.334968,-0.515412,-0.819547
1144509757.706,-0.327121,-0.515412,-0.827351
1144509757.716,-0.311427,-0.515412,-0.815646
1144509757.726,-0.303580,-0.527155,-0.831253
1144509757.736,-0.291810,-0.527155,-0.819547
1144509757.746,-0.276116,-0.519327,-0.827351
1144509757.756,-0.268269,-0.546727,-0.835154
1144509757.766,-0.276116,-0.558469,-0.842958
1144509757.777,-0.283963,-0.554555,-0.862466
1144509757.786,-0.287886,-0.562384,-0.842958
1144509757.796,-0.280039,-0.578041,-0.858564
1144509757.806,-0.283963,-0.581955,-0.858564
1144509757.816,-0.280039,-0.589784,-0.823449
1144509757.826,-0.287886,-0.601527,-0.819547
1144509757.836,-0.287886,-0.613269,-0.823449
1144509757.846,-0.276116,-0.605441,-0.819547
1144509757.856,-0.264345,-0.613269,-0.784432
1144509757.866,-0.256498,-0.625012,-0.784432
1144509757.886,-0.240804,-0.621098,-0.776629
1144509757.896,-0.240804,-0.628926,-0.749317
1144509757.906,-0.240804,-0.640669,-0.757121
1144509757.916,-0.221187,-0.636755,-0.737612
1144509757.926,-0.213340,-0.644583,-0.737612
1144509757.936,-0.209416,-0.628926,-0.749317
1144509757.946,-0.213340,-0.621098,-0.706399
1144509757.956,-0.197646,-0.628926,-0.706399
1144509757.966,-0.193722,-0.636755,-0.718104
1144509757.976,-0.197646,-0.660241,-0.714202
1144509757.985,-0.185875,-0.668069,-0.714202
1144509757.996,-0.154487,-0.656326,-0.710300
1144509758.006,-0.146641,-0.660241,-0.682989
1144509758.016,-0.154487,-0.668069,-0.682989
1144509758.026,-0.138794,-0.660241,-0.655677
1144509758.036,-0.134870,-0.660241,-0.655677
1144509758.046,-0.142717,-0.675898,-0.651775
1144509758.056,-0.146641,-0.691555,-0.640070
1144509758.066,-0.130947,-0.687641,-0.636169
1144509758.076,-0.134870,-0.687641,-0.616660
1144509758.086,-0.123100,-0.699383,-0.604955
1144509758.096,-0.119176,-0.707212,-0.601053
1144509758.106,-0.087788,-0.722869,-0.589348
1144509758.115,-0.095635,-0.738526,-0.593250
1144509758.127,-0.091712,-0.730698,-0.573742
1144509758.136,-0.083865,-0.726783,-0.550332
1144509758.145,-0.099559,-0.734612,-0.542528
1144509758.155,-0.087788,-0.730698,-0.530823
1144509758.165,-0.068171,-0.762012,-0.523020
1144509758.175,-0.060324,-0.781583,-0.507413
1144509758.185,-0.056400,-0.801155,-0.499610
1144509758.195,-0.040706,-0.812897,-0.468396
1144509758.205,-0.036783,-0.808983,-0.437183
1144509758.215,-0.036783,-0.801155,-0.394265
1144509758.225,-0.028936,-0.812897,-0.331838
1144509758.235,-0.005395,-0.855954,-0.320133
1144509758.245,0.033840,-0.930326,-0.296723
1144509758.255,0.029917,-0.942069,-0.296723
1144509758.265,0.065228,-0.945983,-0.273313
1144509758.275,0.092693,-0.961640,-0.257706
1144509758.285,0.088769,-0.906840,-0.226492
1144509758.296,0.041687,-0.840297,-0.218689
1144509758.305,0.037764,-0.785497,-0.222591
1144509758.315,0.057381,-0.746355,-0.273313
1144509758.325,0.088769,-0.726783,-0.285018
1144509758.335,0.108386,-0.742441,-0.312329
1144509758.346,0.147621,-0.789412,-0.374756
1144509758.355,0.182933,-0.848126,-0.456691
1144509758.365,0.182933,-0.914669,-0.523020
1144509758.375,0.214321,-0.942069,-0.585447
1144509758.385,0.198627,-0.942069,-0.538627
1144509758.395,0.159392,-0.922497,-0.523020
1144509758.405,0.135851,-0.918583,-0.476200
1144509758.415,0.116233,-0.910754,-0.480101
1144509758.425,0.100539,-0.899012,-0.448888
1144509758.435,0.076999,-0.895097,-0.464495
1144509758.445,0.088769,-0.918583,-0.472298
1144509758.455,0.124080,-0.953811,-0.464495
1144509758.465,0.151545,-0.992954,-0.472298
1144509758.474,0.155468,-1.047754,-0.456691
1144509758.485,0.179009,-1.075154,-0.456691
1144509758.495,0.179009,-1.051668,-0.433281
1144509758.505,0.147621,-0.961640,-0.390363
1144509758.515,0.128004,-0.891183,-0.359149
1144509758.525,0.147621,-0.883354,-0.327936
1144509758.535,0.182933,-0.879440,-0.324034
1144509758.545,0.202550,-0.895097,-0.339641
1144509758.555,0.237862,-0.902926,-0.351346
1144509758.565,0.265326,-0.899012,-0.339641
1144509758.575,0.241785,-0.879440,-0.324034
1144509758.585,0.233938,-0.879440,-0.339641
1144509758.595,0.222168,-0.852040,-0.316231
1144509758.605,0.214321,-0.855954,-0.324034
1144509758.615,0.214321,-0.879440,-0.324034
1144509758.625,0.265326,-0.895097,-0.273313
1144509758.635,0.328102,-0.891183,-0.249902
1144509758.645,0.339873,-0.906840,-0.218689
1144509758.655,0.335949,-0.891183,-0.175771
1144509758.665,0.332026,-0.902926,-0.160164
1144509758.675,0.328102,-0.926411,-0.121147
1144509758.685,0.324179,-0.942069,-0.117245
1144509758.694,0.335949,-0.965554,-0.128950
1144509758.704,0.371260,-0.985126,-0.132852
1144509758.714,0.402648,-0.989040,-0.121147
1144509758.724,0.449730,-0.981211,-0.109442
1144509758.734,0.469348,-0.981211,-0.058720
1144509758.744,0.496812,-0.989040,-0.054819
1144509758.754,0.504659,-0.992954,-0.050917
1144509758.764,0.532124,-1.008611,-0.054819
1144509758.774,0.539971,-1.020354,-0.043114
1144509758.784,0.555665,-1.036011,-0.023605
1144509758.794,0.563512,-1.020354,-0.004097
1144509758.804,0.567435,-1.004697,0.019313
1144509758.814,0.579206,-0.989040,0.027117
1144509758.824,0.606670,-0.989040,0.073937
1144509758.834,0.630211,-0.961640,0.081740
1144509758.844,0.645905,-0.922497,0.116855
1144509758.854,0.645905,-0.906840,0.124659
1144509758.864,0.634134,-0.883354,0.120757
1144509758.875,0.610593,-0.875526,0.144167
1144509758.884,0.602746,-0.848126,0.132462
1144509758.894,0.590976,-0.805069,0.151970
1144509758.904,0.606670,-0.789412,0.171479
1144509758.914,0.610593,-0.773755,0.190987
1144509758.924,0.610593,-0.781583,0.230004
1144509758.934,0.626287,-0.777669,0.253414
1144509758.944,0.649828,-0.785497,0.276824
1144509758.954,0.661599,-0.781583,0.284627
1144509758.964,0.661599,-0.773755,0.323644
1144509758.974,0.685140,-0.754183,0.323644
1144509758.984,0.689063,-0.742441,0.315841
1144509758.994,0.692987,-0.738526,0.300234
1144509759.004,0.696910,-0.734612,0.280726
1144509759.014,0.696910,-0.730698,0.265119
1144509759.024,0.724375,-0.734612,0.272922
1144509759.034,0.740069,-0.762012,0.296332
1144509759.044,0.736145,-0.781583,0.315841
1144509759.054,0.708681,-0.812897,0.366563
1144509759.064,0.649828,-0.848126,0.386071
1144509759.074,0.630211,-0.883354,0.358759
1144509759.083,0.657675,-0.899012,0.304136
1144509759.094,0.669446,-0.930326,0.222201
1144509759.103,0.669446,-0.902926,0.190987
1144509759.113,0.716528,-0.859869,0.155872
1144509759.123,0.696910,-0.832469,0.097347
1144509759.133,0.602746,-0.820726,0.046625
1144509759.143,0.536047,-0.777669,0.007608
1144509759.153,0.461501,-0.793326,-0.062622
1144509759.163,0.414419,-0.820726,-0.105540
1144509759.173,0.383031,-0.855954,-0.113344
1144509759.183,0.375184,-0.891183,-0.109442
1144509759.193,0.390878,-0.942069,-0.086032
1144509759.203,0.383031,-1.008611,-0.082130
1144509759.213,0.363413,-1.075154,-0.113344
1144509759.223,0.343796,-1.129954,-0.121147
1144509759.233,0.308485,-1.141697,-0.152361
1144509759.243,0.265326,-1.141697,-0.226492
1144509759.253,0.214321,-1.133868,-0.253804
1144509759.263,0.182933,-1.102554,-0.304526
1144509759.273,0.179009,-1.082983,-0.347444
1144509759.283,0.179009,-1.075154,-0.366953
1144509759.293,0.186856,-1.051668,-0.378658
1144509759.303,0.190780,-1.016440,-0.394265
1144509759.313,0.171162,-1.020354,-0.386461
1144509759.323,0.151545,-1.008611,-0.382560
1144509759.333,0.143698,-0.989040,-0.351346
1144509759.345,0.131927,-0.992954,-0.343543
1144509759.353,0.116233,-1.004697,-0.320133
1144509759.363,0.120157,-1.024268,-0.316231
1144509759.373,0.112310,-1.043840,-0.292821
1144509759.383,0.131927,-1.036011,-0.296723
1144509759.393,0.128004,-1.039925,-0.304526
1144509759.403,0.124080,-1.036011,-0.327936
1144509759.413,0.104463,-1.020354,-0.339641
1144509759.424,0.108386,-1.000783,-0.366953
1144509759.432,0.084846,-0.989040,-0.390363
1144509759.443,0.080922,-0.977297,-0.417675
1144509759.453,0.065228,-0.934240,-0.437183
1144509759.463,0.037764,-0.914669,-0.437183
1144509759.473,0.010299,-0.875526,-0.448888
1144509759.483,-0.025012,-0.836383,-0.460593
1144509759.493,-0.040706,-0.812897,-0.476200
1144509759.503,-0.064247,-0.808983,-0.476200
1144509759.513,-0.083865,-0.785497,-0.487905
1144509759.523,-0.115253,-0.773755,-0.487905
1144509759.533,-0.138794,-0.773755,-0.499610
1144509759.542,-0.158411,-0.789412,-0.542528
1144509759.552,-0.138794,-0.812897,-0.593250
1144509759.562,-0.138794,-0.848126,-0.636169
1144509759.572,-0.111329,-0.887269,-0.671284
1144509759.582,-0.119176,-0.906840,-0.682989
1144509759.592,-0.119176,-0.906840,-0.675185
1144509759.602,-0.127023,-0.875526,-0.632267
1144509759.612,-0.142717,-0.824640,-0.624464
1144509759.622,-0.142717,-0.785497,-0.589348
1144509759.632,-0.162334,-0.746355,-0.581545
1144509759.642,-0.154487,-0.699383,-0.562037
1144509759.652,-0.146641,-0.683726,-0.565938
1144509759.662,-0.142717,-0.675898,-0.526922
1144509759.672,-0.130947,-0.668069,-0.526922
1144509759.682,-0.162334,-0.660241,-0.534725
1144509759.692,-0.189799,-0.632841,-0.554233
1144509759.702,-0.181952,-0.625012,-0.612759
1144509759.712,-0.185875,-0.601527,-0.604955
1144509759.722,-0.178028,-0.570212,-0.640070
1144509759.732,-0.162334,-0.593698,-0.667382
1144509759.742,-0.134870,-0.636755,-0.706399
1144509759.752,-0.142717,-0.691555,-0.706399
1144509759.762,-0.127023,-0.718955,-0.675185
1144509759.772,-0.150564,-0.730698,-0.667382
1144509759.782,-0.178028,-0.762012,-0.679087
1144509759.792,-0.181952,-0.777669,-0.663480
1144509759.802,-0.178028,-0.762012,-0.655677
1144509759.813,-0.178028,-0.758098,-0.655677
1144509759.822,-0.162334,-0.738526,-0.636169
1144509759.832,-0.181952,-0.718955,-0.651775
1144509759.842,-0.185875,-0.703298,-0.655677
1144509759.852,-0.205493,-0.691555,-0.671284
1144509759.862,-0.193722,-0.695469,-0.682989
1144509759.872,-0.217263,-0.711126,-0.675185
1144509759.882,-0.229034,-0.671983,-0.632267
1144509759.892,-0.260422,-0.644583,-0.608857
1144509759.902,-0.291810,-0.621098,-0.597152
1144509759.912,-0.323198,-0.617184,-0.585447
1144509759.922,-0.315351,-0.609355,-0.601053
1144509759.932,-0.307504,-0.609355,-0.612759
1144509759.942,-0.311427,-0.605441,-0.597152
1144509759.952,-0.307504,-0.585869,-0.647874
1144509759.961,-0.307504,-0.589784,-0.667382
1144509759.972,-0.299657,-0.578041,-0.682989
1144509759.981,-0.311427,-0.562384,-0.706399
1144509759.992,-0.311427,-0.538898,-0.737612
1144509760.001,-0.334968,-0.550641,-0.761022
1144509760.012,-0.319274,-0.538898,-0.784432
1144509760.022,-0.295733,-0.499755,-0.780531
1144509760.031,-0.291810,-0.503670,-0.784432
1144509760.041,-0.283963,-0.495841,-0.768826
1144509760.051,-0.283963,-0.507584,-0.757121
1144509760.061,-0.299657,-0.519327,-0.745416
1144509760.071,-0.327121,-0.538898,-0.710300
1144509760.082,-0.334968,-0.542812,-0.714202
1144509760.091,-0.342815,-0.546727,-0.722005
1144509760.101,-0.358509,-0.550641,-0.714202
1144509760.111,-0.374203,-0.562384,-0.729809
1144509760.121,-0.366356,-0.554555,-0.780531
1144509760.131,-0.366356,-0.550641,-0.772727
1144509760.141,-0.366356,-0.527155,-0.784432
1144509760.151,-0.389897,-0.491927,-0.803941
1144509760.161,-0.385974,-0.421470,-0.788334
1144509760.171,-0.378127,-0.390156,-0.901483
1144509760.181,-0.397744,-0.550641,-1.038041
1144509760.191,-0.452673,-0.621098,-1.049746
1144509760.201,-0.487984,-0.534984,-0.975615
1144509760.211,-0.507602,-0.527155,-0.901483
1144509760.221,-0.476214,-0.507584,-0.827351
1144509760.231,-0.421285,-0.429298,-0.722005
1144509760.241,-0.413438,-0.378413,-0.651775
1144509760.251,-0.436979,-0.409727,-0.643972
1144509760.261,-0.417361,-0.468441,-0.663480
1144509760.271,-0.440902,-0.488012,-0.682989
1144509760.282,-0.487984,-0.491927,-0.682989
1144509760.291,-0.511525,-0.491927,-0.698595
1144509760.301,-0.507602,-0.491927,-0.725907
1144509760.311,-0.499755,-0.472355,-0.749317
1144509760.321,-0.491908,-0.476270,-0.764924
1144509760.331,-0.480137,-0.421470,-0.803941
1144509760.341,-0.464443,-0.401898,-0.835154
1144509760.352,-0.444826,-0.413641,-0.846859
1144509760.361,-0.401668,-0.405813,-0.846859
1144509760.370,-0.401668,-0.413641,-0.831253
