absolute_timestamp,accel_x,accel_y,accel_z
1775575328034305263,0.272782,4.426722,9.083155
1775575328036468440,0.239282,4.388437,9.083155
1775575328038629065,0.196211,4.369294,9.049655
1775575328040789794,0.191426,4.340580,8.977871
1775575328042950419,0.181855,4.287938,8.915657
1775575328045111096,0.143569,4.240082,8.848659
1775575328047271721,0.119641,4.201797,8.776874
1775575328049432398,0.076570,4.144369,8.700303
1775575328051593075,0.043071,4.110869,8.618947
1775575328053753752,0.009571,4.053442,8.566305
1775575328055914429,0.009571,4.029513,8.518449
1775575328058075106,0.000000,4.005585,8.489735
1775575328060235731,-0.028714,3.986443,8.484949
1775575328062396409,-0.028714,3.967300,8.504091
1775575328064557086,-0.043071,3.962514,8.508878
1775575328066717763,-0.057428,3.957729,8.504091
1775575328068878388,-0.052642,3.952943,8.528020
1775575328071039065,-0.057428,3.967300,8.547162
1775575328073199742,-0.057428,3.972085,8.547162
1775575328075360419,-0.052642,3.991228,8.551949
1775575328077521096,-0.028714,4.000800,8.542377
1775575328079681721,-0.038285,4.000800,8.575876
1775575328081842398,0.000000,4.010371,8.618947
1775575328084003075,0.038285,4.043870,8.662018
1775575328086163752,0.095713,4.096512,8.743374
1775575328088324429,0.148355,4.144369,8.786445
1775575328090485106,0.186640,4.187439,8.886943
1775575328092645731,0.234497,4.220939,8.953942
1775575328094806409,0.277567,4.259224,9.035298
1775575328096967086,0.301496,4.302295,9.083155
1775575328099127711,0.325424,4.311866,9.111869
1775575328101288388,0.368495,4.316652,9.116654
1775575328103449065,0.382852,4.350152,9.140582
1775575328105609742,0.392423,4.350152,9.140582
1775575328107770367,0.430708,4.354937,9.111869
1775575328109931096,0.425922,4.369294,9.087940
1775575328112091721,0.416351,4.374080,9.068798
1775575328114252398,0.430708,4.364509,9.049655
1775575328116413075,0.425922,4.340580,9.020942
1775575328118573700,0.445065,4.331009,8.982656
1775575328120734377,0.435494,4.316652,8.992228
1775575328122895054,0.411565,4.307081,8.997013
1775575328125055731,0.392423,4.297510,9.011370
1775575328127216409,0.382852,4.264010,9.020942
1775575328129377086,0.358923,4.230510,8.982656
1775575328131537711,0.334995,4.197011,8.977871
1775575328133698388,0.315853,4.168297,8.925228
1775575328135859065,0.301496,4.125226,8.891729
1775575328138019690,0.248854,4.077370,8.853444
1775575328140180419,0.239282,4.015156,8.839087
1775575328142341044,0.200997,3.986443,8.791230
1775575328144501721,0.196211,3.948157,8.781659
1775575328146662398,0.153141,3.924229,8.743374
1775575328148823075,0.138784,3.890730,8.714660
1775575328150983700,0.114855,3.862016,8.695518
1775575328153144377,0.100499,3.833302,8.671589
1775575328155305054,0.066999,3.823730,8.628518
1775575328157465679,0.038285,3.799802,8.609376
1775575328159626356,0.009571,3.775874,8.551949
1775575328161787034,-0.019143,3.775874,8.504091
1775575328163947711,-0.043071,3.766303,8.480164
1775575328166108388,-0.052642,3.785445,8.437093
1775575328168269065,-0.057428,3.756732,8.413164
1775575328170429742,-0.076570,3.766303,8.389236
1775575328172590367,-0.066999,3.747160,8.374879
1775575328174751044,-0.043071,3.751946,8.370093
1775575328176911721,-0.028714,3.732803,8.360522
1775575328179072346,-0.019143,3.737589,8.360522
1775575328181233023,0.009571,3.742375,8.336594
1775575328183393700,0.023928,3.751946,8.341380
1775575328185554377,0.057428,3.771089,8.341380
1775575328187715054,0.114855,3.818945,8.336594
1775575328189875731,0.162712,3.847659,8.312666
1775575328192036356,0.220140,3.876373,8.322237
1775575328194197034,0.267996,3.938586,8.365308
1775575328196357711,0.306281,3.976871,8.374879
1775575328198518388,0.368495,4.048656,8.403593
1775575328200679013,0.401994,4.101298,8.451449
1775575328202839690,0.440279,4.149155,8.494520
1775575328205000367,0.459422,4.206582,8.556734
1775575328207161044,0.478565,4.254439,8.604590
1775575328209321669,0.492921,4.278367,8.666803
1775575328211482346,0.535992,4.302295,8.748159
1775575328213643023,0.555135,4.326223,8.791230
1775575328215803700,0.583849,4.335794,8.839087
1775575328217964377,0.598206,4.345366,8.886943
1775575328220125002,0.631705,4.354937,8.949157
1775575328222285679,0.674776,4.369294,9.006584
1775575328224446356,0.689133,4.354937,9.059227
1775575328226607034,0.698704,4.359723,9.097511
1775575328228767659,0.717847,4.335794,9.145369
1775575328230928336,0.727418,4.331009,9.169296
1775575328233089013,0.736989,4.335794,9.169296
1775575328235249690,0.732204,4.321438,9.131011
1775575328237410367,0.751346,4.340580,9.140582
1775575328239570992,0.760918,4.374080,9.068798
1775575328241731669,0.751346,4.412365,8.987442
1775575328243892346,0.760918,4.450650,8.901300
1775575328246052971,0.760918,4.479364,8.843872
1775575328248213700,0.765703,4.527220,8.748159
1775575328250374325,0.775275,4.551149,8.681161
1775575328252535002,0.765703,4.579863,8.618947
1775575328254695679,0.741775,4.603791,8.580662
1775575328256856304,0.708275,4.622933,8.566305
1775575328259016981,0.665205,4.637290,8.551949
1775575328261177659,0.665205,4.637290,8.551949
1775575328263338336,0.650848,4.632504,8.551949
1775575328265499013,0.646062,4.642076,8.571091
1775575328267659690,0.665205,4.618148,8.580662
1775575328269820315,0.674776,4.584648,8.590233
1775575328271980992,0.698704,4.541577,8.585447
1775575328274141669,0.722632,4.512864,8.561520
1775575328276302346,0.722632,4.474578,8.537591
1775575328278462971,0.722632,4.407579,8.480164
1775575328280623648,0.732204,4.350152,8.427522
1775575328282784325,0.708275,4.297510,8.403593
1775575328284944950,0.703490,4.220939,8.346166
1775575328287105627,0.698704,4.149155,8.322237
1775575328289266304,0.665205,4.072584,8.260024
1775575328291426981,0.665205,4.019942,8.236095
1775575328293587659,0.665205,3.957729,8.236095
1775575328295748336,0.655633,3.943372,8.260024
1775575328297908961,0.650848,3.938586,8.274381
1775575328300069638,0.660419,3.924229,8.298309
1775575328302230263,0.679562,3.948157,8.312666
1775575328304390992,0.708275,3.991228,8.322237
1775575328306551617,0.765703,4.067799,8.331808
1775575328308712294,0.808774,4.130012,8.360522
1775575328310872971,0.880559,4.220939,8.384451
1775575328313033648,0.942772,4.359723,8.403593
1775575328315194325,1.024128,4.522435,8.461020
1775575328317355002,1.115055,4.713861,8.508878
1775575328319515627,1.225125,4.890930,8.504091
1775575328321676304,1.316052,5.034499,8.551949
1775575328323836981,1.373480,5.125426,8.575876
1775575328325997606,1.435694,5.245067,8.614161
1775575328328158284,1.493121,5.292923,8.657232
1775575328330318961,1.526621,5.350351,8.685946
1775575328332479638,1.521835,5.379066,8.676374
1775575328334640315,1.517050,5.407779,8.776874
1775575328336800940,1.526621,5.398208,8.867801
1775575328338961617,1.512264,5.355137,8.939586
1775575328341122294,1.488336,5.264210,9.020942
1775575328343282971,1.517050,5.096712,9.116654
1775575328345443596,1.540978,4.972285,9.221938
1775575328347604273,1.497907,4.953143,9.265009
1775575328349764950,1.430908,4.972285,9.303294
1775575328351925627,1.292124,5.044070,9.351151
1775575328354086252,1.148555,5.144569,9.427721
1775575328356246981,1.000200,5.206782,9.451650
1775575328358407606,0.866202,5.216353,9.446864
1775575328360568284,0.770489,5.187640,9.360723
1775575328362728961,0.679562,5.111069,9.279366
1775575328364889586,0.607777,4.986642,9.159725
1775575328367050263,0.526421,4.843073,9.006584
1775575328369210940,0.382852,4.771288,8.599805
1775575328371371617,0.153141,4.733003,8.135597
1775575328373532294,-0.133998,4.642076,7.795816
1775575328375692919,-0.368495,4.469793,7.814959
1775575328377853596,-0.579063,4.268795,8.092526
1775575328380014273,-0.741775,4.000800,8.216953
1775575328382174950,-0.866202,3.742375,8.226524
1775575328384335627,-0.942772,3.455236,8.183454
1775575328386496252,-0.971486,3.172883,8.121240
1775575328388656929,-1.004985,2.928815,8.006385
1775575328390817606,-0.990629,2.675176,7.901100
1775575328392978231,-0.971486,2.440679,7.757531
1775575328395138909,-0.918844,2.191826,7.594819
1775575328397299586,-0.832702,1.947758,7.417750
1775575328399460263,-0.746561,1.718047,7.216753
1775575328401620940,-0.636491,1.521835,7.010970
1775575328403781617,-0.488136,1.354338,6.762117
1775575328405942242,-0.334995,1.229911,6.541977
1775575328408102919,-0.162712,1.124627,6.273981
1775575328410263596,0.019143,1.076770,6.029913
1775575328412424221,0.177069,1.048056,5.790631
1775575328414584898,0.339781,1.086342,5.570491
1775575328416745575,0.488136,1.124627,5.383851
1775575328418906252,0.646062,1.215554,5.163711
1775575328421066929,0.794417,1.339981,5.010571
1775575328423227554,0.914058,1.488336,4.867001
1775575328425388231,1.038485,1.660619,4.776074
1775575328427548909,1.162912,1.856830,4.747360
1775575328429709586,1.258625,2.105684,4.747360
1775575328431870211,1.368695,2.325824,4.766503
1775575328434030940,1.459622,2.584249,4.867001
1775575328436191565,1.588834,2.842673,4.972285
1775575328438352242,1.698904,3.077170,5.111069
1775575328440512867,1.808974,3.263810,5.254639
1775575328442673544,1.957329,3.431308,5.379066
1775575328444834221,2.081756,3.598805,5.484350
1775575328446994898,2.316252,3.704089,5.594419
1775575328449155523,2.560320,3.761517,5.685347
1775575328451316252,2.823531,3.761517,5.766703
1775575328453476877,3.125026,3.713661,5.824131
1775575328455637554,3.421736,3.622734,5.848059
1775575328457798231,3.742375,3.503092,5.848059
1775575328459958909,4.039084,3.373880,5.867201
1775575328462119534,4.316652,3.254239,5.871987
1775575328464280211,4.575077,3.110669,5.876772
1775575328466440888,4.823930,3.005385,5.891129
1775575328468601565,5.067998,2.904887,5.915058
1775575328470762190,5.283352,2.818745,5.938986
1775575328472922919,5.493921,2.727818,6.010770
1775575328475083544,5.675776,2.646462,6.077769
1775575328477244221,5.800202,2.584249,6.192625
1775575328479404898,5.915058,2.545963,6.302695
1775575328481565523,6.001199,2.526821,6.446264
1775575328483726200,6.077769,2.502892,6.613762
1775575328485886877,6.125626,2.493321,6.781260
1775575328488047554,6.116055,2.459822,7.025327
1775575328490208231,6.120841,2.407180,7.221539
1775575328492368856,6.101698,2.354537,7.465607
1775575328494529534,6.072984,2.311467,7.676175
1775575328496690211,5.948557,2.249253,8.092526
1775575328498850836,5.761917,2.210968,8.997013
1775575328501011565,5.513063,2.167897,10.389636
1775575328503172190,5.302495,2.172683,12.098111
1775575328505332867,5.106284,2.129612,13.639089
1775575328507493544,5.005785,2.033899,13.945371
1775575328509654169,4.981857,1.818545,13.170095
1775575328511814846,4.996214,1.540978,12.031113
1775575328513975523,5.005785,1.210768,11.021341
1775575328516136200,5.015356,0.899701,10.375279
1775575328518296877,4.972285,0.631705,10.126426
1775575328520457502,4.900501,0.435494,10.107283
1775575328522618179,4.847859,0.311067,10.308280
1775575328524778856,4.747360,0.315853,10.604990
1775575328526939534,4.661219,0.368495,10.887343
1775575328529100159,4.546363,0.459422,11.097912
1775575328531260888,4.426722,0.531207,11.155339
1775575328533421513,4.302295,0.579063,11.073983
1775575328535582190,4.187439,0.607777,10.920842
1775575328537742867,4.086941,0.617348,10.743773
1775575328539903492,4.010371,0.626920,10.537991
1775575328542064169,3.991228,0.622134,10.313066
1775575328544224846,3.952943,0.612563,10.092926
1775575328546385523,3.957729,0.607777,9.868001
1775575328548546148,3.952943,0.612563,9.657433
1775575328550706877,3.943372,0.622134,9.427721
1775575328552867502,3.919444,0.631705,9.169296
1775575328555028179,3.900301,0.646062,8.915657
1775575328557188856,3.885944,0.674776,8.666803
1775575328559349481,3.905087,0.703490,8.427522
1775575328561510159,3.952943,0.775275,8.221739
1775575328563670836,4.067799,0.851845,8.063812
1775575328565831513,4.192225,0.937986,7.886744
1775575328567992138,4.316652,1.033699,7.709674
1775575328570152815,4.436293,1.134198,7.518249
1775575328572313492,4.551149,1.253839,7.326823
1775575328574474169,4.656433,1.368695,7.116254
1775575328576634846,4.694718,1.488336,6.958328
1775575328578795523,4.733003,1.588834,6.805188
1775575328580956148,4.742575,1.713261,6.666404
1775575328583116825,4.713861,1.813760,6.561120
1775575328585277502,4.613362,1.919044,6.455835
1775575328587438179,4.479364,1.976472,6.125626
1775575328589598804,4.273581,2.000400,5.752346
1775575328591759481,4.029513,2.057827,5.460421
1775575328593920159,3.814159,2.129612,5.355137
1775575328596080836,3.742375,2.177469,5.422136
1775575328598241513,3.804588,2.187040,5.618348
1775575328600402138,3.972085,2.129612,5.814559
1775575328602562815,4.149155,2.014757,5.891129
1775575328604723492,4.345366,1.880759,5.915058
1775575328606884169,4.522435,1.722832,5.915058
1775575328609044794,4.603791,1.569692,5.943771
1775575328611205471,4.637290,1.473979,6.077769
1775575328613366148,4.618148,1.411765,6.317052
1775575328615526825,4.532006,1.435694,6.642476
1775575328617687502,4.421936,1.507478,7.087541
1775575328619848127,4.311866,1.560120,7.566105
1775575328622008804,4.206582,1.646262,8.049456
1775575328624169481,4.125226,1.713261,8.532805
1775575328626330159,4.091727,1.741975,8.910872
1775575328628490784,4.120440,1.761117,9.207582
1775575328630651461,4.201797,1.746760,9.437292
1775575328632812138,4.316652,1.708475,9.590433
1775575328634972815,4.445865,1.660619,9.705289
1775575328637133440,4.575077,1.584049,9.801002
1775575328639294117,4.718646,1.536192,9.848858
1775575328641454794,4.843073,1.478764,9.877572
1775575328643615471,4.938786,1.397408,9.868001
1775575328645776096,5.024928,1.344766,9.853643
1775575328647936773,5.063213,1.325624,9.810573
1775575328650097450,5.101498,1.301695,9.767502
1775575328652258127,5.144569,1.335195,9.671789
1775575328654418804,5.149354,1.363909,9.556933
1775575328656579429,5.168497,1.402194,9.418150
1775575328658740106,5.182854,1.488336,9.269794
1775575328660900784,5.173283,1.512264,9.135797
1775575328663061461,5.182854,1.560120,8.977871
1775575328665222138,5.168497,1.603191,8.829515
1775575328667382763,5.154140,1.617548,8.681161
1775575328669543440,5.134997,1.622334,8.523234
1775575328671704117,5.134997,1.593620,8.379665
1775575328673864742,5.120640,1.560120,8.207381
1775575328676025419,5.125426,1.512264,8.035098
1775575328678186096,5.120640,1.473979,7.858029
1775575328680346773,5.125426,1.411765,7.680961
1775575328682507450,5.139783,1.354338,7.513463
1775575328684668075,5.120640,1.316052,7.336394
1775575328686828752,5.111069,1.325624,7.159325
1775575328688989429,5.091927,1.363909,6.977471
1775575328691150106,5.067998,1.445265,6.862615
1775575328693310784,5.053641,1.536192,6.738189
1775575328695471409,5.039285,1.660619,6.647261
1775575328697632086,5.044070,1.775474,6.580262
1775575328699792763,5.039285,1.885544,6.508478
1775575328701953440,5.029713,2.019542,6.460621
1775575328704114065,5.029713,2.129612,6.407979
1775575328706274742,5.048856,2.215754,6.369694
1775575328708435419,5.044070,2.311467,6.331409
1775575328710596096,5.077569,2.383251,6.331409
1775575328712756773,5.077569,2.445465,6.293124
1775575328714917450,5.096712,2.522035,6.288338
1775575328717078075,5.111069,2.589034,6.269196
1775575328719238752,5.144569,2.656033,6.250053
1775575328721399429,5.187640,2.732604,6.221339
1775575328723560054,5.249853,2.809174,6.221339
1775575328725720731,5.331209,2.880959,6.216553
1775575328727881409,5.422136,2.919244,6.202196
1775575328730042086,5.517849,3.000600,6.211768
1775575328732202711,5.613562,3.081956,6.187840
1775575328734363388,5.728417,3.144169,6.183053
1775575328736524065,5.828916,3.177669,6.216553
1775575328738684742,5.919843,3.206382,6.235696
1775575328740845419,6.015556,3.211168,6.264410
1775575328743006044,6.101698,3.206382,6.312266
1775575328745166773,6.187840,3.187240,6.317052
1775575328747327398,6.264410,3.148955,6.369694
1775575328749488075,6.350551,3.105884,6.384051
1775575328751648752,6.422336,3.043670,6.417551
1775575328753809377,6.503692,2.971886,6.446264
1775575328755970054,6.604190,2.924029,6.470192
1775575328758130731,6.695118,2.876173,6.498906
1775575328760291356,6.781260,2.842673,6.513263
1775575328762452034,6.857830,2.813959,6.565906
1775575328764612711,6.934400,2.818745,6.608976
1775575328766773388,7.006185,2.813959,6.652047
1775575328768934065,7.044470,2.823531,6.728617
1775575328771094742,7.106683,2.842673,6.776474
1775575328773255367,7.135397,2.847459,6.824330
1775575328775416044,7.188039,2.890530,6.824330
1775575328777576721,7.202396,2.928815,6.934400
1775575328779737398,7.226325,2.962314,7.020542
1775575328781898075,7.240681,3.014956,7.111469
1775575328784058700,7.269395,3.067599,7.207182
1775575328786219377,7.278966,3.072384,7.403393
1775575328788380054,7.307680,3.053242,7.690532
1775575328790540679,7.341180,3.038885,7.867601
1775575328792701356,7.369894,3.019742,8.044670
1775575328794862034,7.412964,3.005385,8.145168
1775575328797022711,7.470392,3.000600,8.202596
1775575328799183388,7.513463,2.981457,8.212168
1775575328801344013,7.551748,2.967100,8.149954
1775575328803504690,7.609176,2.962314,8.049456
1775575328805665367,7.666604,2.938386,8.030313
1775575328807826044,7.690532,2.943172,7.958528
1775575328809986721,7.709674,2.938386,7.920243
1775575328812147346,7.728817,2.967100,7.896315
1775575328814308023,7.752745,2.991028,7.881958
1775575328816468700,7.752745,3.029314,7.905886
1775575328818629377,7.776674,3.072384,7.944171
1775575328820790002,7.791030,3.110669,7.958528
1775575328822950679,7.810173,3.172883,8.001599
1775575328825111356,7.824530,3.182454,7.992028
1775575328827272034,7.834101,3.201597,8.001599
1775575328829432711,7.867601,3.192025,8.059027
1775575328831593336,7.886744,3.182454,8.044670
1775575328833754013,7.925029,3.172883,8.097312
1775575328835914638,8.001599,3.182454,8.130812
1775575328838075367,8.092526,3.192025,8.154739
1775575328840235992,8.202596,3.196811,8.193025
1775575328842396669,8.283952,3.182454,8.274381
1775575328844557346,8.346166,3.144169,8.360522
1775575328846717971,8.408379,3.101098,8.513663
1775575328848878648,8.417950,3.043670,8.671589
1775575328851039325,8.408379,2.976671,8.829515
1775575328853200002,8.365308,2.885744,8.992228
1775575328855360679,8.307880,2.828316,9.135797
1775575328857521304,8.236095,2.761317,9.269794
1775575328859681981,8.207381,2.694318,9.375079
1775575328861842659,8.159525,2.656033,9.480363
1775575328864003336,8.145168,2.636891,9.533006
1775575328866164013,8.130812,2.632105,9.580862
1775575328868324638,8.130812,2.622534,9.662218
1775575328870485315,8.149954,2.627319,9.705289
1775575328872645992,8.178668,2.593820,9.734002
1775575328874806669,8.193025,2.574677,9.734002
1775575328876967346,8.240881,2.589034,9.719646
1775575328879127971,8.274381,2.598605,9.676575
1775575328881288648,8.303095,2.608177,9.556933
1775575328883449273,8.336594,2.646462,9.513863
1775575328885610002,8.355737,2.670390,9.437292
1775575328887770627,8.365308,2.718246,9.389436
1775575328889931304,8.374879,2.727818,9.327223
1775575328892091929,8.374879,2.742175,9.236296
1775575328894252659,8.384451,2.775674,9.087940
1775575328896413284,8.355737,2.770889,8.920443
1775575328898573961,8.327023,2.756532,8.791230
1775575328900734638,8.312666,2.737389,8.642876
1775575328902895315,8.293523,2.737389,8.484949
1775575328905055940,8.288737,2.737389,8.331808
1775575328907216617,8.288737,2.751746,8.173882
1775575328909377294,8.279166,2.775674,8.006385
1775575328911537971,8.283952,2.775674,7.877172
1775575328913698596,8.260024,2.790031,7.728817
1775575328915859273,8.260024,2.809174,7.566105
1775575328918019950,8.240881,2.790031,7.441679
1775575328920180627,8.197810,2.775674,7.336394
1775575328922341304,8.173882,2.794817,7.183254
1775575328924501929,8.126026,2.813959,7.049255
1775575328926662606,8.092526,2.852245,6.896115
1775575328928823284,8.030313,2.880959,6.757331
1775575328930983961,7.977671,2.895315,6.613762
1775575328933144638,7.881958,2.909672,6.455835
1775575328935305263,7.800602,2.971886,6.283552
1775575328937465940,7.738389,2.976671,6.159125
1775575328939626617,7.642675,2.981457,6.005985
1775575328941787242,7.561319,3.010171,5.862415
1775575328943947919,7.460821,3.048456,5.675776
1775575328946108596,7.393822,3.067599,5.527421
1775575328948269273,7.288538,3.058027,5.407779
1775575328950429950,7.168897,3.034099,5.273781
1775575328952590627,7.044470,2.995814,5.130212
1775575328954751252,6.924829,2.900101,4.957929
1775575328956911929,6.786045,2.761317,4.766503
1775575328959072606,6.656833,2.622534,4.642076
1775575328961233284,6.513263,2.483750,4.532006
1775575328963393909,6.388836,2.321038,4.393222
1775575328965554586,6.235696,2.134398,4.273581
1775575328967715263,6.111269,1.981257,4.197011
1775575328969875940,5.953343,1.832902,4.125226
1775575328972036617,5.795416,1.694118,4.005585
1775575328974197242,5.656633,1.536192,3.929015
1775575328976357919,5.517849,1.411765,3.814159
1775575328978518544,5.412565,1.287339,3.728018
1775575328980679273,5.316852,1.167697,3.689733
1775575328982839898,5.245067,1.086342,3.656233
1775575328985000575,5.216353,1.014557,3.656233
1775575328987161252,5.187640,0.966700,3.656233
1775575328989321929,5.168497,0.923630,3.713661
1775575328991482554,5.173283,0.885344,3.766303
1775575328993643231,5.173283,0.866202,3.847659
1775575328995803909,5.173283,0.837488,3.919444
1775575328997964586,5.197211,0.808774,4.019942
1775575329000125211,5.201996,0.784846,4.120440
1775575329002285940,5.240282,0.784846,4.225725
1775575329004446565,5.288138,0.765703,4.359723
1775575329006607242,5.335995,0.775275,4.484149
1775575329008767867,5.407779,0.808774,4.584648
1775575329010928544,5.484350,0.823131,4.718646
1775575329013089221,5.556134,0.866202,4.857430
1775575329015249898,5.651847,0.914058,4.991428
1775575329017410575,5.766703,0.981057,5.111069
1775575329019571252,5.862415,1.048056,5.268995
1775575329021731877,5.982057,1.124627,5.388637
1775575329023892554,6.058627,1.205983,5.503492
1775575329026053231,6.125626,1.296910,5.618348
1775575329028213909,6.216553,1.383052,5.685347
1775575329030374534,6.278767,1.483550,5.771488
1775575329032535211,6.364908,1.569692,5.824131
1775575329034695888,6.431907,1.646262,5.852844
1775575329036856565,6.513263,1.713261,5.876772
1775575329039017190,6.608976,1.765903,5.905486
1775575329041177867,6.690332,1.813760,5.876772
1775575329043338544,6.805188,1.895115,5.891129
1775575329045499221,6.915257,2.014757,5.862415
1775575329047659846,7.063612,2.139184,5.814559
1775575329049820523,7.226325,2.330609,5.757131
1775575329051981200,7.379465,2.536392,5.675776
1775575329054141877,7.532606,2.751746,5.599205
1775575329056302554,7.652247,2.971886,5.546563
1775575329058463179,7.762317,3.129812,5.479564
1775575329060623856,7.838887,3.254239,5.446064
1775575329062784534,7.853244,3.345166,5.398208
1775575329064945211,7.853244,3.388237,5.364708
1775575329067105888,7.858029,3.393023,5.331209
1775575329069266513,7.848458,3.388237,5.331209
1775575329071427190,7.824530,3.364309,5.355137
1775575329073587867,7.791030,3.326024,5.402994
1775575329075748544,7.776674,3.259024,5.455636
1775575329077909169,7.757531,3.177669,5.527421
1775575329080069846,7.738389,3.067599,5.627919
1775575329082230523,7.695318,2.952743,5.723632
1775575329084391200,7.666604,2.833102,5.828916
1775575329086551825,7.633104,2.732604,5.943771
1775575329088712502,7.604390,2.617748,6.063413
1775575329090873179,7.566105,2.536392,6.178268
1775575329093033856,7.546963,2.459822,6.288338
1775575329095194481,7.499106,2.426322,6.388836
1775575329097355159,7.475178,2.392823,6.479764
1775575329099515836,7.465607,2.359323,6.565906
1775575329101676513,7.456035,2.349752,6.666404
1775575329103837190,7.489535,2.325824,6.723832
1775575329105997815,7.537391,2.316252,6.790831
1775575329108158492,7.604390,2.316252,6.843473
1775575329110319169,7.680961,2.325824,6.905686
1775575329112479846,7.762317,2.349752,6.963114
1775575329114640523,7.853244,2.397608,7.015756
1775575329116801148,7.934600,2.478964,7.063612
1775575329118961825,8.015956,2.550749,7.116254
1775575329121122502,8.082955,2.617748,7.154540
1775575329123283127,8.164310,2.670390,7.183254
1775575329125443804,8.236095,2.746960,7.207182
1775575329127604481,8.312666,2.790031,7.245467
1775575329129765159,8.370093,2.828316,7.235896
1775575329131925784,8.427522,2.833102,7.278966
1775575329134086513,8.504091,2.866601,7.341180
1775575329136247138,8.547162,2.876173,7.350751
1775575329138407815,8.623733,2.857030,7.384251
1775575329140568492,8.676374,2.823531,7.403393
1775575329142729169,8.729017,2.804388,7.398608
1775575329144889846,8.786445,2.794817,7.389036
1775575329147050471,8.848659,2.766103,7.389036
1775575329149211148,8.872586,2.751746,7.374680
1775575329151371825,8.896515,2.751746,7.360322
1775575329153532502,8.915657,2.761317,7.302895
1775575329155693127,8.944371,2.790031,7.302895
1775575329157853804,8.915657,2.813959,7.255038
1775575329160014481,8.891729,2.837888,7.188039
1775575329162175159,8.843872,2.823531,7.125826
1775575329164335784,8.762517,2.809174,7.068398
1775575329166496461,8.662018,2.770889,7.015756
1775575329168657138,8.542377,2.737389,6.900900
1775575329170817815,8.408379,2.699104,6.809973
1775575329172978440,8.279166,2.708675,6.719046
1775575329175139117,8.126026,2.727818,6.618547
1775575329177299794,7.987242,2.770889,6.518049
1775575329179460471,7.853244,2.794817,6.441479
1775575329181621148,7.724031,2.794817,6.369694
1775575329183781773,7.609176,2.766103,6.254838
1775575329185942450,7.508677,2.727818,6.154340
1775575329188103127,7.384251,2.699104,6.082555
1775575329190263752,7.302895,2.675176,5.982057
1775575329192424429,7.211967,2.612962,5.895915
1775575329194585106,7.121040,2.574677,5.848059
1775575329196745784,7.058827,2.517249,5.809773
1775575329198906461,6.991828,2.464607,5.747560
1775575329201067138,6.929615,2.407180,5.733203
1775575329203227815,6.881758,2.359323,5.666204
1775575329205388440,6.819544,2.321038,5.608776
1775575329207549117,6.790831,2.316252,5.556134
1775575329209709794,6.766902,2.292324,5.489135
1775575329211870471,6.728617,2.282753,5.417350
1775575329214031096,6.704689,2.263610,5.340780
1775575329216191773,6.680761,2.239682,5.283352
1775575329218352450,6.680761,2.206182,5.225924
1775575329220513075,6.675975,2.177469,5.154140
1775575329222673752,6.680761,2.134398,5.072784
1775575329224834429,6.661618,2.091327,4.986642
1775575329226995106,6.699903,2.062613,4.905286
1775575329229155731,6.747760,2.029114,4.833502
1775575329231316409,6.819544,2.019542,4.733003
1775575329233477086,6.896115,2.053042,4.666004
1775575329235637763,6.987042,2.129612,4.575077
1775575329237798440,7.101898,2.220539,4.465007
1775575329239959117,7.197610,2.340181,4.359723
1775575329242119742,7.293324,2.498107,4.326223
1775575329244280419,7.360322,2.665604,4.287938
1775575329246441096,7.465607,2.790031,4.144369
1775575329248601773,7.546963,2.890530,4.063013
1775575329250762398,7.599605,3.005385,4.058227
1775575329252923075,7.642675,3.144169,4.077370
1775575329255083752,7.690532,3.187240,3.842873
1775575329257244377,7.733603,3.206382,3.728018
1775575329259405054,7.709674,3.239882,3.804588
1775575329261565731,7.724031,3.268596,3.704089
1775575329263726409,7.714460,3.259024,3.613162
1775575329265887086,7.666604,3.244668,3.670590
1775575329268047711,7.633104,3.206382,3.598805
1775575329270208388,7.585248,3.134598,3.550949
1775575329272369065,7.537391,3.053242,3.565306
1775575329274529742,7.446464,2.947958,3.536592
1775575329276690419,7.360322,2.852245,3.517449
1775575329278851044,7.278966,2.766103,3.522235
1775575329281011721,7.197610,2.699104,3.483950
1775575329283172398,7.149754,2.622534,3.493521
1775575329285333075,7.101898,2.569891,3.455236
1775575329287493700,7.077970,2.550749,3.426522
1775575329289654429,7.092326,2.512464,3.412165
1775575329291815054,7.140183,2.498107,3.412165
1775575329293975731,7.240681,2.455036,3.421736
1775575329296136409,7.341180,2.450250,3.469593
1775575329298297034,7.479964,2.507678,3.483950
1775575329300457711,7.609176,2.541178,3.565306
1775575329302618388,7.724031,2.627319,3.656233
1775575329304779065,7.848458,2.708675,3.737589
1775575329306939690,7.968100,2.775674,3.838088
1775575329309100367,8.054241,2.809174,3.914658
1775575329311261044,8.111669,2.876173,4.039084
1775575329313421721,8.154739,2.924029,4.187439
1775575329315582346,8.216953,2.909672,4.149155
1775575329317743023,8.255239,2.895315,4.216154
1775575329319903700,8.269595,2.904887,4.316652
1775575329322064377,8.288737,2.933601,4.398008
1775575329324225002,8.336594,2.952743,4.488935
1775575329326385679,8.370093,2.967100,4.551149
1775575329328546356,8.413164,2.957529,4.627719
1775575329330707034,8.456235,2.928815,4.728218
1775575329332867711,8.484949,2.861816,4.795217
1775575329335028336,8.513663,2.766103,4.857430
1775575329337189013,8.508878,2.708675,4.914858
1775575329339349690,8.518449,2.641676,4.910072
1775575329341510367,8.523234,2.541178,4.881358
1775575329343670992,8.513663,2.498107,4.847859
1775575329345831669,8.508878,2.435894,4.795217
1775575329347992346,8.518449,2.397608,4.713861
1775575329350153023,8.523234,2.411965,4.651647
1775575329352313700,8.513663,2.383251,4.618148
1775575329354474325,8.508878,2.402394,4.512864
1775575329356635002,8.494520,2.407180,4.374080
1775575329358795679,8.494520,2.426322,4.240082
1775575329360956356,8.590233,2.478964,4.125226
1775575329363117034,8.757730,2.565106,4.039084
1775575329365277659,8.848659,2.622534,3.814159
1775575329367438336,8.944371,2.656033,3.684947
1775575329369599013,9.025727,2.699104,3.598805
1775575329371759638,9.087940,2.713461,3.460021
1775575329373920367,9.140582,2.727818,3.359523
1775575329376080992,9.193225,2.761317,3.278167
1775575329378241669,9.221938,2.761317,3.282953
1775575329380402346,9.260223,2.766103,3.268596
1775575329382562971,9.303294,2.756532,3.292524
1775575329384723700,9.298509,2.703890,3.297310
1775575329386884325,9.303294,2.632105,3.359523
1775575329389045002,9.288938,2.593820,3.393023
1775575329391205679,9.279366,2.550749,3.450450
1775575329393366356,9.269794,2.536392,3.483950
1775575329395526981,9.260223,2.545963,3.503092
1775575329397687659,9.265009,2.531606,3.469593
1775575329399848336,9.245867,2.541178,3.483950
1775575329402009013,9.241081,2.584249,3.460021
1775575329404169638,9.284152,2.679961,3.402594
1775575329406330315,9.403793,2.775674,3.306881
1775575329408490992,9.509077,2.890530,3.230311
1775575329410651617,9.600004,2.986243,3.139383
1775575329412812294,9.647861,3.086741,3.014956
1775575329414972971,9.676575,3.172883,2.962314
1775575329417133648,9.700503,3.263810,2.857030
1775575329419294325,9.729217,3.345166,2.675176
1775575329421455002,9.753145,3.393023,2.493321
1775575329423615627,9.753145,3.426522,2.273181
1775575329425776304,9.743574,3.488735,2.053042
1775575329427936981,9.753145,3.555734,1.847259
1775575329430097659,9.738789,3.646662,1.665405
1775575329432258284,9.734002,3.675375,1.493121
1775575329434418961,9.791430,3.704089,1.268196
1775575329436579638,9.824930,3.751946,1.105484
1775575329438740315,9.858429,3.742375,0.985843
1775575329440900940,9.882358,3.732803,0.870987
1775575329443061617,9.863214,3.699304,0.794417
1775575329445222294,9.824930,3.680161,0.741775
1775575329447382971,9.805787,3.694518,0.713061
1775575329449543648,9.762716,3.670590,0.674776
1775575329451704273,9.743574,3.704089,0.593420
1775575329453864950,9.743574,3.747160,0.579063
1775575329456025627,9.743574,3.814159,0.569492
1775575329458186252,9.734002,3.881158,0.512064
1775575329460346929,9.767502,3.957729,0.488136
1775575329462507606,9.772287,4.000800,0.401994
1775575329464668284,9.767502,4.101298,0.358923
1775575329466828961,9.781859,4.158726,0.320638
1775575329468989638,9.743574,4.206582,0.239282
1775575329471150263,9.734002,4.244867,0.157926
1775575329473310940,9.743574,4.297510,0.129212
1775575329475471617,9.729217,4.407579,0.090927
1775575329477632242,9.777073,4.527220,0.071785
1775575329479792971,9.805787,4.627719,0.086142
1775575329481953596,9.829716,4.661219,0.133998
1775575329484114273,9.839287,4.699504,0.124427
1775575329486274950,9.820144,4.752146,0.224925
1775575329488435575,9.772287,4.790431,0.301496
1775575329490596252,9.743574,4.771288,0.354138
1775575329492756929,9.690931,4.737789,0.392423
1775575329494917606,9.643075,4.709075,0.459422
1775575329497078284,9.580862,4.618148,0.507278
1775575329499238909,9.513863,4.551149,0.550349
1775575329501399586,9.427721,4.445865,0.574277
1775575329503560263,9.355937,4.354937,0.626920
1775575329505720940,9.308080,4.321438,0.626920
1775575329507881565,9.245867,4.259224,0.622134
1775575329510042242,9.193225,4.240082,0.583849
1775575329512202919,9.169296,4.259224,0.574277
1775575329514363596,9.145369,4.206582,0.569492
1775575329516524273,9.111869,4.134798,0.521635
1775575329518684898,9.087940,4.134798,0.492921
1775575329520845575,9.035298,4.158726,0.445065
1775575329523006252,9.006584,4.206582,0.397209
1775575329525166929,8.944371,4.201797,0.363709
1775575329527327606,8.906086,4.216154,0.224925
1775575329529488231,8.891729,4.225725,0.172283
1775575329531648909,8.848659,4.216154,0.081356
1775575329533809586,8.810373,4.168297,-0.023928
1775575329535970211,8.786445,4.096512,-0.119641
1775575329538130940,8.800801,4.000800,-0.186640
1775575329540291565,8.843872,3.938586,-0.253639
1775575329542452242,8.891729,3.895515,-0.363709
1775575329544612867,8.934800,3.905087,-0.430708
1775575329546773544,8.982656,3.967300,-0.488136
1775575329548934221,9.040084,3.962514,-0.488136
1775575329551094898,9.102298,4.048656,-0.488136
1775575329553255575,9.174082,4.134798,-0.468993
1775575329555416200,9.202796,4.211368,-0.411565
1775575329557576877,9.198010,4.254439,-0.378066
1775575329559737606,9.212367,4.331009,-0.306281
1775575329561898231,9.226724,4.350152,-0.167498
1775575329564058909,9.250652,4.364509,-0.023928
1775575329566219586,9.255438,4.436293,0.057428
1775575329568380211,9.178867,4.465007,0.105284
1775575329570540888,9.178867,4.508078,0.200997
1775575329572701565,9.145369,4.565506,0.210568
1775575329574862242,9.083155,4.579863,0.124427
1775575329577022867,9.030513,4.565506,0.023928
1775575329579183544,8.934800,4.584648,-0.090927
1775575329581344221,8.858230,4.575077,-0.244068
1775575329583504898,8.738588,4.551149,-0.430708
1775575329585665575,8.628518,4.503292,-0.531207
1775575329587826200,8.518449,4.450650,-0.698704
1775575329589986877,8.422736,4.374080,-0.847059
1775575329592147554,8.317451,4.268795,-1.024128
1775575329594308231,8.255239,4.177868,-1.177269
1775575329596468856,8.169097,4.110869,-1.363909
1775575329598629534,8.097312,3.981657,-1.507478
1775575329600790211,8.015956,3.838088,-1.607977
1775575329602950888,7.972885,3.680161,-1.674976
1775575329605111565,7.925029,3.507878,-1.674976
1775575329607272190,7.853244,3.335595,-1.641476
1775575329609432867,7.853244,3.168097,-1.607977
1775575329611593544,7.886744,3.048456,-1.560120
1775575329613754221,7.925029,2.967100,-1.473979
1775575329615914846,8.015956,2.895315,-1.445265
1775575329618075523,8.164310,2.880959,-1.430908
1775575329620236200,8.303095,2.914458,-1.473979
1775575329622396877,8.480164,2.938386,-1.540978
1775575329624557502,8.657232,2.952743,-1.584049
1775575329626718179,8.839087,3.005385,-1.655833
1775575329628878856,9.035298,3.029314,-1.780260
1775575329631039534,9.212367,3.105884,-1.871187
1775575329633200211,9.365508,3.239882,-2.005185
1775575329635360888,9.456435,3.397808,-2.234896
1775575329637521513,9.504292,3.570091,-2.474179
1775575329639682138,9.456435,3.742375,-2.727818
1775575329641842867,9.422935,3.885944,-2.871387
1775575329644003544,9.365508,4.024728,-2.885744
1775575329646164169,9.336794,4.082155,-2.694318
1775575329648324846,9.346365,4.096512,-2.474179
1775575329650485523,9.375079,4.024728,-2.191826
1775575329652646148,9.413364,3.986443,-1.966900
1775575329654806825,9.413364,3.866802,-1.756332
1775575329656967502,9.432507,3.842873,-1.536192
1775575329659128179,9.456435,3.952943,-1.454836
1775575329661288856,9.451650,4.000800,-1.387837
1775575329663449481,9.509077,3.981657,-1.402194
1775575329665610159,9.533006,3.957729,-1.416551
1775575329667770836,9.556933,3.943372,-1.454836
1775575329669931513,9.513863,3.924229,-1.416551
1775575329672092190,9.456435,3.933800,-1.478764
1775575329674252815,9.451650,3.876373,-1.665405
1775575329676413492,9.442079,3.771089,-1.904687
1775575329678574169,9.456435,3.689733,-2.220539
1775575329680734846,9.470792,3.603591,-2.450250
1775575329682895471,9.537791,3.517449,-2.766103
1775575329685056148,9.604790,3.479164,-3.129812
1775575329687216825,9.667004,3.455236,-3.512664
1775575329689377502,9.681360,3.397808,-3.919444
1775575329691538179,9.714860,3.421736,-4.388437
1775575329693698804,9.705289,3.373880,-4.728218
1775575329695859481,9.647861,3.402594,-4.914858
1775575329698020159,9.499506,3.397808,-4.417150
1775575329700180836,9.427721,3.335595,-4.268795
1775575329702341461,9.437292,3.230311,-4.254439
1775575329704502138,9.461221,3.144169,-4.455436
1775575329706662815,9.442079,3.038885,-4.594220
1775575329708823492,9.399008,2.976671,-4.632504
1775575329710984169,9.355937,2.947958,-4.618148
1775575329713144794,9.303294,2.933601,-4.508078
1775575329715305471,9.236296,2.967100,-4.445865
1775575329717466148,9.212367,3.005385,-4.417150
1775575329719626825,9.145369,2.991028,-4.340580
1775575329721787502,9.083155,3.019742,-4.206582
1775575329723948127,9.011370,3.024528,-4.053442
1775575329726108804,8.973084,3.067599,-3.976871
1775575329728269481,8.949157,3.081956,-3.938586
1775575329730430159,8.958728,3.144169,-3.924229
1775575329732590784,8.930014,3.168097,-3.933800
1775575329734751461,8.896515,3.177669,-3.895515
1775575329736912138,8.796016,3.105884,-3.967300
1775575329739072815,8.681161,3.101098,-3.933800
1775575329741233492,8.556734,3.139383,-3.914658
1775575329743394117,8.365308,3.177669,-3.895515
1775575329745554794,8.183454,3.168097,-3.795017
1775575329747715471,8.006385,3.148955,-3.732803
1775575329749876148,7.829316,3.139383,-3.665804
1775575329752036773,7.666604,3.101098,-3.555734
1775575329754197450,7.475178,3.110669,-3.507878
1775575329756358127,7.365108,3.058027,-3.450450
1775575329758518804,7.250253,3.010171,-3.455236
1775575329760679429,7.154540,3.014956,-3.608377
1775575329762840106,7.116254,3.105884,-3.842873
1775575329765000784,7.111469,3.096313,-3.972085
1775575329767161461,7.092326,3.043670,-3.981657
1775575329769322138,7.125826,2.876173,-3.833302
1775575329771482815,7.121040,2.699104,-3.799802
1775575329773643440,7.039684,2.541178,-3.876373
1775575329775804117,7.010970,2.368894,-4.019942
1775575329777964794,6.972685,2.239682,-4.110869
1775575329780125419,6.848258,2.086541,-4.182654
1775575329782286096,6.728617,1.962115,-4.192225
1775575329784446773,6.599405,1.770689,-4.220939
1775575329786607450,6.455835,1.636691,-4.158726
1775575329788768075,6.321837,1.536192,-4.077370
1775575329790928752,6.111269,1.454836,-3.991228
1775575329793089429,5.948557,1.421337,-3.842873
1775575329795250106,5.843273,1.339981,-3.929015
1775575329797410784,5.757131,1.349552,-4.144369
1775575329799571409,5.704489,1.344766,-4.354937
1775575329801732086,5.752346,1.287339,-4.685147
1775575329803892763,5.766703,1.292124,-4.819145
1775575329806053440,5.790631,1.344766,-4.828716
1775575329808214065,5.852844,1.459622,-4.876573
1775575329810374742,5.958128,1.545763,-5.063213
1775575329812535419,5.977271,1.603191,-5.044070
1775575329814696096,5.953343,1.689333,-4.661219
1775575329816856773,5.924629,1.770689,-4.321438
1775575329819017398,5.934200,1.885544,-4.264010
1775575329821178127,6.005985,2.129612,-4.388437
1775575329823338752,6.020342,2.402394,-4.532006
1775575329825499429,6.130412,2.708675,-4.838287
1775575329827660106,6.149554,3.048456,-4.857430
1775575329829820731,6.312266,3.393023,-4.910072
1775575329831981409,6.355337,3.704089,-4.661219
1775575329834142086,6.384051,3.416951,-4.670790
1775575329836302763,6.436693,2.766103,-4.608576
1775575329838463440,6.613762,2.182254,-4.656433
1775575329840624065,6.695118,1.598405,-4.618148
1775575329842784742,6.795616,1.153340,-4.345366
1775575329844945419,6.939186,0.703490,-4.259224
1775575329847106096,7.154540,0.454636,-4.618148
1775575329849266721,7.250253,0.258425,-5.010571
1775575329851427398,7.398608,0.129212,-5.580062
1775575329853588075,7.508677,0.086142,-6.049056
1775575329855748752,7.585248,0.177069,-6.273981
1775575329857909377,7.671390,0.354138,-6.436693
1775575329860070106,7.814959,0.526421,-6.719046
1775575329862230731,7.972885,0.713061,-6.943971
1775575329864391409,8.030313,1.244268,-7.006185
1775575329866552086,8.303095,1.852045,-7.202396
1775575329868712763,8.451449,2.560320,-6.762117
1775575329870873388,8.561520,3.282953,-5.647061
1775575329873034065,8.858230,3.838088,-4.441079
1775575329875194742,9.260223,4.197011,-3.431308
1775575329877355419,9.667004,4.460221,-2.512464
1775575329879516096,10.011570,4.627719,-1.823331
1775575329881676721,10.432707,4.646862,-1.631905
1775575329883837398,10.978271,4.603791,-1.636691
1775575329885998075,11.341979,4.651647,-1.588834
1775575329888158700,11.710474,4.622933,-1.718047
1775575329890319377,12.035898,4.599005,-1.808974
1775575329892480054,12.404392,4.579863,-1.789831
1775575329894640731,12.701102,4.599005,-1.832902
1775575329896801409,12.911671,4.709075,-1.899901
1775575329898962034,13.036098,4.828716,-1.885544
1775575329901122711,13.174882,4.962714,-1.842473
1775575329903283388,13.160524,5.101498,-1.655833
1775575329905444065,12.969099,5.211568,-1.674976
1775575329907604690,12.610175,5.359923,-1.895115
1775575329909765367,12.208181,5.441278,-2.388037
1775575329911926044,11.590833,5.436493,-3.172883
1775575329914086721,10.834701,5.570491,-3.728018
1775575329916247346,10.140782,5.680561,-4.072584
1775575329918408023,9.571291,5.766703,-4.292724
1775575329920568700,9.064013,5.785845,-4.402794
1775575329922729377,8.604590,5.709275,-4.350152
1775575329924890054,8.164310,5.374279,-4.364509
1775575329927050679,7.709674,4.900501,-4.488935
1775575329929211356,7.393822,4.431508,-4.713861
1775575329931372034,7.073184,4.086941,-4.709075
1775575329933532711,6.752545,3.842873,-4.555934
1775575329935693388,6.508478,3.670590,-4.551149
1775575329937854065,6.240481,3.416951,-4.579863
1775575329940014690,6.120841,3.220739,-4.393222
1775575329942175367,6.039485,3.019742,-4.230510
1775575329944336044,5.761917,2.435894,-3.842873
1775575329946496721,5.599205,1.828117,-3.627519
1775575329948657398,5.589633,1.306481,-3.373880
1775575329950818023,5.570491,0.875773,-3.053242
1775575329952978700,5.704489,0.397209,-2.914458
1775575329955139377,5.804988,-0.043071,-2.924029
1775575329957300054,5.924629,-0.411565,-2.957529
1775575329959460731,6.092126,-0.674776,-2.928815
1775575329961621356,6.159125,-1.263410,-2.914458
1775575329963782034,6.321837,-1.904687,-3.081956
1775575329965942711,6.608976,-2.483750,-3.498307
1775575329968103336,7.082755,-3.081956,-4.163511
1775575329970264013,7.590034,-3.479164,-4.608576
1775575329972424690,8.020741,-3.871587,-5.063213
1775575329974585367,8.437093,-4.024728,-5.527421
1775575329976746044,8.724232,-4.192225,-5.819345
1775575329978906721,8.882157,-4.240082,-6.221339
1775575329981067346,8.819944,-4.197011,-6.398408
1775575329983228023,8.709874,-4.048656,-6.393622
1775575329985388700,8.441878,-3.617948,-5.718846
1775575329987549325,8.327023,-3.799802,-5.838487
1775575329989710002,8.106883,-3.852444,-5.790631
1775575329991870679,7.747960,-3.713661,-5.527421
1775575329994031356,7.293324,-3.613162,-4.986642
1775575329996192034,6.910472,-3.426522,-4.560720
1775575329998352711,6.527620,-3.421736,-4.163511
1775575330000513388,6.101698,-3.244668,-3.814159
1775575330002674013,5.661418,-2.986243,-3.292524
1775575330004834690,5.316852,-2.794817,-2.785246
1775575330006995367,4.689932,-2.234896,-2.201397
1775575330009155992,4.216154,-1.780260,-1.722832
1775575330011316669,3.828516,-1.670190,-1.378266
1775575330013477346,3.613162,-1.780260,-1.177269
1775575330015638023,3.527021,-2.048256,-1.038485
1775575330017798700,3.426522,-2.182254,-0.775275
1775575330019959325,3.263810,-2.311467,-0.378066
1775575330022120002,3.129812,-2.426322,-0.181855
1775575330024280679,3.077170,-2.464607,-0.124427
1775575330026441356,3.048456,-2.493321,-0.119641
1775575330028601981,2.871387,-2.670390,0.363709
1775575330030762659,2.756532,-2.660819,1.004985
1775575330032923336,2.947958,-3.297310,0.760918
1775575330035084013,3.273381,-3.828516,0.416351
1775575330037244690,3.718446,-4.307081,0.153141
1775575330039405315,4.249653,-4.517649,-0.306281
1775575330041565992,5.288138,-4.871787,-1.129412
1775575330043726669,6.546763,-5.474778,-2.129612
1775575330045887346,8.135597,-6.297909,-3.431308
1775575330048048023,9.193225,-7.231110,-4.723432
1775575330050208648,9.662218,-8.422736,-5.804988
1775575330052369325,10.126426,-9.489935,-6.546763
1775575330054530002,10.509277,-10.537991,-6.853044
1775575330056690627,11.763116,-11.140983,-7.097112
1775575330058851304,12.978670,-11.662618,-7.245467
1775575330061011981,14.624932,-11.873186,-7.331609
1775575330063172659,16.725830,-11.801401,-8.231310
1775575330065333336,17.295322,-12.174682,-8.910872
1775575330067494013,17.400606,-12.294323,-8.949157
1775575330069654638,17.639889,-12.122040,-8.303095
1775575330071815315,17.970098,-11.729616,-7.489535
1775575330073975992,18.367306,-11.054841,-6.470192
1775575330076136669,18.434305,-10.255638,-5.374279
1775575330078297346,18.065811,-9.413364,-4.206582
1775575330080457971,17.448463,-8.662018,-3.220739
1775575330082618648,16.768902,-7.872386,-2.340181
1775575330084779325,16.007984,-7.044470,-1.560120
1775575330086940002,15.132211,-6.226124,-1.076770
1775575330089100679,14.266008,-5.350351,-0.947558
1775575330091261356,13.275380,-4.656433,-1.258625
1775575330093421981,12.351750,-4.101298,-1.780260
1775575330095582659,11.586047,-3.675375,-2.354537
1775575330097743336,10.906486,-3.345166,-2.967100
1775575330099904013,10.269995,-3.115455,-3.445665
1775575330102064638,9.614362,-2.995814,-3.895515
1775575330104225315,9.040084,-2.914458,-4.278367
1775575330106385992,8.575876,-2.866601,-4.704289
1775575330108546669,8.154739,-2.780460,-5.039285
1775575330110707346,7.781459,-2.703890,-5.321638
1775575330112868023,7.412964,-2.670390,-5.522635
1775575330115028648,7.068398,-2.660819,-5.723632
1775575330117189325,6.872187,-2.660819,-5.943771
1775575330119350002,6.742974,-2.636891,-6.101698
1775575330121510627,6.608976,-2.579463,-6.230910
1775575330123671304,6.508478,-2.502892,-6.283552
1775575330125831981,6.412765,-2.402394,-6.230910
1775575330127992659,6.379265,-2.282753,-6.135197
1775575330130153336,6.369694,-2.158326,-6.029913
1775575330132313961,6.388836,-1.976472,-5.881558
1775575330134474638,6.398408,-1.828117,-5.618348
1775575330136635315,6.489335,-1.622334,-5.364708
1775575330138795992,6.518049,-1.440479,-5.029713
1775575330140956669,6.460621,-1.282553,-4.737789
1775575330143117294,6.551548,-1.124627,-4.599005
1775575330145277971,6.757331,-0.923630,-4.369294
1775575330147438648,6.896115,-0.751346,-4.067799
1775575330149599325,7.063612,-0.612563,-3.852444
1775575330151760002,7.221539,-0.564706,-3.670590
1775575330153920627,7.365108,-0.559920,-3.665804
1775575330156081304,7.652247,-0.512064,-3.617948
1775575330158241981,7.891529,-0.516850,-3.464807
1775575330160402659,8.260024,-0.516850,-3.407379
1775575330162563336,8.647661,-0.521635,-3.388237
1775575330164723961,8.925228,-0.550349,-3.273381
1775575330166884638,9.178867,-0.646062,-3.196811
1775575330169045315,9.494720,-0.736989,-3.201597
1775575330171205992,9.839287,-0.789631,-3.349952
1775575330173366669,10.131211,-0.847059,-3.421736
1775575330175527294,10.356136,-0.918844,-3.431308
1775575330177687971,10.542776,-1.014557,-3.488735
1775575330179848648,10.600204,-1.095913,-3.426522
1775575330182009273,10.724631,-1.201197,-3.455236
1775575330184169950,10.777273,-1.311267,-3.536592
1775575330186330627,10.758131,-1.450050,-3.579663
1775575330188491304,10.614561,-1.631905,-3.689733
1775575330190651981,10.413564,-1.866402,-3.842873
1775575330192812606,10.183853,-2.129612,-3.890730
1775575330194973336,9.868001,-2.397608,-3.952943
1775575330197133961,9.667004,-2.622534,-3.972085
1775575330199294638,9.422935,-2.809174,-3.933800
1775575330201455315,9.202796,-2.967100,-3.890730
1775575330203615992,9.049655,-3.062813,-3.818945
1775575330205776617,8.877372,-3.134598,-3.814159
1775575330207937294,8.752945,-3.163311,-3.804588
1775575330210097971,8.647661,-3.172883,-3.838088
1775575330212258648,8.561520,-3.158526,-3.909872
1775575330214419325,8.470592,-3.125026,-3.996014
1775575330216580002,8.398808,-3.067599,-4.091727
1775575330218740627,8.408379,-2.938386,-4.153940
1775575330220901304,8.432307,-2.837888,-4.211368
1775575330223061981,8.461020,-2.718246,-4.249653
1775575330225222659,8.499306,-2.612962,-4.302295
1775575330227383336,8.537591,-2.531606,-4.359723
1775575330229543961,8.561520,-2.478964,-4.412365
1775575330231704638,8.618947,-2.416751,-4.450650
1775575330233865315,8.633304,-2.402394,-4.460221
1775575330236025992,8.642876,-2.383251,-4.498507
1775575330238186669,8.623733,-2.388037,-4.469793
1775575330240347346,8.561520,-2.340181,-4.460221
1775575330242507971,8.484949,-2.311467,-4.383651
1775575330244668648,8.398808,-2.297110,-4.340580
1775575330246829325,8.346166,-2.316252,-4.307081
1775575330248990002,8.327023,-2.282753,-4.268795
1775575330251150679,8.312666,-2.311467,-4.244867
1775575330253311304,8.298309,-2.330609,-4.216154
1775575330255471981,8.298309,-2.330609,-4.168297
1775575330257632659,8.269595,-2.364109,-4.139583
1775575330259793336,8.269595,-2.340181,-4.110869
1775575330261954013,8.260024,-2.330609,-4.058227
1775575330264114638,8.260024,-2.325824,-4.034299
1775575330266275315,8.236095,-2.316252,-4.043870
1775575330268435992,8.245667,-2.287539,-3.991228
1775575330270596669,8.226524,-2.254039,-3.952943
1775575330272757346,8.216953,-2.254039,-3.952943
1775575330274917971,8.236095,-2.225325,-3.933800
1775575330277078648,8.240881,-2.201397,-3.881158
1775575330279239325,8.221739,-2.182254,-3.866802
1775575330281399950,8.245667,-2.182254,-3.881158
1775575330283560627,8.255239,-2.187040,-3.862016
1775575330285721304,8.274381,-2.210968,-3.866802
1775575330287881981,8.312666,-2.244468,-3.857230
1775575330290042606,8.317451,-2.282753,-3.866802
1775575330292203336,8.389236,-2.306681,-3.881158
1775575330294363961,8.408379,-2.354537,-3.890730
1775575330296524638,8.465807,-2.392823,-3.847659
1775575330298685315,8.480164,-2.431108,-3.866802
1775575330300845992,8.537591,-2.416751,-3.833302
1775575330303006617,8.590233,-2.402394,-3.809374
1775575330305167294,8.647661,-2.340181,-3.785445
1775575330307327971,8.681161,-2.335395,-3.751946
1775575330309488648,8.743374,-2.282753,-3.732803
1775575330311649325,8.810373,-2.225325,-3.747160
1775575330313810002,8.709874,-2.273181,-3.885944
1775575330315970627,8.729017,-2.292324,-3.972085
1775575330318131304,8.767303,-2.254039,-3.991228
1775575330320291981,8.752945,-2.258825,-3.996014
1775575330322452659,8.748159,-2.220539,-4.029513
1775575330324613284,8.762517,-2.220539,-4.077370
1775575330326773961,8.772088,-2.206182,-4.101298
1775575330328934638,8.810373,-2.177469,-4.096512
1775575330331095315,8.800801,-2.177469,-4.139583
1775575330333255992,8.839087,-2.129612,-4.144369
1775575330335416617,8.882157,-2.115255,-4.120440
1775575330337577346,8.934800,-2.091327,-4.158726
1775575330339737971,9.011370,-2.043471,-4.158726
1775575330341898648,9.064013,-1.990828,-4.158726
1775575330344059325,9.107083,-1.976472,-4.139583
1775575330346219950,9.169296,-1.942972,-4.134798
1775575330348380679,9.207582,-1.909472,-4.149155
1775575330350541304,9.255438,-1.885544,-4.134798
1775575330352701981,9.288938,-1.842473,-4.120440
1775575330354862659,9.336794,-1.823331,-4.110869
1775575330357023336,9.341579,-1.794617,-4.086941
1775575330359184013,9.389436,-1.765903,-4.063013
1775575330361344690,9.422935,-1.732404,-4.082155
1775575330363505315,9.446864,-1.698904,-4.034299
1775575330365665992,9.432507,-1.689333,-4.019942
1775575330367826617,9.422935,-1.674976,-3.948157
1775575330369987294,9.351151,-1.689333,-3.828516
1775575330372147971,9.437292,-1.646262,-3.924229
1775575330374308648,9.523434,-1.598405,-3.962514
1775575330376469325,9.542577,-1.531407,-3.962514
1775575330378630002,9.571291,-1.493121,-3.933800
1775575330380790627,9.576077,-1.478764,-3.871587
1775575330382951356,9.556933,-1.483550,-3.838088
1775575330385111981,9.576077,-1.473979,-3.833302
1775575330387272659,9.523434,-1.454836,-3.723232
1775575330389433336,9.475577,-1.450050,-3.522235
1775575330391594013,9.533006,-1.454836,-3.589234
1775575330393754638,9.518648,-1.459622,-3.603591
1775575330395915315,9.504292,-1.445265,-3.584448
1775575330398075992,9.513863,-1.421337,-3.680161
1775575330400236669,9.499506,-1.402194,-3.737589
1775575330402397346,9.389436,-1.411765,-3.665804
1775575330404557971,9.236296,-1.502693,-3.622734
1775575330406718648,9.279366,-1.488336,-3.613162
1775575330408879325,9.202796,-1.517050,-3.637090
1775575330411039950,9.154940,-1.550549,-3.708875
1775575330413200679,9.044869,-1.627119,-3.756732
1775575330415361304,9.044869,-1.607977,-3.799802
1775575330417521981,9.006584,-1.598405,-3.804588
1775575330419682659,8.958728,-1.636691,-3.828516
1775575330421843336,8.863015,-1.684547,-3.838088
1775575330424004013,8.819944,-1.713261,-3.771089
1775575330426164638,8.815159,-1.718047,-3.761517
1775575330428325315,8.800801,-1.756332,-3.718446
1775575330430485992,8.800801,-1.761117,-3.661019
1775575330432646669,8.796016,-1.780260,-3.632305
1775575330434807346,8.733803,-1.785046,-3.656233
1775575330436968023,8.757730,-1.837688,-3.680161
1775575330439128648,8.738588,-1.852045,-3.900301
1775575330441289325,8.714660,-1.866402,-3.996014
1775575330443450002,8.719446,-1.871187,-3.972085
1775575330445610679,8.709874,-1.885544,-3.948157
1775575330447771356,8.690732,-1.914258,-3.900301
1775575330449931981,8.690732,-1.928615,-3.847659
1775575330452092659,8.700303,-1.942972,-3.828516
1775575330454253336,8.690732,-1.947758,-3.795017
1775575330456414013,8.638090,-2.024328,-3.732803
1775575330458574638,8.575876,-2.038685,-3.641876
1775575330460735315,8.638090,-2.005185,-3.661019
1775575330462895992,8.628518,-2.014757,-3.627519
1775575330465056669,8.595019,-2.062613,-3.565306
1775575330467217346,8.575876,-2.043471,-3.493521
1775575330469377971,8.523234,-2.067399,-3.507878
1775575330471538700,8.542377,-2.086541,-3.440879
1775575330473699325,8.551949,-2.115255,-3.479164
1775575330475860002,8.595019,-2.057827,-3.531806
1775575330478020679,8.676374,-2.043471,-3.574877
1775575330480181356,8.729017,-1.962115,-3.646662
1775575330482341981,8.772088,-1.933401,-3.723232
1775575330484502659,8.863015,-1.847259,-3.799802
1775575330486663336,8.949157,-1.818545,-3.852444
1775575330488824013,8.963513,-1.794617,-3.895515
1775575330490984690,8.939586,-1.823331,-3.890730
1775575330493145315,8.953942,-1.823331,-3.866802
1775575330495305992,8.992228,-1.794617,-3.852444
1775575330497466669,8.934800,-1.842473,-3.799802
1775575330499627346,8.906086,-1.871187,-3.785445
1775575330501788023,8.930014,-1.856830,-3.795017
1775575330503948700,8.910872,-1.856830,-3.756732
1775575330506109377,8.896515,-1.871187,-3.713661
1775575330508270002,8.963513,-1.861616,-3.713661
1775575330510430679,8.925228,-1.880759,-3.680161
1775575330512591356,8.958728,-1.852045,-3.708875
1775575330514752034,9.025727,-1.813760,-3.665804
1775575330516912711,9.059227,-1.794617,-3.675375
1775575330519073336,9.087940,-1.785046,-3.637090
1775575330521234013,9.107083,-1.789831,-3.641876
1775575330523394690,9.140582,-1.770689,-3.689733
1775575330525555367,9.150154,-1.761117,-3.675375
1775575330527716044,9.193225,-1.751546,-3.651447
1775575330529876669,9.111869,-1.785046,-3.603591
1775575330532037346,9.073584,-1.799403,-3.527021
1775575330534198023,9.025727,-1.861616,-3.479164
1775575330536358700,9.131011,-1.837688,-3.483950
1775575330538519377,9.236296,-1.761117,-3.479164
1775575330540680002,9.245867,-1.761117,-3.455236
1775575330542840731,9.274581,-1.756332,-3.469593
1775575330545001356,9.241081,-1.761117,-3.436093
1775575330547162034,9.202796,-1.789831,-3.421736
1775575330549322711,9.145369,-1.832902,-3.402594
1775575330551483388,9.154940,-1.832902,-3.383451
1775575330553644013,9.217153,-1.799403,-3.393023
1775575330555804690,9.312865,-1.732404,-3.412165
1775575330557965367,9.384650,-1.670190,-3.412165
1775575330560126044,9.317652,-1.660619,-3.436093
1775575330562286721,9.346365,-1.651048,-3.421736
1775575330564447398,9.269794,-1.708475,-3.445665
1775575330566608023,9.193225,-1.689333,-3.450450
1775575330568768700,9.126225,-1.732404,-3.464807
1775575330570929377,9.164511,-1.665405,-3.436093
1775575330573090054,9.188439,-1.627119,-3.460021
1775575330575250731,9.212367,-1.555335,-3.450450
1775575330577411356,9.226724,-1.497907,-3.445665
1775575330579572034,9.260223,-1.440479,-3.431308
1775575330581732711,9.293723,-1.397408,-3.412165
1775575330583893388,9.241081,-1.430908,-3.445665
1775575330586054013,9.135797,-1.469193,-3.483950
1775575330588214742,8.997013,-1.588834,-3.522235
1775575330590375367,8.872586,-1.627119,-3.550949
1775575330592536044,8.810373,-1.612762,-3.617948
1775575330594696721,8.743374,-1.651048,-3.675375
1775575330596857398,8.776874,-1.569692,-3.651447
1775575330599018075,8.843872,-1.545763,-3.598805
1775575330601178700,8.877372,-1.507478,-3.503092
1775575330603339377,8.968299,-1.430908,-3.488735
1775575330605500054,9.016156,-1.416551,-3.493521
1775575330607660731,9.030513,-1.421337,-3.455236
1775575330609821409,9.030513,-1.454836,-3.450450
1775575330611982034,9.059227,-1.383052,-3.402594
1775575330614142711,9.064013,-1.406980,-3.407379
1775575330616303388,9.020942,-1.426122,-3.412165
1775575330618464065,8.997013,-1.450050,-3.388237
1775575330620624742,8.930014,-1.493121,-3.349952
1775575330622785419,8.910872,-1.555335,-3.321238
1775575330624946096,8.872586,-1.641476,-3.335595
1775575330627106721,8.848659,-1.603191,-3.426522
1775575330629267398,8.824730,-1.622334,-3.493521
1775575330631428075,8.872586,-1.627119,-3.373880
1775575330633588752,8.910872,-1.598405,-3.321238
1775575330635749377,8.997013,-1.631905,-3.306881
1775575330637910106,8.973084,-1.622334,-3.321238
1775575330640070731,9.044869,-1.584049,-3.302095
1775575330642231409,9.116654,-1.665405,-3.282953
1775575330644392086,9.145369,-1.665405,-3.254239
1775575330646552763,9.231510,-1.607977,-3.215954
1775575330648713388,9.279366,-1.627119,-3.244668
1775575330650874065,9.327223,-1.627119,-3.282953
1775575330653034742,9.355937,-1.641476,-3.330809
1775575330655195419,9.355937,-1.684547,-3.364309
1775575330657356096,9.279366,-1.741975,-3.445665
1775575330659516773,9.212367,-1.741975,-3.637090
1775575330661677398,9.121440,-1.756332,-3.732803
1775575330663838075,9.164511,-1.756332,-3.704089
1775575330665998752,9.183653,-1.756332,-3.646662
1775575330668159429,9.154940,-1.718047,-3.594020
1775575330670320106,9.140582,-1.761117,-3.589234
1775575330672480784,9.154940,-1.727618,-3.517449
1775575330674641409,9.193225,-1.732404,-3.460021
1775575330676802086,9.116654,-1.770689,-3.450450
1775575330678962763,9.121440,-1.718047,-3.440879
1775575330681123440,9.178867,-1.622334,-3.402594
1775575330683284117,9.226724,-1.569692,-3.354737
1775575330685444742,9.226724,-1.512264,-3.373880
1775575330687605419,9.255438,-1.464407,-3.330809
1775575330689766096,9.226724,-1.483550,-3.345166
1775575330691926773,9.188439,-1.473979,-3.359523
1775575330694087450,9.183653,-1.488336,-3.335595
1775575330696248127,9.164511,-1.478764,-3.359523
1775575330698408752,9.150154,-1.450050,-3.340380
1775575330700569429,9.145369,-1.445265,-3.364309
1775575330702730106,9.131011,-1.454836,-3.373880
1775575330704890784,9.087940,-1.488336,-3.416951
1775575330707051461,9.049655,-1.517050,-3.450450
1775575330709212138,9.040084,-1.526621,-3.440879
1775575330711372763,9.030513,-1.536192,-3.460021
1775575330713533440,9.016156,-1.555335,-3.416951
1775575330715694117,9.011370,-1.550549,-3.349952
1775575330717854794,8.997013,-1.569692,-3.340380
1775575330720015419,9.011370,-1.584049,-3.302095
1775575330722176096,9.006584,-1.598405,-3.287738
1775575330724336773,8.915657,-1.584049,-3.306881
1775575330726497450,8.925228,-1.607977,-3.321238
1775575330728658127,8.977871,-1.612762,-3.335595
1775575330730818804,8.997013,-1.622334,-3.340380
1775575330732979481,8.963513,-1.655833,-3.354737
1775575330735140159,8.982656,-1.646262,-3.378666
1775575330737300784,9.006584,-1.679762,-3.407379
1775575330739461461,9.030513,-1.593620,-3.402594
1775575330741622138,9.087940,-1.502693,-3.378666
1775575330743782815,9.078369,-1.507478,-3.378666
1775575330745943492,9.107083,-1.478764,-3.388237
1775575330748104169,9.097511,-1.426122,-3.378666
1775575330750264794,9.073584,-1.397408,-3.373880
1775575330752425471,8.982656,-1.450050,-3.402594
1775575330754586148,8.953942,-1.397408,-3.407379
1775575330756746825,8.930014,-1.373480,-3.416951
1775575330758907450,8.901300,-1.373480,-3.455236
1775575330761068127,8.867801,-1.378266,-3.474379
1775575330763228804,8.853444,-1.383052,-3.460021
1775575330765389481,8.843872,-1.411765,-3.488735
1775575330767550159,8.843872,-1.416551,-3.464807
1775575330769710836,8.848659,-1.426122,-3.460021
1775575330771871461,8.858230,-1.454836,-3.445665
1775575330774032138,8.886943,-1.459622,-3.426522
1775575330776192815,8.910872,-1.488336,-3.402594
1775575330778353492,8.944371,-1.507478,-3.402594
1775575330780514169,8.982656,-1.526621,-3.359523
1775575330782674846,9.011370,-1.555335,-3.340380
1775575330784835471,9.054440,-1.569692,-3.359523
1775575330786996148,9.078369,-1.603191,-3.330809
1775575330789156825,9.102298,-1.622334,-3.349952
1775575330791317502,9.121440,-1.631905,-3.364309
1775575330793478179,9.126225,-1.655833,-3.364309
1775575330795638804,9.135797,-1.679762,-3.354737
1775575330797799481,9.126225,-1.698904,-3.369094
1775575330799960159,9.126225,-1.741975,-3.426522
1775575330802120836,9.111869,-1.718047,-3.421736
1775575330804281513,9.111869,-1.698904,-3.431308
1775575330806442190,9.083155,-1.689333,-3.450450
1775575330808602867,9.059227,-1.694118,-3.469593
1775575330810763492,9.068798,-1.689333,-3.445665
1775575330812924169,9.020942,-1.684547,-3.479164
1775575330815084846,8.982656,-1.689333,-3.493521
1775575330817245523,8.973084,-1.684547,-3.503092
1775575330819406200,8.944371,-1.674976,-3.512664
1775575330821566877,8.930014,-1.679762,-3.541378
1775575330823727502,8.925228,-1.674976,-3.536592
1775575330825888179,8.877372,-1.703690,-3.560520
1775575330828048856,8.810373,-1.741975,-3.718446
1775575330830209534,8.834301,-1.684547,-3.646662
1775575330832370211,8.891729,-1.631905,-3.541378
1775575330834530888,8.872586,-1.694118,-3.536592
1775575330836691565,8.934800,-1.660619,-3.445665
1775575330838852190,8.987442,-1.660619,-3.402594
1775575330841012867,9.035298,-1.698904,-3.383451
1775575330843173544,9.059227,-1.703690,-3.397808
1775575330845334221,9.097511,-1.694118,-3.412165
1775575330847494898,9.140582,-1.708475,-3.469593
1775575330849655523,9.145369,-1.694118,-3.503092
1775575330851816200,9.188439,-1.679762,-3.536592
1775575330853976877,9.202796,-1.670190,-3.527021
1775575330856137554,9.221938,-1.679762,-3.574877
1775575330858298231,9.236296,-1.670190,-3.565306
1775575330860458909,9.226724,-1.674976,-3.536592
1775575330862619534,9.217153,-1.689333,-3.531806
1775575330864780263,9.164511,-1.751546,-3.527021
1775575330866940888,9.092726,-1.799403,-3.718446
1775575330869101565,9.097511,-1.799403,-3.694518
1775575330871262242,9.102298,-1.789831,-3.603591
1775575330873422867,9.092726,-1.789831,-3.498307
1775575330875583596,9.116654,-1.794617,-3.373880
1775575330877744221,9.097511,-1.861616,-3.330809
1775575330879904898,9.087940,-1.880759,-3.359523
1775575330882065575,9.097511,-1.875973,-3.412165
1775575330884226252,9.097511,-1.852045,-3.474379
1775575330886386877,9.078369,-1.842473,-3.527021
1775575330888547554,9.083155,-1.823331,-3.507878
1775575330890708231,9.083155,-1.832902,-3.517449
1775575330892868909,9.083155,-1.832902,-3.512664
1775575330895029586,9.068798,-1.808974,-3.493521
1775575330897190263,9.087940,-1.828117,-3.464807
1775575330899350940,9.087940,-1.828117,-3.431308
1775575330901511565,9.087940,-1.837688,-3.397808
1775575330903672242,9.083155,-1.837688,-3.407379
1775575330905832919,9.092726,-1.847259,-3.421736
1775575330907993596,9.102298,-1.890330,-3.445665
1775575330910154273,9.126225,-1.880759,-3.440879
1775575330912314950,9.111869,-1.990828,-3.536592
1775575330914475575,9.064013,-2.014757,-3.603591
1775575330916636252,9.116654,-1.928615,-3.603591
1775575330918796929,9.116654,-1.919044,-3.531806
1775575330920957606,9.159725,-1.890330,-3.479164
1775575330923118284,9.183653,-1.899901,-3.407379
1775575330925278909,9.212367,-1.899901,-3.416951
1775575330927439638,9.241081,-1.909472,-3.493521
1775575330929600263,9.269794,-1.861616,-3.493521
1775575330931760940,9.241081,-1.890330,-3.613162
1775575330933921617,9.269794,-1.837688,-3.613162
1775575330936082294,9.298509,-1.789831,-3.617948
1775575330938242971,9.288938,-1.818545,-3.603591
1775575330940403596,9.284152,-1.746760,-3.627519
1775575330942564325,9.269794,-1.684547,-3.613162
1775575330944724950,9.241081,-1.636691,-3.541378
1775575330946885627,9.212367,-1.617548,-3.574877
1775575330949046304,9.193225,-1.631905,-3.617948
1775575330951206981,9.135797,-1.660619,-3.680161
1775575330953367606,9.131011,-1.651048,-3.699304
1775575330955528284,9.102298,-1.665405,-3.684947
1775575330957688961,9.087940,-1.684547,-3.675375
1775575330959849638,9.064013,-1.708475,-3.641876
1775575330962010315,9.044869,-1.727618,-3.637090
1775575330964170940,9.030513,-1.761117,-3.603591
1775575330966331669,9.025727,-1.799403,-3.603591
1775575330968492294,9.025727,-1.837688,-3.589234
1775575330970652971,9.035298,-1.861616,-3.584448
1775575330972813648,9.044869,-1.885544,-3.555734
1775575330974974325,9.064013,-1.895115,-3.541378
1775575330977135002,9.054440,-1.909472,-3.546163
1775575330979295627,9.073584,-1.928615,-3.507878
1775575330981456304,9.059227,-1.957329,-3.531806
1775575330983616981,9.035298,-1.966900,-3.512664
1775575330985777659,9.006584,-1.928615,-3.450450
1775575330987938284,8.939586,-2.014757,-3.598805
1775575330990099013,8.891729,-1.976472,-3.579663
1775575330992259690,8.858230,-1.947758,-3.541378
1775575330994420315,8.882157,-1.866402,-3.440879
1775575330996580992,8.920443,-1.832902,-3.416951
1775575330998741669,8.930014,-1.799403,-3.378666
1775575331000902346,8.939586,-1.775474,-3.388237
1775575331003063023,8.901300,-1.842473,-3.455236
1775575331005223700,8.915657,-1.794617,-3.503092
1775575331007384325,8.925228,-1.751546,-3.483950
1775575331009545002,8.906086,-1.770689,-3.469593
1775575331011705679,8.953942,-1.746760,-3.493521
1775575331013866356,8.958728,-1.751546,-3.474379
1775575331016027034,8.953942,-1.737189,-3.536592
1775575331018187659,8.925228,-1.737189,-3.555734
1775575331020348336,8.901300,-1.737189,-3.608377
1775575331022509013,8.910872,-1.727618,-3.622734
1775575331024669690,8.915657,-1.741975,-3.627519
1775575331026830367,8.906086,-1.727618,-3.637090
1775575331028991044,8.901300,-1.737189,-3.632305
1775575331031151721,8.920443,-1.741975,-3.641876
1775575331033312398,8.925228,-1.746760,-3.646662
1775575331035473023,8.891729,-1.741975,-3.637090
1775575331037633700,8.944371,-1.756332,-3.656233
1775575331039794377,8.949157,-1.794617,-3.684947
1775575331041955054,8.973084,-1.741975,-3.637090
1775575331044115731,8.925228,-1.770689,-3.689733
1775575331046276356,8.910872,-1.828117,-3.766303
1775575331048437086,8.910872,-1.794617,-3.814159
1775575331050597711,8.886943,-1.799403,-3.818945
1775575331052758388,8.930014,-1.732404,-3.732803
1775575331054919065,8.987442,-1.722832,-3.603591
1775575331057079742,9.001799,-1.732404,-3.531806
1775575331059240419,9.044869,-1.775474,-3.522235
1775575331061401044,9.073584,-1.751546,-3.541378
1775575331063561721,9.097511,-1.780260,-3.527021
1775575331065722398,9.121440,-1.789831,-3.555734
1775575331067883075,9.135797,-1.804188,-3.574877
1775575331070043752,9.150154,-1.823331,-3.560520
1775575331072204429,9.135797,-1.808974,-3.594020
1775575331074365054,9.126225,-1.808974,-3.565306
1775575331076525731,9.111869,-1.794617,-3.546163
1775575331078686409,9.078369,-1.794617,-3.555734
1775575331080847086,8.997013,-1.780260,-3.608377
1775575331083007763,9.035298,-1.770689,-3.536592
1775575331085168440,9.016156,-1.813760,-3.531806
1775575331087329117,9.011370,-1.780260,-3.474379
1775575331089489742,8.977871,-1.761117,-3.512664
1775575331091650419,9.020942,-1.732404,-3.527021
1775575331093811096,9.011370,-1.828117,-3.546163
1775575331095971773,8.982656,-1.799403,-3.493521
1775575331098132450,8.863015,-1.856830,-3.675375
1775575331100293127,8.877372,-1.794617,-3.651447
1775575331102453752,8.920443,-1.780260,-3.574877
1775575331104614429,8.896515,-1.761117,-3.498307
1775575331106775106,8.968299,-1.737189,-3.436093
1775575331108935784,9.011370,-1.756332,-3.412165
1775575331111096461,8.953942,-1.837688,-3.531806
1775575331113257138,8.977871,-1.808974,-3.555734
1775575331115417815,9.030513,-1.756332,-3.517449
1775575331117578440,9.083155,-1.770689,-3.483950
1775575331119739117,9.064013,-1.847259,-3.517449
1775575331121899794,9.030513,-1.828117,-3.541378
1775575331124060471,9.068798,-1.775474,-3.550949
1775575331126221148,9.116654,-1.756332,-3.469593
1775575331128381825,9.159725,-1.761117,-3.479164
1775575331130542502,9.198010,-1.761117,-3.474379
1775575331132703127,9.193225,-1.761117,-3.498307
1775575331134863804,9.202796,-1.775474,-3.541378
1775575331137024481,9.212367,-1.785046,-3.555734
1775575331139185159,9.183653,-1.785046,-3.598805
1775575331141345836,9.087940,-1.828117,-3.718446
1775575331143506461,9.131011,-1.722832,-3.651447
1775575331145667138,9.131011,-1.732404,-3.670590
1775575331147827815,9.044869,-1.751546,-3.732803
1775575331149988492,9.016156,-1.741975,-3.718446
1775575331152149169,9.049655,-1.674976,-3.665804
1775575331154309846,9.049655,-1.660619,-3.584448
1775575331156470523,9.059227,-1.689333,-3.498307
1775575331158631200,9.073584,-1.722832,-3.488735
1775575331160791877,9.068798,-1.761117,-3.483950
1775575331162952502,9.078369,-1.770689,-3.507878
1775575331165113179,9.049655,-1.789831,-3.531806
1775575331167273856,9.030513,-1.794617,-3.565306
1775575331169434534,9.068798,-1.799403,-3.574877
1775575331171595211,9.135797,-1.751546,-3.704089
1775575331173755836,9.111869,-1.722832,-3.723232
1775575331175916513,9.040084,-1.751546,-3.699304
1775575331178077242,9.073584,-1.765903,-3.637090
1775575331180237867,9.107083,-1.737189,-3.574877
1775575331182398544,9.073584,-1.746760,-3.531806
1775575331184559221,9.020942,-1.823331,-3.546163
1775575331186719898,9.001799,-1.828117,-3.483950
1775575331188880575,8.968299,-1.852045,-3.603591
1775575331191041252,8.915657,-1.785046,-3.527021
1775575331193201877,8.987442,-1.761117,-3.416951
1775575331195362554,9.011370,-1.775474,-3.306881
1775575331197523231,9.054440,-1.799403,-3.244668
1775575331199683909,9.102298,-1.813760,-3.215954
1775575331201844586,9.097511,-1.808974,-3.249453
1775575331204005211,9.083155,-1.842473,-3.297310
1775575331206165888,9.083155,-1.861616,-3.316452
1775575331208326565,9.025727,-1.880759,-3.503092
1775575331210487242,9.011370,-1.823331,-3.536592
1775575331212647919,9.044869,-1.799403,-3.503092
1775575331214808596,9.040084,-1.808974,-3.570091
1775575331216969273,9.068798,-1.804188,-3.527021
1775575331219129950,9.064013,-1.808974,-3.483950
1775575331221290575,9.049655,-1.804188,-3.517449
1775575331223451252,9.064013,-1.775474,-3.464807
1775575331225611929,9.064013,-1.818545,-3.503092
1775575331227772606,9.049655,-1.770689,-3.498307
1775575331229933284,9.083155,-1.737189,-3.402594
1775575331232093909,9.073584,-1.741975,-3.373880
1775575331234254586,9.102298,-1.722832,-3.431308
1775575331236415263,9.049655,-1.718047,-3.455236
1775575331238575940,9.054440,-1.708475,-3.445665
1775575331240736617,9.049655,-1.698904,-3.483950
1775575331242897294,9.040084,-1.698904,-3.517449
1775575331245057971,9.020942,-1.679762,-3.584448
1775575331247218596,8.997013,-1.679762,-3.632305
1775575331249379273,8.968299,-1.689333,-3.632305
1775575331251539950,8.949157,-1.694118,-3.684947
1775575331253700627,8.925228,-1.689333,-3.680161
1775575331255861304,8.906086,-1.679762,-3.713661
1775575331258021981,8.906086,-1.679762,-3.684947
1775575331260182659,8.872586,-1.679762,-3.665804
1775575331262343284,8.853444,-1.689333,-3.627519
1775575331264503961,8.872586,-1.684547,-3.613162
1775575331266664638,8.877372,-1.689333,-3.622734
1775575331268825315,8.858230,-1.665405,-3.617948
1775575331270985992,8.867801,-1.674976,-3.598805
1775575331273146669,8.863015,-1.631905,-3.842873
1775575331275307346,8.824730,-1.665405,-3.799802
1775575331277468023,8.829515,-1.631905,-3.742375
1775575331279628648,8.867801,-1.636691,-3.684947
1775575331281789325,8.882157,-1.636691,-3.641876
1775575331283950002,8.867801,-1.646262,-3.517449
1775575331286110679,8.877372,-1.684547,-3.483950
1775575331288271356,8.810373,-1.718047,-3.464807
1775575331290432034,8.839087,-1.746760,-3.378666
1775575331292592711,8.810373,-1.727618,-3.340380
1775575331294753336,8.772088,-1.737189,-3.383451
1775575331296914013,8.772088,-1.727618,-3.340380
1775575331299074690,8.824730,-1.737189,-3.230311
1775575331301235367,8.853444,-1.789831,-3.153740
1775575331303396044,8.901300,-1.818545,-3.110669
1775575331305556721,8.920443,-1.842473,-3.134598
1775575331307717346,8.925228,-1.852045,-3.235096
1775575331309878023,8.934800,-1.856830,-3.292524
1775575331312038700,8.949157,-1.832902,-3.330809
1775575331314199377,8.958728,-1.842473,-3.369094
1775575331316360054,8.973084,-1.823331,-3.412165
1775575331318520731,8.953942,-1.842473,-3.450450
1775575331320681409,8.958728,-1.842473,-3.503092
1775575331322842086,8.930014,-1.828117,-3.550949
1775575331325002711,8.925228,-1.808974,-3.594020
1775575331327163388,8.896515,-1.794617,-3.594020
1775575331329324065,8.872586,-1.775474,-3.622734
1775575331331484742,8.867801,-1.737189,-3.637090
1775575331333645419,8.867801,-1.708475,-3.656233
1775575331335806044,8.872586,-1.670190,-3.661019
1775575331337966773,8.872586,-1.641476,-3.651447
1775575331340127450,8.882157,-1.584049,-3.637090
1775575331342288075,8.896515,-1.579263,-3.627519
1775575331344448752,8.901300,-1.555335,-3.622734
1775575331346609429,8.906086,-1.545763,-3.603591
1775575331348770106,8.958728,-1.502693,-3.589234
1775575331350930784,9.016156,-1.497907,-3.565306
1775575331353091461,9.044869,-1.497907,-3.512664
1775575331355252086,9.049655,-1.459622,-3.622734
1775575331357412763,9.025727,-1.555335,-3.665804
1775575331359573440,9.011370,-1.478764,-3.565306
1775575331361734117,9.111869,-1.450050,-3.464807
1775575331363894794,9.154940,-1.540978,-3.436093
1775575331366055419,9.221938,-1.512264,-3.326024
1775575331368216148,9.174082,-1.526621,-3.474379
1775575331370376825,9.260223,-1.540978,-3.349952
1775575331372537450,9.293723,-1.612762,-3.407379
1775575331374698127,9.351151,-1.584049,-3.297310
1775575331376858804,9.437292,-1.584049,-3.225525
1775575331379019481,9.461221,-1.588834,-3.139383
1775575331381180159,9.475577,-1.588834,-3.086741
1775575331383340836,9.475577,-1.569692,-3.101098
1775575331385501513,9.509077,-1.569692,-3.048456
1775575331387662138,9.494720,-1.560120,-3.024528
1775575331389822815,9.475577,-1.564906,-3.038885
1775575331391983492,9.437292,-1.574477,-3.091527
1775575331394144169,9.379865,-1.579263,-3.129812
1775575331396304846,9.298509,-1.612762,-3.230311
1775575331398465523,9.255438,-1.631905,-3.330809
1775575331400626148,9.178867,-1.646262,-3.383451
1775575331402786877,9.116654,-1.655833,-3.479164
1775575331404947502,9.040084,-1.660619,-3.503092
1775575331407108231,8.982656,-1.655833,-3.522235
1775575331409268856,8.930014,-1.660619,-3.512664
1775575331411429534,8.886943,-1.627119,-3.498307
1775575331413590211,8.877372,-1.627119,-3.445665
1775575331415750888,8.853444,-1.603191,-3.436093
1775575331417911513,8.863015,-1.588834,-3.421736
1775575331420072242,8.843872,-1.555335,-3.393023
1775575331422232867,8.853444,-1.536192,-3.359523
1775575331424393544,8.872586,-1.526621,-3.378666
1775575331426554221,8.867801,-1.517050,-3.378666
1775575331428714898,8.891729,-1.512264,-3.393023
1775575331430875575,8.891729,-1.502693,-3.421736
1775575331433036252,8.910872,-1.497907,-3.412165
1775575331435196929,8.906086,-1.488336,-3.416951
1775575331437357554,8.934800,-1.473979,-3.416951
1775575331439518231,8.934800,-1.493121,-3.421736
1775575331441678909,8.953942,-1.497907,-3.416951
1775575331443839586,8.968299,-1.512264,-3.416951
1775575331446000263,8.968299,-1.512264,-3.407379
1775575331448160888,8.958728,-1.512264,-3.416951
1775575331450321565,8.968299,-1.521835,-3.407379
1775575331452482242,8.968299,-1.531407,-3.402594
1775575331454642919,8.949157,-1.536192,-3.378666
1775575331456803596,8.944371,-1.545763,-3.373880
1775575331458964273,8.925228,-1.564906,-3.373880
1775575331461124950,8.910872,-1.555335,-3.359523
1775575331463285575,8.901300,-1.584049,-3.383451
1775575331465446304,8.901300,-1.607977,-3.364309
1775575331467606929,8.901300,-1.617548,-3.359523
1775575331469767606,8.882157,-1.641476,-3.359523
1775575331471928284,8.906086,-1.665405,-3.364309
1775575331474088961,8.930014,-1.674976,-3.354737
1775575331476249638,8.920443,-1.694118,-3.349952
1775575331478410315,8.949157,-1.698904,-3.340380
1775575331480570992,8.963513,-1.713261,-3.321238
1775575331482731669,8.987442,-1.722832,-3.321238
1775575331484892294,9.001799,-1.737189,-3.311666
1775575331487053023,9.001799,-1.751546,-3.287738
1775575331489213648,9.035298,-1.765903,-3.287738
1775575331491374325,9.040084,-1.780260,-3.278167
1775575331493535002,9.040084,-1.799403,-3.311666
1775575331495695679,9.068798,-1.794617,-3.326024
1775575331497856304,9.068798,-1.808974,-3.354737
1775575331500016981,9.073584,-1.823331,-3.354737
1775575331502177711,9.083155,-1.837688,-3.378666
1775575331504338336,9.092726,-1.837688,-3.373880
1775575331506499013,9.102298,-1.837688,-3.349952
1775575331508659690,9.107083,-1.837688,-3.388237
1775575331510820367,9.107083,-1.842473,-3.388237
1775575331512981044,9.121440,-1.842473,-3.378666
1775575331515141721,9.092726,-1.847259,-3.388237
1775575331517302346,9.102298,-1.842473,-3.397808
1775575331519463023,9.083155,-1.847259,-3.388237
1775575331521623700,9.078369,-1.828117,-3.397808
1775575331523784377,9.102298,-1.828117,-3.440879
1775575331525945054,9.078369,-1.823331,-3.421736
1775575331528105731,9.078369,-1.823331,-3.407379
1775575331530266409,9.092726,-1.804188,-3.416951
1775575331532427086,9.111869,-1.828117,-3.412165
1775575331534587763,9.126225,-1.813760,-3.412165
1775575331536748388,9.145369,-1.808974,-3.393023
1775575331538909065,9.159725,-1.804188,-3.393023
1775575331541069742,9.159725,-1.799403,-3.407379
1775575331543230419,9.183653,-1.794617,-3.397808
1775575331545391096,9.178867,-1.780260,-3.388237
1775575331547551773,9.188439,-1.785046,-3.393023
1775575331549712398,9.183653,-1.780260,-3.383451
1775575331551873075,9.198010,-1.785046,-3.388237
1775575331554033752,9.164511,-1.785046,-3.397808
1775575331556194429,9.154940,-1.785046,-3.402594
1775575331558355106,9.140582,-1.799403,-3.402594
1775575331560515784,9.116654,-1.789831,-3.407379
1775575331562676461,9.111869,-1.794617,-3.421736
1775575331564837138,9.087940,-1.789831,-3.450450
1775575331566997763,9.068798,-1.780260,-3.450450
1775575331569158492,9.030513,-1.799403,-3.436093
1775575331571319117,9.016156,-1.789831,-3.450450
1775575331573479794,9.016156,-1.813760,-3.474379
1775575331575640471,9.006584,-1.813760,-3.436093
1775575331577801148,8.992228,-1.813760,-3.412165
1775575331579961825,8.997013,-1.818545,-3.397808
1775575331582122502,9.006584,-1.847259,-3.373880
1775575331584283127,9.016156,-1.832902,-3.340380
1775575331586443804,9.054440,-1.856830,-3.306881
1775575331588604481,9.064013,-1.871187,-3.292524
1775575331590765159,9.092726,-1.890330,-3.254239
1775575331592925836,9.097511,-1.895115,-3.259024
1775575331595086513,9.097511,-1.885544,-3.259024
1775575331597247190,9.107083,-1.885544,-3.259024
1775575331599407867,9.111869,-1.885544,-3.249453
1775575331601568492,9.107083,-1.890330,-3.297310
1775575331603729221,9.121440,-1.861616,-3.297310
1775575331605889846,9.135797,-1.871187,-3.349952
1775575331608050523,9.121440,-1.871187,-3.383451
1775575331610211200,9.097511,-1.880759,-3.393023
1775575331612371877,9.040084,-2.000400,-3.641876
1775575331614532554,9.107083,-1.928615,-3.546163
1775575331616693231,9.111869,-1.875973,-3.421736
1775575331618853856,9.121440,-1.947758,-3.345166
1775575331621014534,9.126225,-1.942972,-3.273381
1775575331623175211,9.131011,-1.971686,-3.235096
1775575331625335888,9.135797,-1.990828,-3.249453
1775575331627496565,9.140582,-1.986043,-3.273381
1775575331629657242,9.154940,-1.942972,-3.282953
1775575331631817919,9.131011,-1.899901,-3.335595
1775575331633978544,9.126225,-1.866402,-3.369094
1775575331636139221,9.107083,-1.828117,-3.393023
1775575331638299898,9.097511,-1.808974,-3.416951
1775575331640460575,9.087940,-1.789831,-3.416951
1775575331642621252,9.059227,-1.785046,-3.407379
1775575331644781929,9.030513,-1.789831,-3.388237
1775575331646942606,9.040084,-1.785046,-3.383451
1775575331649103231,9.035298,-1.808974,-3.416951
1775575331651263961,9.035298,-1.823331,-3.383451
1775575331653424638,9.049655,-1.823331,-3.378666
1775575331655585315,9.059227,-1.818545,-3.383451
1775575331657745940,9.078369,-1.808974,-3.412165
1775575331659906617,9.078369,-1.832902,-3.431308
1775575331662067294,9.064013,-1.818545,-3.416951
1775575331664227971,9.083155,-1.813760,-3.440879
1775575331666388648,9.092726,-1.808974,-3.445665
1775575331668549325,9.092726,-1.808974,-3.450450
1775575331670709950,9.092726,-1.799403,-3.431308
1775575331672870627,9.102298,-1.813760,-3.431308
1775575331675031304,9.107083,-1.813760,-3.426522
1775575331677191981,9.121440,-1.813760,-3.416951
1775575331679352659,9.126225,-1.847259,-3.421736
1775575331681513336,9.140582,-1.856830,-3.402594
1775575331683674013,9.135797,-1.871187,-3.397808
1775575331685834690,9.135797,-1.866402,-3.393023
1775575331687995367,9.145369,-1.866402,-3.383451
1775575331690156044,9.150154,-1.890330,-3.359523
1775575331692316669,9.154940,-1.895115,-3.335595
1775575331694477346,9.135797,-1.885544,-3.326024
1775575331696638023,9.135797,-1.909472,-3.306881
1775575331698798700,9.140582,-1.914258,-3.292524
1775575331700959377,9.135797,-1.914258,-3.259024
1775575331703120054,9.102298,-1.895115,-3.259024
1775575331705280731,9.068798,-1.875973,-3.230311
1775575331707441409,9.068798,-1.871187,-3.259024
1775575331709602086,9.044869,-1.856830,-3.273381
1775575331711762711,9.011370,-1.828117,-3.297310
1775575331713923388,8.997013,-1.799403,-3.321238
1775575331716084065,8.968299,-1.799403,-3.340380
1775575331718244742,8.934800,-1.770689,-3.359523
1775575331720405419,8.910872,-1.785046,-3.373880
1775575331722566096,8.886943,-1.785046,-3.378666
1775575331724726773,8.901300,-1.765903,-3.402594
1775575331726887398,8.896515,-1.756332,-3.455236
1775575331729048075,8.925228,-1.785046,-3.474379
1775575331731208752,8.925228,-1.770689,-3.483950
1775575331733369429,8.949157,-1.751546,-3.493521
1775575331735530106,8.958728,-1.765903,-3.488735
1775575331737690784,8.925228,-1.852045,-3.483950
1775575331739851461,8.920443,-1.828117,-3.656233
1775575331742012138,8.963513,-1.794617,-3.570091
1775575331744172815,9.006584,-1.808974,-3.527021
1775575331746333440,9.035298,-1.847259,-3.397808
1775575331748494117,9.083155,-1.852045,-3.349952
1775575331750654794,9.145369,-1.871187,-3.311666
1775575331752815471,9.188439,-1.880759,-3.354737
1775575331754976148,9.236296,-1.885544,-3.373880
1775575331757136825,9.265009,-1.856830,-3.445665
1775575331759297502,9.279366,-1.813760,-3.455236
1775575331761458179,9.303294,-1.775474,-3.460021
1775575331763618856,9.308080,-1.741975,-3.474379
1775575331765779534,9.293723,-1.727618,-3.483950
1775575331767940159,9.269794,-1.713261,-3.488735
1775575331770100836,9.221938,-1.737189,-3.479164
1775575331772261513,9.183653,-1.746760,-3.445665
1775575331774422190,9.140582,-1.756332,-3.436093
1775575331776582867,9.102298,-1.765903,-3.460021
1775575331778743544,9.083155,-1.765903,-3.445665
1775575331780904169,9.030513,-1.785046,-3.455236
1775575331783064846,8.992228,-1.789831,-3.440879
1775575331785225523,8.963513,-1.789831,-3.421736
1775575331787386200,8.930014,-1.775474,-3.426522
1775575331789546877,8.901300,-1.770689,-3.407379
1775575331791707554,8.886943,-1.751546,-3.402594
1775575331793868231,8.853444,-1.746760,-3.364309
1775575331796028909,8.843872,-1.727618,-3.359523
1775575331798189586,8.843872,-1.722832,-3.306881
1775575331800350263,8.815159,-1.713261,-3.302095
1775575331802510940,8.800801,-1.727618,-3.263810
1775575331804671617,8.805588,-1.741975,-3.278167
1775575331806832242,8.796016,-1.756332,-3.268596
1775575331808992919,8.810373,-1.765903,-3.259024
1775575331811153596,8.829515,-1.775474,-3.263810
1775575331813314273,8.843872,-1.761117,-3.278167
1775575331815474950,8.863015,-1.789831,-3.302095
1775575331817635627,8.872586,-1.804188,-3.321238
1775575331819796304,8.915657,-1.804188,-3.316452
1775575331821956981,8.934800,-1.804188,-3.316452
1775575331824117606,8.963513,-1.813760,-3.321238
1775575331826278284,8.982656,-1.823331,-3.326024
1775575331828438961,9.016156,-1.794617,-3.335595
1775575331830599638,9.054440,-1.804188,-3.349952
1775575331832760263,9.073584,-1.808974,-3.354737
1775575331834920992,9.116654,-1.828117,-3.388237
1775575331837081669,9.131011,-1.832902,-3.388237
1775575331839242346,9.154940,-1.818545,-3.407379
1775575331841402971,9.174082,-1.842473,-3.407379
1775575331843563700,9.188439,-1.837688,-3.436093
1775575331845724325,9.207582,-1.837688,-3.436093
1775575331847885002,9.207582,-1.842473,-3.455236
1775575331850045679,9.207582,-1.875973,-3.503092
1775575331852206356,9.217153,-1.861616,-3.507878
1775575331854366981,9.198010,-1.828117,-3.483950
1775575331856527659,9.178867,-1.823331,-3.488735
1775575331858688388,9.164511,-1.818545,-3.488735
1775575331860849013,9.154940,-1.828117,-3.498307
1775575331863009690,9.131011,-1.828117,-3.517449
1775575331865170367,9.121440,-1.818545,-3.531806
1775575331867331044,9.121440,-1.837688,-3.522235
1775575331869491721,9.150154,-1.861616,-3.503092
1775575331871652398,9.150154,-1.885544,-3.512664
1775575331873813075,9.097511,-1.875973,-3.512664
1775575331875973700,9.064013,-1.852045,-3.517449
1775575331878134377,9.040084,-1.842473,-3.527021
1775575331880295054,9.006584,-1.808974,-3.517449
1775575331882455731,8.997013,-1.794617,-3.469593
1775575331884616409,8.982656,-1.780260,-3.450450
1775575331886777086,8.968299,-1.770689,-3.421736
1775575331888937763,8.973084,-1.751546,-3.397808
1775575331891098440,8.997013,-1.746760,-3.388237
1775575331893259117,8.977871,-1.737189,-3.397808
1775575331895419794,8.968299,-1.751546,-3.383451
1775575331897580471,8.977871,-1.751546,-3.373880
1775575331899741096,8.973084,-1.761117,-3.354737
1775575331901901773,8.973084,-1.756332,-3.359523
1775575331904062450,8.949157,-1.756332,-3.354737
1775575331906223127,8.944371,-1.751546,-3.359523
1775575331908383856,8.953942,-1.737189,-3.349952
1775575331910544481,8.934800,-1.756332,-3.364309
1775575331912705159,8.930014,-1.761117,-3.364309
1775575331914865836,8.930014,-1.765903,-3.369094
1775575331917026513,8.949157,-1.775474,-3.369094
1775575331919187190,8.939586,-1.780260,-3.354737
1775575331921347867,8.968299,-1.785046,-3.330809
1775575331923508492,8.987442,-1.794617,-3.335595
1775575331925669169,8.997013,-1.799403,-3.321238
1775575331927829846,9.020942,-1.808974,-3.287738
1775575331929990523,9.059227,-1.813760,-3.292524
1775575331932151200,9.097511,-1.847259,-3.297310
1775575331934311877,9.126225,-1.842473,-3.282953
1775575331936472554,9.169296,-1.861616,-3.268596
1775575331938633231,9.198010,-1.871187,-3.282953
1775575331940793909,9.226724,-1.861616,-3.306881
1775575331942954586,9.255438,-1.871187,-3.316452
1775575331945115211,9.269794,-1.866402,-3.326024
1775575331947275888,9.274581,-1.875973,-3.330809
1775575331949436565,9.298509,-1.856830,-3.364309
1775575331951597242,9.298509,-1.837688,-3.378666
1775575331953757919,9.274581,-1.837688,-3.378666
1775575331955918596,9.269794,-1.842473,-3.388237
1775575331958079273,9.265009,-1.847259,-3.397808
1775575331960239950,9.260223,-1.861616,-3.412165
1775575331962400575,9.241081,-1.852045,-3.431308
1775575331964561252,9.245867,-1.885544,-3.445665
1775575331966721929,9.226724,-1.866402,-3.474379
1775575331968882606,9.207582,-1.866402,-3.460021
1775575331971043284,9.193225,-1.861616,-3.445665
1775575331973203961,9.183653,-1.861616,-3.450450
1775575331975364638,9.174082,-1.861616,-3.474379
1775575331977525315,9.159725,-1.856830,-3.483950
1775575331979685940,9.140582,-1.852045,-3.479164
1775575331981846669,9.135797,-1.837688,-3.460021
1775575331984007294,9.111869,-1.856830,-3.450450
1775575331986167971,9.121440,-1.847259,-3.416951
1775575331988328648,9.083155,-1.852045,-3.416951
1775575331990489325,9.073584,-1.847259,-3.412165
1775575331992650002,9.068798,-1.847259,-3.388237
1775575331994810679,9.035298,-1.842473,-3.373880
1775575331996971356,9.001799,-1.852045,-3.369094
1775575331999131981,8.977871,-1.837688,-3.378666
1775575332001292711,8.930014,-1.847259,-3.383451
1775575332003453388,8.896515,-1.832902,-3.402594
1775575332005614013,8.867801,-1.828117,-3.412165
1775575332007774690,8.824730,-1.818545,-3.393023
1775575332009935367,8.805588,-1.799403,-3.397808
1775575332012096044,8.781659,-1.794617,-3.412165
1775575332014256721,8.757730,-1.794617,-3.416951
1775575332016417398,8.738588,-1.789831,-3.397808
1775575332018578075,8.729017,-1.799403,-3.402594
1775575332020738752,8.719446,-1.799403,-3.397808
1775575332022899429,8.709874,-1.808974,-3.397808
1775575332025060106,8.781659,-1.828117,-3.388237
1775575332027220731,8.772088,-1.861616,-3.373880
1775575332029381409,8.752945,-1.885544,-3.364309
1775575332031542086,8.733803,-1.861616,-3.373880
1775575332033702763,8.724232,-1.856830,-3.378666
1775575332035863440,8.733803,-1.875973,-3.364309
1775575332038024117,8.738588,-1.866402,-3.359523
1775575332040184794,8.757730,-1.828117,-3.364309
1775575332042345471,8.781659,-1.823331,-3.383451
1775575332044506096,8.834301,-1.828117,-3.407379
1775575332046666825,8.848659,-1.813760,-3.431308
1775575332048827502,8.863015,-1.813760,-3.450450
1775575332050988127,8.886943,-1.813760,-3.450450
1775575332053148804,8.925228,-1.808974,-3.421736
1775575332055309481,8.944371,-1.818545,-3.450450
1775575332057470159,8.949157,-1.813760,-3.450450
1775575332059630836,8.987442,-1.808974,-3.455236
1775575332061791513,9.001799,-1.823331,-3.464807
1775575332063952190,9.030513,-1.832902,-3.450450
1775575332066112867,9.044869,-1.832902,-3.469593
1775575332068273544,9.073584,-1.837688,-3.464807
1775575332070434221,9.092726,-1.842473,-3.464807
1775575332072594898,9.087940,-1.866402,-3.464807
1775575332074755523,9.102298,-1.871187,-3.483950
1775575332076916200,9.097511,-1.880759,-3.493521
1775575332079076877,9.107083,-1.885544,-3.445665
1775575332081237554,9.126225,-1.895115,-3.460021
1775575332083398231,9.126225,-1.904687,-3.455236
1775575332085558909,9.178867,-1.919044,-3.421736
1775575332087719586,9.154940,-1.899901,-3.426522
1775575332089880263,9.131011,-1.919044,-3.450450
1775575332092040888,9.116654,-1.899901,-3.445665
1775575332094201565,9.111869,-1.904687,-3.440879
1775575332096362242,9.121440,-1.909472,-3.450450
1775575332098522919,9.102298,-1.919044,-3.416951
1775575332100683596,9.097511,-1.890330,-3.416951
1775575332102844273,9.087940,-1.875973,-3.421736
1775575332105004950,9.059227,-1.861616,-3.450450
1775575332107165627,9.068798,-1.885544,-3.450450
1775575332109326304,9.040084,-1.866402,-3.464807
1775575332111486981,9.044869,-1.842473,-3.469593
1775575332113647659,9.059227,-1.832902,-3.436093
1775575332115808284,9.064013,-1.818545,-3.445665
1775575332117969013,9.054440,-1.804188,-3.421736
1775575332120129638,9.040084,-1.808974,-3.426522
1775575332122290315,9.006584,-1.813760,-3.445665
1775575332124450992,9.001799,-1.804188,-3.450450
1775575332126611669,9.006584,-1.794617,-3.436093
1775575332128772346,8.992228,-1.785046,-3.421736
1775575332130933023,8.977871,-1.804188,-3.402594
1775575332133093700,8.973084,-1.794617,-3.393023
1775575332135254377,8.973084,-1.818545,-3.378666
1775575332137415054,9.001799,-1.804188,-3.378666
1775575332139575731,8.992228,-1.789831,-3.354737
1775575332141736356,8.997013,-1.794617,-3.330809
1775575332143897034,8.973084,-1.832902,-3.340380
1775575332146057711,8.886943,-1.947758,-3.282953
1775575332148218388,8.997013,-1.914258,-3.230311
1775575332150379065,9.078369,-1.842473,-3.259024
1775575332152539742,9.126225,-1.785046,-3.306881
1775575332154700419,9.164511,-1.785046,-3.364309
1775575332156861096,9.198010,-1.756332,-3.359523
1775575332159021721,9.212367,-1.741975,-3.359523
1775575332161182450,9.226724,-1.737189,-3.349952
1775575332163343127,9.212367,-1.756332,-3.302095
1775575332165503804,9.207582,-1.775474,-3.282953
1775575332167664429,9.207582,-1.775474,-3.273381
1775575332169825106,9.193225,-1.799403,-3.278167
1775575332171985784,9.178867,-1.804188,-3.292524
1775575332174146461,9.193225,-1.799403,-3.287738
1775575332176307138,9.202796,-1.799403,-3.297310
1775575332178467763,9.193225,-1.789831,-3.302095
1775575332180628492,9.178867,-1.799403,-3.321238
1775575332182789169,9.183653,-1.799403,-3.321238
1775575332184949794,9.135797,-1.808974,-3.316452
1775575332187110471,9.121440,-1.804188,-3.321238
1775575332189271148,9.116654,-1.794617,-3.335595
1775575332191431825,9.087940,-1.808974,-3.326024
1775575332193592502,9.068798,-1.818545,-3.326024
1775575332195753179,9.054440,-1.813760,-3.330809
1775575332197913856,9.116654,-1.842473,-3.302095
1775575332200074534,9.078369,-1.866402,-3.302095
1775575332202235211,9.044869,-1.866402,-3.316452
1775575332204395888,9.001799,-1.866402,-3.306881
1775575332206556565,8.982656,-1.852045,-3.302095
1775575332208717242,8.968299,-1.823331,-3.302095
1775575332210877867,8.973084,-1.842473,-3.316452
1775575332213038544,8.949157,-1.828117,-3.321238
1775575332215199221,8.982656,-1.856830,-3.321238
1775575332217359898,9.006584,-1.832902,-3.302095
1775575332219520575,8.997013,-1.804188,-3.311666
1775575332221681252,8.982656,-1.785046,-3.316452
1775575332223841929,8.987442,-1.794617,-3.311666
1775575332226002606,8.997013,-1.842473,-3.311666
1775575332228163284,9.011370,-1.818545,-3.287738
1775575332230323961,8.791230,-1.923829,-3.235096
1775575332232484586,8.657232,-2.091327,-3.148955
1775575332234645263,8.867801,-2.019542,-3.120241
1775575332236805940,9.001799,-1.885544,-3.220739
1775575332238966617,9.097511,-1.785046,-3.340380
1775575332241127294,9.135797,-1.713261,-3.421736
1775575332243287971,8.958728,-1.818545,-3.426522
1775575332245448648,8.958728,-1.923829,-3.354737
1775575332247609325,9.140582,-1.899901,-3.335595
1775575332249770002,9.241081,-1.804188,-3.297310
1775575332251930679,9.226724,-1.727618,-3.369094
1775575332254091356,9.212367,-1.722832,-3.402594
1775575332256251981,9.255438,-1.655833,-3.402594
1775575332258412659,9.236296,-1.732404,-3.326024
1775575332260573336,9.126225,-1.837688,-3.292524
1775575332262734013,8.906086,-2.048256,-3.215954
1775575332264894742,9.011370,-2.033899,-3.086741
1775575332267055367,9.107083,-1.914258,-3.144169
1775575332269216044,9.174082,-1.799403,-3.192025
1775575332271376721,9.207582,-1.722832,-3.268596
1775575332273537398,9.241081,-1.651048,-3.364309
1775575332275698075,9.231510,-1.651048,-3.397808
1775575332277858700,9.193225,-1.689333,-3.407379
1775575332280019429,9.135797,-1.732404,-3.369094
1775575332282180054,9.078369,-1.765903,-3.321238
1775575332284340731,9.064013,-1.813760,-3.263810
1775575332286501461,9.044869,-1.828117,-3.259024
1775575332288662138,9.049655,-1.837688,-3.239882
1775575332290822763,9.078369,-1.828117,-3.263810
1775575332292983440,9.078369,-1.837688,-3.273381
1775575332295144117,9.083155,-1.828117,-3.287738
1775575332297304794,9.087940,-1.871187,-3.316452
1775575332299465471,9.102298,-1.856830,-3.326024
1775575332301626148,9.102298,-1.861616,-3.345166
1775575332303786825,9.097511,-1.852045,-3.340380
1775575332305947502,9.097511,-1.861616,-3.354737
1775575332308108127,9.111869,-1.852045,-3.335595
1775575332310268804,9.092726,-1.847259,-3.326024
1775575332312429481,8.714660,-2.191826,-3.225525
1775575332314590159,8.719446,-2.297110,-3.110669
1775575332316750836,8.925228,-2.187040,-3.058027
1775575332318911513,9.035298,-2.005185,-3.211168
1775575332321072190,9.044869,-1.933401,-3.268596
1775575332323232867,9.059227,-1.866402,-3.349952
1775575332325393544,9.174082,-1.818545,-3.383451
1775575332327554221,9.274581,-1.737189,-3.436093
1775575332329714898,9.346365,-1.665405,-3.426522
1775575332331875575,9.293723,-1.718047,-3.498307
1775575332334036200,9.131011,-1.756332,-3.460021
1775575332336196929,9.145369,-1.799403,-3.321238
1775575332338357554,9.188439,-1.823331,-3.268596
1775575332340518231,9.308080,-1.741975,-3.201597
1775575332342678909,9.322437,-1.674976,-3.129812
1775575332344839586,9.336794,-1.622334,-3.192025
1775575332347000263,9.327223,-1.588834,-3.282953
1775575332349160940,9.284152,-1.622334,-3.364309
1775575332351321617,9.207582,-1.665405,-3.383451
1775575332353482294,9.154940,-1.694118,-3.364309
1775575332355642971,9.064013,-1.703690,-3.330809
1775575332357803648,9.025727,-1.713261,-3.302095
1775575332359964273,8.992228,-1.722832,-3.268596
1775575332362125002,8.973084,-1.756332,-3.306881
1775575332364285627,8.958728,-1.775474,-3.345166
1775575332366446304,8.949157,-1.775474,-3.364309
1775575332368606981,8.963513,-1.785046,-3.359523
1775575332370767659,8.968299,-1.765903,-3.330809
1775575332372928336,8.973084,-1.804188,-3.340380
1775575332375089013,8.982656,-1.823331,-3.335595
1775575332377249690,8.992228,-1.847259,-3.335595
1775575332379410367,8.997013,-1.861616,-3.326024
1775575332381571044,9.011370,-1.866402,-3.282953
1775575332383731721,9.025727,-1.871187,-3.282953
1775575332385892398,9.025727,-1.880759,-3.297310
1775575332388053075,9.044869,-1.895115,-3.306881
1775575332390213700,9.064013,-1.856830,-3.292524
1775575332392374377,9.083155,-1.866402,-3.268596
1775575332394535054,9.102298,-1.856830,-3.292524
1775575332396695731,9.126225,-1.856830,-3.278167
1775575332398856409,9.126225,-1.880759,-3.268596
1775575332401017086,9.145369,-1.875973,-3.263810
1775575332403177763,9.154940,-1.875973,-3.268596
1775575332405338440,9.159725,-1.861616,-3.263810
1775575332407499117,9.169296,-1.880759,-3.249453
1775575332409659794,9.188439,-1.890330,-3.278167
1775575332411820471,9.188439,-1.885544,-3.292524
1775575332413981148,9.207582,-1.885544,-3.292524
1775575332416141773,9.221938,-1.871187,-3.268596
1775575332418302450,9.221938,-1.852045,-3.273381
1775575332420463127,9.198010,-1.866402,-3.268596
1775575332422623804,9.217153,-1.847259,-3.282953
1775575332424784481,9.217153,-1.828117,-3.297310
1775575332426945159,9.226724,-1.823331,-3.278167
1775575332429105836,9.207582,-1.823331,-3.263810
1775575332431266513,9.188439,-1.808974,-3.268596
1775575332433427190,9.183653,-1.804188,-3.282953
1775575332435587867,9.154940,-1.794617,-3.278167
1775575332437748544,8.925228,-1.942972,-3.287738
1775575332439909221,8.681161,-2.258825,-3.354737
1775575332442069898,8.901300,-2.163112,-3.249453
1775575332444230523,9.116654,-1.919044,-3.182454
1775575332446391200,9.178867,-1.732404,-3.129812
1775575332448551877,9.245867,-1.636691,-3.158526
1775575332450712554,9.064013,-1.780260,-3.321238
1775575332452873231,9.097511,-1.837688,-3.421736
1775575332455033909,9.217153,-1.761117,-3.397808
1775575332457194586,9.178867,-1.698904,-3.278167
1775575332459355263,9.154940,-1.631905,-3.172883
1775575332461515888,9.207582,-1.555335,-3.163311
1775575332463676617,9.178867,-1.574477,-3.230311
1775575332465837294,9.169296,-1.622334,-3.306881
1775575332467997971,9.135797,-1.665405,-3.311666
1775575332470158596,9.111869,-1.694118,-3.268596
1775575332472319273,9.078369,-1.741975,-3.273381
1775575332474479950,9.078369,-1.775474,-3.254239
1775575332476640679,9.054440,-1.785046,-3.263810
1775575332478801304,9.059227,-1.813760,-3.254239
1775575332480961981,9.073584,-1.804188,-3.249453
1775575332483122659,9.068798,-1.789831,-3.254239
1775575332485283336,9.073584,-1.804188,-3.263810
1775575332487444013,9.078369,-1.813760,-3.249453
1775575332489604690,9.054440,-1.799403,-3.263810
1775575332491765367,9.044869,-1.799403,-3.297310
1775575332493926044,9.064013,-1.799403,-3.268596
1775575332496086721,9.064013,-1.804188,-3.244668
1775575332498247398,9.083155,-1.804188,-3.230311
1775575332500408023,9.078369,-1.813760,-3.239882
1775575332502568700,9.078369,-1.828117,-3.278167
1775575332504729377,9.078369,-1.832902,-3.259024
1775575332506890054,9.102298,-1.828117,-3.254239
1775575332509050731,9.121440,-1.804188,-3.268596
1775575332511211409,9.145369,-1.828117,-3.268596
1775575332513372086,9.126225,-1.823331,-3.273381
1775575332515532763,9.111869,-1.832902,-3.273381
1775575332517693440,9.121440,-1.837688,-3.259024
1775575332519854117,9.102298,-1.837688,-3.230311
1775575332522014794,9.107083,-1.842473,-3.263810
1775575332524175471,8.901300,-2.043471,-3.306881
1775575332526336148,8.614161,-2.435894,-3.503092
1775575332528496825,8.848659,-2.325824,-3.383451
1775575332530657450,9.006584,-2.124826,-3.230311
1775575332532818127,9.078369,-1.952543,-3.139383
1775575332534978856,9.083155,-1.933401,-3.192025
1775575332537139481,9.159725,-1.919044,-3.220739
1775575332539300159,9.260223,-1.808974,-3.263810
1775575332541460836,9.279366,-1.698904,-3.254239
1775575332543621513,9.260223,-1.665405,-3.211168
1775575332545782190,9.245867,-1.665405,-3.201597
1775575332547942867,9.221938,-1.727618,-3.196811
1775575332550103544,9.241081,-1.670190,-3.206382
1775575332552264221,9.265009,-1.612762,-3.134598
1775575332554424898,9.293723,-1.584049,-3.091527
1775575332556585575,9.274581,-1.550549,-3.134598
1775575332558746252,9.212367,-1.679762,-3.206382
1775575332560906877,9.284152,-1.665405,-3.211168
1775575332563067554,9.298509,-1.641476,-3.153740
1775575332565228231,9.284152,-1.631905,-3.086741
1775575332567388909,9.284152,-1.646262,-3.091527
1775575332569549586,9.260223,-1.689333,-3.144169
1775575332571710263,9.250652,-1.718047,-3.168097
1775575332573870940,9.217153,-1.732404,-3.201597
1775575332576031617,9.178867,-1.746760,-3.211168
1775575332578192294,9.174082,-1.775474,-3.177669
1775575332580352971,9.183653,-1.799403,-3.168097
1775575332582513648,9.159725,-1.808974,-3.168097
1775575332584674325,9.145369,-1.813760,-3.192025
1775575332586834950,9.145369,-1.813760,-3.244668
1775575332588995679,9.131011,-1.818545,-3.254239
1775575332591156356,9.111869,-1.818545,-3.273381
1775575332593316981,9.107083,-1.823331,-3.268596
1775575332595477711,9.097511,-1.823331,-3.244668
1775575332597638336,9.078369,-1.813760,-3.249453
1775575332599799013,9.049655,-1.832902,-3.278167
1775575332601959690,9.059227,-1.823331,-3.249453
1775575332604120367,9.064013,-1.804188,-3.259024
1775575332606281044,9.049655,-1.799403,-3.268596
1775575332608441721,9.030513,-1.832902,-3.263810
1775575332610602398,9.044869,-1.794617,-3.259024
1775575332612763075,9.040084,-1.804188,-3.254239
1775575332614923752,9.025727,-1.837688,-3.239882
1775575332617084429,9.025727,-1.823331,-3.263810
1775575332619245106,9.011370,-1.794617,-3.306881
1775575332621405731,9.001799,-1.808974,-3.321238
1775575332623566409,8.958728,-1.880759,-3.311666
1775575332625727138,8.925228,-1.895115,-3.254239
1775575332627887763,8.949157,-1.871187,-3.211168
1775575332630048440,8.953942,-1.856830,-3.148955
1775575332632209117,8.963513,-1.875973,-3.177669
1775575332634369794,8.666803,-2.177469,-3.546163
1775575332636530471,8.791230,-2.196611,-3.493521
1775575332638691148,8.901300,-2.057827,-3.330809
1775575332640851825,8.910872,-1.952543,-3.081956
1775575332643012502,8.949157,-1.895115,-3.019742
1775575332645173179,9.011370,-1.852045,-3.010171
1775575332647333856,9.092726,-1.770689,-3.058027
1775575332649494534,9.126225,-1.737189,-3.067599
1775575332651655211,9.126225,-1.722832,-3.058027
1775575332653815836,9.159725,-1.670190,-3.101098
1775575332655976565,9.193225,-1.622334,-3.043670
1775575332658137190,9.226724,-1.588834,-3.000600
1775575332660297919,9.245867,-1.593620,-2.952743
1775575332662458544,9.250652,-1.579263,-2.900101
1775575332664619221,9.260223,-1.598405,-2.885744
1775575332666779898,9.236296,-1.607977,-2.981457
1775575332668940575,9.221938,-1.646262,-3.115455
1775575332671101252,9.293723,-1.617548,-3.134598
1775575332673261929,9.274581,-1.588834,-3.081956
1775575332675422606,9.241081,-1.617548,-3.010171
1775575332677583284,9.198010,-1.631905,-3.048456
1775575332679743961,9.174082,-1.631905,-3.105884
1775575332681904638,9.231510,-1.646262,-3.081956
1775575332684065315,9.231510,-1.631905,-3.134598
1775575332686225940,9.212367,-1.641476,-3.168097
1775575332688386669,9.202796,-1.665405,-3.177669
1775575332690547346,9.226724,-1.651048,-3.158526
1775575332692707971,9.231510,-1.660619,-3.091527
1775575332694868648,9.231510,-1.689333,-3.053242
1775575332697029325,9.226724,-1.698904,-3.101098
1775575332699190002,9.250652,-1.732404,-3.077170
1775575332701350679,9.274581,-1.746760,-3.105884
1775575332703511356,9.279366,-1.746760,-3.096313
1775575332705672034,9.308080,-1.756332,-3.139383
1775575332707832711,9.336794,-1.737189,-3.182454
1775575332709993388,9.370294,-1.732404,-3.163311
1775575332712154065,9.413364,-1.741975,-3.096313
1775575332714314742,9.403793,-1.775474,-3.067599
1775575332716475419,9.403793,-1.770689,-3.101098
1775575332718636096,9.375079,-1.789831,-3.129812
1775575332720796773,9.379865,-1.813760,-3.110669
1775575332722957450,9.413364,-1.808974,-3.048456
1775575332725118127,9.360723,-1.813760,-2.933601
1775575332727278752,9.379865,-1.746760,-2.914458
1775575332729439429,9.370294,-1.698904,-2.890530
1775575332731600106,9.360723,-1.679762,-2.914458
1775575332733760784,9.346365,-1.708475,-2.976671
1775575332735921461,9.317652,-1.761117,-3.014956
1775575332738082190,9.298509,-1.713261,-3.034099
1775575332740242815,9.265009,-1.718047,-3.058027
1775575332742403492,9.236296,-1.703690,-3.058027
1775575332744564169,9.221938,-1.713261,-3.034099
1775575332746724846,9.217153,-1.708475,-2.991028
1775575332748885523,9.183653,-1.689333,-2.981457
1775575332751046200,9.174082,-1.689333,-2.962314
1775575332753206877,9.131011,-1.679762,-2.971886
1775575332755367502,9.121440,-1.679762,-3.014956
1775575332757528231,9.078369,-1.665405,-3.019742
1775575332759688856,9.068798,-1.651048,-3.024528
1775575332761849586,9.068798,-1.660619,-3.000600
1775575332764010211,9.049655,-1.660619,-3.000600
1775575332766170888,9.035298,-1.651048,-2.976671
1775575332768331565,9.025727,-1.651048,-2.967100
1775575332770492242,9.020942,-1.674976,-2.981457
1775575332772652919,8.843872,-1.856830,-3.172883
1775575332774813596,8.896515,-1.880759,-3.206382
1775575332776974273,8.896515,-1.890330,-3.153740
1775575332779134950,8.944371,-1.856830,-3.019742
1775575332781295627,8.977871,-1.785046,-2.919244
1775575332783456304,9.006584,-1.789831,-2.871387
1775575332785616981,9.040084,-1.775474,-2.938386
1775575332787777659,9.073584,-1.737189,-2.957529
1775575332789938336,9.116654,-1.674976,-2.957529
1775575332792099013,9.126225,-1.722832,-2.895315
1775575332794259690,9.107083,-1.694118,-2.957529
1775575332796420367,9.150154,-1.646262,-2.938386
1775575332798581044,9.174082,-1.670190,-2.890530
1775575332800741721,9.193225,-1.655833,-2.943172
1775575332802902346,9.226724,-1.617548,-2.904887
1775575332805063075,9.245867,-1.636691,-2.938386
1775575332807223700,9.250652,-1.698904,-2.919244
1775575332809384377,9.245867,-1.708475,-2.919244
1775575332811545054,9.255438,-1.718047,-2.947958
1775575332813705731,9.274581,-1.694118,-2.962314
1775575332815866409,9.332008,-1.694118,-2.947958
1775575332818027086,9.317652,-1.713261,-2.890530
1775575332820187763,9.288938,-1.708475,-2.928815
1775575332822348440,9.274581,-1.761117,-2.971886
1775575332824509117,9.236296,-1.856830,-2.986243
1775575332826669794,9.284152,-1.818545,-2.957529
1775575332828830471,9.269794,-1.813760,-2.900101
1775575332830991148,9.288938,-1.804188,-2.833102
1775575332833151773,9.207582,-1.847259,-2.909672
1775575332835312450,9.217153,-1.847259,-2.952743
1775575332837473179,9.265009,-1.837688,-2.943172
1775575332839633804,9.274581,-1.804188,-2.809174
1775575332841794534,9.293723,-1.765903,-2.742175
1775575332843955159,9.284152,-1.741975,-2.790031
1775575332846115888,9.274581,-1.751546,-2.871387
1775575332848276513,9.255438,-1.847259,-2.914458
1775575332850437190,9.241081,-1.866402,-2.957529
1775575332852597867,9.265009,-1.799403,-2.952743
1775575332854758544,9.303294,-1.765903,-2.900101
1775575332856919221,9.293723,-1.770689,-2.857030
1775575332859079898,9.255438,-1.842473,-2.871387
1775575332861240575,9.269794,-1.837688,-2.857030
1775575332863401252,9.298509,-1.818545,-2.828316
1775575332865561929,9.293723,-1.775474,-2.857030
1775575332867722606,9.317652,-1.751546,-2.823531
1775575332869883284,9.312865,-1.756332,-2.713461
1775575332872043961,9.298509,-1.746760,-2.742175
1775575332874204638,9.336794,-1.732404,-2.799603
1775575332876365315,9.375079,-1.703690,-2.804388
1775575332878525992,9.389436,-1.655833,-2.809174
1775575332880686617,9.418150,-1.655833,-2.809174
1775575332882847294,9.413364,-1.665405,-2.813959
1775575332885008023,9.375079,-1.689333,-2.756532
1775575332887168648,9.389436,-1.684547,-2.713461
1775575332889329325,9.327223,-1.718047,-2.746960
1775575332891490002,9.336794,-1.751546,-2.775674
1775575332893650679,9.308080,-1.770689,-2.823531
1775575332895811356,9.336794,-1.804188,-2.780460
1775575332897972034,9.303294,-1.765903,-2.813959
1775575332900132711,9.279366,-1.751546,-2.833102
1775575332902293388,9.284152,-1.732404,-2.770889
1775575332904454065,9.226724,-1.789831,-2.770889
1775575332906614742,9.250652,-1.741975,-2.713461
1775575332908775419,9.269794,-1.718047,-2.723032
1775575332910936096,9.312865,-1.703690,-2.703890
1775575332913096773,9.317652,-1.713261,-2.675176
1775575332915257398,9.355937,-1.607977,-2.708675
1775575332917418127,9.322437,-1.593620,-2.790031
1775575332919578752,9.379865,-1.550549,-2.813959
1775575332921739429,9.389436,-1.540978,-2.804388
1775575332923900106,9.346365,-1.536192,-2.775674
1775575332926060836,9.346365,-1.560120,-2.780460
1775575332928221461,9.332008,-1.564906,-2.780460
1775575332930382190,9.327223,-1.588834,-2.703890
1775575332932542815,9.308080,-1.607977,-2.670390
1775575332934703492,9.308080,-1.607977,-2.646462
1775575332936864221,9.288938,-1.622334,-2.622534
1775575332939024846,9.288938,-1.651048,-2.632105
1775575332941185523,9.336794,-1.651048,-2.646462
1775575332943346200,9.341579,-1.670190,-2.636891
1775575332945506877,9.379865,-1.617548,-2.646462
1775575332947667554,9.413364,-1.593620,-2.713461
1775575332949828231,9.413364,-1.627119,-2.804388
1775575332951988909,9.413364,-1.679762,-2.947958
1775575332954149586,9.427721,-1.679762,-2.890530
1775575332956310263,9.413364,-1.694118,-2.842673
1775575332958470940,9.389436,-1.698904,-2.761317
1775575332960631617,9.360723,-1.727618,-2.713461
1775575332962792294,9.317652,-1.761117,-2.708675
1775575332964952919,9.317652,-1.785046,-2.679961
1775575332967113596,9.341579,-1.780260,-2.665604
1775575332969274273,9.322437,-1.804188,-2.617748
1775575332971434950,9.317652,-1.761117,-2.646462
1775575332973595627,9.322437,-1.674976,-2.603391
1775575332975756356,9.341579,-1.713261,-2.641676
1775575332977916981,9.346365,-1.718047,-2.656033
1775575332980077659,9.303294,-1.761117,-2.723032
1775575332982238336,9.288938,-1.751546,-2.823531
1775575332984399013,9.327223,-1.761117,-2.852245
1775575332986559690,9.298509,-1.789831,-2.861816
1775575332988720367,9.279366,-1.770689,-2.857030
1775575332990881044,9.274581,-1.761117,-2.818745
1775575332993041721,9.293723,-1.727618,-2.703890
1775575332995202398,9.293723,-1.732404,-2.651248
1775575332997363075,9.260223,-1.708475,-2.622534
1775575332999523752,9.241081,-1.756332,-2.794817
1775575333001684429,9.274581,-1.770689,-2.804388
1775575333003845106,9.284152,-1.775474,-2.756532
1775575333006005784,9.255438,-1.727618,-2.665604
1775575333008166409,9.250652,-1.732404,-2.560320
1775575333010327138,9.317652,-1.698904,-2.550749
1775575333012487815,9.346365,-1.708475,-2.545963
1775575333014648492,9.384650,-1.718047,-2.651248
1775575333016809169,9.432507,-1.684547,-2.660819
1775575333018969846,9.461221,-1.689333,-2.665604
1775575333021130471,9.485149,-1.641476,-2.665604
1775575333023291148,9.480363,-1.674976,-2.612962
1775575333025451825,9.470792,-1.679762,-2.598605
1775575333027612502,9.446864,-1.746760,-2.612962
1775575333029773179,9.432507,-1.775474,-2.646462
1775575333031933856,9.456435,-1.694118,-2.641676
1775575333034094534,9.470792,-1.703690,-2.574677
1775575333036255211,9.513863,-1.689333,-2.512464
1775575333038415888,9.528220,-1.655833,-2.502892
1775575333040576565,9.518648,-1.646262,-2.632105
1775575333042737242,9.513863,-1.631905,-2.598605
1775575333044897919,9.509077,-1.660619,-2.526821
1775575333047058596,9.470792,-1.708475,-2.589034
1775575333049219273,9.461221,-1.708475,-2.651248
1775575333051379898,9.432507,-1.732404,-2.679961
1775575333053540627,9.456435,-1.718047,-2.646462
1775575333055701304,9.408579,-1.732404,-2.708675
1775575333057861981,9.399008,-1.679762,-2.761317
1775575333060022606,9.322437,-1.737189,-2.555535
1775575333062183336,9.336794,-1.727618,-2.579463
1775575333064344013,9.308080,-1.689333,-2.589034
1775575333066504638,9.288938,-1.684547,-2.526821
1775575333068665367,9.293723,-1.636691,-2.483750
1775575333070825992,9.312865,-1.627119,-2.455036
1775575333072986669,9.332008,-1.617548,-2.450250
1775575333075147346,9.288938,-1.660619,-2.612962
1775575333077308023,9.293723,-1.598405,-2.708675
1775575333079468700,9.274581,-1.588834,-2.589034
1775575333081629377,9.265009,-1.607977,-2.541178
1775575333083790054,9.255438,-1.627119,-2.574677
1775575333085950731,9.255438,-1.718047,-2.684747
1775575333088111409,9.236296,-1.641476,-2.660819
1775575333090272086,9.226724,-1.670190,-2.646462
1775575333092432763,9.250652,-1.646262,-2.627319
1775575333094593440,9.269794,-1.622334,-2.684747
1775575333096754117,9.274581,-1.646262,-2.670390
1775575333098914794,9.265009,-1.684547,-2.723032
1775575333101075471,9.260223,-1.751546,-2.742175
1775575333103236148,9.245867,-1.765903,-2.723032
1775575333105396825,9.193225,-1.842473,-2.790031
1775575333107557502,9.193225,-1.823331,-2.828316
1775575333109718127,9.212367,-1.804188,-2.813959
1775575333111878804,9.279366,-1.713261,-2.751746
1775575333114039481,9.293723,-1.684547,-2.632105
1775575333116200159,9.365508,-1.627119,-2.493321
1775575333118360836,9.403793,-1.584049,-2.459822
1775575333120521513,9.389436,-1.612762,-2.431108
1775575333122682190,9.427721,-1.631905,-2.411965
1775575333124842867,9.446864,-1.670190,-2.344966
1775575333127003596,9.461221,-1.718047,-2.455036
1775575333129164221,9.470792,-1.727618,-2.512464
1775575333131324898,9.456435,-1.780260,-2.584249
1775575333133485627,9.422935,-1.813760,-2.608177
1775575333135646252,9.413364,-1.741975,-2.584249
1775575333137806929,9.355937,-1.765903,-2.555535
1775575333139967606,9.351151,-1.718047,-2.541178
1775575333142128284,9.365508,-1.660619,-2.526821
1775575333144288961,9.394221,-1.660619,-2.555535
1775575333146449638,9.451650,-1.679762,-2.569891
1775575333148610315,9.451650,-1.694118,-2.656033
1775575333150770992,9.446864,-1.689333,-2.656033
1775575333152931669,9.413364,-1.727618,-2.660819
1775575333155092346,9.399008,-1.770689,-2.732604
1775575333157253023,9.413364,-1.746760,-2.866601
1775575333159413700,9.375079,-1.785046,-2.890530
1775575333161574377,9.269794,-1.785046,-2.876173
1775575333163735002,9.279366,-1.698904,-2.866601
1775575333165895731,9.255438,-1.655833,-2.727818
1775575333168056409,9.288938,-1.631905,-2.608177
1775575333170217086,9.298509,-1.584049,-2.531606
1775575333172377711,9.255438,-1.584049,-2.388037
1775575333174538388,9.279366,-1.636691,-2.359323
1775575333176699117,9.288938,-1.679762,-2.483750
1775575333178859794,9.351151,-1.689333,-2.766103
1775575333181020471,9.355937,-1.770689,-2.842673
1775575333183181096,9.308080,-1.813760,-2.895315
1775575333185341825,9.308080,-1.722832,-2.986243
1775575333187502450,9.317652,-1.674976,-2.799603
1775575333189663179,9.346365,-1.636691,-2.723032
1775575333191823804,9.379865,-1.627119,-2.699104
1775575333193984481,9.365508,-1.612762,-2.622534
1775575333196145159,9.341579,-1.579263,-2.469393
1775575333198305836,9.312865,-1.598405,-2.407180
1775575333200466513,9.394221,-1.617548,-2.584249
1775575333202627190,9.389436,-1.660619,-2.598605
1775575333204787867,9.432507,-1.674976,-2.660819
1775575333206948544,9.437292,-1.641476,-2.675176
1775575333209109221,9.485149,-1.617548,-2.670390
1775575333211269898,9.509077,-1.598405,-2.569891
1775575333213430575,9.499506,-1.593620,-2.541178
1775575333215591252,9.499506,-1.555335,-2.555535
1775575333217751929,9.513863,-1.521835,-2.464607
1775575333219912606,9.528220,-1.526621,-2.498107
1775575333222073284,9.494720,-1.521835,-2.689533
1775575333224233961,9.489935,-1.464407,-2.675176
1775575333226394638,9.513863,-1.426122,-2.660819
1775575333228555315,9.499506,-1.378266,-2.646462
1775575333230715992,9.466006,-1.387837,-2.646462
1775575333232876617,9.442079,-1.325624,-2.555535
1775575333235037346,9.442079,-1.316052,-2.459822
1775575333237197971,9.403793,-1.335195,-2.579463
1775575333239358648,9.403793,-1.320838,-2.723032
1775575333241519325,9.379865,-1.306481,-2.751746
1775575333243680054,9.370294,-1.258625,-2.579463
1775575333245840679,9.303294,-1.277767,-2.483750
1775575333248001409,9.403793,-1.229911,-2.464607
1775575333250162034,9.370294,-1.220340,-2.397608
1775575333252322711,9.336794,-1.225125,-2.297110
1775575333254483388,9.399008,-1.229911,-2.411965
1775575333256644117,9.408579,-1.229911,-2.526821
1775575333258804742,9.403793,-1.215554,-2.522035
1775575333260965419,9.399008,-1.239482,-2.498107
1775575333263126148,9.351151,-1.263410,-2.565106
1775575333265286773,9.327223,-1.239482,-2.474179
1775575333267447450,9.370294,-1.229911,-2.440679
1775575333269608127,9.375079,-1.268196,-2.507678
1775575333271768804,9.365508,-1.292124,-2.565106
1775575333273929481,9.365508,-1.320838,-2.545963
1775575333276090159,9.332008,-1.320838,-2.612962
1775575333278250836,9.355937,-1.316052,-2.555535
1775575333280411513,9.293723,-1.349552,-2.478964
1775575333282572190,9.298509,-1.330409,-2.469393
1775575333284732867,9.327223,-1.363909,-2.584249
1775575333286893544,9.346365,-1.325624,-2.603391
1775575333289054221,9.355937,-1.306481,-2.560320
1775575333291214898,9.365508,-1.296910,-2.397608
1775575333293375575,9.341579,-1.335195,-2.340181
1775575333295536252,9.341579,-1.368695,-2.373680
1775575333297696929,9.308080,-1.363909,-2.636891
1775575333299857554,9.408579,-1.354338,-2.761317
1775575333302018284,9.461221,-1.344766,-2.723032
1775575333304178961,9.446864,-1.378266,-2.737389
1775575333306339638,9.408579,-1.368695,-2.703890
1775575333308500263,9.379865,-1.335195,-2.718246
1775575333310660992,9.418150,-1.330409,-2.737389
1775575333312821669,9.418150,-1.349552,-2.818745
1775575333314982294,9.360723,-1.330409,-2.938386
1775575333317142971,9.403793,-1.320838,-2.828316
1775575333319303648,9.408579,-1.335195,-2.727818
1775575333321464325,9.389436,-1.301695,-2.742175
1775575333323625002,9.370294,-1.282553,-2.804388
1775575333325785679,9.403793,-1.272982,-2.703890
1775575333327946356,9.394221,-1.263410,-2.727818
1775575333330107086,9.365508,-1.225125,-2.718246
1775575333332267711,9.365508,-1.220340,-2.718246
1775575333334428388,9.293723,-1.244268,-2.746960
1775575333336589065,9.241081,-1.215554,-2.689533
1775575333338749742,9.226724,-1.205983,-2.632105
1775575333340910419,9.236296,-1.177269,-2.598605
1775575333343071096,9.150154,-1.177269,-2.565106
1775575333345231773,9.169296,-1.148555,-2.536392
1775575333347392450,9.207582,-1.148555,-2.483750
1775575333349553127,9.164511,-1.167697,-2.459822
1775575333351713804,9.164511,-1.138984,-2.445465
1775575333353874481,9.116654,-1.158126,-2.593820
1775575333356035159,9.092726,-1.182054,-2.627319
1775575333358195836,9.116654,-1.182054,-2.593820
1775575333360356513,9.145369,-1.182054,-2.603391
1775575333362517190,9.164511,-1.182054,-2.617748
1775575333364677867,9.193225,-1.186840,-2.612962
1775575333366838544,9.198010,-1.210768,-2.646462
1775575333368999221,9.245867,-1.229911,-2.656033
1775575333371159898,9.327223,-1.205983,-2.641676
1775575333373320575,9.279366,-1.239482,-2.632105
1775575333375481252,9.293723,-1.253839,-2.632105
1775575333377641929,9.336794,-1.268196,-2.589034
1775575333379802606,9.298509,-1.268196,-2.579463
1775575333381963284,9.341579,-1.282553,-2.589034
1775575333384123961,9.399008,-1.301695,-2.579463
1775575333386284638,9.432507,-1.292124,-2.545963
