time,seconds_elapsed,z,y,x
1773521762044546800,0.292546875,0.09226385767757891,0.10514467429965733,-0.026050688451761377
1773521762054585600,0.302585693359375,0.15360592286884783,0.08177022845298051,-0.04533628951564896
1773521762064623900,0.312623779296875,0.14860007740557193,0.02627338215857744,-0.09581363171418197
1773521762074662700,0.32266259765625,0.10125029720962048,0.05406184505522251,-0.17088846331490204
1773521762084701700,0.33270166015625,0.11792612220048904,0.08370937982201576,-0.15872207857249304
1773521762094739700,0.34273974609375,0.007373159116506576,0.07428425661176442,-0.1822406090649776
1773521762104778800,0.35277880859375,0.024966098952293396,0.045376726557314395,-0.12274274696828796
1773521762114817800,0.36281787109375,0.06381517730653286,0.07804273236244917,-0.0492287988755852
1773521762124855800,0.372855712890625,0.10021101728975772,0.0785553580597043,0.03948223885835614
1773521762134894800,0.382894775390625,-0.010477554872632026,-0.05645896932482719,-0.0023879988211774617
1773521762144933600,0.39293359375,0.041244449058175085,-0.05054419232308864,-0.043680864158552137
1773521762154972000,0.402971923828125,-0.19845511842072008,0.06544073268175125,-0.12247843347629532
1773521762165010700,0.4130107421875,0.08158522727489471,0.12399170584976672,-0.14825251521007157
1773521762175049700,0.4230498046875,0.6126198569238186,0.07234072132855654,-0.3147538220824674
1773521762185087700,0.433087646484375,0.7952391083091497,0.15877221959084273,-0.4442106980029493
1773521762195126800,0.443126708984375,0.7543629080414772,0.33076632432639597,-0.4632413059590384
1773521762205165600,0.45316552734375,0.8564023098021745,0.297565480992198,-0.5452082625605166
1773521762215203800,0.463203857421875,0.8955804739803075,0.33694472070038317,-0.6408713342223316
1773521762225243000,0.473242919921875,0.6327683264613151,0.1325698568418622,-0.3566840249150991
1773521762235281700,0.48328173828125,0.9718687638908624,-0.16097645163685081,-0.06243913971297443
1773521762245320000,0.49331982421875,0.5973936462193727,0.15975684671401977,-0.2434675417102873
1773521762255358700,0.503358642578125,0.9257599236667156,0.0703854956075549,-0.6557155598718672
1773521762265397800,0.513397705078125,1.908622959780693,-0.949254488761723,-0.7323191262766718
1773521762275435800,0.523435791015625,2.314850475543737,-1.328621177867055,-0.7180527735803276
1773521762285474800,0.533474853515625,2.9058430225491523,-1.3483701266929506,-0.7609208052523434
1773521762295513600,0.543513671875,2.9509418089479205,-1.4104130336299538,-0.9328275970306247
1773521762305552000,0.5535517578125,3.3959798246204853,-1.4931453851133585,-1.1236574082046746
1773521762315590700,0.563590576171875,3.678541213226318,-1.6082444671943783,-1.521983064801991
1773521762325629700,0.573629638671875,3.18800401366055,-1.3927294929012655,-2.2181500967234373
1773521762335668000,0.58366796875,2.6058190424889323,-0.7980041891083121,-2.457853463594615
1773521762345706800,0.593706787109375,2.572515907824039,-0.3242845610916614,-1.8030518767625092
1773521762355745800,0.603745849609375,3.1174814476698636,0.6416191569149494,-1.2223965993762016
1773521762365783800,0.61378369140625,-0.9556336684048176,2.960506340628862,0.5136424730822443
1773521762375822800,0.62382275390625,-6.250725697138905,7.272709029763937,2.5677994006961584
1773521762385861600,0.633861572265625,-2.299490409326553,5.417043753188848,1.1279010371237992
1773521762395899600,0.643899658203125,-2.1938222956746816,3.747132226632535,0.14220160854011774
1773521762405938700,0.653938720703125,-2.456356210774183,4.301497170725464,-0.5006675484359264
1773521762415977700,0.663977783203125,-1.0487883374422788,2.671398891380429,-0.9831073662638664
1773521762426015700,0.674015625,0.3135159143179655,0.7633306428730487,-1.0150000496089457
1773521762436054800,0.6840546875,1.6373527805179358,1.0410662187576294,-0.7392635385870933
1773521762446093800,0.69409375,1.1631506296813487,1.815643062788248,-1.1212298887968062
1773521762456131600,0.704131591796875,-1.6308108115285633,1.9179414077460766,-0.7955249395132065
1773521762466171000,0.7141708984375,-2.03061852337718,2.1286428442776204,0.3336521088957786
1773521762476209700,0.724209716796875,-2.652935598450899,1.8483369795136153,1.6088795502275228
1773521762486247700,0.73424755859375,-1.0544769044727087,0.7187745850488543,2.0478706869512795
1773521762496286700,0.74428662109375,-0.11752280209660529,-0.5242296258091926,1.0967647251039743
1773521762506325800,0.75432568359375,-1.4625287130534648,-0.8085622618712485,-1.5406927337080238
1773521762516363500,0.764363525390625,-3.175758280071616,-1.3147139408066868,-3.2307027531802652
1773521762526402800,0.77440283203125,-1.4761024803757667,-1.405570123643428,-5.214989148971438
1773521762536441900,0.78444189453125,0.5407897154659033,0.5462802757062017,-5.940276184654236
1773521762546479600,0.794479736328125,1.8633663524717092,2.7692604229345914,-4.95244880413115
1773521762556519000,0.804518798828125,1.6099275979757308,3.1371129075959323,-5.096846753671765
1773521762566557700,0.8145576171875,-0.12261807940900325,2.8540453230336307,-5.504736649689078
1773521762576595700,0.824595703125,1.6706716972738505,3.0448861670583485,-3.3012977998852726
1773521762586634800,0.834634765625,1.5761661981493233,3.745608670327067,-3.1813007166296243
1773521762596673800,0.844673828125,-0.056141573938727374,4.556646528531611,-5.710279680544137
1773521762606711600,0.854711669921875,0.044484453892707825,5.493219814896583,-5.706376243364811
1773521762616750600,0.86475048828125,0.7985808199524879,6.581882482087612,-7.143993802523613
1773521762626790000,0.874789794921875,1.6141969458580017,8.305033723661303,-8.304961242946982
1773521762636828700,0.88482861328125,2.7606623981982468,9.695270522964,-8.693468977624178
1773521762646866700,0.89486669921875,3.3353251571714875,10.460431888395547,-8.369398351544142
1773521762656905700,0.90490576171875,3.7993496128648516,11.012257961660623,-7.654919125601649
1773521762666944800,0.91494482421875,4.024752943965792,10.789567981171608,-6.307206293773651
1773521762676982500,0.924982421875,4.066057014256716,9.923430459296704,-4.319064391598105
1773521762687021800,0.935021728515625,4.104426784661412,8.847545440614223,-2.3090958575397726
1773521762697060900,0.945060791015625,4.105727345865964,7.921581518808007,-0.16516016706228256
1773521762707098600,0.9550986328125,4.039944667878747,7.419104875123501,1.6181220103472471
1773521762717138000,0.965137939453125,3.8707606521278617,7.140410683339834,2.850133410286903
1773521762727176700,0.9751767578125,3.699159053841233,6.961684932261705,4.02537312169075
1773521762737214700,0.985214599609375,3.4274656807303425,7.360497787854075,5.1529152623742815
1773521762747253800,0.995253662109375,3.2293858253628014,7.834038259911536,6.0440481092959635
1773521762757292800,1.005292724609375,2.790710914981365,8.001448251727222,7.44174749956429
1773521762767330600,1.01533056640625,1.7609581173986195,7.366073542159795,9.353149276408553
1773521762777369900,1.025369873046875,0.10969371590614319,5.789587610536813,11.231316892170906
1773521762787409000,1.035408935546875,-1.4014040900051592,3.756000300481915,12.446187187695502
1773521762797446700,1.04544677734375,-2.5767396629989148,2.158970178002119,12.752904527914524
1773521762807485700,1.055485595703125,-3.3972020598918196,1.4869570518672466,12.474728222525119
1773521762817524700,1.065524658203125,-4.383562290471792,1.1911655948102473,12.33419746980667
1773521762827562800,1.075562744140625,-4.931399586361646,0.7559598218441009,12.410272993749379
1773521762837601500,1.0856015625,-4.812738135623932,0.10010404978394508,12.377358566141128
1773521762847640800,1.095640869140625,-4.967887196281552,-0.8646101661771536,12.321044558244942
1773521762857678600,1.1056787109375,-5.1110553117662665,-2.098032601958513,12.150136202919482
1773521762867717600,1.115717529296875,-5.140838455611467,-3.2806542403072116,11.822708083105086
1773521762877757000,1.1257568359375,-4.886675186233222,-4.158020427682995,11.236036321908236
1773521762887794700,1.135794677734375,-4.533796691080927,-4.694545471441746,10.514763198041916
1773521762897833700,1.145833740234375,-4.074372422659397,-5.0594560574322935,9.542929505464434
1773521762907872800,1.155872802734375,-3.661568451115489,-5.465252196040749,8.478312899771332
1773521762917910800,1.165910888671875,-3.3950372830733655,-6.0733928617238995,7.408209971621632
1773521762927949600,1.175949462890625,-3.054784460738301,-6.433036320966481,6.16102847507894
1773521762937988000,1.185988037109375,-2.690137494120002,-6.371534096777439,5.183146149986982
1773521762948026000,1.196026123046875,-2.2842937169775364,-6.238470026677846,4.280672409361601
1773521762958065200,1.206065185546875,-1.7754282490387558,-6.090467330643534,3.3403421085506677
1773521762968104200,1.216104248046875,-1.398482065078616,-5.909652498331666,2.6002386120080945
1773521762978143200,1.226143310546875,-1.1932175589039922,-5.4901054822683335,1.9053116432756185
1773521762988181000,1.236180908203125,-0.9967895623967051,-4.788901917484402,1.247627486744523
1773521762998220300,1.24622021484375,-0.8211082935810089,-4.137065317937732,0.8586270001143217
1773521763008259000,1.256259033203125,-0.7117968549907208,-3.7784102852106094,0.6987883203357458
1773521763018297000,1.266297119140625,-0.8246955044180154,-3.445859415555,0.5694517463266849
1773521763028336000,1.276336181640625,-1.0009452207714318,-2.873088169416785,0.4950684132546186
1773521763038375200,1.286375244140625,-0.9904404856309295,-2.347137711164355,0.652946022093296
1773521763048413000,1.296412841796875,-1.032398635916412,-2.0505641638189553,0.8965501957952976
1773521763058452200,1.3064521484375,-1.0835504387438297,-1.717497161334753,1.1638152310699224
1773521763068491300,1.3164912109375,-1.09023590785712,-1.2891829014480114,1.580169004049897
1773521763078529000,1.326529052734375,-0.8175941479802131,-0.841662421309948,1.8350509430915116
1773521763088568300,1.336568359375,-0.7946279906734823,-0.3335363735616207,2.113413710963726
1773521763098607000,1.346607177734375,-1.443283329835534,0.350703196939826,2.4705869807004928
1773521763108645000,1.35664501953125,-1.5303177624270319,0.9780570971369743,2.5772370911270377
1773521763118684200,1.36668408203125,-1.205828910934925,1.0474831000626086,2.217988184159994
1773521763128723200,1.37672314453125,-1.400578452835977,0.5492430710345506,1.5797621768146752
1773521763138761000,1.386760986328125,-1.1020669231653213,0.4477998816013336,0.7752350156784057
1773521763148800300,1.39680029296875,-0.5313952796548604,0.4951940854609012,0.11225859795808792
1773521763158839300,1.40683935546875,-0.4489396992862224,0.0641927784472704,-0.08277823645174504
1773521763168877000,1.416876953125,-0.33247283598333593,-0.18551614187061785,-0.15853285787701607
1773521763178916000,1.426916015625,0.005344868159294128,0.22131460048258303,-0.020123335096240043
1773521763188955100,1.436955078125,0.14399872108995915,0.8628887492120265,0.3690764734983444
1773521763198993200,1.4469931640625,0.3651075698673725,1.5215537334740161,0.8922025219798088
1773521763209032000,1.457031982421875,0.7772726589858532,2.25225577994287,1.173469194599986
1773521763219071200,1.4670712890625,0.9840832255586981,2.5244635323166844,1.0606745900690555
1773521763229109000,1.47710888671875,1.0695008706033229,2.2056354830652474,0.6967360639810561
1773521763239148000,1.48714794921875,0.9871420286074281,1.6120938360989092,0.2046510504513979
1773521763249187300,1.497187255859375,0.6764037623092531,1.3013701828479767,-0.3202034292578697
1773521763259226000,1.50722607421875,0.1974526633799076,1.7454525052309036,-0.6615203736931086
1773521763269264100,1.51726416015625,-0.6964470179066061,2.3001035727888346,-0.9306360052704811
1773521763279303200,1.52730322265625,-1.6926242936238645,2.247222461950779,-0.8854676607668399
1773521763289342200,1.53734228515625,-2.328935114997625,1.734742895168066,-0.5144464829415083
1773521763299380000,1.5473798828125,-2.3839126135930417,1.5364134489536285,0.09022796793580054
1773521763309419300,1.557419189453125,-2.095841813915968,1.6717127307593822,0.32374738547503945
1773521763319458300,1.567458251953125,-1.911480102777481,1.7640104907065628,0.5184036961346864
1773521763329496000,1.57749609375,-1.6133020428448914,1.4676882877737283,1.0127706831216812
1773521763339535400,1.587535400390625,-1.4243538806989788,1.147756076672673,0.903020853114128
1773521763349574100,1.59757421875,-1.595519717916846,0.9765987150222063,0.7160381458222865
1773521763359612200,1.607612060546875,-1.8089219378396868,0.40540684702992436,0.41357261782884597
1773521763369651200,1.617651123046875,-2.245110876624286,-0.2772352251470089,0.1313081663429737
1773521763379690200,1.627690185546875,-2.6256863569974898,-0.7238292380899191,0.045940497919917105
1773521763389728000,1.63772802734375,-2.8565502915918826,-1.0299515350252388,0.13122341066896914
1773521763399767000,1.64776708984375,-2.7757413093864916,-1.268276891541481,0.3286386646479368
1773521763409806300,1.657806396484375,-2.5904005240827797,-1.2692600573599337,0.500811925342679
1773521763419844000,1.667843994140625,-2.353333643195033,-1.1574316675126552,0.8601566938996315
1773521763429883100,1.677883056640625,-2.095098594333231,-1.5832991187691687,1.77701493370831
1773521763439922200,1.687922119140625,-1.7657900675997138,-2.253006306049228,2.821504697173834
1773521763449960200,1.697960205078125,-1.33444886110723,-2.7031238169431684,3.5982431031525133
1773521763459999000,1.7079990234375,-1.2325158423304556,-3.284766351801157,4.271600629633665
1773521763470038300,1.718038330078125,-1.6810224108964205,-4.045335128745436,4.908741764351725
1773521763480076000,1.728075927734375,-1.4912152938336134,-4.63608802177608,5.537494425430894
1773521763490115000,1.738114990234375,-0.5292553450167179,-4.852416650539636,6.135719261777401
1773521763500154400,1.748154296875,0.5945622221857308,-4.473613148275017,6.720770728296041
1773521763510193200,1.758193115234375,1.5058493838638067,-3.668202190041542,7.270737437430023
1773521763520231200,1.768231201171875,2.2101193504810333,-2.9664199485868212,7.976658678385615
1773521763530270200,1.778270263671875,3.0005840839952227,-2.5947616419017314,8.444229428383707
1773521763540309200,1.788309326171875,3.3904251131027934,-2.1915566888302562,8.664305426982045
1773521763550347000,1.798346923828125,3.672517130631208,-1.3546134049966931,8.595939746764302
1773521763560386300,1.80838623046875,3.903761004453897,-0.9973200160115957,8.409798750993609
1773521763570425300,1.81842529296875,3.690466044297814,-0.9938123001515865,8.161949194806814
1773521763580463000,1.828463134765625,3.3171412657052275,-0.6173880942389368,7.693838346582651
1773521763590502100,1.838502197265625,2.7912539358168837,-0.1526686420187354,6.8061722989887
1773521763600541200,1.848541259765625,2.215630807378888,0.33305414300262925,5.871015601423382
1773521763610579200,1.8585791015625,1.637147028812766,0.9487477082833647,5.078624868282676
1773521763620618000,1.868617919921875,1.2217092016339302,1.789963847130537,4.471604731062055
1773521763630657300,1.8786572265625,0.8989023118793964,2.3637936624109743,3.8965386519849297
1773521763640695000,1.888695068359375,0.6950988181680441,2.464284373424947,3.3226784415662287
1773521763650734000,1.898734130859375,0.6557657556891441,2.6665584656119345,2.853846877852082
1773521763660773000,1.908773193359375,0.6318243236094713,2.960126109139621,2.4323487277209757
1773521763670811100,1.91881103515625,0.2926069818019867,3.222463332623243,2.0374702889680862
1773521763680850200,1.92885009765625,0.16146072802245615,3.6527398324936624,1.4181348600536583
1773521763690889200,1.93888916015625,-0.12250935833752155,3.7566204782068726,0.8046487416893243
1773521763700927200,1.94892724609375,-0.16477730522453785,3.8723131422668695,0.39525428632795806
1773521763710966000,1.958966064453125,-0.007470774272084236,4.227745998077094,0.12944237247109414
1773521763721005300,1.96900537109375,-0.3462847959756851,4.465575095508992,-0.27743103998005386
1773521763731043000,1.97904296875,-0.2443167058855295,4.855671852943301,-0.948898222669959
1773521763741082000,1.98908203125,0.35816929503679273,5.3605841993421315,-1.47950907394886
1773521763751121200,1.99912109375,0.7473200037926435,5.412686727023124,-1.8196517139077186
1773521763761160200,2.00916015625,1.0687111815303563,5.050889889138936,-2.100795052409172
1773521763771198200,2.0191982421875,0.8893295968919992,4.934164959421754,-2.7029157271504403
1773521763781237200,2.0292373046875,0.7486115049079061,5.266193851029873,-3.0891596085488793
1773521763791276300,2.0392763671875,0.7115466796219349,5.584314044272899,-3.2510604815542696
1773521763801314000,2.04931396484375,0.09250643426179886,5.025864168953896,-3.602751520487666
1773521763811353000,2.05935302734375,0.3943663975775242,3.66246160056293,-4.101380841094255
1773521763821392100,2.06939208984375,0.7158569440364837,3.092489045232534,-4.713908928081393
1773521763831430100,2.07943017578125,0.32100363972485063,3.3891938177421688,-4.6682267888367175
1773521763841469000,2.089468994140625,-10.870830552363396,3.1910318370491266,-4.011780065146088
1773521763851508200,2.09950830078125,0.8658230490982533,2.0474287884026765,-3.861328806915879
1773521763861546000,2.1095458984375,3.6462843727439638,1.6942352359518407,-2.4165344879955053
1773521763871585000,2.1195849609375,-0.18437340157628057,2.026028272977471,-2.101340995854139
1773521763881624300,2.129624267578125,1.3796879327595233,2.567493695747852,-1.218475626540184
1773521763891662000,2.139662109375,5.248645334857702,2.816545028939843,0.46027650133669373
1773521763901701000,2.149701171875,4.618994263634085,3.39003991317749,1.5832783682420848
1773521763911740200,2.159740234375,-0.8325631690531968,4.347280432257056,1.974312114265561
1773521763921778200,2.169778076171875,-3.8013673824280496,4.031955714951455,2.2129741553902624
1773521763931821600,2.179821533203125,11.175275271475314,5.645715146175027,-1.2879679727002977
1773521763941860600,2.189860595703125,6.450877682605386,5.600244603854417,-3.780268188036978
1773521763951898600,2.199898681640625,-1.6416022546559572,5.54432573275566,-2.0146245431706307
1773521763961937700,2.209937744140625,0.6098012923717498,5.133669879156351,-0.9630734630167483
1773521763971976400,2.2199765625,2.3756156176298857,5.38615644749403,-0.7186565116271376
1773521763982015500,2.230015380859375,3.2310826924085614,4.257991206476092,-2.073443227364123
1773521763992053500,2.240053466796875,0.894801890823245,2.3454198013305665,-2.677132466596365
1773521764002092500,2.250092529296875,-2.3879303248018027,1.5466840830773114,-1.8925028689764438
1773521764012131600,2.260131591796875,-3.2338258536368607,0.9970394455045462,-1.4971334318362175
1773521764022169600,2.270169677734375,-1.5983692621290684,1.1061454246506095,-0.3937488502010703
1773521764032208600,2.280208740234375,-2.2182558951854703,1.5094658207952976,0.3421391475383192
1773521764042247400,2.290247314453125,-3.168152481243014,1.2749741972230375,0.8361132627502084
1773521764052285700,2.30028564453125,-3.0630957774877547,0.7683358307491988,1.1951544452507048
1773521764062324500,2.310324462890625,-1.7353759323745965,0.524491783876717,1.2436119674928485
1773521764072363500,2.320363525390625,1.0099059413403273,1.3460359846569596,1.1535893128708004
1773521764082401500,2.330401611328125,3.250273130568862,2.629991945236921,0.561113578102924
1773521764092440600,2.340440673828125,3.412375079104304,2.1357272495806217,0.26067961073601614
1773521764102479600,2.350479736328125,4.032562740933895,0.4659434410572052,1.195013502410054
1773521764112517600,2.360517578125,4.511906930834055,-1.3255851711720228,2.007534877170622
1773521764122556700,2.370556640625,4.0240328129976985,-3.080936262343824,1.7296267211981116
1773521764132595500,2.380595458984375,3.559561782580614,-4.213972908790409,0.7776892769627273
1773521764142633700,2.3906337890625,2.8545383672475815,-3.2024753143444658,-0.1187015635523945
1773521764152672500,2.400672607421875,2.517940852549672,-2.812408367526531,-0.4546014513749629
1773521764162711600,2.410711669921875,2.0811428419560194,-2.74493466771245,-0.7835650371283293
1773521764172750600,2.42075048828125,1.3787515286922454,-2.8674998478904365,0.072481591103971
1773521764182788600,2.43078857421875,1.654208053728938,-2.2291944916985926,1.6453277049198747
1773521764192827600,2.44082763671875,1.6778128012001514,-0.17202570545021442,2.7388217377901074
1773521764202866400,2.450866455078125,2.01256556481421,1.4845163807168602,2.7370670030772684
1773521764212904700,2.46090478515625,2.982720510524511,1.9962005593381822,2.3625571063533424
1773521764222943500,2.470943603515625,4.646418861654401,1.715314118207246,1.9880403414972125
1773521764232982500,2.480982421875,5.064038124525546,1.4424030398696661,1.242862172038853
1773521764243020500,2.4910205078125,4.067662695887685,1.1254415151424706,1.737871402452141
1773521764253059600,2.5010595703125,3.491020161274075,1.1813591441322118,3.1300621123015877
1773521764263098600,2.5110986328125,3.8350703300654887,2.210842988580465,2.9851921613350507
1773521764273136600,2.52113671875,4.588469946032762,3.224498345582187,2.597621122986078
1773521764283175700,2.53117578125,5.390640899431705,4.076434615886211,1.285783614398539
1773521764293214500,2.54121435546875,5.886732225993275,4.7237633826196195,-0.23845102872252463
1773521764303252700,2.551252685546875,6.4949763520509,6.082113343796133,-1.1749074107095598
1773521764313291500,2.56129150390625,7.1977470200210805,6.529324611854553,-1.717648260243237
1773521764323330600,2.57133056640625,7.300597153642773,6.026500177645683,-1.7883172489672898
1773521764333368600,2.58136865234375,6.90158439156413,5.721538156661391,-1.9789713382482528
1773521764343407600,2.59140771484375,6.195497146391868,6.211417184579372,-2.3915368248611686
1773521764353446700,2.60144677734375,4.647584982824325,6.929976957833767,-2.2093062805324792
1773521764363484700,2.611484619140625,3.2887703267455097,7.430120774656534,-1.7667583281099795
1773521764373523700,2.621523681640625,2.366494738063216,7.922895524016022,-1.4449001173824072
1773521764383562500,2.6315625,1.5325789853572844,8.007956902968884,-0.8565642223656177
1773521764393600800,2.641600830078125,0.4504430895864963,7.542448346197605,0.36406536733806133
1773521764403639600,2.6516396484375,-1.3294272335529327,6.740774236404896,2.36076174736917
1773521764413678600,2.6616787109375,-3.567269872739911,5.5699593557059766,4.403322052952647
1773521764423717400,2.67171728515625,-5.624049842333793,4.236159606157243,6.322887262508273
1773521764433755600,2.681755615234375,-6.984080888465046,2.6422134211674333,7.818983314120769
1773521764443794700,2.691794677734375,-7.7896461604774,1.5202081640839575,9.357361925667524
1773521764453833500,2.70183349609375,-7.68899032202959,0.38893852730989453,10.390682060343027
1773521764463871700,2.711871826171875,-6.685695907783508,-1.3328957864463329,11.160673914670944
1773521764473910500,2.72191064453125,-5.577684981521964,-3.4892928990900516,11.994681437313556
1773521764483949600,2.731949462890625,-4.577995313769579,-5.053229730263352,13.07716220099926
1773521764493987600,2.741987548828125,-3.7712516456276175,-5.696375658354163,13.605546608400344
1773521764504026600,2.752026611328125,-2.5438024390369653,-6.484048715323209,13.635916027700901
1773521764514065400,2.7620654296875,-1.3525316302865742,-7.428893278688192,13.767178601336479
1773521764524103700,2.772103759765625,0.19618381248787045,-7.85930363407135,13.92012459899187
1773521764534142700,2.782142822265625,1.4052246712066232,-7.192735329338908,13.455937061691284
1773521764544181500,2.792181396484375,2.4255444545336067,-6.123007079720497,12.446830161774157
1773521764554219800,2.8022197265625,3.3039234722137447,-5.413572277686,11.127903279447555
1773521764564258600,2.812258544921875,3.9045501090049743,-4.900028881064057,9.969528193604946
1773521764574297600,2.822297607421875,5.23229333499372,-4.455402953323722,8.792671694654226
1773521764584335600,2.832335693359375,6.5088698528468605,-4.04236341945827,7.640437011262774
1773521764594374700,2.842374755859375,7.488902633970976,-3.3931402172803877,6.435571976923942
1773521764604413400,2.852413330078125,8.693336875677108,-1.7845242864251136,5.468288202735781
1773521764614451700,2.86245166015625,9.164999278903007,0.3229173643916845,3.8840778143405914
1773521764624490500,2.872490478515625,9.293248057675362,2.4661153882443902,1.197947217774391
1773521764634529500,2.882529541015625,9.37176863668263,4.352918730404973,-1.0438760154813527
1773521764644567800,2.89256787109375,9.119435797601938,5.781589012998342,-2.80478269495368
1773521764654606600,2.902606689453125,8.652477626544236,6.80371029278934,-3.785878136873245
1773521764664645600,2.912645751953125,7.186773206064105,7.079129408425092,-3.1649779428601263
1773521764674683600,2.92268359375,4.6788013743430374,6.007998890793323,-2.5676778201431034
1773521764684722700,2.93272265625,2.399559387797117,4.352538206654787,-1.7986153556197881
1773521764694761500,2.942761474609375,0.4181839110165834,2.8422271672070023,-1.1282026504188776
1773521764704799700,2.9527998046875,-0.44247649462148547,1.3409791396588087,-0.6026023207783698
1773521764714838500,2.962838623046875,-0.3880821296762675,0.21145196263790128,0.4606599476963281
1773521764724877600,2.972877685546875,-1.1007955149900168,-0.9659621701955795,1.7854887475430965
1773521764734915600,2.98291552734375,-2.2519793010890483,-2.5161498774796724,2.3444068248957395
1773521764744954600,2.99295458984375,-3.690149817955494,-4.276066376870871,3.0347949811547994
1773521764754993700,3.00299365234375,-4.789151508331298,-7.1625558796524995,6.148083068788051
1773521764765031700,3.01303173828125,-4.229240328288078,-7.121328381729126,4.381009098857641
1773521764775070700,3.02307080078125,-3.396924996516108,-2.8773437810346483,-0.19526245985925197
1773521764785109500,3.033109619140625,-1.6776906361252069,-1.808552520005405,1.825003596329689
1773521764795147800,3.043147705078125,-1.8763275408536195,-0.9764721660330891,0.2087368584603071
1773521764805186600,3.0531865234375,-2.969188828778267,-1.553421282377839,-0.1354600253254175
1773521764815225600,3.0632255859375,-1.3645160825908182,-2.4506477699995037,1.4555454300373791
1773521764825263600,3.073263671875,-0.03831950152218341,-0.6995248179167509,-1.2467764228731393
1773521764835302700,3.083302734375,1.3611976056925952,-1.0448179725065827,-1.4253858540952205
1773521764845341700,3.093341796875,2.8525083227246997,-1.6994187760695814,-0.30987375842332837
1773521764855380500,3.10338037109375,3.34406726655364,0.4568211001858115,-2.087404240438342
1773521764865418800,3.113418701171875,1.8780507113844156,2.760956120447814,-1.6343272952169179
1773521764875457500,3.12345751953125,-0.44364436935707924,2.8754826633378863,-1.1867688211560248
1773521764885496600,3.13349658203125,-1.22618547026515,2.2888564948484302,-1.8268191213190554
1773521764895534600,3.14353466796875,0.1529009894698858,3.6345655856385823,-2.3097078519582745
1773521764905573600,3.15357373046875,1.9226848028808832,4.758806346689164,-3.506233512496948
1773521764915612700,3.16361279296875,2.2146119857251643,4.2466976590454575,-4.527492037978768
1773521764925650700,3.173650634765625,1.3379261818289756,4.015669181539118,-4.110420472118259
1773521764935689200,3.183689208984375,0.08397256080284714,4.813564357315004,-3.3497938275068995
1773521764945728300,3.193728271484375,-0.9644079264909028,5.547841047400236,-2.7448540036916733
1773521764955766300,3.203766357421875,-1.6104478224575518,5.1118829947620625,-2.1708084998339414
1773521764965805300,3.213805419921875,-0.8151618062667548,2.621780289469659,-1.9203484688878059
1773521764975844000,3.223843994140625,0.04289338530898094,0.8799734472647309,-2.0285499004095793
1773521764985882400,3.23388232421875,0.39053368754684925,0.4447507231637835,-1.378043672683835
1773521764995921200,3.243921142578125,0.10772446165978908,0.42086774327307935,-0.7820043636828661
1773521765005960200,3.253960205078125,-0.6637818888843059,0.7888403471827506,-0.5651894127070903
1773521765015998200,3.263998291015625,-1.3308558050513266,1.1104366921037434,-0.7831412587583064
1773521765026037200,3.274037353515625,-1.3845821345418692,1.0694511862426996,-0.9266489814609289
1773521765036076300,3.284076171875,-1.3374664553627371,1.2099980133131145,-1.0343068076252937
1773521765046114300,3.2941142578125,-1.6900962364509702,1.750313973787427,-1.3739625408500433
1773521765056153300,3.3041533203125,-1.2943781320035457,2.0609142929196356,-1.5946774218738078
1773521765066192100,3.314192138671875,-1.078900567111373,2.5211367259815334,-1.7233394576221703
1773521765076230400,3.32423046875,-1.0192676439255475,2.667111715580523,-1.7146107922434806
1773521765086269200,3.334269287109375,-0.374019482858479,2.3193182686075566,-1.4052847308307885
1773521765096308200,3.34430810546875,0.011633446909487246,2.38601426204741,-1.0927806239038704
1773521765106346200,3.35434619140625,-0.019939795222878455,2.3328102028653026,-0.5196966585546732
1773521765116385300,3.36438525390625,-0.36520109336972234,2.1971444258347153,-0.32277941722571846
1773521765126424300,3.37442431640625,-0.45853053445219993,1.8926371628805994,-0.27476152850985525
1773521765136462300,3.38446240234375,1.077035357761383,0.721386228851974,0.700654698729515
1773521765146501400,3.39450146484375,0.8042544816747307,0.5858274193271994,1.1601391729056834
1773521765156540200,3.4045400390625,0.6481283926784992,-0.08752747680544852,1.5712404321849345
1773521765166578200,3.414578125,0.3887497267395258,-0.6763485249906778,2.6138427744686603
1773521765176617200,3.4246171875,0.09509937336444854,-1.214890753790736,3.335145708951354
1773521765186656300,3.43465625,-0.22812106562703846,-1.4988333676218986,2.8060364944070577
1773521765196694000,3.444694091796875,0.5409919600397348,-3.1053999647319315,1.9982219821631908
1773521765206733300,3.4547333984375,1.252131227904558,-5.465169193932414,3.050017684727907
1773521765216772400,3.4647724609375,0.20486878485530613,-5.19383647082746,3.7539053740292787
1773521765226810000,3.47481005859375,-0.2537126030012965,-4.694266654500365,3.711593003478646
1773521765236849400,3.484849365234375,-0.17204203553050756,-4.597168800795078,3.8821822098523375
1773521765246888200,3.49488818359375,-0.23901626138985155,-3.784609724372625,3.355878115856647
1773521765256926200,3.50492626953125,0.3297290902331471,-2.4595477002918718,2.605906136250496
1773521765266965200,3.51496533203125,0.5426335897669196,-1.4998112727433441,1.7714824340224264
1773521765277004300,3.52500439453125,0.7383569451361894,-0.834433639100194,0.9300871392160653
1773521765287042000,3.5350419921875,1.7013205180376767,-0.7686965538203716,0.7673246809452772
1773521765297081300,3.545081298828125,2.0736469332426783,-1.041143375647068,0.35232232257425783
1773521765307120400,3.555120361328125,2.730415143972635,-0.5598240862816571,-0.4116793514281511
1773521765317158100,3.565158203125,2.4578140083670617,1.169780276954174,-0.8343518060356379
1773521765327197400,3.575197509765625,0.5382306786328553,3.994315135604143,-1.3903262311518192
1773521765337236200,3.585236328125,-1.0681976790502667,6.161097448661923,-1.4151625662446021
1773521765347274200,3.595274169921875,-1.4934721328496932,4.991103236696124,-0.4474854088246822
1773521765357313300,3.605313232421875,-0.32707769894152877,1.965384126922488,-0.4591448669582605
1773521765367352300,3.615352294921875,1.0035796609282492,-0.06928513315021992,-0.5737649333506822
1773521765377390000,3.62539013671875,1.5745137547671795,-0.6944353858232498,-0.132236387103796
1773521765387429000,3.63542919921875,0.2799693262860179,0.31496377503871914,0.5168085358977318
1773521765397468400,3.645468505859375,-3.0964053418934343,3.315807386752963,0.5719727892369032
1773521765407506200,3.655506103515625,-5.887249527865648,5.398715484815836,-0.4031739734113216
1773521765417545200,3.665545166015625,-5.717914705467224,5.079594005575776,-1.860278323328495
1773521765427584300,3.675584228515625,-1.9704557310983537,0.4061299006074667,-1.0105606058567762
1773521765437622300,3.685622314453125,1.5417168160587549,-4.428685626789927,-0.5880301900684833
1773521765447661000,3.6956611328125,1.1163450393646954,-4.528841114500165,0.034630583876371385
1773521765457700400,3.705700439453125,0.24287556716650724,-4.329170190548896,0.5430570758759975
1773521765467738000,3.715738037109375,0.017260931402444838,-4.236310705065727,0.5210124173283577
1773521765477777200,3.725777099609375,0.6409197764739394,-3.9799195305049415,0.4517050723463297
1773521765487816400,3.73581640625,1.82291276153028,-5.035987503561377,0.8329390166282653
1773521765497854200,3.745854248046875,3.1187393387764692,-6.144927235105634,0.4867126728415489
1773521765507893200,3.755893310546875,4.593664007544517,-6.281800049838424,0.48795595090091226
1773521765517932300,3.765932373046875,5.099393515545129,-7.235507134094834,1.8265712840378283
1773521765527970300,3.77597021484375,4.646461824013293,-5.589984491124749,2.599559397572279
1773521765538009000,3.786009033203125,3.041401247552037,-0.9656517890721559,1.0830991878449916
1773521765548048400,3.79604833984375,1.705171348246932,3.083162998482585,-0.22011223895549772
1773521765558086100,3.806086181640625,1.0427145704865455,5.625364432063699,-1.1353256341665983
1773521765568125200,3.816125244140625,1.1282178479880094,6.528153814509511,-2.132119580477476
1773521765578164200,3.826164306640625,1.4535247378647327,6.118168407517671,-2.2405144887447355
1773521765588202200,3.8362021484375,1.6201973553165792,5.240283164703846,-1.2518810525357722
1773521765598241300,3.8462412109375,1.087967962925136,3.815049286299944,-0.3626099078327417
1773521765608280000,3.856280029296875,0.5415364421799779,2.114726547127962,-0.25494039123058315
1773521765618318300,3.866318359375,0.11966653612703085,0.673979457771778,0.19861001672148704
1773521765628357000,3.876357177734375,0.2870347346276045,-0.21369711121618745,0.6418167253136634
1773521765638396200,3.886396240234375,0.4967351774230599,0.07849719813168049,1.309461719366908
1773521765648434200,3.89643408203125,0.19042934061437844,0.4450169728845358,1.9506249492079017
1773521765658473200,3.90647314453125,-0.13148966038972137,-0.4971335290908813,3.2535008604437112
1773521765668512300,3.91651220703125,-0.2633520996145904,-1.7404226943701504,4.7674482105672356
1773521765678550300,3.92655029296875,-0.8787713779985904,-2.073309664112329,5.053288766974211
1773521765688589300,3.93658935546875,-1.3576771764814852,-1.894959760609269,4.67931867621541
1773521765698628000,3.946628173828125,-0.24568726358637213,-1.9888187785238027,3.8217414774149656
1773521765708666400,3.956666259765625,0.36331615640595555,-1.467071617180109,2.2101707884073254
1773521765718705200,3.966705078125,0.41398967419713734,-0.23589725258648395,0.49842882959842677
1773521765728744200,3.976744140625,0.01623918713927269,0.7337579269081353,-0.719112730962038
1773521765738782200,3.9867822265625,-1.3584851318635045,1.383271051943302,-1.3644786731898784
1773521765748821200,3.9968212890625,-1.9627197300188242,1.1845476379752158,-1.5566390753805637
1773521765758860300,4.0068603515625,-1.8712582747653126,0.6241770237267017,-1.8861825799137353
1773521765768898300,4.016898193359375,-1.7955892857968807,0.47614100994467734,-2.1381793189078566
1773521765778937300,4.026937255859375,-1.3510923912636934,0.5840384900838136,-2.1561679800629614
1773521765788976000,4.03697607421875,-1.388524004035443,0.6000608196020126,-2.08222303840816
1773521765799014400,4.047014404296875,-1.6530507003873585,0.37561902700960637,-1.412831492948532
1773521765809053200,4.05705322265625,-2.4565643005669116,0.6549743130505085,-0.8948685263186693
1773521765819092200,4.06709228515625,-3.9150329245746134,1.155927108168602,-1.0333043525844812
1773521765829130200,4.077130126953125,-4.219699177482724,0.8968535626560449,-1.0087596939146517
1773521765839169300,4.087169189453125,-3.569000642055273,0.4060103658810258,-0.72921736086905
1773521765849208300,4.097208251953125,-2.327652381710708,-0.06707096423208714,-0.3840776432752609
1773521765859246300,4.107246337890625,-0.8399678923517465,-0.3932198578909039,0.026685762351751324
1773521765869285400,4.117285400390625,-0.2986404167473316,-0.47165977287739513,0.3125783412069082
1773521765879324200,4.12732421875,-0.736283938254416,-0.5282867922455072,0.325719562330842
1773521765889362400,4.137362548828125,-0.5216185665279627,-0.2198325452312827,0.2906950107008219
1773521765899401200,4.147401123046875,-0.36597529261261225,0.5311038954928518,0.4766811081707477
1773521765909440300,4.157440185546875,-0.31163755322545766,0.8175742742359637,0.47506724323332306
1773521765919478300,4.167478271484375,0.27201719823777676,0.7517310982331633,0.5791577323049306
1773521765929517300,4.177517333984375,0.43054830254912374,0.6646724079832435,1.2545762829691172
1773521765939552500,4.187552490234375,-0.23742986898124216,0.7684782348945737,1.0345476306438446
1773521765949590800,4.1975908203125,-0.5020552034020423,0.6897580416619777,0.7225245852321386
1773521765959629800,4.2076298828125,-0.3680138127028942,0.3651668988391757,1.141372513115406
1773521765969668600,4.217668701171875,-0.05774579426497221,0.3020008330911398,1.0478712225973605
1773521765979707000,4.227706787109375,0.6841475083038211,0.11878536937832831,1.222338147187233
1773521765989745700,4.23774560546875,1.0292162064880133,-0.3233952110365033,1.3380489314258097
1773521765999784700,4.24778466796875,1.0470186974212528,-0.4428367062360048,0.7323831314235926
1773521766009822700,4.25782275390625,1.2693076958939433,-0.36387568998485803,0.4371142369359731
1773521766019861800,4.26786181640625,0.6590528145357966,-0.08349018411338328,0.2388835749208927
1773521766029900500,4.277900634765625,0.8013742500633001,0.3207733381003141,-0.0586415740609169
1773521766039938800,4.287938720703125,1.5286334626019,0.05207710097879171,0.16878829443156718
1773521766049977600,4.2979775390625,1.4734493355184792,-0.6238365397259593,0.49107963587939735
1773521766060015600,4.308015625,0.9870926365077495,-1.16710199765563,0.6356085183233022
1773521766070054700,4.3180546875,0.3020879268527031,-1.6126754353791475,1.5478198091089725
1773521766080093700,4.32809375,-0.16565116544961928,-1.7556895293459296,1.555817822125554
1773521766090131700,4.338131591796875,0.5000783503711224,-2.232960420103371,1.5173288092553614
1773521766100170500,4.34817041015625,0.6957458838999271,-2.4458418310225007,1.6556243502676486
1773521766110209800,4.358209716796875,0.9236895471334456,-1.7537822344198821,1.4551853645533321
1773521766120247600,4.36824755859375,1.3902701170504093,-1.1074357567220925,1.5375193643689156
1773521766130286600,4.37828662109375,2.2402011850118635,-0.3491618127167225,1.2922428735405207
1773521766140325600,4.38832568359375,2.7112586080819367,-0.3879766965404153,1.3164338964670896
1773521766150363600,4.39836376953125,1.3887550363123415,-1.3038830424517391,1.1106512116372584
1773521766160402400,4.40840234375,0.24790976194143294,-1.4456439214870334,0.7884148152470588
1773521766170441700,4.418441650390625,0.8042267168849706,-0.7115691837146878,1.2694435972332954
1773521766180479700,4.428479736328125,0.612162176284194,-1.0444263428404927,0.7714023056477308
1773521766190518500,4.4385185546875,0.5047714766234159,-0.6263505683735012,0.04190262070596218
1773521766200557800,4.448557861328125,0.3706324707686901,0.4733972641944885,0.03172258747518063
1773521766210595600,4.458595703125,-0.4081260428607464,1.7457848059251904,-0.14787000956535337
1773521766220634600,4.468634521484375,-0.8531447693109512,2.8346365659475325,0.010590952119231223
1773521766230673700,4.478673583984375,-0.929431305655837,3.4595012796774505,0.3641869478911161
1773521766240711700,4.488711669921875,-0.9509025482296943,3.7113963118627664,0.8960574438422918
1773521766250750500,4.49875048828125,-0.0063303720653057095,3.3927634929224846,0.9466121575593948
1773521766260789800,4.508789794921875,1.4664309811890124,3.529143555702269,0.33200434168875215
1773521766270827800,4.518827880859375,1.816935440686345,4.750843697246909,-0.5796966614872217
1773521766280866600,4.528866455078125,2.2032950574189423,5.7371384613752365,-0.3686269761651754
1773521766290905600,4.538905517578125,1.5911235287845134,6.555737987005711,0.17820903372764588
1773521766300943600,4.548943603515625,0.7890496060192584,6.662345427334309,-0.25755671120882034
1773521766310982700,4.558982666015625,1.0621388174027204,6.524085542157292,0.22837211777865885
1773521766321021400,4.569021484375,0.8584498899817466,6.089705698621272,0.4972293906807899
1773521766331059700,4.579059814453125,1.4754437242060898,4.45138699568063,-0.059601359003782266
1773521766341098500,4.589098388671875,3.5430829414665697,1.7699056862249969,1.0348165107131004
1773521766351137500,4.599137451171875,5.729676454931497,-0.4598182361751795,1.3329209208875894
1773521766361175600,4.609175537109375,6.480513526934385,-1.2050631872594355,1.009962055441737
1773521766371214600,4.619214599609375,5.307069466775656,-1.0227367813408375,1.6197937429517506
1773521766381253600,4.629253662109375,2.918875522601604,-0.25253274556696415,1.2098428227514029
1773521766391291600,4.639291748046875,2.2283096716880797,0.901808554714918,1.0084621722728013
1773521766401330700,4.64933056640625,1.6711854920148848,1.1686074337825179,2.336223518440127
1773521766411368700,4.65936865234375,0.3635439738124609,0.7303887427359819,3.4796079558998345
1773521766421407700,4.66940771484375,-0.9531640634208917,-0.09608546179234981,3.787180451643467
1773521766431446500,4.679446533203125,-1.6182003362804651,-1.2598685441583395,4.72267909451425
1773521766441484800,4.68948486328125,-1.3578817591428756,-3.9774277136892078,6.758152656707167
1773521766451523600,4.699523681640625,-0.5963496901243924,-7.917196435591578,8.198204749536513
1773521766461562600,4.709562744140625,-0.23930793781280515,-10.648243447726964,8.74592747913599
1773521766471601000,4.719600830078125,0.4716723400980234,-11.61861642010212,9.01758519641161
1773521766481639700,4.7296396484375,0.5838479359477758,-11.607325795280932,8.405835108059645
1773521766491678700,4.7396787109375,0.6308703838855028,-11.096982071483135,7.812809009400009
1773521766501716700,4.749716796875,0.8024363263368606,-9.886872122228144,7.201232524049281
1773521766511755800,4.759755859375,1.08550800255239,-8.531870886957645,6.10149667418003
1773521766521794600,4.769794677734375,1.0358592977643013,-7.708794508174061,4.767834579536318
1773521766531832600,4.77983251953125,0.8457786244571208,-7.690597757226228,3.9181934344321485
1773521766541871600,4.78987158203125,1.1908195578515528,-7.945761435818672,3.221943108141422
1773521766551910700,4.79991064453125,1.4999498044311999,-7.819775925803184,2.583496151521802
1773521766561948400,4.809948486328125,1.9481237800419329,-7.634990436294674,2.639227391093969
1773521766571987700,4.81998779296875,1.368105046993494,-7.226512511256336,2.5634184091329573
1773521766582026800,4.83002685546875,-0.18760814571380613,-5.956093931511044,1.3793892420738936
1773521766592064500,4.840064453125,-1.301952951171994,-4.278534520550072,0.5691267521560192
1773521766602103800,4.850103759765625,-2.3034926307052372,-2.860306721515953,0.3121563164025545
1773521766612141600,4.8601416015625,-3.6546903820395467,-2.038733148510754,-0.26278759759962556
1773521766622180600,4.8701806640625,-4.971612354284525,-1.8714920835211872,-0.6536760899335146
1773521766632219600,4.8802197265625,-5.640615777209401,-1.693663865804672,-0.34681028115451334
1773521766642257700,4.890257568359375,-6.545147034886479,-0.43328927182033655,0.15470891567468642
1773521766652296400,4.90029638671875,-7.45575381308496,1.1518949300430714,0.6745996354967355
1773521766662335700,4.910335693359375,-7.632858684962987,3.4392280147165057,1.570499258428812
1773521766672373800,4.920373779296875,-7.443740719208121,6.030557928603887,1.8016805884093046
1773521766682412500,4.93041259765625,-6.922102863457798,8.593000186181069,1.9709429300934076
1773521766692451800,4.940451904296875,-6.623191813075542,10.187640198653936,1.0884142453879118
1773521766702489600,4.950489501953125,-6.820423527181148,9.650966686335206,-0.6365501830875874
1773521766712528600,4.960528564453125,-6.823138046836853,7.75169081609249,-1.6029332090437411
1773521766722567700,4.970567626953125,-6.594045213568211,6.824871738761663,-1.488750365024805
1773521766732605700,4.980605712890625,-6.035403615069389,6.3700079101234675,-0.8383756547242402
1773521766742644500,4.99064453125,-4.6294548673719165,5.236691862213611,0.17534779907763004
1773521766752683500,5.00068359375,-2.483410221916437,4.379638979548216,0.47731180728971956
1773521766762721500,5.010721435546875,1.607577235457301,4.351649733382463,0.2423129648476839
1773521766772760600,5.020760498046875,4.18343193231523,4.935004917377233,-0.20112404536902903
1773521766782799600,5.030799560546875,5.301594250234961,4.893799046763777,-1.353462773656845
1773521766792837600,5.040837646484375,5.805742626523971,4.482745133757591,-2.660725521674752
1773521766802876700,5.050876708984375,7.842295800647139,4.51038658939898,-3.6654216194123026
1773521766812914700,5.060914794921875,8.695645737141371,3.8412820441871878,-5.453018737411499
1773521766822953700,5.07095361328125,6.500514696955681,3.981746161410212,-5.619357300603389
1773521766832992500,5.080992431640625,3.326806335151195,5.079511003467441,-5.8223383720159525
1773521766843030800,5.09103076171875,1.236060967591405,3.666370298439264,-2.303440608257055
1773521766853069600,5.101069580078125,1.8031278646081685,3.9248593220621344,-0.7692097640395164
1773521766863108600,5.111108642578125,0.8787979737445711,5.4303679296642535,-2.2395126182258127
1773521766873147000,5.12114697265625,1.1367851853251456,5.309385342502594,-2.5774615475326774
1773521766883185700,5.131185546875,3.331538332109153,4.93476935505569,-1.1268752012073993
1773521766893224700,5.141224609375,22.25610583410263,5.8240866769880055,20.58634891358614
1773521766903262700,5.1512626953125,8.475505441135168,-2.3505980807512996,14.276860646355152
1773521766913301800,5.1613017578125,0.6858008284687995,-4.173474309663474,9.684151747578381
1773521766923340500,5.171340576171875,-3.2585715878367423,-6.050185004615783,-1.9983692816793917
1773521766933379300,5.18137939453125,6.22648966602683,-14.570311677765845,-20.184878236961364
1773521766943418600,5.191418701171875,3.1270728673577306,0.49768940940797324,-9.986046782207488
1773521766953457700,5.201457763671875,-0.08130348772406577,10.564117888319492,-4.172645165362954
1773521766963495400,5.211495361328125,7.1833496613562104,10.804604222261904,-1.7190233479887247
1773521766973534500,5.221534423828125,0.5006149414658546,5.132138431805372,-1.9693425091594456
1773521766983572500,5.231572509765625,-0.21487726091146467,2.2887065649837255,-2.1932857045799494
1773521766993611500,5.241611572265625,2.3093115461170672,2.991825608000159,-1.0384387928634882
1773521767003650300,5.251650390625,0.7981359987944364,-0.15723448862954972,-3.8143683182984587
1773521767013688600,5.2616884765625,-1.7725719828248023,-0.9098284873023629,-4.827948564237356
1773521767023727400,5.271727294921875,-3.06951967305541,1.7301020836248993,-4.9840883894979955
1773521767033766400,5.281766357421875,-3.837152397036552,2.235468895792961,-5.067694893467426
1773521767043804400,5.291804443359375,-3.4350714795589443,2.5888112090647217,-4.452535873454809
1773521767053843500,5.301843505859375,-1.6602493797197937,3.9615626205593344,-4.479937675121426
1773521767063882500,5.311882568359375,0.14462532855570315,5.542990684759617,-5.003478149622678
1773521767073920500,5.32192041015625,0.6314549057751894,6.345504167985916,-5.113648250868916
1773521767083959600,5.33195947265625,0.28016484885811804,5.888335569536686,-4.126631602206826
1773521767093997600,5.34199755859375,0.2826660180240869,4.561954571811855,-2.7812323080182075
1773521767104036600,5.35203662109375,0.5836839775577187,3.7020807865068313,-1.6141057604432105
1773521767114075400,5.362075439453125,2.183310546271503,3.358174994622171,-0.8410732232451439
1773521767124113700,5.37211376953125,2.632653565661609,3.6706571819782257,-0.6681704792320728
1773521767134152400,5.38215234375,1.8162606101647019,4.62083141593337,-1.2961591702014208
1773521767144191500,5.39219140625,1.8814418151274321,5.123311566749215,-1.1428671355873345
1773521767154229500,5.4022294921875,1.9587480499088763,5.340478984424472,-0.5083621945917606
1773521767164268500,5.4122685546875,2.028770557422936,5.123454774612188,-0.041298809593915936
1773521767174307600,5.4223076171875,1.4697878904014825,4.387848881749808,0.7833557782918215
1773521767184345600,5.432345703125,0.3464130985304713,3.769328276349604,1.7027461669266224
1773521767194384600,5.442384521484375,-1.2108332950934766,4.709068794573843,1.9388965174913406
1773521767204422400,5.45242236328125,-2.8633699084788558,6.4910495339959855,2.1758827343583107
1773521767214461400,5.46246142578125,-4.190716536365449,7.662965653935075,1.6689643088340758
1773521767224500500,5.47250048828125,-5.100370836144686,6.64220104945004,3.6700901957452294
1773521767234538500,5.48253857421875,-5.057250656342506,3.55610024394989,6.212941617667675
1773521767244577300,5.492577392578125,-4.416678962653875,0.766595782148838,6.652542995244264
1773521767254616600,5.502616455078125,-2.9705358594730495,-0.21134733321964738,6.210927939757704
1773521767264654300,5.512654296875,-2.091421074864268,0.9330366366714239,5.619301186501979
1773521767274693400,5.522693359375,-2.038747761557996,2.498898882949352,6.06647212255001
1773521767284732700,5.532732666015625,-2.7015795101106166,2.6231875259190796,7.526780821466446
1773521767294770400,5.5427705078125,-2.6590277778461573,1.588865520724654,9.371222108715772
1773521767304809500,5.5528095703125,-2.2940444188803433,0.10176409195065497,10.936980894619225
1773521767314847500,5.562847412109375,-2.724212489940226,-1.7645330532759427,11.78512215655446
1773521767324886500,5.572886474609375,-3.2988758334353565,-3.066794632005691,11.089853242516517
1773521767334925300,5.58292529296875,-3.880651931545138,-2.8107646919727323,10.09106315395236
1773521767344963600,5.592963623046875,-4.347820530483126,-2.1457605678170917,9.173997993394732
1773521767355002400,5.60300244140625,-5.501885351911187,-1.0387550192058086,8.744615227493643
1773521767365041400,5.61304150390625,-6.079921386709809,-0.17596563871502877,8.250034305495022
1773521767375079400,5.623079345703125,-5.983560030585527,-0.1596469565987587,7.737857521051168
1773521767385118500,5.633118408203125,-5.735568435579538,-0.06681143651306629,7.279948917889595
1773521767395156500,5.643156494140625,-5.0985477123707525,0.9211971457958221,6.580314209857582
1773521767405195500,5.653195556640625,-4.731961886644363,1.5567787761121987,6.313227453759312
1773521767415234600,5.663234619140625,-4.255056906589865,1.6693460016280413,6.205973532220721
1773521767425272600,5.6732724609375,-4.072792459991574,0.9853677124112844,5.983384674018621
1773521767435311600,5.6833115234375,-4.237887745124102,-0.6673696842432022,5.968916588205099
1773521767445350400,5.693350341796875,-4.063998328161239,-1.8005378481149672,5.083668707668781
1773521767455388700,5.703388671875,-3.294581643372774,-1.0462801540136337,4.682956448195874
1773521767465427500,5.713427490234375,-2.6641081498503683,0.5369423923879861,4.676471177829802
1773521767475466500,5.723466552734375,-2.214138376864046,1.2020347793489694,5.043086521911621
1773521767485504500,5.73350439453125,-2.5975533184468746,1.9915555100113151,3.2973668901771305
1773521767495543600,5.74354345703125,-5.208879141658544,4.765900396603346,-3.090643125104904
1773521767505581300,5.753581298828125,-7.699615760940313,5.0872091567546125,-7.1871303489387035
1773521767515620400,5.763620361328125,-8.675215528053045,2.328659805187583,-8.711230259764195
1773521767525659600,5.77365966796875,-8.739756681546568,-0.6433925963282585,-7.492744111829996
1773521767535697400,5.783697509765625,-7.572550054472685,-2.514068979552388,-6.093015261560678
1773521767545736400,5.793736328125,-7.3224331378757945,-2.461093176168203,-4.08029713653326
1773521767555775500,5.803775390625,-7.986375185757875,-1.260579907298088,-1.3345564131349323
1773521767565813500,5.8138134765625,-8.459221830332279,-1.7729963457167148,-0.33950726466476916
1773521767575852300,5.823852294921875,-6.317279944020509,-3.7644969106703994,-0.8356751635938883
1773521767585890600,5.833890625,-3.929227454143762,-2.774272405877709,-1.045977371674776
1773521767595929300,5.843929443359375,-2.1425100415885447,-0.5747901847451925,-0.010576923593878745
1773521767605968400,5.853968505859375,-0.09292392902150749,1.070050905701518,1.5532175764992833
1773521767616006400,5.86400634765625,2.1427064409434795,2.0286562833935022,2.7256533363983033
1773521767626045400,5.87404541015625,3.174340814489126,2.0179764839470384,4.03231987208873
1773521767636083700,5.884083740234375,2.503619481730461,1.2708809365600346,5.577456433463096
1773521767646122500,5.89412255859375,1.5293690834000706,0.3366594740182161,6.443323906224966
1773521767656161500,5.90416162109375,0.5685106660842895,-0.9795815302252769,7.646162403172254
1773521767666199600,5.914199462890625,-0.34071079523563386,-1.8711767339617014,6.304212372654676
1773521767676238600,5.924238525390625,-0.4381612617708742,-0.22143150486052035,2.1043752489835024
1773521767686277400,5.93427734375,-0.22655966152921317,2.6450749480783937,-2.9723014078408476
1773521767696315600,5.944315673828125,1.0543877648845315,1.941241619312763,-3.1671465190708634
1773521767706354400,5.9543544921875,1.6508876771345733,-1.0322311703950167,0.9398638523429632
1773521767716392400,5.964392333984375,2.442754678662121,-2.404074819394946,2.867603016003966
1773521767726431500,5.974431396484375,3.244627233636379,-1.3589736460328101,0.3467278635680675
1773521767736470500,5.984470458984375,2.3168530475378035,-1.6933137371927498,-1.095042139095068
1773521767746508500,5.994508544921875,1.0341764592438936,-1.3253250589311123,-1.5966922688275575
1773521767756547300,6.00454736328125,-0.31010142969936133,-1.651673566815257,-1.1956985620647669
1773521767766586600,6.014586669921875,-2.0774612308338285,-2.188166461870074,-1.4036281957954166
1773521767776624400,6.024624267578125,-2.597337922130525,-1.913162356775999,-2.7481699963718653
1773521767786663400,6.034663330078125,-2.784914211401343,-1.9854823275774716,-3.6766052767276762
1773521767796701400,6.044701416015625,-2.9052909416243433,-1.0541302829921244,-5.1462400223940605
1773521767806740500,6.054740478515625,-2.452675476434827,-0.8348574174702167,-5.822951535478234
1773521767816779300,6.064779296875,-2.0739713428914546,-1.3361626792877912,-5.3243157851308585
1773521767826817500,6.074817626953125,-2.177218659137189,-0.9179384362608194,-4.75757505132854
1773521767836856600,6.084856689453125,-2.361319965773821,-1.5566373218148946,-3.928547070664167
1773521767846895400,6.094895263671875,-1.7977602000951767,-0.6637322045236825,-2.8669547812283036
1773521767856933600,6.10493359375,-0.3231293997071683,1.2956132267564535,-1.8283634281516075
1773521767866972400,6.114972412109375,1.1505553520023821,2.090229234731197,-0.6615683044880628
1773521767877010700,6.1250107421875,1.3703122016489504,2.50966343806982,0.11349895340800285
1773521767887049500,6.135049560546875,1.3758219049811362,2.9858079551458356,1.1500351275205611
1773521767897088500,6.145088623046875,0.5320118771832436,3.410797162263095,1.610046840441227
1773521767907126500,6.15512646484375,1.2491888908423483,1.5893267084956169,1.4113088134258984
1773521767917165600,6.16516552734375,2.6283131983697414,-0.3154784465625882,1.1105512583941222
1773521767927203300,6.175203369140625,3.184658794885874,0.3884574657946825,1.4299047928243875
1773521767937246000,6.185245849609375,3.3257880980193613,1.5314751157686113,2.1715245391488076
1773521767947284700,6.19528466796875,2.855592844736576,2.155553355295956,2.5399557004809377
1773521767957322800,6.20532275390625,1.9197008186340332,2.701899243584275,2.70347569912076
1773521767967361800,6.21536181640625,1.8836124371647833,2.387798807376623,2.516016021966934
1773521767977399800,6.22539990234375,1.8932874434828757,2.9889585281312465,2.5255092419773337
1773521767987438600,6.2354384765625,1.7791829253971576,3.980551983189583,2.3253122483253477
1773521767997478000,6.245477783203125,0.8714448345027863,3.183337775415182,1.5978993065297602
1773521768007515600,6.255515625,-0.3471967231888324,1.7303996052667499,1.3840426208376884
1773521768017554700,6.2655546875,-1.5246633899271487,1.2003779520526527,0.7914122434973716
1773521768027593700,6.27559375,-1.2177251004338263,0.7500166955307126,0.7658341501265764
1773521768037631700,6.2856318359375,-0.21123554340824482,0.3157850282937288,2.145792131999135
1773521768047670800,6.2956708984375,-0.13518237742781639,-0.3295581175804138,2.495872228604555
1773521768057708800,6.305708740234375,-1.5099650024890898,-1.9303627901628613,2.593857971060276
1773521768067747800,6.315747802734375,-2.498100718308985,-1.2697919722795485,1.8478993187487125
1773521768077786600,6.32578662109375,-1.4591269417859614,-1.0493260975807905,0.5583353090286255
1773521768087825000,6.335824951171875,-0.30857962695956226,-1.6647139579132197,-0.0025409166544675824
1773521768097863700,6.34586376953125,-0.16496844388246534,-0.5058443665519357,-2.1563971126437185
1773521768107901700,6.355901611328125,0.5117090208016336,0.019354688811302184,-4.2093595697760575
1773521768117940700,6.365940673828125,0.4283284345425665,0.22744857319295406,-5.9627422834843395
1773521768127979800,6.375979736328125,0.577658579788357,0.7547296955272554,-7.441502000370622
1773521768138017500,6.386017578125,1.0963443077348172,0.9004217765316367,-7.396875507658719
1773521768148056800,6.396056884765625,1.9610333843670784,0.09708236387521028,-7.415175134459138
1773521768158096000,6.406095947265625,0.9179938197098672,-0.8612699158385395,-7.901637631931901
1773521768168133600,6.416133544921875,-0.2661887843452394,-0.4027990026190877,-8.297593344527483
1773521768178173000,6.4261728515625,-1.074186544201523,0.4185933686003089,-9.687254974290727
1773521768188210700,6.436210693359375,-1.4285529398240149,0.9430062420219183,-10.053360323023796
1773521768198249700,6.446249755859375,-1.133804123687744,1.6371221866324543,-9.6144054266572
1773521768208288800,6.456288818359375,-0.5536239164672792,2.2021716063469645,-7.707227989509701
1773521768218326800,6.466326904296875,0.5305763644874095,2.432099721395969,-5.592149560204148
1773521768228365600,6.476365478515625,2.020173117208481,2.7378461707562205,-4.113304503121972
1773521768238403800,6.48640380859375,3.2219957151114937,2.7522487901180983,-2.337994035243988
1773521768248442600,6.496442626953125,4.428765706288814,2.848151296558976,-0.00504325486421585
1773521768258481700,6.506481689453125,4.78394458733797,2.607013805231452,4.477427738127112
1773521768268519700,6.516519775390625,3.5057869377732276,0.8186246600717305,8.858636743471026
1773521768278558700,6.526558837890625,1.0020820427816362,-0.11815642382502556,11.882795764321088
1773521768288596700,6.5365966796875,-6.651064154863358,1.7666823402643204,16.50047193109393
1773521768298635800,6.5466357421875,-8.832285912162066,2.9259342089414595,16.75482078617215
1773521768308674800,6.5566748046875,-4.521052360320091,0.9618220016509293,12.653475016391276
1773521768318712800,6.566712890625,-1.5298130277752875,-0.9074918610483408,7.887145580720901
1773521768328751900,6.576751953125,-0.6483025071363896,0.054584992146492,4.615379580268264
1773521768338790700,6.586790771484375,-1.4239093518018722,2.736812151533365,2.6834102316915986
1773521768348828700,6.59682861328125,0.03097030780315399,3.3314223045140503,1.30072954685688
1773521768358867700,6.60686767578125,0.17346373889669775,2.49280407320559,0.1759936957657337
1773521768368905700,6.61690576171875,-1.688612573764473,1.71657010961771,-0.37516193089187144
1773521768378944500,6.626944580078125,-1.9399642928533254,0.27993162462413307,-1.3056284248143433
1773521768388983800,6.63698388671875,-0.8563856509283184,-0.8899977054119109,-2.2917758894264697
1773521768399021600,6.647021484375,1.1753142379447816,-1.6175561931580305,-3.070159724524617
1773521768409060600,6.657060546875,1.978021782438457,-1.4619757553458212,-3.3645576813966036
1773521768419099000,6.667098876953125,1.5150786922410129,-0.40325639099776744,-2.7448756310015914
1773521768429137700,6.6771376953125,0.9164115189544856,-0.3654676353514194,-2.3494378048002718
1773521768439176700,6.6871767578125,-0.20033216433897613,-1.1548504188477993,-2.611411747929454
1773521768449214700,6.697214599609375,-1.7356432050086557,-1.5946505338668822,-2.113941534230113
1773521768459253800,6.707253662109375,-2.0288345625698567,-2.9478444274544713,-1.8667185855090618
1773521768469291800,6.717291748046875,-0.5522714789450168,-4.5435266424566505,-2.3257541468739507
1773521768479330800,6.727330810546875,0.8350725215256214,-4.9725546035707,-2.8119062632232903
1773521768489369600,6.73736962890625,1.2845371214687824,-4.988948689010739,-2.7798072436511516
1773521768499408000,6.747407958984375,0.867742618983984,-4.613844625785947,-2.245433824968338
1773521768509446700,6.75744677734375,-0.05303604567144066,-3.7836967011809346,-1.5335843630075454
1773521768519484700,6.767484619140625,-0.755687434643507,-2.7986516448527574,-1.0181447773754597
1773521768529524000,6.77752392578125,-0.24106501061320304,-2.9830355678230522,-1.0164859042525292
1773521768539562800,6.787562744140625,0.21914310166239737,-3.3971915384978053,-1.2091676999688148
1773521768549600800,6.797600830078125,-0.0021826138692442325,-3.284900791835785,-1.146890984275937
1773521768559639800,6.807639892578125,0.15892857919633388,-3.161007870185375,-1.1011886790260672
1773521768569678800,6.817678955078125,0.5249696305215359,-3.3554373863518236,-1.2224372236475347
1773521768579716600,6.827716552734375,-0.202472537368536,8.614115454924105,-0.579250379024446
1773521768589755600,6.837755615234375,-5.815035940048098,11.80276419622898,1.7454177261784671
1773521768599793700,6.847793701171875,0.17628655949877575,-7.316862644267082,1.308702425432205
1773521768609832700,6.857832763671875,1.0532558382451533,3.8300849428683517,3.6787794058963654
1773521768619871700,6.867871826171875,0.6908791546463966,2.7937165265381334,3.691636841642856
1773521768629909800,6.87790966796875,-0.9047481152981519,7.4259256610542534,2.84212019970119
1773521768639948800,6.88794873046875,1.108134260380268,10.720161851990222,2.124681101039797
1773521768649986800,6.89798681640625,3.526664890629053,12.061530867749452,1.1931626138463616
1773521768660025900,6.90802587890625,-2.984686842161417,8.139983446714282,0.03023804800584912
1773521768670064600,6.918064697265625,-2.8909529119312762,4.521609994202852,-1.3340798816643655
1773521768680103000,6.92810302734375,-1.8035574881970882,1.554174731093645,-1.5011480743050574
1773521768690141700,6.9381416015625,-1.5797873112559317,-0.33814240605235096,-1.3009613097861408
1773521768700179700,6.9481796875,-1.168728137552738,-1.8622797262787818,-0.9628073594264686
1773521768710218800,6.95821875,-1.7282944496810435,-2.509578097873926,-0.8940117633588611
1773521768720257800,6.9682578125,-1.5678092886924744,-2.7469477611005306,-0.2860870785139501
1773521768730295600,6.978295654296875,-1.4351719195723533,-3.0804817965745923,1.2473698587216435
1773521768740334800,6.9883349609375,-0.33454058216810223,-2.8704987374454736,1.7054112944826483
1773521768750372600,6.99837255859375,-0.6811855166930705,-2.065768747213483,1.041451126421988
1773521768760411600,7.00841162109375,-0.28060440931916236,-0.8129255716472864,0.27093860922083257
1773521768770451000,7.018450927734375,0.574195652918145,0.11302549067735672,-0.44927521485090255
1773521768780488700,7.02848876953125,1.0168015460729598,0.6286205591320991,-0.7214725919611752
1773521768790527700,7.03852783203125,1.073933884614706,1.0799199732869862,-0.5906321892604232
1773521768800565800,7.048565673828125,-0.020080664998292922,1.5123825850248336,0.31731486820951105
1773521768810604800,7.058604736328125,-0.7055588373839855,1.0200900662243366,1.363562581258267
1773521768820643600,7.0686435546875,-0.3740682904362678,0.2917512417554855,2.1164482563540337
1773521768830681900,7.078681884765625,-0.6286346607226878,0.21888298942148685,2.3637714505791663
1773521768840720600,7.088720703125,-0.8255506599426269,0.11239479155838489,1.3642277671687304
1773521768850759700,7.098759765625,-0.6784194860458373,-1.1840186456650494,0.12624401482120157
1773521768860797700,7.108797607421875,0.9100549895346164,-4.020820865213871,1.4876371430858968
1773521768870836700,7.118836669921875,1.5593910044372081,-4.239128685095906,2.34174871160239
1773521768880874800,7.128874755859375,-1.6139876870214938,-2.3669635246187446,1.1077626505888998
1773521768890913800,7.138913818359375,-3.314368878382444,-1.5011018970757721,1.4862189468510447
1773521768900952800,7.148952880859375,-1.8548270721852778,-0.678106766834855,1.6088583613090217
1773521768910990600,7.158990478515625,-0.38963651951141653,1.3161065642088652,1.3060288223087786
1773521768921030000,7.16902978515625,0.5713841026287526,2.8808026893168686,1.0417676450252533
1773521768931067600,7.179067626953125,1.0028816687267272,1.5627292089492082,1.4212582527711988
1773521768941102300,7.189102294921875,1.869306848436594,-0.5953349601238965,2.0038588190063833
1773521768951141400,7.199141357421875,2.108660232826322,0.4687310259491205,2.288677923411131
1773521768961179100,7.20917919921875,-3.457741576528549,1.919264180782437,1.8926177275277674
1773521768971218400,7.219218505859375,-2.5807658497750756,1.9244722708195448,2.1365464570090174
1773521768981256200,7.229256103515625,4.197416618525982,-1.5352257004737853,2.4351706532739104
1773521768991295200,7.239295166015625,-2.083875481790304,-2.0692168418407437,0.9019397798791527
1773521769001334500,7.24933447265625,-0.9768015441179275,0.8231377535820007,-1.0352307906024156
1773521769011372300,7.259372314453125,0.5062748669236898,2.2122616232067345,-2.5708593727886675
1773521769021411300,7.269411376953125,-0.8695856165021657,0.8142232102423906,-1.8857910963781177
1773521769031449300,7.279449462890625,0.1256505607063882,-1.5462638118386267,-1.3187842589855194
1773521769041488400,7.28948828125,0.9427841237038374,-1.4874644168674944,-1.6468270035669206
1773521769051527200,7.299527099609375,1.1554396169126033,-0.6105559101313353,-2.061769448444247
1773521769061565400,7.3095654296875,1.809751666662097,-0.8458423373430967,-1.9751260609969497
1773521769071604200,7.319604248046875,1.6010989793539046,-1.3832652067244051,-2.0128341526225206
1773521769081642500,7.329642578125,2.0780688413381574,-0.641500498971343,-1.8558496932312845
1773521769091681500,7.339681640625,1.9638672926187515,-0.7623579984486103,-1.0967404674455523
1773521769101720300,7.34972021484375,0.8529951317071914,-1.0312152713507414,-1.015770157198608
1773521769111758600,7.359758544921875,0.022296605748403815,-0.5108996041148901,0.12154518948048353
1773521769121797400,7.36979736328125,-0.25010639520287514,-0.1324193424552679,0.6821411369174718
1773521769131836400,7.37983642578125,0.3722878367602825,-0.1357218911319971,0.4822600773468613
1773521769141874400,7.38987451171875,0.6605167496085167,-0.13089900102019308,-0.26067425870746375
1773521769151913500,7.39991357421875,-0.5291010312378406,-0.15944763463437556,-0.6769321700975298
1773521769161951200,7.409951171875,-3.0802514949500557,0.13674714252650738,-0.3147735131636262
1773521769171990300,7.419990234375,-5.818090066921711,0.6566174040824174,0.2978054272279143
1773521769182029300,7.430029296875,-7.137631866276264,1.1976257307350635,0.7810752661392092
1773521769192067300,7.4400673828125,-5.9298319475293155,2.857068177986145,-0.7122621344149113
1773521769202106400,7.4501064453125,-4.366833273988962,1.6775497663497925,-0.7786053688943385
1773521769212144400,7.460144287109375,-2.3690286404550074,-0.1680681634634733,0.15805296540558336
1773521769222183400,7.470183349609375,-1.0707997513074428,-0.5346726938903331,0.025967092688381672
1773521769232222200,7.48022216796875,-0.3238204872438684,-0.2814735933691263,-0.10728957737386226
1773521769242260500,7.490260498046875,-0.0222691514858976,-0.21951544210612772,0.01449409703761339
1773521769252299300,7.50029931640625,0.05825575308110564,-0.38853754529356954,0.21899317179769276
1773521769262337500,7.510337646484375,0.2164402359118685,-0.6612076544821262,0.381699515967071
1773521769272376300,7.520376220703125,0.46182373077869415,-0.7710124295473099,0.6910986426159739
1773521769282415400,7.530415283203125,0.5042518366634845,-0.8055413066148758,1.0873515845924615
1773521769292453400,7.540453369140625,0.36694530668854713,-0.7030202588170766,1.463188346005976
1773521769302492400,7.550492431640625,0.11290974621004424,-0.46919981250464915,1.8164035257667301
1773521769312530200,7.5605302734375,-0.11246904410468414,-0.07908113549947739,2.14083158698231
1773521769322569500,7.570569580078125,-0.2598094585716724,0.3383937504649162,2.3477076200067994
1773521769332608500,7.5806083984375,-0.38792847348451615,0.659195730137825,2.3705609645888206
1773521769342646300,7.590646240234375,-0.3114461223065853,1.04723818539083,2.3919988894149657
1773521769352685600,7.600685546875,-0.17124385262383146,1.4726210680007934,2.360776652677357
1773521769362723300,7.610723388671875,-0.023227749118674545,1.8032003453224896,2.3076573491692542
1773521769372762400,7.620762451171875,0.041259043839108195,2.0252251399010417,2.2604946159780024
1773521769382801400,7.630801513671875,-0.09045711878286675,2.218347665122151,2.2771043899953365
1773521769392839400,7.64083935546875,-0.24889994202256202,2.3427479517728087,2.130605961044133
1773521769402878200,7.650878173828125,-0.5699789485385641,2.259208083298802,1.749644111701846
1773521769412916500,7.66091650390625,-0.9572809241551905,2.446074470734596,1.5322642203196881
1773521769422955300,7.670955322265625,-1.3390659995138645,2.730415728494525,1.5568310908213256
1773521769432994300,7.680994384765625,-1.734379322552681,3.077966598883271,1.5987404335290192
1773521769443032300,7.6910322265625,-2.1730068866610526,2.9964351476222273,1.5984060870081185
1773521769453071400,7.7010712890625,-2.3918355155467985,2.8627427164912223,1.4170064405456184
1773521769463109400,7.711109375,-2.390423310661316,2.607752640900016,1.0947785197228193
1773521769473148400,7.7211484375,-3.5178666671454906,2.2396394594758746,0.423037488527596
1773521769483187500,7.7311875,-5.621924520742893,2.074704917863011,-0.6017021570682525
1773521769493225200,7.74122509765625,-7.1204106823623174,2.0651316183537243,-1.6267752724021671
1773521769503264500,7.751264404296875,-6.744130561095476,2.0389432841300965,-2.416960312192142
1773521769513303300,7.76130322265625,-4.741999296534061,1.6780974633604286,-2.7051877637356516
1773521769523341300,7.77134130859375,-2.045350813084841,1.4409382280141114,-2.535291508062184
1773521769533380400,7.78138037109375,0.2895698060631752,1.3373498432457447,-2.280197679835558
1773521769543418400,7.79141845703125,1.9327870947003363,1.1157383056432009,-2.0902546614333986
1773521769553457200,7.80145703125,2.5045716678887606,0.621584084624052,-1.8646701285466551
1773521769563496400,7.811496337890625,1.853972501182556,-0.08566986624002457,-1.475322143653035
1773521769573534200,7.8215341796875,0.7914964146494865,-0.6428185958325863,-1.1398770138606429
1773521769583573200,7.8315732421875,0.0771241562128067,-1.0173322919487953,-0.9161492147564887
1773521769593611500,7.841611572265625,-0.18581775516569612,-1.2364818233519792,-0.6299807415693998
1773521769603650300,7.851650390625,0.16262860275804997,-0.8363859422117471,-0.12943360464274883
1773521769613689300,7.861689453125,0.7128982403613626,-0.31261925773918625,0.24855039793252942
1773521769623727400,7.871727294921875,1.067151823259145,-0.17505495361089704,0.2282198498263955
1773521769633766400,7.881766357421875,1.274727675116062,-0.244116214877367,0.003219546568393707
1773521769643804400,7.891804443359375,1.5304904886454342,-0.3377928619623184,-0.2545095985978842
1773521769653843500,7.901843505859375,1.7878036003567277,-0.3109925333201885,-0.42277094654589886
1773521769663882200,7.91188232421875,2.009421129308641,-0.027685879305005073,-0.5485793464288116
1773521769673920500,7.92192041015625,2.0896298075333237,0.23748013786375521,-0.6256175779238343
1773521769683959300,7.931959228515625,1.8628195322439074,0.3965443261384964,-0.6754112441405653
1773521769693997300,7.941997314453125,1.1722574807226658,0.4538350701123476,-0.6836547563508153
1773521769704036400,7.952036376953125,0.4316737994477153,0.5502928723484277,-0.6532628329575061
1773521769714075400,7.962075439453125,0.15217793589234352,0.718127811577916,-0.5617053699836134
1773521769724113400,7.972113525390625,0.06985533425360918,0.826169668623805,-0.5715744375690818
1773521769734152200,7.982152099609375,0.2909571687683463,0.8910533519446849,-0.5531751497864723
1773521769744190500,7.9921904296875,0.7214201311215758,0.8389572540044784,-0.4859688687369227
1773521769754229200,8.002229248046875,1.2269085238426922,0.6834925515264272,-0.4173202799245715
1773521769764268300,8.012268310546874,1.468802386495471,0.4173614887177944,-0.26448271107971666
1773521769774306300,8.022306396484375,1.5496020163506268,0.0613122545748949,-0.13491525092422962
1773521769784345300,8.032345458984375,1.6799559507086872,-0.3060527388304472,-0.06977350118905305
1773521769794383400,8.04238330078125,1.8451845068320631,-0.5993313362836837,-0.033199966551363466
1773521769804422400,8.05242236328125,2.0910884819090367,-0.8635451672941445,-0.03000014759674668
1773521769814461400,8.06246142578125,2.2723072188466786,-1.0641419739186764,-0.030830314810574053
1773521769824499500,8.07249951171875,2.408927227862179,-1.1589192757219076,0.04865267948806286
1773521769834538500,8.08253857421875,2.476141984479129,-1.1305728866815565,0.069642129894346
1773521769844576300,8.092576171875,2.423823475959897,-1.0110492661565542,0.09669555651471018
1773521769854615600,8.102615478515625,2.358548455233872,-0.5102034385442733,0.09921528425067662
1773521769864654300,8.112654296875,2.2811174250289796,0.05866670850217342,-0.020342969196289775
1773521769874692400,8.1226923828125,2.2590043774202466,0.16678455339372156,-0.15109481683075426
1773521769884731400,8.1327314453125,2.387492517906427,0.16286299603581428,-0.28145342736393214
1773521769894769400,8.142769287109376,2.2168717473506927,-0.287626855301857,-0.15698942782729863
1773521769904808200,8.15280810546875,2.29554254848361,-0.72766954690516,-0.023938217209279536
1773521769914847500,8.162847412109375,2.624091781282425,-1.241508711603284,0.054874038220942015
1773521769924885200,8.17288525390625,2.869976174876094,-1.7759195396870373,0.07575111429393291
1773521769934924000,8.182924072265624,2.8562188676804303,-2.0183254435151814,0.25329905376434325
1773521769944963300,8.19296337890625,2.5855869863212106,-1.9050749119102954,0.47544367533028126
1773521769955001000,8.2030009765625,1.85438488137573,-1.7763199371814726,0.7763058597803115
1773521769965040000,8.2130400390625,0.9591551205292344,-1.8226351136326788,0.9715314947605133
1773521769975078100,8.223078125,0.5765978186890482,-1.9723224017530678,0.9167693924814462
1773521769985117200,8.2331171875,0.6230898130118847,-1.957344028329849,0.4873492171794176
1773521769995156000,8.243156005859374,0.7643997334092855,-1.9772563510239123,0.054988604511320587
1773521770005194200,8.2531943359375,0.893106485082209,-1.6700749004244804,-0.2620607446298003
1773521770015233000,8.26323291015625,0.7391179926365613,-1.423100373506546,-0.2911953614383936
1773521770025271300,8.273271240234376,0.34209085141718387,-1.3855804979294537,-0.18726415458172557
1773521770035310300,8.283310302734375,-0.3440326331347227,-1.3724831159472464,-0.12320932330042123
1773521770045349000,8.29334912109375,-1.0836138593688607,-1.0964122584044933,-0.05739712695777416
1773521770055387100,8.30338720703125,-1.7502926387384532,-0.44264206044673915,-0.18873890330940485
1773521770065426200,8.31342626953125,-2.4371818469658493,0.4138929358243942,-0.48030251353830095
1773521770075464200,8.323464111328125,-3.156494776675105,1.3047007885754107,-0.9033373717173934
1773521770085503000,8.3335029296875,-3.880233706133067,1.9509329922437666,-1.243578503614664
1773521770095542300,8.343542236328124,-4.287942400364577,2.421447979000211,-1.2616302931338548
1773521770105580000,8.353580078125,-4.297975134079158,2.3836235675185917,-1.0521648281380533
1773521770115619000,8.363619140625,-4.068854536020756,1.6932745742261408,-0.8858177893787622
1773521770125657000,8.373656982421876,-3.63575479542315,0.3953028016448021,-0.6237342483952641
1773521770135696100,8.383696044921875,-3.1820868985712525,-0.737639736777544,-0.4585167981877923
1773521770145735200,8.393735107421875,-2.8128943974778053,-1.549555254599452,-0.37471243355870243
1773521770155773200,8.403773193359376,-2.504673959219456,-1.8343892643123865,-0.43349926130920646
1773521770165812200,8.413812255859375,-2.1248098419860004,-1.618316071614623,-0.555952505545318
1773521770175850200,8.423850341796875,-1.7149872243404387,-1.2810814280569554,-0.8134183236002922
1773521770185889300,8.43388916015625,-1.3205670507490634,-0.7681868507325649,-1.2008169279918073
1773521770195928000,8.443927978515624,-0.5643260738760233,0.32523440916240215,-1.7192857983171939
1773521770205966300,8.45396630859375,1.385663792298734,1.8692828830391168,-2.2294556268528103
1773521770216005000,8.464005126953126,3.6059064773872493,3.0850545113176104,-2.833853014354408
1773521770226043100,8.474043212890624,4.862549629758298,4.814859950083494,-3.6899452352941036
1773521770236082200,8.484082275390625,4.923339029502868,5.763610873237252,-4.511885303524136
1773521770246121200,8.494121337890626,3.004202274492383,6.830075737145543,-4.518595614817738
1773521770256159000,8.504158935546876,0.42303485817909237,6.1809372906416655,-3.1680572041749953
1773521770266198300,8.5141982421875,-0.6277376388177275,2.302566748031974,-1.650118154066801
1773521770276236000,8.524236083984375,-0.6286480316609144,-0.4576555051833391,-0.346732539743185
1773521770286275000,8.534275146484376,-0.28574907873123884,-1.5385633204638958,0.8217351933076977
1773521770296314000,8.544314208984375,0.6513192976742983,-1.3323428287386894,1.8225141176015138
1773521770306352000,8.55435205078125,1.2958952585682273,-1.5682570324599743,2.4897137059748173
1773521770316391200,8.56439111328125,1.4768667427465318,-2.542308401086926,2.8411981164202094
1773521770326429200,8.57442919921875,1.7565324099108577,-3.350300607985258,2.8022397324725983
1773521770336468200,8.58446826171875,2.1774697112888095,-3.9773634162813423,2.639821265333891
1773521770346507000,8.594507080078126,2.5664652294829486,-4.4458939512223,2.112372677478194
1773521770356545300,8.604545166015624,2.917375054910779,-3.827427121835947,1.5983257152482866
1773521770366584000,8.614583984375,3.0760505361288786,-1.9712264232099055,0.898645706769824
1773521770376622000,8.6246220703125,2.954042697572708,0.1029658689558506,0.3509025189042091
1773521770386661000,8.6346611328125,2.505423024021089,1.4360428571879862,0.3318284005999565
1773521770396700200,8.6447001953125,1.6209535805113613,1.641734941124916,0.550715773935616
1773521770406738000,8.654738037109375,0.49228433549404144,1.6757593758016824,0.6434498794734478
1773521770416777200,8.664777099609376,-0.5319885693728923,1.8946885424524544,0.4624129288434982
1773521770426815200,8.674815185546874,-1.2440583960860967,1.9559598804950713,0.05882949784845114
1773521770436854000,8.68485400390625,-1.0280860334143043,1.6157880144417285,-0.514631484119594
1773521770446893300,8.694893310546876,0.24218042450919747,0.9684966571092605,-0.9635688453182577
1773521770456931000,8.70493115234375,1.6895437171347438,0.8260212000638246,-1.372817754729092
1773521770466970000,8.71497021484375,2.7252123146325347,0.5967220305681228,-1.356978380562365
1773521770477008100,8.725008056640625,3.4028181462079283,0.21703414668440818,-1.2196721428483723
1773521770487047200,8.735047119140624,3.7047085046619173,-0.2623328395694494,-0.9862906724750995
1773521770497086000,8.7450859375,3.563420211574435,-0.7667997802883386,-0.6524494707480073
1773521770507124200,8.755124267578125,2.9955343993902206,-1.2940811948835849,-0.38004561128020287
1773521770517163000,8.7651630859375,2.5405069046229123,-1.309804833716154,-0.3602227204352617
1773521770527201300,8.775201171875,1.841598172777891,-1.5109154350817202,-0.44161213287711143
1773521770537240300,8.785240234375,1.5211287860602138,-1.4940104775100946,-0.6903750045165419
1773521770547279000,8.795279052734376,1.4512394034065306,-1.0559580829411745,-0.8499524030104278
1773521770557317400,8.8053173828125,1.565661170747876,-0.6841670897871256,-1.260570554947853
1773521770567356200,8.815356201171875,0.9648381346017122,-0.25624387504458424,-1.5993723016917705
1773521770577394200,8.825394287109376,0.11651727831587194,0.23527064512073992,-1.8296824017956852
1773521770587433200,8.83543310546875,-1.3160112871408463,0.5047708921015263,-1.9471531814441083
1773521770597472300,8.84547216796875,-3.47721083163023,0.8986386925071478,-1.8852306860163808
1773521770607510000,8.855510009765625,-4.855214172303676,1.5290367827057838,-1.6346481977343559
1773521770617549000,8.865549072265624,-4.342878982427716,2.061003140246868,-1.3544485698238014
1773521770627587000,8.875587158203125,-2.4858564460247754,1.8308026379972695,-1.366323716534674
1773521770637626000,8.885626220703125,-0.6974047570228576,1.2549877863794565,-1.4925459579154847
1773521770647665200,8.8956650390625,0.32346915305554863,0.6786170544445514,-1.3589812448173761
1773521770657703200,8.905703125,0.6875333513498306,0.3274702053904533,-1.0880904202610253
1773521770667742200,8.9157421875,0.6684708504181355,-0.03174772191643715,-0.7349743169605731
1773521770677780200,8.9257802734375,0.50391756320782,-0.28503625428676604,-0.38834699115753174
1773521770687819300,8.9358193359375,0.39220373965092004,-0.42765959537029263,-0.14113251800388096
1773521770697858000,8.945858154296875,0.3773509653687477,-0.5109130481183528,-0.020670447584986686
1773521770707896300,8.955896240234376,0.4155758474100381,-0.516481788161397,-0.02879267150312662
1773521770717935000,8.96593505859375,0.5261270569283515,-0.4578998353332281,-0.1256271980971098
1773521770727973000,8.97597314453125,0.6376830595750361,-0.4273223262399435,-0.2822399015665054
1773521770738012200,8.98601220703125,0.6501841561645268,-0.48041386495828625,-0.5076020238742232
1773521770748051200,8.99605126953125,0.5976205137778073,-0.5660621038883924,-0.6940633376404642
1773521770758089000,9.0060888671875,0.5093016673989593,-0.5407739333748817,-0.7835904638305305
1773521770768128300,9.016128173828125,0.46879481190033256,-0.38756665443480015,-0.804196321746707
1773521770778166000,9.026166015625,0.5095376681119204,-0.25327158123552795,-0.798961051441729
1773521770788205000,9.036205078125,0.5748814432252198,-0.10355565154254436,-0.7243097150832414
1773521770798244400,9.046244384765625,0.6106359896302223,0.06858078427314758,-0.5537193396657705
1773521770808282000,9.0562822265625,0.5517950936049223,0.23924773205816743,-0.3314981457322836
1773521770818321200,9.066321044921875,0.4459568840831518,0.38655484704375265,-0.13241700436770915
1773521770828359200,9.076359130859375,0.3129512661725283,0.5377531242489815,0.04203822978436947
1773521770838398200,9.086398193359376,0.18981003967225551,0.6983528515279293,0.21950959688723087
1773521770848437000,9.09643701171875,0.10177812047600746,0.7538064432024956,0.38344051441550253
1773521770858475300,9.106475341796875,0.01614332554936409,0.7397521988868713,0.5906327737823128
1773521770868514000,9.11651416015625,-0.03448277290351689,0.7369190212875604,0.87267364564538
1773521770878552300,9.12655224609375,0.02598725869357586,0.7562848160147666,1.1366320405900479
1773521770888591000,9.136591064453125,0.19166472762823103,0.807142896592617,1.3633204430654644
1773521770898630100,9.146630126953125,0.3757996442735195,0.8687550108969211,1.619243123331666
1773521770908668200,9.156668212890626,0.5228443819958717,0.9529834461569785,1.9095827447235583
1773521770918707200,9.166707275390625,0.5236906966269016,0.992391911959648,2.1532617372274396
1773521770928745200,9.1767451171875,0.398225411093235,0.9765466925740242,2.3755831766650077
1773521770938784800,9.18678466796875,0.2057704829353839,0.9320002793610096,2.5424913564383984
1773521770948823800,9.19682373046875,-0.06300795257687568,0.6197311502337456,2.4069752170115706
1773521770958861800,9.20686181640625,-0.27565533554442223,0.31638650131821633,2.1151874426379798
1773521770968900600,9.216900634765626,-0.39928624525777995,0.1877589523613453,1.8306223129943011
1773521770978939000,9.22693896484375,-0.4932435359150171,0.08668693432807922,1.4924565260663627
1773521770988977700,9.236977783203125,-0.5954179622322321,-0.15929624346494672,1.162193767347932
1773521770999016700,9.2470166015625,-0.6386567999780177,-0.36082711606919765,0.8415104456186294
1773521771009055000,9.257054931640624,-0.7646329576432704,-0.46840720082223414,0.47618455682545896
1773521771019093800,9.26709375,-0.9297604645449667,-0.437834367904067,0.09364245255440473
1773521771029131800,9.2771318359375,-1.0841957509100437,-0.2323971355110407,-0.27277561538964507
1773521771039170800,9.2871708984375,-1.1744079367548226,0.021645430096983907,-0.5622580354303122
1773521771049209900,9.2972099609375,-1.1801016914170235,0.19068974511623382,-0.6915481399491429
1773521771059247600,9.30724755859375,-1.0871662911534308,0.22059563855826853,-0.5714616248443722
1773521771069287000,9.317286865234376,-0.7549491834968328,0.17898527879714965,-0.1679781470924616
1773521771079324700,9.32732470703125,-0.3473614852964878,0.1414034438997507,0.25193419515192506
1773521771089363700,9.33736376953125,-0.07739303628206252,0.18604805679023265,0.44815234830081463
1773521771099402800,9.34740283203125,0.18732121853120623,0.23667349765598772,0.5231234181329608
1773521771109440800,9.357440673828124,0.46564182776212687,0.2946452096313238,0.5731397871896624
1773521771119479800,9.367479736328125,0.5987625234197825,0.3004606179118156,0.5942483339309692
1773521771129517800,9.377517822265625,0.6382102252542973,0.2422644495308399,0.531851206728816
1773521771139556900,9.387556884765624,0.6350877823848277,0.13229016311764716,0.40688042671382424
1773521771149595000,9.397594970703125,0.5392407324582338,0.10187164397835731,0.18174305307269095
1773521771159634000,9.407634033203125,0.38852819294333457,0.12818798849582672,-0.09229922125190496
1773521771169672700,9.417672607421874,0.2685867123324424,0.09819441677033901,-0.3457183942645788
1773521771179711000,9.4277109375,0.19987784470021724,-0.0276455472946167,-0.5321612955912948
1773521771189749800,9.437749755859375,0.06347549702338874,-0.268708219820261,-0.6430667253747582
1773521771199787800,9.447787841796876,-0.15950608682334422,-0.6276800634115934,-0.6661772595882416
1773521771209826800,9.457826904296875,-0.3083569971848279,-0.9456395131349563,-0.6050625734120607
1773521771219865900,9.467865966796875,-0.36703123140633104,-1.1221809059113264,-0.5597554049596191
1773521771229903600,9.477903564453126,-0.35090423593726006,-1.1151549527972937,-0.5738645943328737
1773521771239943000,9.48794287109375,-0.23105156612098215,-0.9039321227401494,-0.7063289449736475
1773521771249980700,9.497980712890625,0.036117607563734055,-0.5484136344730853,-0.8721212724596261
1773521771260019700,9.508019775390625,0.33957682276964185,-0.09909048882722854,-1.0890773854717613
1773521771270058800,9.518058837890624,0.618767858159542,0.32761399777531625,-1.2594102789968251
1773521771280096800,9.5280966796875,0.8750338719706982,0.6477578058004378,-1.347496850989759
1773521771290135800,9.5381357421875,0.9040413552682847,0.7774731499940156,-1.4530182496473192
1773521771300173800,9.548173828125,0.7564274393558502,0.6743593970000743,-1.4661971724331377
1773521771310212900,9.558212890625,0.49122459730803963,0.4298620738506317,-1.3904443045735357
1773521771320251600,9.568251708984375,0.15627784549184143,0.06058510934412479,-1.228682547777891
1773521771330290000,9.5782900390625,-0.03472242687828839,-0.31187048519849775,-1.0170113894313573
1773521771340328700,9.58832861328125,-0.0957323375057429,-0.6360913334041833,-0.8424071021974087
1773521771350366700,9.59836669921875,-0.044277021687105296,-0.8792395800322294,-0.7125073413476347
1773521771360405800,9.60840576171875,0.136619132232666,-0.6946136649996042,-0.5545937844127417
1773521771370444800,9.61844482421875,0.2150685091672465,-0.38360651863217354,-0.33899346992373464
1773521771380482600,9.628482666015625,0.06122227473650127,-0.32905016805827614,-0.09455372218042611
1773521771390521900,9.63852197265625,-0.20900040476731954,-0.37700960458517074,0.21766484580338
1773521771400559600,9.6485595703125,-0.4603068964749574,-0.39071430481076236,0.5376110854297876
1773521771410598700,9.6585986328125,-0.5740928135981783,-0.3311959479153156,0.7151511338546872
1773521771420638000,9.668637939453125,-0.4631407316613942,-0.1479816532462835,0.6730144121319055
1773521771430675700,9.67867578125,-0.22924020585007965,0.09609832127392291,0.3925006037056446
1773521771440714800,9.68871484375,0.011827069785445928,0.18931261154413223,0.07394377261102199
1773521771450752800,9.698752685546875,0.23609591696374116,0.15086626877188683,0.004026479037106037
1773521771460791800,9.708791748046876,0.34566695633828637,0.08889876515865325,0.06144611008763313
1773521771470830600,9.71883056640625,0.36111879249215123,0.13578501949608326,0.08365005085021257
1773521771480868900,9.728868896484375,0.39337789799682793,0.2315332121580839,0.07321165894418954
1773521771490907600,9.73890771484375,0.5091342749428004,0.26000410436093807,0.09614859015643597
1773521771500946000,9.74894580078125,0.6257956379044801,0.18056757955253122,0.18010609952062367
1773521771510985000,9.75898486328125,0.6929413478732108,0.06781389155387878,0.3182639856278896
1773521771521022700,9.769022705078125,0.6763660606473684,-0.04986614693105221,0.44417029292732474
1773521771531061800,9.779061767578124,0.567978166642785,-0.08157587492465973,0.5217357631668448
1773521771541100800,9.789100830078125,0.39722938579320904,-0.06518237400650978,0.5123781522348523
1773521771551138800,9.799138916015625,0.246855868974328,-0.033327684584259984,0.42659371970444915
1773521771561177900,9.809177734375,0.17745901907794176,0.01635024629831314,0.2913721793100238
1773521771571216000,9.8192158203125,0.16572255018539725,0.07492401582002639,0.10549451065063475
1773521771581254700,9.829254638671875,0.1888824764985591,0.07383271345198154,-0.0819213273614645
1773521771591293700,9.839293701171876,0.12995441364645957,-0.030563480567932125,-0.24286124638020992
1773521771601331700,9.849331787109374,-0.2444827101022005,-0.200419111970067,-0.419643169914186
1773521771611370800,9.859370849609375,-0.761155636921525,-0.38139702588915825,-0.6195929108068347
1773521771621408800,9.86940869140625,-1.1402262656897306,-0.5088344882786273,-0.7975611215159296
1773521771631447800,9.87944775390625,-1.1705284649729728,-0.5407984832942485,-1.0174068184897302
1773521771641486800,9.88948681640625,-0.8598919054836034,-0.5626689543187617,-1.2806862912595272
1773521771651524900,9.89952490234375,-0.4256838748505339,-0.5225754288613796,-1.5181106072828172
1773521771661564000,9.90956396484375,-0.018753800308704376,-0.3966881185233593,-1.6825956515625118
1773521771671601700,9.9196015625,0.2112777751147747,-0.12811258517205715,-1.7255083260938524
1773521771681641000,9.929640869140625,0.22371402630712836,0.28608547107875343,-1.5365814989969133
1773521771691679700,9.9396796875,0.05983392565064132,0.5615928495198488,-1.1301613832712172
1773521771701717800,9.9497177734375,-0.1467225930958986,0.6698048024356364,-0.6578706190139055
1773521771711756800,9.9597568359375,-0.35558804637193675,0.7074830834448337,-0.2251394194677472
1773521771721794800,9.969794921875,-0.583258810948208,0.7179360883980989,0.1196291267260909
1773521771731833600,9.97983349609375,-0.7512983328390866,0.7270657357931136,0.3335378348663449
1773521771741871900,9.989871826171875,-0.8507686878293752,0.7298796241700649,0.4120423395216465
1773521771751910700,9.99991064453125,-0.8471914138644934,0.7476403217881917,0.3700950028911233
1773521771761949700,10.00994970703125,-0.7017021619558333,0.7598293567538261,0.2595756498157978
1773521771771987700,10.01998779296875,-0.5442068669656291,0.7146335397213697,0.1592541578888893
1773521771782026800,10.03002685546875,-0.41086803504526614,0.5590010794609784,0.13443740427941084
1773521771792064800,10.040064697265626,-0.3575398014942184,0.3048872021824121,0.20746786143779752
1773521771802103800,10.050103759765625,-0.3524754307767376,0.013340543088316916,0.3966296663343906
1773521771812142800,10.060142822265625,-0.34489191684518006,-0.2278419564247131,0.662483665767312
1773521771822180900,10.070180908203126,-0.2743009252607822,-0.40333763954043383,0.9545040798529982
1773521771832220000,10.080219970703125,-0.22534838604331014,-0.4722229597181081,1.2133826873153448
1773521771842257700,10.090257568359375,-0.21635084059536455,-0.42495793519616126,1.427539232736826
1773521771852296700,10.100296630859376,-0.23807171054873613,-0.31383623231351376,1.5762214354678987
1773521771862335700,10.110335693359374,-0.283820485288836,-0.14206336911320686,1.6664055642619728
1773521771872373800,10.120373779296875,-0.37530042604710906,0.06452887853384018,1.7324658901467918
1773521771882412800,10.130412841796876,-0.4386795865565538,0.2078963159829378,1.8248536664649844
1773521771892450800,10.140450927734374,-0.4777577244263142,0.2423907062590122,1.9476459333971141
1773521771902489600,10.150489501953125,-0.4912374567896127,0.2492278588026762,2.0660428879797457
1773521771912528600,10.160528564453125,-0.4489139803230762,0.24565526101291177,2.0309166295409202
1773521771922567000,10.17056689453125,-0.40325635446514935,0.2484294019013643,1.786418429608643
1773521771932605700,10.180605712890625,-0.32262451892495153,0.2496498836070299,1.3836112436830996
1773521771942643500,10.1906435546875,-0.16552896384205668,0.17269348517656324,0.9966668127998709
1773521771952682500,10.2006826171875,-0.031277181795239445,-0.005676292070746421,0.6439014226332307
1773521771962720500,10.210720458984374,0.087955310296081,-0.18295067529678344,0.26664076589643954
1773521771972759600,10.220759521484375,0.20249880432095377,-0.287156899702549,-0.09622282443642616
1773521771982798300,10.23079833984375,0.3318762948622927,-0.33277591058313843,-0.41481823397576806
1773521771992836400,10.24083642578125,0.4617389751046896,-0.323265154916048,-0.6677519615590572
1773521772002875400,10.25087548828125,0.6424333959072828,-0.20543080265223979,-0.8613172621116042
1773521772012913400,10.260913330078125,0.8498457277655601,0.024646365478634833,-0.964851578605175
1773521772022952200,10.2709521484375,0.9942156202554702,0.03615560148656368,-1.098811136239767
1773521772032991500,10.280991455078125,1.066412256938219,0.05581657976806163,-1.192229424649477
1773521772043029200,10.291029296875,1.0022031118780375,0.12586802111566067,-1.1197516329377888
1773521772053068300,10.301068359375,0.8298813826233148,0.06418693322837353,-0.9864122530281543
1773521772063106300,10.311106201171874,0.6484936457943171,-0.16594284187257288,-0.9228671248346567
1773521772073145300,10.321145263671875,0.5671252761404961,-0.28998072495162486,-0.9034361559167504
1773521772083184400,10.331184326171876,0.611056260868907,-0.34899230136871334,-0.95423023134768
1773521772093222400,10.341222412109374,0.7107692655086517,-0.4987988319545984,-1.1292974599182606
1773521772103261400,10.351261474609375,0.8262601964514702,-0.5302034395217895,-1.2859788447096943
1773521772113299500,10.361299560546875,0.9716822283428161,-0.32209260400533674,-1.3172434592843054
1773521772123338500,10.37133837890625,0.9445382738947867,-0.21260580884814262,-1.3378829272091388
1773521772133376300,10.381376220703125,0.7053484095036983,-0.0914367592036724,-1.2108332950934766
1773521772143415600,10.39141552734375,0.3946487216502428,0.05038227975964546,-0.8696157193794846
1773521772153454300,10.401454345703126,0.1196264233123511,0.04442191005051136,-0.5157724708482623
1773521772163492400,10.411492431640625,-0.06190137957446277,0.034171734192967415,-0.13752484890073538
1773521772173531400,10.421531494140625,-0.17399225628282874,0.05732347719967365,0.22239859632700681
1773521772183569400,10.4315693359375,-0.2751028527608141,0.14016016584038735,0.544104246841371
1773521772193608400,10.4416083984375,-0.3038069691976532,0.1752437541812658,0.761696319669485
1773521772203647500,10.4516474609375,-0.25749529987778513,0.2060270149797201,0.8698091961249709
1773521772213685500,10.461685546875,-0.17555238173902032,0.221529120016098,0.9485188679635524
1773521772223724300,10.471724365234374,-0.09788288486944512,0.24503449876606462,1.0115703674212098
1773521772233762600,10.481762451171875,-0.012798709562886505,0.2603442961007357,1.0759262274757027
1773521772243801300,10.49180126953125,0.031574703437089915,0.2513584410905838,1.056962291547656
1773521772253839600,10.501839599609376,0.05013267977959476,0.25347674841880796,1.0156734188258647
1773521772263878400,10.51187841796875,0.050126259171962735,0.2521323480725288,0.8571694947823881
1773521772273917400,10.52191748046875,-0.0036684593796730038,0.2893956185400486,0.6293991422891616
1773521772283955500,10.53195556640625,-0.07465630479454993,0.4025643170803785,0.3310775822326541
1773521772293994500,10.541994384765625,-0.139748662430048,0.48008244104683395,0.010062252070009707
1773521772304032300,10.5520322265625,-0.12734393888711928,0.5884574755698442,-0.3003355302274227
1773521772314071300,10.5620712890625,-0.013655600386857985,0.7403571790426969,-0.5053434312924743
1773521772324110600,10.572110595703125,0.15068740507364273,0.8254360936522483,-0.6185720433264971
1773521772334148400,10.5821484375,0.24827450360059736,0.7339864749670029,-0.6178080732166766
1773521772344187400,10.5921875,0.20399463236927984,0.5797416696727276,-0.4967670338660478
1773521772354225400,10.602225341796874,0.0826660082489252,0.43894262140691276,-0.402222079513967
1773521772364264400,10.612264404296875,0.05806815808713436,0.3802735748171806,-0.395515567612648
1773521772374303200,10.62230322265625,0.1231891755615361,0.3690747199326753,-0.4881938513100147
1773521772384341500,10.632341552734376,0.26264088260531426,0.4270587068676948,-0.6269567175731062
1773521772394380300,10.64238037109375,0.4217091625332832,0.5154547832012176,-0.6973553649231791
1773521772404418600,10.65241845703125,0.5859691658854485,0.5951128418058157,-0.7220204351022839
1773521772414457300,10.662457275390626,0.69443480130136,0.5591910490751266,-0.7744321748629212
1773521772424495400,10.672495361328124,0.7675602432668208,0.29860359186828134,-0.8693921397566795
1773521772434534400,10.682534423828125,0.8514280285209417,-0.002613397368788719,-0.9450693120315671
1773521772444573400,10.692573486328126,0.9129583097606897,-0.30526831045448777,-1.1010077695012093
1773521772454611200,10.702611083984374,0.9228426479805261,-0.45117432647049427,-1.3317007314428686
1773521772464650500,10.712650390625,0.974116835078597,-0.2878928127616644,-1.4173884256005287
1773521772474688300,10.722688232421875,1.017681178451702,0.043354573079943656,-1.3275611474201083
1773521772484727300,10.732727294921874,0.8880039743114262,-0.012606383594870567,-1.2025623103544116
1773521772494766600,10.7427666015625,0.6114063894808291,-0.2821282578855753,-1.031592872491479
1773521772504804400,10.752804443359375,0.3148661964157596,-0.36957331710457797,-0.8591893101722001
1773521772514843400,10.762843505859376,0.08254260106496512,-0.22024609446823595,-0.7339440971300005
1773521772524881400,10.77288134765625,-0.06369717695005238,0.042623920717835426,-0.71364452868402
1773521772534920400,10.78292041015625,-0.10198737931251525,0.21912147435247897,-0.7208169045314192
1773521772544959200,10.792959228515626,-0.14871223254315555,0.16808102294504643,-0.8889207238301634
1773521772554997500,10.80299755859375,-0.1951209324967116,-0.2282049445182085,-0.8764780063644051
1773521772565036300,10.813036376953125,-0.10385664378311485,-0.5519897393941879,-0.506692215552926
1773521772575074600,10.823074462890625,-0.10193064415659756,-0.9341220938205719,-0.0662944269016385
1773521772585113300,10.83311328125,-0.2589396899998188,-1.3572609968960285,0.3500815579101443
1773521772595151400,10.8431513671875,-0.42879996104445306,-1.8709096074581144,0.8674103182896972
1773521772605190400,10.8531904296875,-0.5960930850148201,-2.3916139817506075,1.3662559119954705
1773521772615229400,10.8632294921875,-0.7593219917535782,-2.7570377779603,1.8650427612513303
1773521772625267500,10.873267333984375,-0.843973036339879,-2.363590833315253,2.089985489103198
1773521772635306200,10.88330615234375,-0.8837748853743076,-1.1206348455131052,2.0401304480880498
1773521772645344500,10.893344482421876,-0.8119996889740229,0.30885552129149435,1.7570055803805589
1773521772655383300,10.90338330078125,-0.664068889132142,1.2185229728132485,1.5660045773580669
1773521772665422300,10.91342236328125,-0.3824766378194093,1.7060072145491838,1.3550851141616702
1773521772675460400,10.92346044921875,-0.10435352392196655,2.267185053527355,1.1487670072808862
1773521772685499400,10.93349951171875,0.15797763514705002,2.741568406149745,0.8931889026686549
1773521772695537400,10.943537353515625,0.38760464835762976,2.9869623858779666,0.4289247930005193
1773521772705576400,10.953576416015625,0.5574992235306651,2.7348125021487473,-0.1481178468465805
1773521772715614200,10.9636142578125,0.8563526985067874,2.0438567751348016,-0.6121063544437289
1773521772725653500,10.973653564453125,1.344516666135192,1.155928861734271,-0.7855784227773547
1773521772735692500,10.983692626953125,1.7536884186565875,0.39044074856638905,-0.8491101069673895
1773521772745730300,10.993730224609376,1.86994806894958,-0.2021270849317312,-0.9686690910667181
1773521772755769600,11.00376953125,1.7856049212686715,-0.6953571768432856,-1.0912675889924168
1773521772765807400,11.013807373046875,1.652971789932251,-1.1569336548626423,-1.225530805748701
1773521772775846400,11.023846435546876,1.5362152960330246,-1.5144149676352738,-1.4043588481575249
1773521772785885400,11.033885498046875,1.4511720372587442,-1.6940373752921818,-1.5943980204105377
1773521772795923500,11.04392333984375,1.4485416887551545,-1.6720090833574532,-1.7937410275816916
1773521772805962200,11.053962158203126,1.5206231746256351,-1.4421692311137915,-2.028149210654199
1773521772816000500,11.06400048828125,1.6002344714790582,-1.1474147158890962,-2.3492881671965122
1773521772826039300,11.074039306640625,1.5896213075280188,-0.871041660529375,-2.698883695155382
1773521772836077600,11.08407763671875,1.3961644357860088,-0.651319882196188,-3.0056477971255777
1773521772846116400,11.094116455078124,0.9155080673087388,-0.5798176575183868,-3.216439542289078
1773521772856155400,11.1041552734375,0.27390403489768506,-0.6561205604761838,-3.387673768568039
1773521772866193400,11.114193359375,-0.31167481649592516,-0.8067956905901431,-3.5087487101882693
1773521772876232400,11.124232421875,-0.6732460289306939,-0.9637994392037391,-3.4871877435043452
1773521772886270500,11.1342705078125,-0.3358047568850219,-0.7277391050100326,-2.9863918925136326
1773521772896309200,11.144309326171875,0.3271446997631341,-0.5454898559808731,-2.317135663871467
1773521772906348500,11.1543486328125,0.8174122155420481,-0.6183616154462098,-1.8719348588526248
1773521772916386300,11.16438623046875,1.0081190579235553,-0.6890653832226992,-1.5430281909182666
1773521772926425300,11.17442529296875,0.9702321756649762,-0.618514175659418,-1.2539371082827449
1773521772936463400,11.18446337890625,0.7249252166330814,-0.48893560958802695,-1.029854504391551
1773521772946502100,11.194502197265624,0.40992637028098106,-0.8741372884571552,-1.3589768609032034
1773521772956540200,11.2045400390625,-0.04655526881739497,-25.14229021645784,-19.80759741421938
1773521772966579200,11.2145791015625,-0.6705513830192387,6.409529773172736,-0.2132841465011239
1773521772976618000,11.224617919921876,0.22588366196379064,8.336080603832006,2.747841787330806
1773521772986656300,11.23465625,1.6943958333410323,-0.5895160447120666,-3.2997911947146057
1773521772996695000,11.244695068359375,3.858233178988099,-4.457724674269556,-7.050463285911083
1773521773006733000,11.254733154296876,2.984894931954145,8.534505911636352,2.6625784560650585
1773521773016772000,11.264772216796874,2.499982586532831,0.017077976050972936,-1.6817796590045093
1773521773026811100,11.27481103515625,1.5996652932889759,4.77549649246633,2.2017709165915846
1773521773036849000,11.284848876953125,0.5741840355455875,4.626251102894544,4.311444564244151
1773521773046888200,11.29488818359375,0.4088210393875837,3.474178332066536,4.895422556312382
1773521773056926000,11.304926025390625,1.1005210088975728,2.0426398005604742,4.757025016230345
1773521773066965000,11.314965087890625,1.399480866857618,0.4450952988177538,4.560922890676558
1773521773077003000,11.3250029296875,1.4354409457720816,-0.1351040514945984,4.317824328409135
1773521773087042000,11.3350419921875,1.5273498525321483,-0.7552689169704914,4.405559602746367
1773521773097081000,11.3450810546875,1.4103443523079155,-0.9149760793238878,4.741022560456395
1773521773107119000,11.355119140625,1.0146814851790666,-0.5441127224087715,5.201656204667687
1773521773117158100,11.365158203125,0.523671407404542,-0.07983984491229057,5.547988346916437
1773521773127196200,11.375196044921875,0.1299532446026802,0.3491816864609718,5.379250905889273
1773521773137235200,11.385235107421876,0.24841135478802023,0.12477204257249831,4.566175112116337
1773521773147274000,11.39527392578125,2.828751599562168,-0.4215560177981853,2.6822058243378994
1773521773157312300,11.405312255859375,4.958690913391113,0.3092541652202606,1.3130933538675307
1773521773167351000,11.41535107421875,-0.7525565892718732,0.7771095773786306,1.658827822484076
1773521773177389000,11.42538916015625,-5.394525631910562,-1.0179308423638342,2.640566530743241
1773521773187428000,11.435427978515625,-7.879368516978621,-1.3806126463890074,3.462939729693532
1773521773197467100,11.445467041015625,-7.615009724539518,-0.6169324594259262,3.6725258984595537
1773521773207505200,11.455505126953126,-6.3582707105785605,-0.3321346900701523,3.3404207267448305
1773521773217544200,11.465544189453125,-4.713271799221634,-0.04471241742968559,2.81585090919584
1773521773227582200,11.475582275390625,-3.351382558003068,0.10803367373943329,2.25403711040169
1773521773237621000,11.48562109375,-2.2864240070044994,0.23026012348234653,1.892721626293659
1773521773247659300,11.4956591796875,-1.0285793698891996,0.4143728282958269,1.4525234518676995
1773521773257698000,11.505697998046875,0.3266507057011127,0.9048065674871206,1.0770683832481502
1773521773267737000,11.515737060546876,2.0651851021066308,1.3603385046452283,0.7789382541105151
1773521773277775000,11.525775146484374,3.7708512481331824,1.5643039109200239,0.34949586697667834
1773521773287814100,11.535814208984375,4.875220310761034,1.6728385199189184,-0.0881497003570199
1773521773297852200,11.54585205078125,5.806967199882864,1.5878490371584892,-0.4295385409846902
1773521773307891200,11.55589111328125,6.481102724999189,1.486150411659479,-0.8114040611684322
1773521773317930200,11.56593017578125,6.678436145913601,1.1229653342872858,-1.1661325681015848
1773521773327968000,11.575968017578125,6.435566131705046,0.6247264743030071,-1.4270605093091726
1773521773338007300,11.58600732421875,5.153109323641657,-0.06177168878018856,-1.5454565871089696
1773521773348045000,11.596045166015625,2.9099487043023107,-0.7864964144051074,-1.7023855169206856
1773521773358084000,11.606083984375,-1.6775535657420753,-1.497724529597163,-2.2652578848570584
1773521773368122000,11.6161220703125,-6.849194863635301,-21.48033773446083,-20.749173331177232
1773521773378161200,11.6261611328125,-6.170666071996092,0.2430231589436531,-5.13048189677
1773521773388200000,11.636199951171875,-3.721643272849917,8.856993652439117,2.4568594841212033
1773521773398238200,11.64623828125,0.8293250639148056,5.375791120824218,-4.531363910976052
1773521773408277000,11.656277099609374,6.791196263653039,-2.60808055768013,-31.177721888577935
1773521773418315300,11.666315185546875,4.1893619068861,-0.4236544513821602,5.947199846437573
1773521773428354000,11.67635400390625,0.7237947512984275,-0.12554302694499492,2.57686913459748
1773521773438393000,11.68639306640625,0.09637582304105162,-1.3644792577117681,0.9865162979245186
1773521773448431000,11.69643115234375,-0.2594980545349419,-1.2994096964299677,1.4022757582731544
1773521773458470100,11.70647021484375,-0.7613849156327546,-0.6458493418306112,0.8183426282599567
1773521773468508000,11.7165078125,-0.6930430546820163,0.3762222535997629,0.2557598909199238
1773521773478547200,11.726547119140625,-0.1466213246785104,1.3682786499947308,-0.31607582793384786
1773521773488585000,11.7365849609375,0.7061850064583123,1.921979869481921,-0.4422811181798577
1773521773498624000,11.7466240234375,1.3447082431845365,2.4114029703259465,-0.42613136288970704
1773521773508663300,11.756663330078124,1.1793073992341756,2.8262942695379256,-0.7246092825517058
1773521773518701000,11.766701171875,0.12883622327148914,3.0073657069593667,-1.3202072775259612
1773521773528740000,11.776739990234375,-0.4526071357525885,2.1847785729974505,-0.5425792292311787
1773521773538778000,11.786778076171874,-1.43532740239501,1.4800269603431224,-0.30926191013529897
1773521773548817200,11.796817138671875,-2.0892051523804662,1.0734773730188607,-0.16404884481951593
1773521773558856000,11.80685595703125,-2.155792132487893,0.6413099448353051,-0.10764657411798834
1773521773568894200,11.816894287109376,-1.8045517599314451,0.36757074511051174,-0.20706483359485864
1773521773578933000,11.82693310546875,-1.3368816412121056,0.19808686963021754,-0.36785628405362364
1773521773588971300,11.83697119140625,-0.9606084611427038,0.25994799025952814,-0.6661280136190354
1773521773599010300,11.84701025390625,-0.7707377773243933,0.43893151549100873,-1.0144260491132735
1773521773609048000,11.857048095703124,-1.0385773245513439,0.4938327339798212,-1.2342981957025825
1773521773619087000,11.867087158203125,0.01893967826962471,-0.3852104466974735,-1.6938956287339328
1773521773629126100,11.877126220703126,7.884642073467373,-2.2524171079844235,0.2717291750766337
1773521773639164200,11.8871640625,-14.811642061316967,1.5054168376654387,0.7540307534776628
1773521773649203000,11.897202880859375,7.069097259232401,0.10224047729074955,0.3685958503745496
1773521773659241200,11.9072412109375,-0.14339483691267668,2.673196880713105,-0.8461243691548704
1773521773669280000,11.917280029296874,6.548509204795956,1.291197748401761,-4.143006106163561
1773521773679319000,11.927319091796875,8.944376752337813,-3.129702046817541,-5.853025771224498
1773521773689357000,11.937357177734375,3.100378337177634,-3.764946992525458,-2.690105053155124
1773521773699396000,11.94739599609375,-3.600238660883903,-0.08533844232857227,1.0843019877634943
1773521773709434000,11.95743408203125,-5.425073914909363,1.3819687371730804,1.8085142338216305
1773521773719473200,11.96747314453125,-3.465550788974762,2.478153032040596,1.5518578324533998
1773521773729512200,11.97751220703125,-0.06716675275675953,2.5086054534494875,0.3824902279533446
1773521773739550200,11.98755029296875,2.472306644099951,1.6450070946633815,-0.6762823278866708
1773521773749589200,11.99758935546875,3.910743702948093,1.2064128483027219,-1.4266744326010345
1773521773759627000,12.007626953125,3.2961399787306784,1.3321405841648577,-1.4198343574479222
1773521773769666300,12.017666259765624,2.2696632802091536,0.8402063772827386,-0.26372853171154853
1773521773779704000,12.0277041015625,1.4471207160413264,0.4736930322706699,0.8297938504703343
1773521773789743000,12.0377431640625,1.4104538040317594,-0.2997305500715971,0.7194695815756916
1773521773799782100,12.0477822265625,0.9767360776662826,-0.7989040605574845,0.7661899778269231
1773521773809820200,12.057820068359375,0.6934804231859744,-1.0395873783767222,0.7389880826465786
1773521773819859000,12.06785888671875,0.44609103185683485,-0.8125842108637094,0.39626068689152594
1773521773829897200,12.077897216796876,0.5972635900989175,-0.3989215766638517,0.2275339133888483
1773521773839936000,12.08793603515625,0.9532628476202487,0.04595160383582115,0.2583591136328876
1773521773849975000,12.09797509765625,1.3779378742218016,0.46250177617073057,0.24177476631775496
1773521773860013000,12.108012939453126,1.9585235935032366,0.8398837211996316,0.2554220372676849
1773521773870052000,12.118052001953124,2.669951615181565,0.9115811761885881,0.3446889050863683
1773521773880090000,12.128090087890625,3.3794232420951125,0.7797229747474194,0.44075478539541363
1773521773890129200,12.138129150390625,4.025857982598245,0.40386429376304145,0.5574044579192996
1773521773900167200,12.148167236328124,4.4691973776593805,0.08393968144655227,0.7526238092891872
1773521773910206000,12.1582060546875,4.600814171560108,-0.06643032824099064,1.043175319866091
1773521773920245200,12.168245361328125,4.158389845517277,-0.11323007333874702,1.4200371865436434
1773521773930283000,12.178282958984376,3.574091535453498,-0.008456278178095817,1.7391826311811804
1773521773940322600,12.188322509765625,3.27553762794584,0.17224632593095301,1.902693131340295
1773521773950360800,12.19836083984375,3.0781767345026134,0.3815899181127548,1.9897426153704523
1773521773960399600,12.208399658203126,2.8197724665537476,0.5575467889994382,2.093069572723657
1773521773970438700,12.218438720703125,2.5392849616125224,0.7540431745678186,2.1997003939278423
1773521773980477000,12.228476806640625,2.2473057563200594,0.9915665670514107,2.2861349609300494
1773521773990515700,12.238515625,1.9666066544547676,1.2300620194375513,2.34213551896289
1773521774000553700,12.2485537109375,1.7225106055825947,1.438020294740796,2.3963215749196705
1773521774010592800,12.2585927734375,1.5672902332544325,1.5554647709041833,2.456168579247594
1773521774020631800,12.2686318359375,1.4311995088100433,1.6184586949557065,2.565299985095858
1773521774030669600,12.278669677734374,1.1915499179527163,1.5858324366390704,2.713495573353767
1773521774040708900,12.288708984375,0.9074255178138613,1.5079893185019493,2.853550817514956
1773521774050746600,12.29874658203125,0.5558388160377741,1.4319886133611202,3.0187475171953437
1773521774060785700,12.30878564453125,0.21812369548678398,1.1567074448913335,3.1691233721017835
1773521774070823700,12.31882373046875,-0.1064284304998815,0.7044903313696385,3.1184473700925706
1773521774080862700,12.32886279296875,-0.30825806685499846,0.35914486207067964,3.065689301112294
1773521774090901800,12.33890185546875,-0.38964338764362033,0.29237434208989144,3.079726009771228
1773521774100939800,12.348939697265624,-0.4661193090807646,0.4731441662162542,3.1525200278252363
1773521774110978800,12.358978759765625,-0.6655857234358787,0.7250082187414169,3.2843674156114457
1773521774121016800,12.369016845703126,-0.9297282427757978,0.9520295064330101,3.269260155111551
1773521774131055900,12.379055908203124,-0.657278498339653,0.8744733885437249,2.703907953058183
1773521774141094700,12.3890947265625,-2.075680484896898,1.2575029840707779,1.9069521039590238
1773521774151133000,12.3991328125,-8.140755600130557,0.7985299665480852,2.339082999524474
1773521774161171700,12.409171630859374,-8.752013521051406,0.5305325253456831,3.6064468678742645
1773521774171209700,12.419209716796875,-7.170975332951545,0.5492582686036824,3.9335762970030306
1773521774181248800,12.429248779296875,-5.440740855118632,0.453407200089097,3.7884620158866045
1773521774191287800,12.439287841796874,-4.133725359860063,0.3032148850560188,3.6975200544625517
1773521774201325600,12.44932568359375,-3.376940777629614,-0.07164660158455372,3.479694465139508
1773521774211364900,12.45936474609375,-3.0523125176668167,-0.4836702364057302,2.804116632260382
1773521774221402600,12.469402587890626,-2.5679203967273234,-1.021489996150136,2.0492615567877888
1773521774231441700,12.479441650390624,-1.8946750984489917,-1.0812748950272797,1.3518562152430413
1773521774241479700,12.489479736328125,-1.2102420512020586,-0.6541688418865204,0.698290015424788
1773521774251518700,12.499518798828126,-0.6454886918246746,-0.13059972581267357,0.07698094834983349
1773521774261557800,12.509557861328124,-0.05424129327535629,0.4580594098091125,-0.5124938875690103
1773521774271595800,12.519595703125,0.45117724907994267,0.7998655990660191,-0.9113435680404305
1773521774281634800,12.529634765625,0.8147989643037319,0.850948136049509,-1.0035589104011655
1773521774291672800,12.5396728515625,0.883109626398608,0.689336016857624,-0.9008172055900097
1773521774301712000,12.5497119140625,0.584188675676845,0.4588099359154701,-0.8558268480017781
1773521774311750700,12.559750732421875,0.1629787313699722,0.16204641895592212,-0.8687614406377077
1773521774321788700,12.56978857421875,-0.06433017762396484,-0.009842179578542708,-0.8891524867594242
1773521774331827700,12.57982763671875,-0.1230909941503778,-0.11648001504540442,-0.8463821433082223
1773521774341865700,12.58986572265625,-0.042090215699933466,-0.1571282517760992,-0.5762415525972843
1773521774351904500,12.599904541015626,0.1904664760206826,0.13320669344067573,0.05033201087713241
1773521774361943800,12.60994384765625,0.38187867192625996,0.7516396205574274,0.6642588587462902
1773521774371981600,12.619981689453125,0.4338496821820736,0.9589888240516186,0.9350549907565117
1773521774382020600,12.6300205078125,0.4271656743735075,1.3031167342543601,1.0106026914328337
1773521774392059000,12.640058837890624,0.24483634584546088,2.097461524072289,0.9903250425577164
1773521774402097700,12.65009765625,-0.06509467745674774,2.9194238041341305,0.9771110484585166
1773521774412136700,12.66013671875,-0.6019833120971918,3.5873306639939546,0.934593802985549
1773521774422174700,12.6701748046875,-1.1883306636452675,3.813795486846566,0.7649281411975621
1773521774432213800,12.6802138671875,-1.4794664038509129,3.0701024413794276,0.4082783108130097
1773521774442251800,12.690251708984375,-1.1899193210761994,2.171845441666245,0.21217180134505031
1773521774452290800,12.700290771484376,-0.5750783175041899,1.6344652423828838,0.1982628107190132
1773521774462328600,12.71032861328125,0.009363967607542873,0.8502239134281874,0.10657850649505853
1773521774472367900,12.720367919921875,0.5840460888683796,0.06578852320611477,-0.07422755798846482
1773521774482407000,12.730406982421876,1.1387199527800083,-0.5604898567140102,-0.26024375833570956
1773521774492444700,12.740444580078124,1.7027625335395336,-1.0034592494189738,-0.4728758706688881
1773521774502484000,12.75048388671875,2.242777757501602,-1.2836451410651206,-0.7040431721240281
1773521774512521700,12.760521728515625,2.560502813947201,-1.4291227025359867,-1.0053940168738364
1773521774522560800,12.770560791015624,1.958907039862871,-1.4677227745652197,-1.5754355457872151
1773521774532599800,12.780599853515625,0.5043360808808356,-0.9362456618458032,-2.222581649430096
1773521774542637800,12.790637939453125,-0.8747071972995996,-0.1712625755906105,-2.3352584728002546
1773521774552676600,12.800676513671876,-1.06108309780471,0.0973106196731329,-1.5460641976132987
1773521774562715000,12.81071484375,-0.11125380482971668,0.06934592342674732,-0.4400520439535379
1773521774572753700,12.820753662109375,0.7682119851738214,0.7028980937421322,-0.08856120376735925
1773521774582792700,12.830792724609376,1.3105220420747994,0.8471142569750547,-0.016302900025248528
1773521774592830700,12.840830810546874,1.7768050903499126,0.8706763343483209,-0.015176526343822478
1773521774602869800,12.850869873046875,2.1489652090772986,0.9834522341787815,-0.16782997079342601
1773521774612907800,12.86090771484375,2.4029776718080043,0.8575959035009145,-0.2902265164062381
1773521774622946800,12.87094677734375,2.4830475260838867,0.7613309934884309,-0.46505233743637797
1773521774632985900,12.88098583984375,2.5893486769422887,0.7056079372227192,-0.6286600143596529
1773521774643023600,12.891023681640625,2.935681695973873,0.42019174370765683,-0.6287889014363288
1773521774653063000,12.90106298828125,3.59640244372189,-0.10920973178148269,-0.35195991900265217
1773521774663100700,12.9111005859375,10.892135206198692,-12.08852058148384,25.725748276305197
1773521774673139700,12.9211396484375,-4.124996694481372,2.2620570429891345,9.884041867238283
1773521774683177700,12.931177734375,3.3834941447958347,6.403342608970403,-7.638441453531384
