time,seconds_elapsed,z,y,x
1773521762014430700,0.2624306640625,-0.9395751953125,-0.3293914794921875,-0.0063629150390625
1773521762024469800,0.2724697265625,-0.9373016357421875,-0.33770751953125,-0.00604248046875
1773521762034507800,0.2825078125,-0.936614990234375,-0.3351287841796875,-0.007659912109375
1773521762044546800,0.292546875,-0.9300537109375,-0.329315185546875,-0.009185791015625
1773521762054585600,0.302585693359375,-0.9241180419921875,-0.333343505859375,-0.0110015869140625
1773521762064623900,0.312623779296875,-0.92572021484375,-0.3372802734375,-0.016357421875
1773521762074662700,0.32266259765625,-0.93011474609375,-0.3338775634765625,-0.02294921875
1773521762084701700,0.33270166015625,-0.9299468994140625,-0.3300323486328125,-0.0208740234375
1773521762094739700,0.34273974609375,-0.9404754638671875,-0.331268310546875,-0.02239990234375
1773521762104778800,0.35277880859375,-0.9380950927734375,-0.3336639404296875,-0.01470947265625
1773521762114817800,0.36281787109375,-0.93310546875,-0.3297882080078125,-0.0060882568359375
1773521762124855800,0.372855712890625,-0.9326019287109375,-0.3325347900390625,0.0029144287109375
1773521762134894800,0.382894775390625,-0.9407501220703125,-0.3470916748046875,-0.000762939453125
1773521762144933600,0.39293359375,-0.937652587890625,-0.343963623046875,-0.004241943359375
1773521762154972000,0.402971923828125,-0.9615631103515625,-0.3319854736328125,-0.010711669921875
1773521762165010700,0.4130107421875,-0.92529296875,-0.32763671875,-0.013092041015625
1773521762175049700,0.4230498046875,-0.8724822998046875,-0.3325958251953125,-0.0285186767578125
1773521762185087700,0.433087646484375,-0.860382080078125,-0.3209075927734375,-0.0369873046875
1773521762195126800,0.443126708984375,-0.862274169921875,-0.30499267578125,-0.03350830078125
1773521762205165600,0.45316552734375,-0.8539886474609375,-0.3091888427734375,-0.0386810302734375
1773521762215203800,0.463203857421875,-0.84918212890625,-0.3040618896484375,-0.0374298095703125
1773521762225243000,0.473242919921875,-0.8770904541015625,-0.3297576904296875,-0.0007476806640625
1773521762235281700,0.48328173828125,-0.8413543701171875,-0.3500213623046875,0.0372467041015625
1773521762245320000,0.49331982421875,-0.8818206787109375,-0.3193817138671875,0.0183563232421875
1773521762255358700,0.503358642578125,-0.833099365234375,-0.3371124267578125,-0.009063720703125
1773521762265397800,0.513397705078125,-0.73651123046875,-0.448394775390625,-0.001129150390625
1773521762275435800,0.523435791015625,-0.692840576171875,-0.4741973876953125,0.0157928466796875
1773521762285474800,0.533474853515625,-0.6340484619140625,-0.4794769287109375,0.02667236328125
1773521762295513600,0.543513671875,-0.6299896240234375,-0.4842987060546875,0.029998779296875
1773521762305552000,0.5535517578125,-0.573333740234375,-0.4952392578125,0.0336151123046875
1773521762315590700,0.563590576171875,-0.5498046875,-0.504364013671875,0.0164031982421875
1773521762325629700,0.573629638671875,-0.602508544921875,-0.4783782958984375,-0.028656005859375
1773521762335668000,0.58366796875,-0.6464080810546875,-0.422698974609375,-0.011016845703125
1773521762345706800,0.593706787109375,-0.625030517578125,-0.3821563720703125,0.089874267578125
1773521762355745800,0.603745849609375,-0.5765228271484375,-0.2799835205078125,0.1865386962890625
1773521762365783800,0.61378369140625,-1.063995361328125,-0.0128021240234375,0.4166717529296875
1773521762375822800,0.62382275390625,-1.477935791015625,0.39471435546875,0.6176300048828125
1773521762385861600,0.633861572265625,-1.05352783203125,0.161468505859375,0.4837188720703125
1773521762395899600,0.643899658203125,-1.081390380859375,0.04449462890625,0.4223175048828125
1773521762405938700,0.653938720703125,-1.0752410888671875,0.1121826171875,0.385894775390625
1773521762415977700,0.663977783203125,-0.91229248046875,-0.0680389404296875,0.366912841796875
1773521762426015700,0.674015625,-0.765533447265625,-0.221649169921875,0.4017181396484375
1773521762436054800,0.6840546875,-0.6306610107421875,-0.16107177734375,0.4506988525390625
1773521762446093800,0.69409375,-0.6891632080078125,-0.078094482421875,0.448760986328125
1773521762456131600,0.704131591796875,-0.950164794921875,-0.05548095703125,0.5185546875
1773521762466171000,0.7141708984375,-0.967010498046875,-0.03680419921875,0.661773681640625
1773521762476209700,0.724209716796875,-0.9948272705078125,-0.064727783203125,0.810546875
1773521762486247700,0.73424755859375,-0.8050689697265625,-0.1983795166015625,0.852569580078125
1773521762496286700,0.74428662109375,-0.7230682373046875,-0.3024444580078125,0.7494964599609375
1773521762506325800,0.75432568359375,-0.877105712890625,-0.3403472900390625,0.4787139892578125
1773521762516363500,0.764363525390625,-1.02142333984375,-0.3856353759765625,0.327178955078125
1773521762526402800,0.77440283203125,-0.81280517578125,-0.3787689208984375,0.117279052734375
1773521762536441900,0.78444189453125,-0.619476318359375,-0.155609130859375,0.0807952880859375
1773521762546479600,0.794479736328125,-0.48248291015625,0.059478759765625,0.189483642578125
1773521762556519000,0.804518798828125,-0.5525665283203125,0.0848846435546875,0.1582183837890625
1773521762566557700,0.8145576171875,-0.695953369140625,0.07611083984375,0.1425628662109375
1773521762576595700,0.824595703125,-0.4894256591796875,0.1129913330078125,0.3991241455078125
1773521762586634800,0.834634765625,-0.5589447021484375,0.2186279296875,0.3360137939453125
1773521762596673800,0.844673828125,-0.6953887939453125,0.3169708251953125,0.12249755859375
1773521762606711600,0.854711669921875,-0.68597412109375,0.44146728515625,0.114105224609375
1773521762616750600,0.86475048828125,-0.6036529541015625,0.576263427734375,-0.0392608642578125
1773521762626790000,0.874789794921875,-0.526947021484375,0.781005859375,-0.1515350341796875
1773521762636828700,0.88482861328125,-0.4112396240234375,0.9382476806640625,-0.1800079345703125
1773521762646866700,0.89486669921875,-0.3663330078125,1.0436248779296875,-0.14276123046875
1773521762656905700,0.90490576171875,-0.3189239501953125,1.1304473876953125,-0.0660552978515625
1773521762666944800,0.91494482421875,-0.3031005859375,1.1370697021484375,0.0783843994140625
1773521762676982500,0.924982421875,-0.3009033203125,1.0898590087890625,0.2774200439453125
1773521762687021800,0.935021728515625,-0.300323486328125,1.0288543701171875,0.4720306396484375
1773521762697060900,0.945060791015625,-0.3016815185546875,0.989532470703125,0.6764373779296875
1773521762707098600,0.9550986328125,-0.3106842041015625,0.9943389892578125,0.8324737548828125
1773521762717138000,0.965137939453125,-0.3259429931640625,1.0160064697265625,0.93658447265625
1773521762727176700,0.9751767578125,-0.3390960693359375,1.05120849609375,1.0398101806640625
1773521762737214700,0.985214599609375,-0.3568267822265625,1.144622802734375,1.1338043212890625
1773521762747253800,0.995253662109375,-0.3646087646484375,1.2343292236328125,1.2106781005859375
1773521762757292800,1.005292724609375,-0.395843505859375,1.290557861328125,1.347991943359375
1773521762767330600,1.01533056640625,-0.4895172119140625,1.2569580078125,1.532867431640625
1773521762777369900,1.025369873046875,-0.6313934326171875,1.1309661865234375,1.7074432373046875
1773521762787409000,1.035408935546875,-0.751312255859375,0.9645843505859375,1.809478759765625
1773521762797446700,1.04544677734375,-0.8350067138671875,0.8489837646484375,1.82232666015625
1773521762807485700,1.055485595703125,-0.8859100341796875,0.82037353515625,1.7850799560546875
1773521762817524700,1.065524658203125,-0.9597930908203125,0.815704345703125,1.769500732421875
1773521762827562800,1.075562744140625,-0.9761199951171875,0.7903289794921875,1.7729949951171875
1773521762837601500,1.0856015625,-0.93817138671875,0.7383575439453125,1.76593017578125
1773521762847640800,1.095640869140625,-0.9309844970703125,0.651031494140625,1.7584686279296875
1773521762857678600,1.1056787109375,-0.921051025390625,0.5364532470703125,1.7398223876953125
1773521762867717600,1.115717529296875,-0.8987274169921875,0.427764892578125,1.7060546875
1773521762877757000,1.1257568359375,-0.8512420654296875,0.349395751953125,1.648406982421875
1773521762887794700,1.135794677734375,-0.796875,0.300689697265625,1.5798797607421875
1773521762897833700,1.145833740234375,-0.7340087890625,0.2655181884765625,1.4860382080078125
1773521762907872800,1.155872802734375,-0.68011474609375,0.2197723388671875,1.3884124755859375
1773521762917910800,1.165910888671875,-0.641845703125,0.1549224853515625,1.2883148193359375
1773521762927949600,1.175949462890625,-0.5946502685546875,0.1195068359375,1.1735382080078125
1773521762937988000,1.185988037109375,-0.5496978759765625,0.1222991943359375,1.0909423828125
1773521762948026000,1.196026123046875,-0.4994659423828125,0.1285858154296875,1.00970458984375
1773521762958065200,1.206065185546875,-0.4431915283203125,0.13568115234375,0.928924560546875
1773521762968104200,1.216104248046875,-0.4032440185546875,0.146148681640625,0.867889404296875
1773521762978143200,1.226143310546875,-0.3816375732421875,0.184783935546875,0.8088226318359375
1773521762988181000,1.236180908203125,-0.3596954345703125,0.2493438720703125,0.7541046142578125
1773521762998220300,1.24622021484375,-0.3429107666015625,0.30462646484375,0.7270965576171875
1773521763008259000,1.256259033203125,-0.3343505859375,0.3319549560546875,0.7189788818359375
1773521763018297000,1.266297119140625,-0.3511810302734375,0.3630218505859375,0.711029052734375
1773521763028336000,1.276336181640625,-0.368865966796875,0.4190216064453125,0.7092437744140625
1773521763038375200,1.286375244140625,-0.3707733154296875,0.466522216796875,0.7301177978515625
1773521763048413000,1.296412841796875,-0.3775634765625,0.4934844970703125,0.755340576171875
1773521763058452200,1.3064521484375,-0.3867645263671875,0.5283203125,0.7843780517578125
1773521763068491300,1.3164912109375,-0.390167236328125,0.5718231201171875,0.826263427734375
1773521763078529000,1.326529052734375,-0.36041259765625,0.6153106689453125,0.8475189208984375
1773521763088568300,1.336568359375,-0.378875732421875,0.668670654296875,0.880859375
1773521763098607000,1.346607177734375,-0.4445953369140625,0.7350006103515625,0.9154205322265625
1773521763108645000,1.35664501953125,-0.4521636962890625,0.791900634765625,0.92376708984375
1773521763118684200,1.36668408203125,-0.42626953125,0.7831268310546875,0.8850860595703125
1773521763128723200,1.37672314453125,-0.4601898193359375,0.7267303466796875,0.8187255859375
1773521763138761000,1.386760986328125,-0.418304443359375,0.7165069580078125,0.737060546875
1773521763148800300,1.39680029296875,-0.3861541748046875,0.710845947265625,0.6798095703125
1773521763158839300,1.40683935546875,-0.37945556640625,0.6571197509765625,0.6643829345703125
1773521763168877000,1.416876953125,-0.377960205078125,0.6319732666015625,0.662109375
1773521763178916000,1.426916015625,-0.3476715087890625,0.6735687255859375,0.6805572509765625
1773521763188955100,1.436955078125,-0.3455657958984375,0.732513427734375,0.7266845703125
1773521763198993200,1.4469931640625,-0.3210601806640625,0.7937469482421875,0.783203125
1773521763209032000,1.457031982421875,-0.284332275390625,0.859130859375,0.8128662109375
1773521763219071200,1.4670712890625,-0.26275634765625,0.8710784912109375,0.8023223876953125
1773521763229109000,1.47710888671875,-0.2505645751953125,0.82830810546875,0.7721405029296875
1773521763239148000,1.48714794921875,-0.2526702880859375,0.7632598876953125,0.727325439453125
1773521763249187300,1.497187255859375,-0.2742462158203125,0.737884521484375,0.6839141845703125
1773521763259226000,1.50722607421875,-0.3158721923828125,0.7888641357421875,0.656463623046875
1773521763269264100,1.51726416015625,-0.4002532958984375,0.840789794921875,0.636688232421875
1773521763279303200,1.52730322265625,-0.488250732421875,0.82684326171875,0.64984130859375
1773521763289342200,1.53734228515625,-0.538970947265625,0.7753143310546875,0.693878173828125
1773521763299380000,1.5473798828125,-0.5312347412109375,0.7622222900390625,0.7564544677734375
1773521763309419300,1.557419189453125,-0.4966583251953125,0.77880859375,0.7761993408203125
1773521763319458300,1.567458251953125,-0.47235107421875,0.7848663330078125,0.803009033203125
1773521763329496000,1.57749609375,-0.4323883056640625,0.7522430419921875,0.8514862060546875
1773521763339535400,1.587535400390625,-0.41094970703125,0.72369384765625,0.8368377685546875
1773521763349574100,1.59757421875,-0.4194183349609375,0.7054290771484375,0.820404052734375
1773521763359612200,1.607612060546875,-0.4354248046875,0.64373779296875,0.7892303466796875
1773521763369651200,1.617651123046875,-0.473419189453125,0.5778045654296875,0.7643280029296875
1773521763379690200,1.627690185546875,-0.5074462890625,0.5355224609375,0.75848388671875
1773521763389728000,1.63772802734375,-0.527435302734375,0.505462646484375,0.768463134765625
1773521763399767000,1.64776708984375,-0.51947021484375,0.4835968017578125,0.7873077392578125
1773521763409806300,1.657806396484375,-0.508941650390625,0.4884490966796875,0.8021392822265625
1773521763419844000,1.667843994140625,-0.4951934814453125,0.4973907470703125,0.839324951171875
1773521763429883100,1.677883056640625,-0.483428955078125,0.447906494140625,0.9322509765625
1773521763439922200,1.687922119140625,-0.465728759765625,0.3820648193359375,1.02886962890625
1773521763449960200,1.697960205078125,-0.4422454833984375,0.3361663818359375,1.0980224609375
1773521763459999000,1.7079990234375,-0.46319580078125,0.269805908203125,1.1595306396484375
1773521763470038300,1.718038330078125,-0.5362091064453125,0.18658447265625,1.2158050537109375
1773521763480076000,1.728075927734375,-0.53466796875,0.12042236328125,1.270965576171875
1773521763490115000,1.738114990234375,-0.4672393798828125,0.0924530029296875,1.3214569091796875
1773521763500154400,1.748154296875,-0.3898468017578125,0.1232452392578125,1.3697662353515625
1773521763510193200,1.758193115234375,-0.33544921875,0.1897735595703125,1.4168701171875
1773521763520231200,1.768231201171875,-0.29510498046875,0.2397918701171875,1.478668212890625
1773521763530270200,1.778270263671875,-0.242156982421875,0.255706787109375,1.5153961181640625
1773521763540309200,1.788309326171875,-0.2303466796875,0.284332275390625,1.5304107666015625
1773521763550347000,1.798346923828125,-0.2134857177734375,0.35089111328125,1.520782470703125
1773521763560386300,1.80838623046875,-0.2045440673828125,0.360107421875,1.50628662109375
1773521763570425300,1.81842529296875,-0.2337646484375,0.3441314697265625,1.489166259765625
1773521763580463000,1.828463134765625,-0.2717742919921875,0.367034912109375,1.4499359130859375
1773521763590502100,1.838502197265625,-0.322357177734375,0.39385986328125,1.37298583984375
1773521763600541200,1.848541259765625,-0.3741912841796875,0.4239654541015625,1.2960662841796875
1773521763610579200,1.8585791015625,-0.4249267578125,0.4683990478515625,1.23468017578125
1773521763620618000,1.868617919921875,-0.45733642578125,0.5342254638671875,1.19061279296875
1773521763630657300,1.8786572265625,-0.4828948974609375,0.563018798828125,1.1456298828125
1773521763640695000,1.888695068359375,-0.4961090087890625,0.5497283935546875,1.1018829345703125
1773521763650734000,1.898734130859375,-0.4936981201171875,0.5507354736328125,1.0658111572265625
1773521763660773000,1.908773193359375,-0.4967041015625,0.5563201904296875,1.0342559814453125
1773521763670811100,1.91881103515625,-0.5298919677734375,0.5619354248046875,1.000152587890625
1773521763680850200,1.92885009765625,-0.5416107177734375,0.581451416015625,0.9412078857421875
1773521763690889200,1.93888916015625,-0.5732879638671875,0.564697265625,0.886199951171875
1773521763700927200,1.94892724609375,-0.571014404296875,0.5579833984375,0.8513031005859375
1773521763710966000,1.958966064453125,-0.560272216796875,0.571319580078125,0.8289031982421875
1773521763721005300,1.96900537109375,-0.5941009521484375,0.5719146728515625,0.7875823974609375
1773521763731043000,1.97904296875,-0.5702362060546875,0.5933380126953125,0.7237091064453125
1773521763741082000,1.98908203125,-0.5021514892578125,0.620452880859375,0.679534912109375
1773521763751121200,1.99912109375,-0.45391845703125,0.59832763671875,0.6548309326171875
1773521763761160200,2.00916015625,-0.41082763671875,0.5428466796875,0.633392333984375
1773521763771198200,2.0191982421875,-0.418365478515625,0.52069091796875,0.5791168212890625
1773521763781237200,2.0292373046875,-0.411590576171875,0.542816162109375,0.55633544921875
1773521763791276300,2.0392763671875,-0.402069091796875,0.557830810546875,0.5461578369140625
1773521763801314000,2.04931396484375,-0.4565887451171875,0.4720001220703125,0.5151824951171875
1773521763811353000,2.05935302734375,-0.405975341796875,0.3287506103515625,0.463531494140625
1773521763821392100,2.06939208984375,-0.38665771484375,0.2766876220703125,0.4019012451171875
1773521763831430100,2.07943017578125,-0.4859619140625,0.305938720703125,0.410675048828125
1773521763841469000,2.089468994140625,-1.700164794921875,0.2533416748046875,0.439453125
1773521763851508200,2.09950830078125,-0.31146240234375,0.1337127685546875,0.43280029296875
1773521763861546000,2.1095458984375,-0.3249359130859375,0.0900726318359375,0.5338287353515625
1773521763871585000,2.1195849609375,-0.74505615234375,0.115478515625,0.4893646240234375
1773521763881624300,2.129624267578125,-0.5661468505859375,0.1412506103515625,0.522613525390625
1773521763891662000,2.139662109375,-0.2888031005859375,0.14453125,0.594207763671875
1773521763901701000,2.149701171875,-0.434844970703125,0.175048828125,0.5966033935546875
1773521763911740200,2.159740234375,-1.15728759765625,0.2252960205078125,0.5039520263671875
1773521763921778200,2.169778076171875,-1.2124176025390625,0.145660400390625,0.4124298095703125
1773521763931821600,2.179821533203125,0.328582763671875,0.2826690673828125,-0.0602874755859375
1773521763941860600,2.189860595703125,-0.4674072265625,0.2356109619140625,-0.2260894775390625
1773521763951898600,2.199898681640625,-1.077972412109375,0.2152557373046875,-0.0586395263671875
1773521763961937700,2.209937744140625,-0.852691650390625,0.18994140625,0.0380096435546875
1773521763971976400,2.2199765625,-0.67291259765625,0.226898193359375,0.034271240234375
1773521763982015500,2.230015380859375,-0.6337127685546875,0.118316650390625,-0.1132659912109375
1773521763992053500,2.240053466796875,-0.9090423583984375,-0.03704833984375,-0.145599365234375
1773521764002092500,2.250092529296875,-1.2448577880859375,-0.079864501953125,-0.0727691650390625
1773521764012131600,2.260131591796875,-1.28289794921875,-0.10113525390625,-0.0316314697265625
1773521764022169600,2.270169677734375,-1.1363067626953125,-0.0539093017578125,0.0812225341796875
1773521764032208600,2.280208740234375,-1.226348876953125,0.0050811767578125,0.143646240234375
1773521764042247400,2.290247314453125,-1.314239501953125,-0.0051727294921875,0.1815643310546875
1773521764052285700,2.30028564453125,-1.2957305908203125,-0.0385284423828125,0.1907806396484375
1773521764062324500,2.310324462890625,-1.142730712890625,-0.0388336181640625,0.1694183349609375
1773521764072363500,2.320363525390625,-0.855743408203125,0.077789306640625,0.1351470947265625
1773521764082401500,2.330401611328125,-0.656219482421875,0.20904541015625,0.059356689453125
1773521764092440600,2.340440673828125,-0.6487579345703125,0.148956298828125,0.0396881103515625
1773521764102479600,2.350479736328125,-0.576568603515625,-0.012420654296875,0.1483001708984375
1773521764112517600,2.360517578125,-0.542144775390625,-0.184051513671875,0.2254486083984375
1773521764122556700,2.370556640625,-0.595306396484375,-0.3527069091796875,0.200103759765625
1773521764132595500,2.380595458984375,-0.6436004638671875,-0.4337310791015625,0.1095733642578125
1773521764142633700,2.3906337890625,-0.7146148681640625,-0.3141937255859375,0.041290283203125
1773521764152672500,2.400672607421875,-0.74334716796875,-0.274871826171875,0.0150604248046875
1773521764162711600,2.410711669921875,-0.7950286865234375,-0.2586212158203125,-0.0012664794921875
1773521764172750600,2.42075048828125,-0.858001708984375,-0.2600250244140625,0.10955810546875
1773521764182788600,2.43078857421875,-0.821197509765625,-0.1610107421875,0.2776336669921875
1773521764192827600,2.44082763671875,-0.822723388671875,0.06280517578125,0.387176513671875
1773521764202866400,2.450866455078125,-0.777679443359375,0.225250244140625,0.3854827880859375
1773521764212904700,2.46090478515625,-0.6674346923828125,0.2657623291015625,0.3649444580078125
1773521764222943500,2.470943603515625,-0.495941162109375,0.2362060546875,0.3392181396484375
1773521764232982500,2.480982421875,-0.4756927490234375,0.21136474609375,0.2942657470703125
1773521764243020500,2.4910205078125,-0.5749359130859375,0.178009033203125,0.3961334228515625
1773521764253059600,2.5010595703125,-0.6146392822265625,0.195953369140625,0.5585784912109375
1773521764263098600,2.5110986328125,-0.5634765625,0.303924560546875,0.5619964599609375
1773521764273136600,2.52113671875,-0.4721527099609375,0.40093994140625,0.556488037109375
1773521764283175700,2.53117578125,-0.38189697265625,0.4845123291015625,0.4484100341796875
1773521764293214500,2.54121435546875,-0.31573486328125,0.551971435546875,0.34393310546875
1773521764303252700,2.551252685546875,-0.2280731201171875,0.6965179443359375,0.2996368408203125
1773521764313291500,2.56129150390625,-0.136444091796875,0.72943115234375,0.30072021484375
1773521764323330600,2.57133056640625,-0.1027069091796875,0.68402099609375,0.3492889404296875
1773521764333368600,2.58136865234375,-0.106781005859375,0.6766815185546875,0.3782501220703125
1773521764343407600,2.59140771484375,-0.1452178955078125,0.7544097900390625,0.393768310546875
1773521764353446700,2.60144677734375,-0.2575836181640625,0.85235595703125,0.470062255859375
1773521764363484700,2.611484619140625,-0.335357666015625,0.9361114501953125,0.5579681396484375
1773521764373523700,2.621523681640625,-0.366668701171875,1.0229339599609375,0.6314239501953125
1773521764383562500,2.6315625,-0.389129638671875,1.06671142578125,0.7303314208984375
1773521764393600800,2.641600830078125,-0.4374847412109375,1.059783935546875,0.8929290771484375
1773521764403639600,2.6516396484375,-0.55767822265625,1.0208740234375,1.1178436279296875
1773521764413678600,2.6616787109375,-0.718963623046875,0.9481048583984375,1.3338470458984375
1773521764423717400,2.67171728515625,-0.8563385009765625,0.8570556640625,1.5216522216796875
1773521764433755600,2.681755615234375,-0.93194580078125,0.74542236328125,1.661712646484375
1773521764443794700,2.691794677734375,-0.9617462158203125,0.68475341796875,1.795684814453125
1773521764453833500,2.70183349609375,-0.9042510986328125,0.6091461181640625,1.868255615234375
1773521764463871700,2.711871826171875,-0.77593994140625,0.46734619140625,1.9170684814453125
1773521764473910500,2.72191064453125,-0.65313720703125,0.2833404541015625,1.9761505126953125
1773521764483949600,2.731949462890625,-0.5553741455078125,0.167388916015625,2.0587310791015625
1773521764493987600,2.741987548828125,-0.4755859375,0.127227783203125,2.0791473388671875
1773521764504026600,2.752026611328125,-0.3629913330078125,0.0576934814453125,2.0626983642578125
1773521764514065400,2.7620654296875,-0.256072998046875,-0.030120849609375,2.068389892578125
1773521764524103700,2.772103759765625,-0.11700439453125,-0.060791015625,2.0736083984375
1773521764534142700,2.782142822265625,-0.020233154296875,0.0131683349609375,2.0195465087890625
1773521764544181500,2.792181396484375,0.066162109375,0.1118316650390625,1.9141387939453125
1773521764554219800,2.8022197265625,0.13311767578125,0.1696624755859375,1.7852020263671875
1773521764564258600,2.812258544921875,0.183380126953125,0.211029052734375,1.6749267578125
1773521764574297600,2.822297607421875,0.313873291015625,0.2443389892578125,1.560302734375
1773521764584335600,2.832335693359375,0.4257659912109375,0.2744903564453125,1.4533233642578125
1773521764594374700,2.842374755859375,0.5224456787109375,0.33612060546875,1.3399658203125
1773521764604413400,2.852413330078125,0.637420654296875,0.497894287109375,1.256011962890625
1773521764614451700,2.86245166015625,0.674163818359375,0.6966552734375,1.0898590087890625
1773521764624490500,2.872490478515625,0.6912078857421875,0.8996124267578125,0.8283843994140625
1773521764634529500,2.882529541015625,0.7024688720703125,1.06817626953125,0.62664794921875
1773521764644567800,2.89256787109375,0.68524169921875,1.200103759765625,0.4596405029296875
1773521764654606600,2.902606689453125,0.6475372314453125,1.2880401611328125,0.3957977294921875
1773521764664645600,2.912645751953125,0.5008697509765625,1.2970733642578125,0.47369384765625
1773521764674683600,2.92268359375,0.267181396484375,1.172027587890625,0.5416259765625
1773521764684722700,2.93272265625,0.0617218017578125,1.0014801025390625,0.6274871826171875
1773521764694761500,2.942761474609375,-0.1116943359375,0.849029541015625,0.6968536376953125
1773521764704799700,2.9527998046875,-0.1615142822265625,0.6939697265625,0.756622314453125
1773521764714838500,2.962838623046875,-0.1438446044921875,0.581787109375,0.8797607421875
1773521764724877600,2.972877685546875,-0.21002197265625,0.45147705078125,1.01129150390625
1773521764734915600,2.98291552734375,-0.3202362060546875,0.2856597900390625,1.0671234130859375
1773521764744954600,2.99295458984375,-0.4603271484375,0.087005615234375,1.1630706787109375
1773521764754993700,3.00299365234375,-0.556060791015625,-0.2312164306640625,1.504425048828125
1773521764765031700,3.01303173828125,-0.495269775390625,-0.1625213623046875,1.218963623046875
1773521764775070700,3.02307080078125,-0.405609130859375,0.2337493896484375,0.848052978515625
1773521764785109500,3.033109619140625,-0.2500457763671875,0.2899627685546875,1.0774383544921875
1773521764795147800,3.043147705078125,-0.3163604736328125,0.360260009765625,0.8724517822265625
1773521764805186600,3.0531865234375,-0.4168701171875,0.248291015625,0.91229248046875
1773521764815225600,3.0632255859375,-0.2508544921875,0.1702728271484375,1.0361175537109375
1773521764825263600,3.073263671875,-0.14617919921875,0.3272705078125,0.752471923828125
1773521764835302700,3.083302734375,-0.00579833984375,0.2391204833984375,0.7959747314453125
1773521764845341700,3.093341796875,0.128753662109375,0.1840362548828125,0.8772430419921875
1773521764855380500,3.10338037109375,0.1577301025390625,0.415374755859375,0.700714111328125
1773521764865418800,3.113418701171875,-0.0108642578125,0.6165924072265625,0.7805633544921875
1773521764875457500,3.12345751953125,-0.2385101318359375,0.5954132080078125,0.8062896728515625
1773521764885496600,3.13349658203125,-0.287872314453125,0.5491180419921875,0.743408203125
1773521764895534600,3.14353466796875,-0.130157470703125,0.6988372802734375,0.690765380859375
1773521764905573600,3.15357373046875,0.03826904296875,0.787353515625,0.561767578125
1773521764915612700,3.16361279296875,0.051239013671875,0.729583740234375,0.473114013671875
1773521764925650700,3.173650634765625,-0.0459136962890625,0.713287353515625,0.532073974609375
1773521764935689200,3.183689208984375,-0.169342041015625,0.80804443359375,0.60443115234375
1773521764945728300,3.193728271484375,-0.280670166015625,0.874053955078125,0.66485595703125
1773521764955766300,3.203766357421875,-0.3365020751953125,0.8112030029296875,0.7196197509765625
1773521764965805300,3.213805419921875,-0.254791259765625,0.551300048828125,0.7321014404296875
1773521764975844000,3.223843994140625,-0.1824493408203125,0.4002838134765625,0.7245330810546875
1773521764985882400,3.23388232421875,-0.162506103515625,0.3663482666015625,0.7938995361328125
1773521764995921200,3.243921142578125,-0.2098846435546875,0.37164306640625,0.846160888671875
1773521765005960200,3.253960205078125,-0.3012847900390625,0.41558837890625,0.858978271484375
1773521765015998200,3.263998291015625,-0.3753204345703125,0.4486846923828125,0.8297576904296875
1773521765026037200,3.274037353515625,-0.3871612548828125,0.446807861328125,0.8122711181640625
1773521765036076300,3.284076171875,-0.4030609130859375,0.474212646484375,0.79254150390625
1773521765046114300,3.2941142578125,-0.4485626220703125,0.5341644287109375,0.7503509521484375
1773521765056153300,3.3041533203125,-0.4158477783203125,0.5745086669921875,0.7227020263671875
1773521765066192100,3.314192138671875,-0.412384033203125,0.6340179443359375,0.7008514404296875
1773521765076230400,3.32423046875,-0.4137420654296875,0.65130615234375,0.69732666015625
1773521765086269200,3.334269287109375,-0.354705810546875,0.633758544921875,0.71636962890625
1773521765096308200,3.34430810546875,-0.33135986328125,0.6579132080078125,0.7438201904296875
1773521765106346200,3.35434619140625,-0.344940185546875,0.6658782958984375,0.7870635986328125
1773521765116385300,3.36438525390625,-0.39166259765625,0.668975830078125,0.7918701171875
1773521765126424300,3.37442431640625,-0.385406494140625,0.6446075439453125,0.791961669921875
1773521765136462300,3.38446240234375,-0.23687744140625,0.5372467041015625,0.88958740234375
1773521765146501400,3.39450146484375,-0.2855987548828125,0.5474395751953125,0.9141693115234375
1773521765156540200,3.4045400390625,-0.2920989990234375,0.482635498046875,0.95758056640625
1773521765166578200,3.414578125,-0.3293609619140625,0.4450836181640625,1.0542144775390625
1773521765176617200,3.4246171875,-0.349609375,0.3990631103515625,1.10821533203125
1773521765186656300,3.43465625,-0.39849853515625,0.382781982421875,1.03173828125
1773521765196694000,3.444694091796875,-0.282562255859375,0.1849212646484375,0.9644622802734375
1773521765206733300,3.4547333984375,-0.2530670166015625,-0.0194091796875,1.0805206298828125
1773521765216772400,3.4647724609375,-0.3562774658203125,0.03118896484375,1.13177490234375
1773521765226810000,3.47481005859375,-0.394683837890625,0.078155517578125,1.1260528564453125
1773521765236849400,3.484849365234375,-0.39208984375,0.093017578125,1.135650634765625
1773521765246888200,3.49488818359375,-0.3975067138671875,0.1873016357421875,1.0728759765625
1773521765256926200,3.50492626953125,-0.3398590087890625,0.317779541015625,0.99658203125
1773521765266965200,3.51496533203125,-0.331817626953125,0.4078216552734375,0.9087371826171875
1773521765277004300,3.52500439453125,-0.303863525390625,0.4673614501953125,0.8282623291015625
1773521765287042000,3.5350419921875,-0.209930419921875,0.4611053466796875,0.82183837890625
1773521765297081300,3.545081298828125,-0.17578125,0.4322662353515625,0.769775390625
1773521765307120400,3.555120361328125,-0.1068572998046875,0.49114990234375,0.70159912109375
1773521765317158100,3.565158203125,-0.1546173095703125,0.68328857421875,0.6613922119140625
1773521765327197400,3.575197509765625,-0.3560791015625,0.979705810546875,0.6036224365234375
1773521765337236200,3.585236328125,-0.502349853515625,1.1770172119140625,0.615325927734375
1773521765347274200,3.595274169921875,-0.52899169921875,1.02215576171875,0.7036895751953125
1773521765357313300,3.605313232421875,-0.3950958251953125,0.7242431640625,0.6856842041015625
1773521765367352300,3.615352294921875,-0.268646240234375,0.5424957275390625,0.6752166748046875
1773521765377390000,3.62539013671875,-0.2201995849609375,0.5029296875,0.7226409912109375
1773521765387429000,3.63542919921875,-0.3836517333984375,0.6426239013671875,0.7799072265625
1773521765397468400,3.645468505859375,-0.7394561767578125,0.968841552734375,0.7637786865234375
1773521765407506200,3.655506103515625,-0.997161865234375,1.1675872802734375,0.636474609375
1773521765417545200,3.665545166015625,-0.9527130126953125,1.1033782958984375,0.48895263671875
1773521765427584300,3.675584228515625,-0.5381011962890625,0.58404541015625,0.57476806640625
1773521765437622300,3.685622314453125,-0.2511138916015625,0.15582275390625,0.60125732421875
1773521765447661000,3.6956611328125,-0.3175506591796875,0.1827545166015625,0.6595306396484375
1773521765457700400,3.705700439453125,-0.415069580078125,0.1988983154296875,0.6967926025390625
1773521765467738000,3.715738037109375,-0.4261474609375,0.2151641845703125,0.6777496337890625
1773521765477777200,3.725777099609375,-0.3625335693359375,0.24078369140625,0.6735992431640625
1773521765487816400,3.73581640625,-0.2392730712890625,0.1169281005859375,0.6992034912109375
1773521765497854200,3.745854248046875,-0.103363037109375,0.0307159423828125,0.65478515625
1773521765507893200,3.755893310546875,0.0435638427734375,0.007659912109375,0.6721343994140625
1773521765517932300,3.765932373046875,0.09149169921875,-0.0818023681640625,0.8248291015625
1773521765527970300,3.77597021484375,0.03900146484375,0.1318817138671875,0.8887786865234375
1773521765538009000,3.786009033203125,-0.1178131103515625,0.6065521240234375,0.733428955078125
1773521765548048400,3.79604833984375,-0.2328033447265625,0.9947052001953125,0.62689208984375
1773521765558086100,3.806086181640625,-0.279083251953125,1.2279815673828125,0.5421295166015625
1773521765568125200,3.816125244140625,-0.2523345947265625,1.2928924560546875,0.4599761962890625
1773521765578164200,3.826164306640625,-0.20654296875,1.2365875244140625,0.4739227294921875
1773521765588202200,3.8362021484375,-0.184478759765625,1.14044189453125,0.5918426513671875
1773521765598241300,3.8462412109375,-0.2293701171875,0.988128662109375,0.6766510009765625
1773521765608280000,3.856280029296875,-0.2684326171875,0.8177490234375,0.6920623779296875
1773521765618318300,3.866318359375,-0.29412841796875,0.677703857421875,0.7456207275390625
1773521765628357000,3.876357177734375,-0.2535552978515625,0.6032257080078125,0.7955474853515625
1773521765638396200,3.886396240234375,-0.2269134521484375,0.64691162109375,0.8682708740234375
1773521765648434200,3.89643408203125,-0.2442779541015625,0.6781768798828125,0.9348907470703125
1773521765658473200,3.90647314453125,-0.2617340087890625,0.572021484375,1.0821380615234375
1773521765668512300,3.91651220703125,-0.2605133056640625,0.4555816650390625,1.2271270751953125
1773521765678550300,3.92655029296875,-0.32177734375,0.428192138671875,1.2506256103515625
1773521765688589300,3.93658935546875,-0.3443603515625,0.4358978271484375,1.21771240234375
1773521765698628000,3.946628173828125,-0.2165679931640625,0.413177490234375,1.133392333984375
1773521765708666400,3.956666259765625,-0.1634674072265625,0.466766357421875,0.9749603271484375
1773521765718705200,3.966705078125,-0.1483306884765625,0.57965087890625,0.817047119140625
1773521765728744200,3.976744140625,-0.1947174072265625,0.6634368896484375,0.7099456787109375
1773521765738782200,3.9867822265625,-0.3267669677734375,0.7125091552734375,0.6615142822265625
1773521765748821200,3.9968212890625,-0.3646392822265625,0.6707611083984375,0.652435302734375
1773521765758860300,4.0068603515625,-0.3518524169921875,0.6079254150390625,0.6225433349609375
1773521765768898300,4.016898193359375,-0.334564208984375,0.588226318359375,0.60992431640625
1773521765778937300,4.026937255859375,-0.2896881103515625,0.5935516357421875,0.611328125
1773521765788976000,4.03697607421875,-0.29669189453125,0.58380126953125,0.629913330078125
1773521765799014400,4.047014404296875,-0.326416015625,0.5570831298828125,0.70684814453125
1773521765809053200,4.05705322265625,-0.4219512939453125,0.587188720703125,0.7542266845703125
1773521765819092200,4.06709228515625,-0.5719451904296875,0.625030517578125,0.7403717041015625
1773521765829130200,4.077130126953125,-0.594329833984375,0.5831146240234375,0.7502288818359375
1773521765839169300,4.087169189453125,-0.5337982177734375,0.52490234375,0.7824249267578125
1773521765849208300,4.097208251953125,-0.416534423828125,0.466522216796875,0.8218994140625
1773521765859246300,4.107246337890625,-0.28314208984375,0.426605224609375,0.8640899658203125
1773521765869285400,4.117285400390625,-0.2630767822265625,0.4076995849609375,0.8949432373046875
1773521765879324200,4.12732421875,-0.3225860595703125,0.39019775390625,0.8919677734375
1773521765889362400,4.137362548828125,-0.3097991943359375,0.4180908203125,0.8963470458984375
1773521765899401200,4.147401123046875,-0.3184356689453125,0.48040771484375,0.91302490234375
1773521765909440300,4.157440185546875,-0.322479248046875,0.4933013916015625,0.910186767578125
1773521765919478300,4.167478271484375,-0.2791900634765625,0.4741363525390625,0.9275665283203125
1773521765929517300,4.177517333984375,-0.2900848388671875,0.4613494873046875,0.9914398193359375
1773521765939552500,4.187552490234375,-0.3761749267578125,0.465118408203125,0.953033447265625
1773521765949590800,4.1975908203125,-0.4100189208984375,0.447418212890625,0.929412841796875
1773521765959629800,4.2076298828125,-0.412139892578125,0.4093017578125,0.9658660888671875
1773521765969668600,4.217668701171875,-0.3920440673828125,0.4010009765625,0.946380615234375
1773521765979707000,4.227706787109375,-0.3303985595703125,0.37158203125,0.96624755859375
1773521765989745700,4.23774560546875,-0.3192138671875,0.3239593505859375,0.96160888671875
1773521765999784700,4.24778466796875,-0.326751708984375,0.3133392333984375,0.893829345703125
1773521766009822700,4.25782275390625,-0.32269287109375,0.319427490234375,0.862457275390625
1773521766019861800,4.26786181640625,-0.400848388671875,0.3506317138671875,0.83502197265625
1773521766029900500,4.277900634765625,-0.3815460205078125,0.3846435546875,0.7996978759765625
1773521766039938800,4.287938720703125,-0.3244171142578125,0.3468475341796875,0.826629638671875
1773521766049977600,4.2979775390625,-0.350372314453125,0.2767333984375,0.845123291015625
1773521766060015600,4.308015625,-0.4121856689453125,0.2186126708984375,0.8647918701171875
1773521766070054700,4.3180546875,-0.4971466064453125,0.1743927001953125,0.9505615234375
1773521766080093700,4.32809375,-0.5430908203125,0.153045654296875,0.9312591552734375
1773521766090131700,4.338131591796875,-0.487060546875,0.0972747802734375,0.9297637939453125
1773521766100170500,4.34817041015625,-0.489166259765625,0.0791473388671875,0.927886962890625
1773521766110209800,4.358209716796875,-0.4740753173828125,0.152252197265625,0.902618408203125
1773521766120247600,4.36824755859375,-0.439697265625,0.20770263671875,0.8993377685546875
1773521766130286600,4.37828662109375,-0.360565185546875,0.2833709716796875,0.86676025390625
1773521766140325600,4.38832568359375,-0.3412933349609375,0.2581939697265625,0.8640899658203125
1773521766150363600,4.39836376953125,-0.5029144287109375,0.1594085693359375,0.8291473388671875
1773521766160402400,4.40840234375,-0.6063385009765625,0.158050537109375,0.800048828125
1773521766170441700,4.418441650390625,-0.554718017578125,0.2174835205078125,0.8425140380859375
1773521766180479700,4.428479736328125,-0.592193603515625,0.1734771728515625,0.771270751953125
1773521766190518500,4.4385185546875,-0.6021728515625,0.22412109375,0.7058563232421875
1773521766200557800,4.448557861328125,-0.630615234375,0.3348388671875,0.701690673828125
1773521766210595600,4.458595703125,-0.7158966064453125,0.4605712890625,0.6821441650390625
1773521766220634600,4.468634521484375,-0.7600555419921875,0.566558837890625,0.696563720703125
1773521766230673700,4.478673583984375,-0.772491455078125,0.6226043701171875,0.730560302734375
1773521766240711700,4.488711669921875,-0.7779541015625,0.6451416015625,0.77484130859375
1773521766250750500,4.49875048828125,-0.6693878173828125,0.60992431640625,0.762176513671875
1773521766260789800,4.508789794921875,-0.539520263671875,0.645843505859375,0.68524169921875
1773521766270827800,4.518827880859375,-0.510040283203125,0.77935791015625,0.5889892578125
1773521766280866600,4.528866455078125,-0.482818603515625,0.8860931396484375,0.622161865234375
1773521766290905600,4.538905517578125,-0.5595703125,0.975921630859375,0.652130126953125
1773521766300943600,4.548943603515625,-0.63226318359375,0.9923858642578125,0.5996551513671875
1773521766310982700,4.558982666015625,-0.6078948974609375,0.99822998046875,0.6473236083984375
1773521766321021400,4.569021484375,-0.6328125,0.95745849609375,0.6402130126953125
1773521766331059700,4.579059814453125,-0.554412841796875,0.7930450439453125,0.5832061767578125
1773521766341098500,4.589098388671875,-0.3318023681640625,0.528167724609375,0.690155029296875
1773521766351137500,4.599137451171875,-0.1214447021484375,0.3309326171875,0.695648193359375
1773521766361175600,4.609175537109375,-0.0566864013671875,0.2854156494140625,0.6720428466796875
1773521766371214600,4.619214599609375,-0.1980743408203125,0.3243560791015625,0.7357025146484375
1773521766381253600,4.629253662109375,-0.4130859375,0.43280029296875,0.6820526123046875
1773521766391291600,4.639291748046875,-0.4564971923828125,0.564910888671875,0.6818084716796875
1773521766401330700,4.64933056640625,-0.5090789794921875,0.6004791259765625,0.824981689453125
1773521766411368700,4.65936865234375,-0.6341552734375,0.571075439453125,0.9261627197265625
1773521766421407700,4.66940771484375,-0.7511444091796875,0.5018768310546875,0.952178955078125
1773521766431446500,4.679446533203125,-0.801666259765625,0.3866729736328125,1.0591888427734375
1773521766441484800,4.68948486328125,-0.757080078125,0.092498779296875,1.26702880859375
1773521766451523600,4.699523681640625,-0.6833953857421875,-0.3017730712890625,1.3954315185546875
1773521766461562600,4.709562744140625,-0.64166259765625,-0.55657958984375,1.451385498046875
1773521766471601000,4.719600830078125,-0.5712127685546875,-0.642242431640625,1.4739990234375
1773521766481639700,4.7296396484375,-0.5648193359375,-0.642578125,1.414947509765625
1773521766491678700,4.7396787109375,-0.557830810546875,-0.5955352783203125,1.36993408203125
1773521766501716700,4.749716796875,-0.5384063720703125,-0.484466552734375,1.320220947265625
1773521766511755800,4.759755859375,-0.5105438232421875,-0.37451171875,1.2207183837890625
1773521766521794600,4.769794677734375,-0.5198974609375,-0.32794189453125,1.1111602783203125
1773521766531832600,4.77983251953125,-0.5313873291015625,-0.3670501708984375,1.053985595703125
1773521766541871600,4.78987158203125,-0.487060546875,-0.425811767578125,1.008270263671875
1773521766551910700,4.79991064453125,-0.4493408203125,-0.4476318359375,0.9749298095703125
1773521766561948400,4.809948486328125,-0.3931884765625,-0.4698638916015625,1.0157318115234375
1773521766571987700,4.81998779296875,-0.4612884521484375,-0.455413818359375,1.018524169921875
1773521766582026800,4.83002685546875,-0.6039886474609375,-0.3514862060546875,0.91326904296875
1773521766592064500,4.840064453125,-0.70068359375,-0.210723876953125,0.860260009765625
1773521766602103800,4.850103759765625,-0.7938232421875,-0.1028594970703125,0.8470458984375
1773521766612141600,4.8601416015625,-0.9238128662109375,-0.0575714111328125,0.7996978759765625
1773521766622180600,4.8701806640625,-1.0379180908203125,-0.0807037353515625,0.7806549072265625
1773521766632219600,4.8802197265625,-1.0928192138671875,-0.0910491943359375,0.82958984375
1773521766642257700,4.890257568359375,-1.1804046630859375,0.001068115234375,0.8858642578125
1773521766652296400,4.90029638671875,-1.2641448974609375,0.1168365478515625,0.9481353759765625
1773521766662335700,4.910335693359375,-1.2806854248046875,0.30596923828125,1.027099609375
1773521766672373800,4.920373779296875,-1.2655181884765625,0.52789306640625,1.036651611328125
1773521766682412500,4.93041259765625,-1.225128173828125,0.7511444091796875,1.0352935791015625
1773521766692451800,4.940451904296875,-1.2170257568359375,0.8742828369140625,0.9129180908203125
1773521766702489600,4.950489501953125,-1.25738525390625,0.7841949462890625,0.7261505126953125
1773521766712528600,4.960528564453125,-1.2707061767578125,0.5874176025390625,0.6282196044921875
1773521766722567700,4.970567626953125,-1.26226806640625,0.5055999755859375,0.63812255859375
1773521766732605700,4.980605712890625,-1.2047119140625,0.447998046875,0.6994171142578125
1773521766742644500,4.99064453125,-1.0722808837890625,0.3207244873046875,0.788726806640625
1773521766752683500,5.00068359375,-0.8363494873046875,0.236419677734375,0.7953948974609375
1773521766762721500,5.010721435546875,-0.42889404296875,0.2375335693359375,0.7606964111328125
1773521766772760600,5.020760498046875,-0.1981658935546875,0.296630859375,0.704315185546875
1773521766782799600,5.030799560546875,-0.101470947265625,0.2803497314453125,0.5739898681640625
1773521766792837600,5.040837646484375,-0.0341949462890625,0.255096435546875,0.45782470703125
1773521766802876700,5.050876708984375,0.20062255859375,0.2591094970703125,0.358001708984375
1773521766812914700,5.060914794921875,0.2767181396484375,0.1983795166015625,0.2123260498046875
1773521766822953700,5.07095361328125,0.0600738525390625,0.2433319091796875,0.2342681884765625
1773521766832992500,5.080992431640625,-0.2129058837890625,0.3343963623046875,0.2637939453125
1773521766843030800,5.09103076171875,-0.35809326171875,0.17266845703125,0.6705474853515625
1773521766853069600,5.101069580078125,-0.251708984375,0.208251953125,0.7828521728515625
1773521766863108600,5.111108642578125,-0.31048583984375,0.315704345703125,0.645660400390625
1773521766873147000,5.12114697265625,-0.218231201171875,0.2391510009765625,0.6276702880859375
1773521766883185700,5.131185546875,0.163055419921875,0.21343994140625,0.947662353515625
1773521766893224700,5.141224609375,2.229522705078125,0.1626739501953125,3.1820068359375
1773521766903262700,5.1512626953125,0.495330810546875,-0.6760101318359375,2.2166900634765625
1773521766913301800,5.1613017578125,0.1786956787109375,-0.7941131591796875,1.8971710205078125
1773521766923340500,5.171340576171875,-0.3492584228515625,-1.1235198974609375,0.403167724609375
1773521766933379300,5.18137939453125,0.8955841064453125,-1.8120880126953125,-1.128753662109375
1773521766943418600,5.191418701171875,0.1988372802734375,-0.0967559814453125,0.050262451171875
1773521766953457700,5.201457763671875,0.1266021728515625,0.8045196533203125,0.5710601806640625
1773521766963495400,5.211495361328125,0.7251739501953125,0.75628662109375,0.784149169921875
1773521766973534500,5.221534423828125,0.0003814697265625,0.188385009765625,0.745819091796875
1773521766983572500,5.231572509765625,0.0261688232421875,-0.011871337890625,0.7704620361328125
1773521766993611500,5.241611572265625,0.253082275390625,0.044281005859375,0.842376708984375
1773521767003650300,5.251650390625,0.0294647216796875,-0.2883758544921875,0.553924560546875
1773521767013688600,5.2616884765625,-0.243072509765625,-0.279693603515625,0.4837493896484375
1773521767023727400,5.271727294921875,-0.407440185546875,-0.0048675537109375,0.46197509765625
1773521767033766400,5.281766357421875,-0.5161285400390625,0.0394744873046875,0.4647064208984375
1773521767043804400,5.291804443359375,-0.5066070556640625,0.1043243408203125,0.5213470458984375
1773521767053843500,5.301843505859375,-0.3541412353515625,0.2679901123046875,0.5004730224609375
1773521767063882500,5.311882568359375,-0.227203369140625,0.4477386474609375,0.441619873046875
1773521767073920500,5.32192041015625,-0.224029541015625,0.542236328125,0.436859130859375
1773521767083959600,5.33195947265625,-0.291717529296875,0.51422119140625,0.5431060791015625
1773521767093997600,5.34199755859375,-0.306793212890625,0.41473388671875,0.6730499267578125
1773521767104036600,5.35203662109375,-0.2896270751953125,0.372100830078125,0.7802734375
1773521767114075400,5.362075439453125,-0.1251983642578125,0.37738037109375,0.8491058349609375
1773521767124113700,5.37211376953125,-0.135650634765625,0.454742431640625,0.8440704345703125
1773521767134152400,5.38215234375,-0.2119140625,0.58782958984375,0.7754364013671875
1773521767144191500,5.39219140625,-0.21466064453125,0.6734771728515625,0.79266357421875
1773521767154229500,5.4022294921875,-0.2100372314453125,0.73675537109375,0.84588623046875
1773521767164268500,5.4122685546875,-0.2121429443359375,0.7581634521484375,0.8787994384765625
1773521767174307600,5.4223076171875,-0.279541015625,0.7262420654296875,0.9553985595703125
1773521767184345600,5.432345703125,-0.4019927978515625,0.7292327880859375,1.0185394287109375
1773521767194384600,5.442384521484375,-0.572296142578125,0.8955841064453125,1.0182342529296875
1773521767204422400,5.45242236328125,-0.74151611328125,1.131591796875,0.9970703125
1773521767214461400,5.46246142578125,-0.8937835693359375,1.2867889404296875,0.9155731201171875
1773521767224500500,5.47250048828125,-0.988525390625,1.2019195556640625,1.1025390625
1773521767234538500,5.48253857421875,-0.9921722412109375,0.9305419921875,1.281219482421875
1773521767244577300,5.492577392578125,-0.90826416015625,0.71429443359375,1.2547760009765625
1773521767254616600,5.502616455078125,-0.7484130859375,0.6964111328125,1.15411376953125
1773521767264654300,5.512654296875,-0.638031005859375,0.87945556640625,1.0555572509765625
1773521767274693400,5.522693359375,-0.60784912109375,1.0704193115234375,1.0724334716796875
1773521767284732700,5.532732666015625,-0.6432952880859375,1.1016693115234375,1.19146728515625
1773521767294770400,5.5427705078125,-0.59039306640625,1.0140380859375,1.3454132080078125
1773521767304809500,5.5528095703125,-0.538238525390625,0.87994384765625,1.473724365234375
1773521767314847500,5.562847412109375,-0.555755615234375,0.700775146484375,1.526092529296875
1773521767324886500,5.572886474609375,-0.594757080078125,0.602142333984375,1.4291839599609375
1773521767334925300,5.58292529296875,-0.6198883056640625,0.6462249755859375,1.3206787109375
1773521767344963600,5.592963623046875,-0.65386962890625,0.72607421875,1.2287445068359375
1773521767355002400,5.60300244140625,-0.7443084716796875,0.8467254638671875,1.18731689453125
1773521767365041400,5.61304150390625,-0.7697906494140625,0.9284210205078125,1.13714599609375
1773521767375079400,5.623079345703125,-0.7317352294921875,0.9250946044921875,1.0887298583984375
1773521767385118500,5.633118408203125,-0.6801300048828125,0.94677734375,1.0454864501953125
1773521767395156500,5.643156494140625,-0.594818115234375,1.05267333984375,0.9766693115234375
1773521767405195500,5.653195556640625,-0.53997802734375,1.107818603515625,0.964385986328125
1773521767415234600,5.663234619140625,-0.4685211181640625,1.111541748046875,0.9542694091796875
1773521767425272600,5.6732724609375,-0.4384765625,1.025421142578125,0.948699951171875
1773521767435311600,5.6833115234375,-0.429168701171875,0.8447265625,0.95361328125
1773521767445350400,5.693350341796875,-0.3802947998046875,0.7437896728515625,0.882110595703125
1773521767455388700,5.703388671875,-0.2721099853515625,0.829437255859375,0.87109375
1773521767465427500,5.713427490234375,-0.183685302734375,0.9756011962890625,0.8983917236328125
1773521767475466500,5.723466552734375,-0.1097869873046875,1.0146026611328125,0.956207275390625
1773521767485504500,5.73350439453125,-0.13720703125,1.1110687255859375,0.7241668701171875
1773521767495543600,5.74354345703125,-0.395477294921875,1.3869476318359375,0.063934326171875
1773521767505581300,5.753581298828125,-0.6024932861328125,1.3727874755859375,-0.3245391845703125
1773521767515620400,5.763620361328125,-0.686676025390625,1.0899200439453125,-0.4951019287109375
1773521767525659600,5.77365966796875,-0.6653594970703125,0.805389404296875,-0.362060546875
1773521767535697400,5.783697509765625,-0.5508880615234375,0.6485595703125,-0.2639007568359375
1773521767545736400,5.793736328125,-0.53302001953125,0.675262451171875,-0.0385589599609375
1773521767555775500,5.803775390625,-0.602020263671875,0.798004150390625,0.2312469482421875
1773521767565813500,5.8138134765625,-0.6362152099609375,0.69683837890625,0.322296142578125
1773521767575852300,5.823852294921875,-0.39776611328125,0.507537841796875,0.29437255859375
1773521767585890600,5.833890625,-0.1729583740234375,0.6349639892578125,0.309844970703125
1773521767595929300,5.843929443359375,0.0011444091796875,0.8421630859375,0.4566192626953125
1773521767605968400,5.853968505859375,0.21380615234375,0.995635986328125,0.63037109375
1773521767616006400,5.86400634765625,0.432586669921875,1.069183349609375,0.7698822021484375
1773521767626045400,5.87404541015625,0.51458740234375,1.0484619140625,0.9244384765625
1773521767636083700,5.884083740234375,0.435821533203125,0.950958251953125,1.1005706787109375
1773521767646122500,5.89412255859375,0.3453369140625,0.83984375,1.2085418701171875
1773521767656161500,5.90416162109375,0.2472381591796875,0.677337646484375,1.3550872802734375
1773521767666199600,5.914199462890625,0.17578125,0.5884552001953125,1.1950836181640625
1773521767676238600,5.924238525390625,0.169158935546875,0.7733001708984375,0.764678955078125
1773521767686277400,5.93427734375,0.21142578125,1.022308349609375,0.296539306640625
1773521767696315600,5.944315673828125,0.34442138671875,0.8945770263671875,0.36285400390625
1773521767706354400,5.9543544921875,0.401092529296875,0.570343017578125,0.8117828369140625
1773521767716392400,5.964392333984375,0.4890289306640625,0.4625091552734375,0.95550537109375
1773521767726431500,5.974431396484375,0.5631561279296875,0.54278564453125,0.6994781494140625
1773521767736470500,5.984470458984375,0.455169677734375,0.4905853271484375,0.5894622802734375
1773521767746508500,5.994508544921875,0.3358001708984375,0.5232086181640625,0.5526275634765625
1773521767756547300,6.00454736328125,0.201690673828125,0.459716796875,0.6082000732421875
1773521767766586600,6.014586669921875,0.0251312255859375,0.4170074462890625,0.5712738037109375
1773521767776624400,6.024624267578125,-0.004913330078125,0.420806884765625,0.4475250244140625
1773521767786663400,6.034663330078125,-0.0332794189453125,0.415496826171875,0.36004638671875
1773521767796701400,6.044701416015625,-0.0443572998046875,0.5051116943359375,0.2169647216796875
1773521767806740500,6.054740478515625,0.001556396484375,0.48883056640625,0.1848602294921875
1773521767816779300,6.064779296875,0.019317626953125,0.446533203125,0.2474212646484375
1773521767826817500,6.074817626953125,-0.0047454833984375,0.4617767333984375,0.3212890625
1773521767836856600,6.084856689453125,-0.039520263671875,0.38568115234375,0.4260101318359375
1773521767846895400,6.094895263671875,0.0141143798828125,0.4918212890625,0.547576904296875
1773521767856933600,6.10493359375,0.15228271484375,0.65869140625,0.671356201171875
1773521767866972400,6.114972412109375,0.2755889892578125,0.716949462890625,0.7885894775390625
1773521767877010700,6.1250107421875,0.2777252197265625,0.741302490234375,0.8993377685546875
1773521767887049500,6.135049560546875,0.246368408203125,0.789459228515625,0.9990234375
1773521767897088500,6.145088623046875,0.172760009765625,0.7802276611328125,1.053955078125
1773521767907126500,6.15512646484375,0.241485595703125,0.5585784912109375,1.0363616943359375
1773521767917165600,6.16516552734375,0.3776092529296875,0.36932373046875,1.0209808349609375
1773521767927203300,6.175203369140625,0.41485595703125,0.450164794921875,1.0727691650390625
1773521767937246000,6.185245849609375,0.4153594970703125,0.53955078125,1.149627685546875
1773521767947284700,6.19528466796875,0.3606719970703125,0.5928192138671875,1.1912689208984375
1773521767957322800,6.20532275390625,0.261383056640625,0.63330078125,1.2062225341796875
1773521767967361800,6.21536181640625,0.2762603759765625,0.586395263671875,1.1885986328125
1773521767977399800,6.22539990234375,0.2781524658203125,0.6688232421875,1.193145751953125
1773521767987438600,6.2354384765625,0.26824951171875,0.7465057373046875,1.16412353515625
1773521767997478000,6.245477783203125,0.1796722412109375,0.65203857421875,1.0884857177734375
1773521768007515600,6.255515625,0.0557708740234375,0.503143310546875,1.0725860595703125
1773521768017554700,6.2655546875,-0.04522705078125,0.463653564453125,1.0035552978515625
1773521768027593700,6.27559375,0.01629638671875,0.414306640625,1.0200042724609375
1773521768037631700,6.2856318359375,0.11004638671875,0.3703460693359375,1.1658477783203125
1773521768047670800,6.2956708984375,0.115478515625,0.29058837890625,1.1785430908203125
1773521768057708800,6.305708740234375,-0.0343017578125,0.1237030029296875,1.20172119140625
1773521768067747800,6.315747802734375,-0.100341796875,0.2062530517578125,1.1018829345703125
1773521768077786600,6.32578662109375,0.013702392578125,0.1886749267578125,0.9915924072265625
1773521768087825000,6.335824951171875,0.12322998046875,0.1297454833984375,0.9263153076171875
1773521768097863700,6.34586376953125,0.13690185546875,0.2409820556640625,0.6988372802734375
1773521768107901700,6.355901611328125,0.204437255859375,0.2718353271484375,0.4998321533203125
1773521768117940700,6.365940673828125,0.1966094970703125,0.2959747314453125,0.3203277587890625
1773521768127979800,6.375979736328125,0.21807861328125,0.3455810546875,0.1836700439453125
1773521768138017500,6.386017578125,0.2768096923828125,0.3627471923828125,0.201934814453125
1773521768148056800,6.396056884765625,0.3550567626953125,0.27288818359375,0.181243896484375
1773521768158096000,6.406095947265625,0.2345733642578125,0.2108612060546875,0.1357879638671875
1773521768168133600,6.416133544921875,0.129608154296875,0.292327880859375,0.069854736328125
1773521768178173000,6.4261728515625,0.059234619140625,0.4096832275390625,-0.0832672119140625
1773521768188210700,6.436210693359375,0.03485107421875,0.50860595703125,-0.1279296875
1773521768198249700,6.446249755859375,0.06854248046875,0.6343841552734375,-0.0942230224609375
1773521768208288800,6.456288818359375,0.11474609375,0.7427978515625,0.0873260498046875
1773521768218326800,6.466326904296875,0.2137908935546875,0.8195037841796875,0.261077880859375
1773521768228365600,6.476365478515625,0.3378143310546875,0.8994903564453125,0.377899169921875
1773521768238403800,6.48640380859375,0.4293060302734375,0.944976806640625,0.529937744140625
1773521768248442600,6.496442626953125,0.528900146484375,0.99652099609375,0.7476348876953125
1773521768258481700,6.506481689453125,0.529205322265625,0.9926605224609375,1.1973876953125
1773521768268519700,6.516519775390625,0.3845977783203125,0.821441650390625,1.579986572265625
1773521768278558700,6.526558837890625,0.0785980224609375,0.7817230224609375,1.8905792236328125
1773521768288596700,6.5365966796875,-0.7117156982421875,0.99444580078125,2.3382110595703125
1773521768298635800,6.5466357421875,-0.811279296875,1.06591796875,2.2977294921875
1773521768308674800,6.5566748046875,-0.3547821044921875,0.832763671875,1.863494873046875
1773521768318712800,6.566712890625,-0.0784454345703125,0.6558990478515625,1.4099578857421875
1773521768328751900,6.576751953125,0.005828857421875,0.774078369140625,1.1097412109375
1773521768338790700,6.586790771484375,-0.0570526123046875,1.027679443359375,0.9415435791015625
1773521768348828700,6.59682861328125,0.143341064453125,1.0347137451171875,0.813934326171875
1773521768358867700,6.60686767578125,0.131866455078125,0.93841552734375,0.717376708984375
1773521768368905700,6.61690576171875,-0.0224456787109375,0.8370361328125,0.6692047119140625
1773521768378944500,6.626944580078125,-0.017608642578125,0.680389404296875,0.5769805908203125
1773521768388983800,6.63698388671875,0.124481201171875,0.555877685546875,0.482666015625
1773521768399021600,6.647021484375,0.33062744140625,0.4868316650390625,0.4110107421875
1773521768409060600,6.657060546875,0.3945465087890625,0.515655517578125,0.3885345458984375
1773521768419099000,6.667098876953125,0.335205078125,0.6322784423828125,0.458831787109375
1773521768429137700,6.6771376953125,0.268035888671875,0.622100830078125,0.473602294921875
1773521768439176700,6.6871767578125,0.13128662109375,0.5612335205078125,0.4456939697265625
1773521768449214700,6.697214599609375,-0.0346527099609375,0.5269927978515625,0.4876861572265625
1773521768459253800,6.707253662109375,-0.0579681396484375,0.3915252685546875,0.4908599853515625
1773521768469291800,6.717291748046875,0.083984375,0.25775146484375,0.4260406494140625
1773521768479330800,6.727330810546875,0.1972198486328125,0.2368011474609375,0.3694915771484375
1773521768489369600,6.73736962890625,0.2150421142578125,0.251007080078125,0.3681488037109375
1773521768499408000,6.747407958984375,0.1477508544921875,0.307037353515625,0.415191650390625
1773521768509446700,6.75744677734375,0.034271240234375,0.40966796875,0.4733428955078125
1773521768519484700,6.767484619140625,-0.042999267578125,0.5170135498046875,0.5034637451171875
1773521768529524000,6.77752392578125,0.0026092529296875,0.5004425048828125,0.474517822265625
1773521768539562800,6.787562744140625,0.0216217041015625,0.4852294921875,0.4311676025390625
1773521768549600800,6.797600830078125,-0.01409912109375,0.5194549560546875,0.4077911376953125
1773521768559639800,6.807639892578125,0.005859375,0.5503387451171875,0.3752593994140625
1773521768569678800,6.817678955078125,0.0465545654296875,0.543487548828125,0.3234405517578125
1773521768579716600,6.827716552734375,-0.1057586669921875,2.2361297607421875,0.3725433349609375
1773521768589755600,6.837755615234375,-0.5630035400390625,1.707122802734375,0.551300048828125
1773521768599793700,6.847793701171875,0.066375732421875,0.2285308837890625,0.46014404296875
1773521768609832700,6.857832763671875,0.0801239013671875,1.4979095458984375,0.715301513671875
1773521768619871700,6.867871826171875,0.024810791015625,1.275054931640625,0.6025390625
1773521768629909800,6.87790966796875,-0.089569091796875,1.7591705322265625,0.5232391357421875
1773521768639948800,6.88794873046875,0.1865997314453125,2.1417083740234375,0.4052734375
1773521768649986800,6.89798681640625,0.310455322265625,2.167022705078125,0.310577392578125
1773521768660025900,6.90802587890625,-0.30859375,1.762451171875,0.1751251220703125
1773521768670064600,6.918064697265625,-0.225433349609375,1.3980865478515625,0.046234130859375
1773521768680103000,6.92810302734375,-0.119049072265625,1.109283447265625,0.042205810546875
1773521768690141700,6.9381416015625,-0.09112548828125,0.920562744140625,0.0681610107421875
1773521768700179700,6.9481796875,-0.0514068603515625,0.775299072265625,0.1044158935546875
1773521768710218800,6.95821875,-0.109527587890625,0.7158050537109375,0.11676025390625
1773521768720257800,6.9682578125,-0.086273193359375,0.6927490234375,0.1945953369140625
1773521768730295600,6.978295654296875,-0.061798095703125,0.65850830078125,0.350738525390625
1773521768740334800,6.9883349609375,0.0418701171875,0.692108154296875,0.37176513671875
1773521768750372600,6.99837255859375,-0.0009765625,0.7792205810546875,0.2962493896484375
1773521768760411600,7.00841162109375,0.052581787109375,0.9117431640625,0.2114410400390625
1773521768770451000,7.018450927734375,0.1314849853515625,0.998687744140625,0.138824462890625
1773521768780488700,7.02848876953125,0.1693572998046875,1.050079345703125,0.1124725341796875
1773521768790527700,7.03852783203125,0.1596832275390625,1.0983428955078125,0.13238525390625
1773521768800565800,7.048565673828125,0.03814697265625,1.1356353759765625,0.2296905517578125
1773521768810604800,7.058604736328125,-0.01617431640625,1.074859619140625,0.3296356201171875
1773521768820643600,7.0686435546875,0.02001953125,1.009002685546875,0.4006805419921875
1773521768830681900,7.078681884765625,-0.0157928466796875,1.005889892578125,0.4050445556640625
1773521768840720600,7.088720703125,-0.02691650390625,0.9923248291015625,0.2874603271484375
1773521768850759700,7.098759765625,-0.0085906982421875,0.8289794921875,0.1721343994140625
1773521768860797700,7.108797607421875,0.1690673828125,0.551910400390625,0.334564208984375
1773521768870836700,7.118836669921875,0.1707916259765625,0.5788421630859375,0.371063232421875
1773521768880874800,7.128874755859375,-0.1639404296875,0.7608489990234375,0.2537689208984375
1773521768890913800,7.138913818359375,-0.295654296875,0.85125732421875,0.284820556640625
1773521768900952800,7.148952880859375,-0.122589111328125,0.9357147216796875,0.2925872802734375
1773521768910990600,7.158990478515625,0.023529052734375,1.1563568115234375,0.2442779541015625
1773521768921030000,7.16902978515625,0.11041259765625,1.2893524169921875,0.2214508056640625
1773521768931067600,7.179067626953125,0.1771240234375,1.110748291015625,0.2479400634765625
1773521768941102300,7.189102294921875,0.1807708740234375,0.9626312255859375,0.291473388671875
1773521768951141400,7.199141357421875,0.3579254150390625,1.029205322265625,0.28240966796875
1773521768961179100,7.20917919921875,-0.4084014892578125,1.226837158203125,0.19439697265625
1773521768971218400,7.219218505859375,-0.13238525390625,1.16729736328125,0.1799774169921875
1773521768981256200,7.229256103515625,0.45184326171875,0.7941436767578125,0.146087646484375
1773521768991295200,7.239295166015625,-0.2601165771484375,0.811492919921875,-0.07110595703125
1773521769001334500,7.24933447265625,-0.0058441162109375,1.1010589599609375,-0.301239013671875
1773521769011372300,7.259372314453125,0.025115966796875,1.1987152099609375,-0.4736328125
1773521769021411300,7.269411376953125,-0.1119537353515625,1.0192413330078125,-0.42364501953125
1773521769031449300,7.279449462890625,0.016937255859375,0.7942962646484375,-0.39715576171875
1773521769041488400,7.28948828125,0.074127197265625,0.81622314453125,-0.4578399658203125
1773521769051527200,7.299527099609375,0.104278564453125,0.901031494140625,-0.50958251953125
1773521769061565400,7.3095654296875,0.156585693359375,0.852142333984375,-0.5023651123046875
1773521769071604200,7.319604248046875,0.1375274658203125,0.8166046142578125,-0.5169677734375
1773521769081642500,7.329642578125,0.1929168701171875,0.8896484375,-0.4883575439453125
1773521769091681500,7.339681640625,0.1578826904296875,0.8670196533203125,-0.4235992431640625
1773521769101720300,7.34972021484375,0.0552215576171875,0.8480224609375,-0.4019775390625
1773521769111758600,7.359758544921875,-0.0240936279296875,0.906402587890625,-0.28631591796875
1773521769121797400,7.36979736328125,-0.026031494140625,0.93798828125,-0.23883056640625
1773521769131836400,7.37983642578125,0.0508270263671875,0.936676025390625,-0.26824951171875
1773521769141874400,7.38987451171875,0.08026123046875,0.937255859375,-0.3428955078125
1773521769151913500,7.39991357421875,-0.049530029296875,0.9372100830078125,-0.3736114501953125
1773521769161951200,7.409951171875,-0.3050689697265625,0.9724884033203125,-0.326416015625
1773521769171990300,7.419990234375,-0.5679473876953125,1.0239410400390625,-0.2613677978515625
1773521769182029300,7.430029296875,-0.668487548828125,1.091705322265625,-0.2295379638671875
1773521769192067300,7.4400673828125,-0.5307464599609375,1.2499237060546875,-0.3972625732421875
1773521769202106400,7.4501064453125,-0.3752899169921875,1.0889892578125,-0.3742523193359375
1773521769212144400,7.460144287109375,-0.176727294921875,0.9181671142578125,-0.3002166748046875
1773521769222183400,7.470183349609375,-0.05889892578125,0.8924713134765625,-0.3261260986328125
1773521769232222200,7.48022216796875,0.00921630859375,0.915679931640625,-0.3438720703125
1773521769242260500,7.490260498046875,0.0324249267578125,0.9163055419921875,-0.3369903564453125
1773521769252299300,7.50029931640625,0.0367889404296875,0.893096923828125,-0.32525634765625
1773521769262337500,7.510337646484375,0.052154541015625,0.863800048828125,-0.3149261474609375
1773521769272376300,7.520376220703125,0.071563720703125,0.8522186279296875,-0.288238525390625
1773521769282415400,7.530415283203125,0.0686492919921875,0.847259521484375,-0.2531280517578125
1773521769292453400,7.540453369140625,0.0492706298828125,0.8580780029296875,-0.219757080078125
1773521769302492400,7.550492431640625,0.018402099609375,0.88238525390625,-0.1873931884765625
1773521769312530200,7.5605302734375,-0.00494384765625,0.9228057861328125,-0.1573944091796875
1773521769322569500,7.570569580078125,-0.02044677734375,0.9636077880859375,-0.139892578125
1773521769332608500,7.5806083984375,-0.03082275390625,0.9959869384765625,-0.1391448974609375
1773521769342646300,7.590646240234375,-0.0182037353515625,1.03759765625,-0.1357574462890625
1773521769352685600,7.600685546875,-0.0004730224609375,1.0800018310546875,-0.13897705078125
1773521769362723300,7.610723388671875,0.02001953125,1.1135711669921875,-0.142547607421875
1773521769372762400,7.620762451171875,0.0286102294921875,1.13494873046875,-0.145050048828125
1773521769382801400,7.630801513671875,0.0202178955078125,1.1559906005859375,-0.142242431640625
1773521769392839400,7.64083935546875,0.0088958740234375,1.164703369140625,-0.1605682373046875
1773521769402878200,7.650878173828125,-0.0189971923828125,1.1584014892578125,-0.1979827880859375
1773521769412916500,7.66091650390625,-0.0511474609375,1.180694580078125,-0.2149810791015625
1773521769422955300,7.670955322265625,-0.08282470703125,1.21038818359375,-0.2073516845703125
1773521769432994300,7.680994384765625,-0.114715576171875,1.2454376220703125,-0.20147705078125
1773521769443032300,7.6910322265625,-0.15167236328125,1.2323150634765625,-0.1973724365234375
1773521769453071400,7.7010712890625,-0.158233642578125,1.22210693359375,-0.2133331298828125
1773521769463109400,7.711109375,-0.1572113037109375,1.1934814453125,-0.24151611328125
1773521769473148400,7.7211484375,-0.2874755859375,1.1605377197265625,-0.309783935546875
1773521769483187500,7.7311875,-0.50616455078125,1.1479339599609375,-0.4091796875
1773521769493225200,7.74122509765625,-0.6489715576171875,1.1517181396484375,-0.5070648193359375
1773521769503264500,7.751264404296875,-0.5986480712890625,1.1479034423828125,-0.5805511474609375
1773521769513303300,7.76130322265625,-0.3945159912109375,1.11004638671875,-0.5995635986328125
1773521769523341300,7.77134130859375,-0.1362457275390625,1.0905609130859375,-0.58172607421875
1773521769533380400,7.78138037109375,0.07537841796875,1.078216552734375,-0.5587005615234375
1773521769543418400,7.79141845703125,0.21240234375,1.05267333984375,-0.54376220703125
1773521769553457200,7.80145703125,0.233062744140625,0.996337890625,-0.5223236083984375
1773521769563496400,7.811496337890625,0.132598876953125,0.9233245849609375,-0.4824066162109375
1773521769573534200,7.8215341796875,0.0036468505859375,0.8683624267578125,-0.4495849609375
1773521769583573200,7.8315732421875,-0.086822509765625,0.8305816650390625,-0.424285888671875
1773521769593611500,7.841611572265625,-0.1300201416015625,0.8124542236328125,-0.3885498046875
1773521769603650300,7.851650390625,-0.1119537353515625,0.858673095703125,-0.3319091796875
1773521769613689300,7.861689453125,-0.081573486328125,0.905242919921875,-0.2940673828125
1773521769623727400,7.871727294921875,-0.071380615234375,0.9126434326171875,-0.2960052490234375
1773521769633766400,7.881766357421875,-0.0739593505859375,0.901123046875,-0.315521240234375
1773521769643804400,7.891804443359375,-0.0682373046875,0.88885498046875,-0.335693359375
1773521769653843500,7.901843505859375,-0.0635223388671875,0.8913116455078125,-0.3460845947265625
1773521769663882200,7.91188232421875,-0.05999755859375,0.918701171875,-0.352325439453125
1773521769673920500,7.92192041015625,-0.0728302001953125,0.9406890869140625,-0.3534088134765625
1773521769683959300,7.931959228515625,-0.1167144775390625,0.9525909423828125,-0.352203369140625
1773521769693997300,7.941997314453125,-0.20672607421875,0.9546051025390625,-0.34661865234375
1773521769704036400,7.952036376953125,-0.2913360595703125,0.9623565673828125,-0.33697509765625
1773521769714075400,7.962075439453125,-0.32818603515625,0.976593017578125,-0.3224029541015625
1773521769724113400,7.972113525390625,-0.3455963134765625,0.9835052490234375,-0.3204498291015625
1773521769734152200,7.982152099609375,-0.330291748046875,0.985443115234375,-0.3139801025390625
1773521769744190500,7.9921904296875,-0.29583740234375,0.975067138671875,-0.3045196533203125
1773521769754229200,8.002229248046875,-0.2544403076171875,0.954010009765625,-0.2954559326171875
1773521769764268300,8.012268310546874,-0.2446136474609375,0.92181396484375,-0.2773895263671875
1773521769774306300,8.022306396484375,-0.24517822265625,0.8802337646484375,-0.2642669677734375
1773521769784345300,8.032345458984375,-0.2408599853515625,0.8400421142578125,-0.2573394775390625
1773521769794383400,8.04238330078125,-0.231048583984375,0.807037353515625,-0.252410888671875
1773521769804422400,8.05242236328125,-0.2127838134765625,0.77740478515625,-0.2516937255859375
1773521769814461400,8.06246142578125,-0.2012786865234375,0.7552490234375,-0.2496795654296875
1773521769824499500,8.07249951171875,-0.1919403076171875,0.745513916015625,-0.24114990234375
1773521769834538500,8.08253857421875,-0.189422607421875,0.74847412109375,-0.23919677734375
1773521769844576300,8.092576171875,-0.197723388671875,0.761322021484375,-0.2363128662109375
1773521769854615600,8.102615478515625,-0.2026214599609375,0.8200225830078125,-0.23846435546875
1773521769864654300,8.112654296875,-0.211578369140625,0.8690338134765625,-0.2536468505859375
1773521769874692400,8.1226923828125,-0.20745849609375,0.8807373046875,-0.2701873779296875
1773521769884731400,8.1327314453125,-0.194854736328125,0.874298095703125,-0.2849578857421875
1773521769894769400,8.142769287109376,-0.2091522216796875,0.8281097412109375,-0.2730865478515625
1773521769904808200,8.15280810546875,-0.194061279296875,0.7828216552734375,-0.2620849609375
1773521769914847500,8.162847412109375,-0.15655517578125,0.731170654296875,-0.25701904296875
1773521769924885200,8.17288525390625,-0.1343994140625,0.67822265625,-0.2527923583984375
1773521769934924300,8.18292431640625,-0.1378173828125,0.659820556640625,-0.2326507568359375
1773521769944963300,8.19296337890625,-0.170562744140625,0.6736907958984375,-0.20770263671875
1773521769955001000,8.2030009765625,-0.24920654296875,0.685882568359375,-0.17742919921875
1773521769965040000,8.2130400390625,-0.3338165283203125,0.6800994873046875,-0.160858154296875
1773521769975078100,8.223078125,-0.3590545654296875,0.66766357421875,-0.174530029296875
1773521769985117200,8.2331171875,-0.3448028564453125,0.6726531982421875,-0.2239227294921875
1773521769995156000,8.243156005859374,-0.3201904296875,0.6751861572265625,-0.2713470458984375
1773521770005194200,8.2531943359375,-0.2990570068359375,0.7125091552734375,-0.3056793212890625
1773521770015233000,8.26323291015625,-0.306671142578125,0.7378997802734375,-0.3108062744140625
1773521770025271300,8.273271240234376,-0.3383331298828125,0.7431793212890625,-0.306854248046875
1773521770035310300,8.283310302734375,-0.3985748291015625,0.74853515625,-0.307861328125
1773521770045349000,8.29334912109375,-0.4602203369140625,0.7849273681640625,-0.3095855712890625
1773521770055387100,8.30338720703125,-0.517669677734375,0.85516357421875,-0.3335418701171875
1773521770065426200,8.31342626953125,-0.5783843994140625,0.9461212158203125,-0.3722076416015625
1773521770075464200,8.323464111328125,-0.6451568603515625,1.0358734130859375,-0.4212188720703125
1773521770085503000,8.3335029296875,-0.712188720703125,1.09954833984375,-0.45501708984375
1773521770095542300,8.343542236328124,-0.7439727783203125,1.1444549560546875,-0.4518280029296875
1773521770105580000,8.353580078125,-0.7388458251953125,1.1364288330078125,-0.4279327392578125
1773521770115619000,8.363619140625,-0.7098541259765625,1.056182861328125,-0.4059906005859375
1773521770125657000,8.373656982421876,-0.6623077392578125,0.9268035888671875,-0.3746490478515625
1773521770135696100,8.383696044921875,-0.613189697265625,0.816253662109375,-0.354461669921875
1773521770145735200,8.393735107421875,-0.5735321044921875,0.7422027587890625,-0.3430328369140625
1773521770155773200,8.403773193359376,-0.5369873046875,0.722991943359375,-0.34759521484375
1773521770165812200,8.413812255859375,-0.4939117431640625,0.7503509521484375,-0.3590240478515625
1773521770175850200,8.423850341796875,-0.4473114013671875,0.787200927734375,-0.3864288330078125
1773521770185889300,8.43388916015625,-0.4034271240234375,0.845245361328125,-0.4279327392578125
1773521770195928000,8.443927978515624,-0.3102874755859375,0.9679718017578125,-0.4803009033203125
1773521770205966300,8.45396630859375,-0.0955657958984375,1.1213226318359375,-0.5314483642578125
1773521770216005000,8.464005126953126,0.1209259033203125,1.2548675537109375,-0.5934906005859375
1773521770226043100,8.474043212890624,0.2321929931640625,1.423492431640625,-0.6775054931640625
1773521770236082200,8.484082275390625,0.2100677490234375,1.51708984375,-0.7512664794921875
1773521770246121200,8.494121337890626,-0.009429931640625,1.6239776611328125,-0.734039306640625
1773521770256159000,8.504158935546876,-0.2663116455078125,1.5071868896484375,-0.5837554931640625
1773521770266198300,8.5141982421875,-0.3487091064453125,1.10406494140625,-0.4358062744140625
1773521770276236000,8.524236083984375,-0.34271240234375,0.8483734130859375,-0.303863525390625
1773521770286275000,8.534275146484376,-0.295257568359375,0.7574920654296875,-0.1900482177734375
1773521770296314000,8.544314208984375,-0.1934661865234375,0.7843475341796875,-0.0958251953125
1773521770306352000,8.55435205078125,-0.1327972412109375,0.745269775390625,-0.0389862060546875
1773521770316391200,8.56439111328125,-0.1135406494140625,0.64093017578125,-0.0177764892578125
1773521770326429200,8.57442919921875,-0.0807952880859375,0.560943603515625,-0.0345916748046875
1773521770336468200,8.58446826171875,-0.0374755859375,0.4925689697265625,-0.062408447265625
1773521770346507000,8.594507080078126,0.0027008056640625,0.45269775390625,-0.1248931884765625
1773521770356545300,8.604545166015624,0.0385894775390625,0.531890869140625,-0.179229736328125
1773521770366584000,8.614583984375,0.05523681640625,0.732635498046875,-0.2548828125
1773521770376622000,8.6246220703125,0.0459747314453125,0.9400177001953125,-0.3039398193359375
1773521770386661000,8.6346611328125,0.0050201416015625,1.0641937255859375,-0.303070068359375
1773521770396700200,8.6447001953125,-0.0779876708984375,1.077789306640625,-0.2824859619140625
1773521770406738000,8.654738037109375,-0.18048095703125,1.0870819091796875,-0.2791290283203125
1773521770416777200,8.664777099609376,-0.2709503173828125,1.111083984375,-0.3030242919921875
1773521770426815200,8.674815185546874,-0.3267059326171875,1.11492919921875,-0.3499603271484375
1773521770436854000,8.68485400390625,-0.282562255859375,1.0734100341796875,-0.4086456298828125
1773521770446893300,8.694893310546876,-0.1395111083984375,1.0127105712890625,-0.4551239013671875
1773521770456931000,8.70493115234375,0.00555419921875,1.0016937255859375,-0.491546630859375
1773521770466970000,8.71497021484375,0.1090545654296875,0.976959228515625,-0.48468017578125
1773521770477008100,8.725008056640625,0.173614501953125,0.9371795654296875,-0.4677886962890625
1773521770487047200,8.735047119140624,0.2011871337890625,0.8906707763671875,-0.43939208984375
1773521770497086000,8.7450859375,0.17913818359375,0.8365631103515625,-0.4012298583984375
1773521770507124200,8.755124267578125,0.1233062744140625,0.7916259765625,-0.373321533203125
1773521770517163000,8.7651630859375,0.078765869140625,0.7927398681640625,-0.369537353515625
1773521770527201300,8.775201171875,0.0124664306640625,0.7723236083984375,-0.37664794921875
1773521770537240300,8.785240234375,-0.006683349609375,0.78424072265625,-0.39788818359375
1773521770547279000,8.795279052734376,0.0000457763671875,0.8324432373046875,-0.413726806640625
1773521770557317400,8.8053173828125,0.0184478759765625,0.8716888427734375,-0.454193115234375
1773521770567356200,8.815356201171875,-0.036346435546875,0.9203033447265625,-0.4847869873046875
1773521770577394200,8.825394287109376,-0.10772705078125,0.9711151123046875,-0.505462646484375
1773521770587433200,8.83543310546875,-0.2524566650390625,0.9996337890625,-0.514068603515625
1773521770597472300,8.84547216796875,-0.459014892578125,1.04412841796875,-0.50347900390625
1773521770607510000,8.855510009765625,-0.572357177734375,1.112884521484375,-0.47607421875
1773521770617549000,8.865549072265624,-0.4959564208984375,1.1576080322265625,-0.4490509033203125
1773521770627587000,8.875587158203125,-0.302154541015625,1.1277008056640625,-0.4557342529296875
1773521770637626000,8.885626220703125,-0.133392333984375,1.0647125244140625,-0.467742919921875
1773521770647665200,8.8956650390625,-0.043609619140625,1.008697509765625,-0.4532318115234375
1773521770657703200,8.905703125,-0.0174713134765625,0.972259521484375,-0.4260101318359375
1773521770667742200,8.9157421875,-0.025421142578125,0.9355010986328125,-0.39080810546875
1773521770677780200,8.9257802734375,-0.0444793701171875,0.9110107421875,-0.357635498046875
1773521770687819300,8.9358193359375,-0.0553741455078125,0.89678955078125,-0.3346405029296875
1773521770697858000,8.945858154296875,-0.056610107421875,0.8888397216796875,-0.3249664306640625
1773521770707896300,8.955896240234376,-0.051849365234375,0.8890533447265625,-0.32763671875
1773521770717935000,8.96593505859375,-0.040008544921875,0.8952484130859375,-0.3384857177734375
1773521770727973000,8.97597314453125,-0.02984619140625,0.8969573974609375,-0.3561248779296875
1773521770738012200,8.98601220703125,-0.029510498046875,0.8905181884765625,-0.379730224609375
1773521770748051200,8.99605126953125,-0.0352325439453125,0.88226318359375,-0.3988037109375
1773521770758089000,9.0060888671875,-0.04302978515625,0.8863372802734375,-0.4083099365234375
1773521770768128300,9.016128173828125,-0.044830322265625,0.9014739990234375,-0.4130401611328125
1773521770778166000,9.026166015625,-0.0381011962890625,0.9138336181640625,-0.41558837890625
1773521770788205000,9.036205078125,-0.0298919677734375,0.9277801513671875,-0.4118804931640625
1773521770798244400,9.046244384765625,-0.0260467529296875,0.943450927734375,-0.399169921875
1773521770808282000,9.0562822265625,-0.0325164794921875,0.9583740234375,-0.3832244873046875
1773521770818321200,9.066321044921875,-0.0431671142578125,0.9705963134765625,-0.37017822265625
1773521770828359200,9.076359130859375,-0.0571441650390625,0.9835052490234375,-0.35919189453125
1773521770838398200,9.086398193359376,-0.068939208984375,0.9965667724609375,-0.3483734130859375
1773521770848437000,9.09643701171875,-0.077301025390625,0.9981536865234375,-0.3377532958984375
1773521770858475300,9.106475341796875,-0.0847930908203125,0.9938201904296875,-0.322357177734375
1773521770868514000,9.11651416015625,-0.0866241455078125,0.9915008544921875,-0.299102783203125
1773521770878552300,9.12655224609375,-0.07611083984375,0.9915008544921875,-0.2789459228515625
1773521770888591000,9.136591064453125,-0.0554656982421875,0.994873046875,-0.2613067626953125
1773521770898630100,9.146630126953125,-0.0337066650390625,0.999114990234375,-0.2396392822265625
1773521770908668200,9.156668212890626,-0.0181884765625,1.005889892578125,-0.2153778076171875
1773521770918707200,9.166707275390625,-0.0189208984375,1.006561279296875,-0.1954803466796875
1773521770928745200,9.1767451171875,-0.0330352783203125,1.0034942626953125,-0.1768341064453125
1773521770938784800,9.18678466796875,-0.054595947265625,0.99481201171875,-0.1655731201171875
1773521770948823800,9.19682373046875,-0.0838775634765625,0.95977783203125,-0.1852264404296875
1773521770958861800,9.20686181640625,-0.106292724609375,0.92999267578125,-0.21612548828125
1773521770968900600,9.216900634765626,-0.1192779541015625,0.918853759765625,-0.2454681396484375
1773521770978939000,9.22693896484375,-0.129638671875,0.9068145751953125,-0.2801513671875
1773521770988977700,9.236977783203125,-0.139068603515625,0.8814697265625,-0.312103271484375
1773521770999016700,9.2470166015625,-0.14276123046875,0.862945556640625,-0.3444976806640625
1773521771009055000,9.257054931640624,-0.1555633544921875,0.853851318359375,-0.38092041015625
1773521771019093800,9.26709375,-0.17047119140625,0.85986328125,-0.41864013671875
1773521771029131800,9.2771318359375,-0.1838531494140625,0.8830108642578125,-0.4546356201171875
1773521771039170800,9.2871708984375,-0.1905670166015625,0.9088897705078125,-0.48248291015625
1773521771049209900,9.2972099609375,-0.1891326904296875,0.923980712890625,-0.4935150146484375
1773521771059247600,9.30724755859375,-0.1766815185546875,0.9249267578125,-0.4796295166015625
1773521771069287000,9.317286865234376,-0.1396942138671875,0.9186553955078125,-0.43896484375
1773521771079324700,9.32732470703125,-0.09954833984375,0.913970947265625,-0.4026031494140625
1773521771089363700,9.33736376953125,-0.0729827880859375,0.9169464111328125,-0.3894195556640625
1773521771099402800,9.34740283203125,-0.045379638671875,0.9199676513671875,-0.3864593505859375
1773521771109440800,9.357440673828124,-0.017974853515625,0.923980712890625,-0.3849945068359375
1773521771119479800,9.367479736328125,-0.00616455078125,0.9221649169921875,-0.3870849609375
1773521771129517800,9.377517822265625,-0.0023193359375,0.9141082763671875,-0.396514892578125
1773521771139556900,9.387556884765624,-0.0033416748046875,0.9021453857421875,-0.4122161865234375
1773521771149595000,9.397594970703125,-0.0131683349609375,0.8999786376953125,-0.4375457763671875
1773521771159634000,9.407634033203125,-0.027191162109375,0.9024505615234375,-0.4657440185546875
1773521771169672700,9.417672607421874,-0.036529541015625,0.897979736328125,-0.4921112060546875
1773521771179711000,9.4277109375,-0.0410003662109375,0.8836212158203125,-0.509735107421875
1773521771189749800,9.437749755859375,-0.053863525390625,0.8577423095703125,-0.5211639404296875
1773521771199787800,9.447787841796876,-0.07354736328125,0.820343017578125,-0.5216827392578125
1773521771209826800,9.457826904296875,-0.0847930908203125,0.7899322509765625,-0.5151519775390625
1773521771219865900,9.467865966796875,-0.0877227783203125,0.773651123046875,-0.5115814208984375
1773521771229903600,9.477903564453126,-0.08306884765625,0.777313232421875,-0.514373779296875
1773521771239943000,9.48794287109375,-0.06805419921875,0.8003997802734375,-0.5295562744140625
1773521771249980700,9.497980712890625,-0.0389404296875,0.838348388671875,-0.548065185546875
1773521771260019700,9.508019775390625,-0.009307861328125,0.8835906982421875,-0.5709991455078125
1773521771270058800,9.518058837890624,0.017303466796875,0.92578125,-0.587921142578125
1773521771280096800,9.5280966796875,0.0382080078125,0.9554595947265625,-0.5979461669921875
1773521771290135800,9.5381357421875,0.034149169921875,0.9654083251953125,-0.608917236328125
1773521771300173800,9.548173828125,0.0137481689453125,0.951507568359375,-0.6098785400390625
1773521771310212900,9.558212890625,-0.0186767578125,0.924591064453125,-0.601898193359375
1773521771320251600,9.568251708984375,-0.0539703369140625,0.885284423828125,-0.585235595703125
1773521771330290000,9.5782900390625,-0.0719451904296875,0.8473052978515625,-0.5646820068359375
1773521771340328700,9.58832861328125,-0.0756683349609375,0.8145904541015625,-0.5485382080078125
1773521771350366700,9.59836669921875,-0.0664215087890625,0.7921295166015625,-0.536651611328125
1773521771360405800,9.60840576171875,-0.0440521240234375,0.8161468505859375,-0.5213470458984375
1773521771370444800,9.61844482421875,-0.036468505859375,0.843536376953125,-0.5014495849609375
1773521771380482600,9.628482666015625,-0.0518951416015625,0.8460540771484375,-0.478271484375
1773521771390521900,9.63852197265625,-0.0778656005859375,0.8397674560546875,-0.4479217529296875
1773521771400559600,9.6485595703125,-0.1019439697265625,0.83819580078125,-0.418182373046875
1773521771410598700,9.6585986328125,-0.1106414794921875,0.8445892333984375,-0.4041290283203125
1773521771420638000,9.668637939453125,-0.097869873046875,0.8644561767578125,-0.412689208984375
1773521771430675700,9.67867578125,-0.0750579833984375,0.8880157470703125,-0.4442291259765625
1773521771440714800,9.68871484375,-0.052703857421875,0.8951416015625,-0.4745635986328125
1773521771450752800,9.698752685546875,-0.033477783203125,0.8895721435546875,-0.4789276123046875
1773521771460791800,9.708791748046876,-0.0269317626953125,0.88397216796875,-0.4730682373046875
1773521771470830600,9.71883056640625,-0.0286712646484375,0.889739990234375,-0.4721221923828125
1773521771480868900,9.728868896484375,-0.0274810791015625,0.899017333984375,-0.4729766845703125
1773521771490907600,9.73890771484375,-0.0174407958984375,0.89984130859375,-0.470306396484375
1773521771500946000,9.74894580078125,-0.008514404296875,0.8909912109375,-0.460693359375
1773521771510985000,9.75898486328125,-0.00531005859375,0.87872314453125,-0.446624755859375
1773521771521022700,9.769022705078125,-0.0108184814453125,0.86712646484375,-0.4341278076171875
1773521771531061800,9.779061767578124,-0.0246124267578125,0.8648223876953125,-0.4276123046875
1773521771541100800,9.789100830078125,-0.0433502197265625,0.866729736328125,-0.4293670654296875
1773521771551138800,9.799138916015625,-0.0571746826171875,0.8701019287109375,-0.4387054443359375
1773521771561177900,9.809177734375,-0.0609588623046875,0.875701904296875,-0.453216552734375
1773521771571216000,9.8192158203125,-0.0575103759765625,0.881805419921875,-0.4723358154296875
1773521771581254700,9.829254638671875,-0.0496826171875,0.88134765625,-0.4907379150390625
1773521771591293700,9.839293701171876,-0.0525054931640625,0.8701324462890625,-0.5063323974609375
1773521771601331700,9.849331787109374,-0.0867767333984375,0.8535308837890625,-0.5237579345703125
1773521771611370800,9.859370849609375,-0.133087158203125,0.836273193359375,-0.5425872802734375
1773521771621408800,9.86940869140625,-0.16339111328125,0.8261260986328125,-0.5592803955078125
1773521771631447800,9.87944775390625,-0.15838623046875,0.8238983154296875,-0.5814666748046875
1773521771641486800,9.88948681640625,-0.1239166259765625,0.8226776123046875,-0.6069488525390625
1773521771651524900,9.89952490234375,-0.0796051025390625,0.8272705078125,-0.6309814453125
1773521771661564000,9.90956396484375,-0.0410614013671875,0.841552734375,-0.6470184326171875
1773521771671601700,9.9196015625,-0.02191162109375,0.8706512451171875,-0.6501617431640625
1773521771681641000,9.929640869140625,-0.0247344970703125,0.91192626953125,-0.629058837890625
1773521771691679700,9.9396796875,-0.043548583984375,0.9364013671875,-0.5878753662109375
1773521771701717800,9.9497177734375,-0.065338134765625,0.94488525390625,-0.5412750244140625
1773521771711756800,9.9597568359375,-0.0873565673828125,0.9477081298828125,-0.4995574951171875
1773521771721794800,9.969794921875,-0.1102294921875,0.947723388671875,-0.4668731689453125
1773521771731833600,9.97983349609375,-0.1259002685546875,0.9483795166015625,-0.4476470947265625
1773521771741871900,9.989871826171875,-0.1347503662109375,0.9483184814453125,-0.441802978515625
1773521771751910700,9.99991064453125,-0.1314849853515625,0.950439453125,-0.447662353515625
1773521771761949700,10.00994970703125,-0.11492919921875,0.9508819580078125,-0.4594268798828125
1773521771771987700,10.01998779296875,-0.0990447998046875,0.9449615478515625,-0.4697113037109375
1773521771782026800,10.03002685546875,-0.0856170654296875,0.9273681640625,-0.47174072265625
1773521771792064800,10.040064697265626,-0.080718994140625,0.8996124267578125,-0.4636688232421875
1773521771802103800,10.050103759765625,-0.080230712890625,0.8698883056640625,-0.44427490234375
1773521771812142800,10.060142822265625,-0.0785980224609375,0.845123291015625,-0.41796875
1773521771822180900,10.070180908203126,-0.0713348388671875,0.8274688720703125,-0.389556884765625
1773521771832220000,10.080219970703125,-0.0677642822265625,0.8215484619140625,-0.3646697998046875
1773521771842257700,10.090257568359375,-0.067535400390625,0.8267669677734375,-0.344635009765625
1773521771852296700,10.100296630859376,-0.0709075927734375,0.838287353515625,-0.33160400390625
1773521771862335700,10.110335693359374,-0.076385498046875,0.8563995361328125,-0.3233184814453125
1773521771872373800,10.120373779296875,-0.0860443115234375,0.8765411376953125,-0.3170013427734375
1773521771882412800,10.130412841796876,-0.0908355712890625,0.890228271484375,-0.3076019287109375
1773521771892450800,10.140450927734374,-0.093505859375,0.8929595947265625,-0.2946014404296875
1773521771902489600,10.150489501953125,-0.0926971435546875,0.893402099609375,-0.2828216552734375
1773521771912528600,10.160528564453125,-0.086151123046875,0.894012451171875,-0.2878570556640625
1773521771922567000,10.17056689453125,-0.07965087890625,0.8954925537109375,-0.313934326171875
1773521771932605700,10.180605712890625,-0.0679931640625,0.8964691162109375,-0.35333251953125
1773521771942643500,10.1906435546875,-0.0499420166015625,0.8888702392578125,-0.3894500732421875
1773521771952682500,10.2006826171875,-0.03521728515625,0.87188720703125,-0.42205810546875
1773521771962720500,10.210720458984374,-0.0217437744140625,0.8563232421875,-0.4572296142578125
1773521771972759600,10.220759521484375,-0.0095367431640625,0.8487548828125,-0.490081787109375
1773521771982798300,10.23079833984375,0.003936767578125,0.8467864990234375,-0.5179290771484375
1773521771992836400,10.24083642578125,0.0167388916015625,0.8508758544921875,-0.5389251708984375
1773521772002875400,10.25087548828125,0.0350799560546875,0.86761474609375,-0.5532379150390625
1773521772012913400,10.260913330078125,0.053680419921875,0.8905487060546875,-0.5605621337890625
1773521772022952200,10.2709521484375,0.065826416015625,0.89202880859375,-0.5707550048828125
1773521772032991500,10.280991455078125,0.069061279296875,0.8964080810546875,-0.5760498046875
1773521772043029200,10.291029296875,0.0576629638671875,0.9049224853515625,-0.563232421875
1773521772053068300,10.301068359375,0.03533935546875,0.8964691162109375,-0.547698974609375
1773521772063106300,10.311106201171874,0.0138397216796875,0.8750457763671875,-0.538299560546875
1773521772073145300,10.321145263671875,0.0032806396484375,0.8650970458984375,-0.5341033935546875
1773521772083184400,10.331184326171876,0.006011962890625,0.8603515625,-0.537139892578125
1773521772093222400,10.341222412109374,0.0138092041015625,0.8454742431640625,-0.5533294677734375
1773521772103261400,10.351261474609375,0.025115966796875,0.84716796875,-0.5647125244140625
1773521772113299500,10.361299560546875,0.03863525390625,0.8704681396484375,-0.564727783203125
1773521772123338500,10.37133837890625,0.0323333740234375,0.880462646484375,-0.5643157958984375
1773521772133376300,10.381376220703125,0.0076904296875,0.8958587646484375,-0.54608154296875
1773521772143415600,10.39141552734375,-0.0232391357421875,0.90887451171875,-0.5087432861328125
1773521772153454300,10.401454345703126,-0.047760009765625,0.907989501953125,-0.4718017578125
1773521772163492400,10.411492431640625,-0.0623016357421875,0.908050537109375,-0.43255615234375
1773521772173531400,10.421531494140625,-0.0696868896484375,0.9108428955078125,-0.39691162109375
1773521772183569400,10.4315693359375,-0.074615478515625,0.9192962646484375,-0.3660888671875
1773521772193608400,10.4416083984375,-0.0712738037109375,0.9219512939453125,-0.3465728759765625
1773521772203647500,10.4516474609375,-0.0599365234375,0.9245758056640625,-0.338043212890625
1773521772213685500,10.461685546875,-0.0455474853515625,0.9258880615234375,-0.3314056396484375
1773521772223724300,10.471724365234374,-0.03155517578125,0.9277191162109375,-0.3255767822265625
1773521772233762600,10.481762451171875,-0.0171051025390625,0.92950439453125,-0.31988525390625
1773521772243801300,10.49180126953125,-0.00762939453125,0.9286651611328125,-0.3217926025390625
1773521772253839600,10.501839599609376,-0.0010833740234375,0.9297332763671875,-0.32568359375
1773521772263878400,10.51187841796875,0.00262451171875,0.9305572509765625,-0.341064453125
1773521772273917400,10.52191748046875,-0.0005950927734375,0.9368743896484375,-0.3625335693359375
1773521772283955500,10.53195556640625,-0.0059356689453125,0.9496917724609375,-0.3903045654296875
1773521772293994500,10.541994384765625,-0.0113983154296875,0.9587860107421875,-0.4200897216796875
1773521772304032300,10.5520322265625,-0.008575439453125,0.9720306396484375,-0.447906494140625
1773521772314071300,10.5620712890625,0.0031585693359375,0.98876953125,-0.464508056640625
1773521772324110600,10.572110595703125,0.018280029296875,0.9964599609375,-0.4727783203125
1773521772334148400,10.5821484375,0.024322509765625,0.9866485595703125,-0.4685516357421875
1773521772344187400,10.5921875,0.01513671875,0.9716339111328125,-0.45281982421875
1773521772354225400,10.602225341796874,-0.000152587890625,0.9594268798828125,-0.4422149658203125
1773521772364264400,10.612264404296875,-0.005126953125,0.9551544189453125,-0.4403839111328125
1773521772374303200,10.62230322265625,-0.00103759765625,0.9555511474609375,-0.4488677978515625
1773521772384341500,10.632341552734376,0.009246826171875,0.96331787109375,-0.4599456787109375
1773521772394380300,10.64238037109375,0.0209503173828125,0.9720916748046875,-0.4653778076171875
1773521772404418600,10.65241845703125,0.0330352783203125,0.9816436767578125,-0.4653778076171875
1773521772414457300,10.662457275390626,0.0385284423828125,0.97442626953125,-0.4709014892578125
1773521772424495400,10.672495361328124,0.0413818359375,0.9468994140625,-0.47943115234375
1773521772434534400,10.682534423828125,0.045928955078125,0.916015625,-0.486297607421875
1773521772444573400,10.692573486328126,0.047637939453125,0.8870697021484375,-0.50213623046875
1773521772454611200,10.702611083984374,0.0453338623046875,0.8751983642578125,-0.5234222412109375
1773521772464650500,10.712650390625,0.0487823486328125,0.8975677490234375,-0.5273284912109375
1773521772474688300,10.722688232421875,0.049835205078125,0.929168701171875,-0.51580810546875
1773521772484727300,10.732727294921874,0.0324554443359375,0.9182586669921875,-0.501739501953125
1773521772494766600,10.7427666015625,0.00250244140625,0.89190673828125,-0.4830474853515625
1773521772504804400,10.752804443359375,-0.0278167724609375,0.8863525390625,-0.4653167724609375
1773521772514843400,10.762843505859376,-0.0502471923828125,0.9044342041015625,-0.453033447265625
1773521772524881400,10.77288134765625,-0.06292724609375,0.93096923828125,-0.45172119140625
1773521772534920400,10.78292041015625,-0.06475830078125,0.947265625,-0.4542999267578125
1773521772544959200,10.792959228515626,-0.06756591796875,0.93719482421875,-0.471282958984375
1773521772554997500,10.80299755859375,-0.0677490234375,0.896240234375,-0.4650421142578125
1773521772565036300,10.813036376953125,-0.0551605224609375,0.8637542724609375,-0.424346923828125
1773521772575074600,10.823074462890625,-0.0530242919921875,0.8243560791015625,-0.37982177734375
1773521772585113300,10.83311328125,-0.0670166015625,0.7810211181640625,-0.336517333984375
1773521772595151400,10.8431513671875,-0.0811309814453125,0.7266998291015625,-0.2841949462890625
1773521772605190400,10.8531904296875,-0.0981292724609375,0.673614501953125,-0.233123779296875
1773521772615229400,10.8632294921875,-0.11572265625,0.64324951171875,-0.1860809326171875
1773521772625267500,10.873267333984375,-0.12811279296875,0.6936187744140625,-0.1665802001953125
1773521772635306200,10.88330615234375,-0.134979248046875,0.8277435302734375,-0.17803955078125
1773521772645344500,10.893344482421876,-0.131927490234375,0.96893310546875,-0.207916259765625
1773521772655383300,10.90338330078125,-0.119140625,1.0517120361328125,-0.22906494140625
1773521772665422300,10.91342236328125,-0.093963623046875,1.1006317138671875,-0.2530975341796875
1773521772675460400,10.92346044921875,-0.0712127685546875,1.15576171875,-0.27587890625
1773521772685499400,10.93349951171875,-0.0501861572265625,1.2017974853515625,-0.30584716796875
1773521772695537400,10.943537353515625,-0.03363037109375,1.2212371826171875,-0.3566131591796875
1773521772705576400,10.953576416015625,-0.02105712890625,1.187164306640625,-0.415283203125
1773521772715614200,10.9636142578125,0.008056640625,1.1143035888671875,-0.458251953125
1773521772725653500,10.973653564453125,0.0551605224609375,1.0234527587890625,-0.4698944091796875
1773521772735692500,10.983692626953125,0.0912017822265625,0.9500274658203125,-0.4735260009765625
1773521772745730300,10.993730224609376,0.0968017578125,0.89227294921875,-0.481719970703125
1773521772755769600,11.00376953125,0.085418701171875,0.845245361328125,-0.4886932373046875
1773521772765807400,11.013807373046875,0.0709075927734375,0.8001556396484375,-0.497650146484375
1773521772775846400,11.023846435546876,0.05950927734375,0.76806640625,-0.5104522705078125
1773521772785885400,11.033885498046875,0.052032470703125,0.7553253173828125,-0.5236053466796875
1773521772795923500,11.04392333984375,0.0541229248046875,0.761993408203125,-0.5383148193359375
1773521772805962200,11.053962158203126,0.0634613037109375,0.7897491455078125,-0.55810546875
1773521772816000500,11.06400048828125,0.0713653564453125,0.82098388671875,-0.587432861328125
1773521772826039300,11.074039306640625,0.0689239501953125,0.8505096435546875,-0.619659423828125
1773521772836077600,11.08407763671875,0.0450592041015625,0.8716583251953125,-0.6480560302734375
1773521772846116400,11.094116455078124,-0.0082550048828125,0.8772125244140625,-0.66778564453125
1773521772856155400,11.1041552734375,-0.0755462646484375,0.8680572509765625,-0.6846923828125
1773521772866193400,11.114193359375,-0.1349945068359375,0.8514404296875,-0.6960296630859375
1773521772876232400,11.124232421875,-0.1661224365234375,0.8380126953125,-0.6906585693359375
1773521772886270500,11.1342705078125,-0.1245880126953125,0.8648681640625,-0.635345458984375
1773521772896309200,11.144309326171875,-0.060302734375,0.878082275390625,-0.5724639892578125
1773521772906348500,11.1543486328125,-0.0182952880859375,0.867279052734375,-0.533935546875
1773521772916386300,11.16438623046875,-0.0078277587890625,0.8586883544921875,-0.506561279296875
1773521772926425300,11.17442529296875,-0.021392822265625,0.8642120361328125,-0.484344482421875
1773521772936463400,11.18446337890625,-0.0550994873046875,0.8740692138671875,-0.4691314697265625
1773521772946502100,11.194502197265624,-0.1033172607421875,0.7165374755859375,-0.591156005859375
1773521772956540200,11.2045400390625,-0.139068603515625,-1.545501708984375,-2.3301239013671875
1773521772966579200,11.2145791015625,-0.212188720703125,1.856536865234375,-0.1587066650390625
1773521772976618000,11.224617919921876,-0.09967041015625,1.699005126953125,-0.079345703125
1773521772986656300,11.23465625,0.0428619384765625,0.6240997314453125,-0.8467559814453125
1773521772996695000,11.244695068359375,0.2380828857421875,0.75048828125,-0.8523406982421875
1773521773006733000,11.254733154296876,0.154296875,1.7424774169921875,-0.06719970703125
1773521773016772000,11.264772216796874,0.09033203125,0.918731689453125,-0.494476318359375
1773521773026811100,11.27481103515625,-0.0229949951171875,1.468597412109375,-0.055511474609375
1773521773036849000,11.284848876953125,-0.1161651611328125,1.362884521484375,0.0975494384765625
1773521773046888200,11.29488818359375,-0.1192779541015625,1.2589111328125,0.126678466796875
1773521773056926000,11.304926025390625,-0.0424346923828125,1.08538818359375,0.0862884521484375
1773521773066965000,11.314965087890625,-0.011962890625,0.930633544921875,0.0442962646484375
1773521773077003000,11.3250029296875,0.0019683837890625,0.8675994873046875,0.0053558349609375
1773521773087042000,11.3350419921875,0.016815185546875,0.801300048828125,0.006439208984375
1773521773097081000,11.3450810546875,0.0120391845703125,0.7909088134765625,0.0341949462890625
1773521773107119000,11.355119140625,-0.020111083984375,0.830169677734375,0.07562255859375
1773521773117158100,11.365158203125,-0.0537567138671875,0.8782501220703125,0.102935791015625
1773521773127196200,11.375196044921875,-0.0727691650390625,0.918060302734375,0.0758209228515625
1773521773137235200,11.385235107421876,-0.0297088623046875,0.886749267578125,-0.0171661376953125
1773521773147274000,11.39527392578125,0.2760772705078125,0.842620849609375,-0.2170867919921875
1773521773157312300,11.405312255859375,0.3851165771484375,0.93212890625,-0.326446533203125
1773521773167351000,11.41535107421875,-0.248321533203125,0.95166015625,-0.267364501953125
1773521773177389000,11.42538916015625,-0.72601318359375,0.7696380615234375,-0.1525421142578125
1773521773187428000,11.435427978515625,-0.955841064453125,0.7653656005859375,-0.057159423828125
1773521773197467100,11.445467041015625,-0.9218902587890625,0.84698486328125,-0.0250396728515625
1773521773207505200,11.455505126953126,-0.7988128662109375,0.8787994384765625,-0.04693603515625
1773521773217544200,11.465544189453125,-0.63623046875,0.911407470703125,-0.08477783203125
1773521773227582200,11.475582275390625,-0.518402099609375,0.9287109375,-0.1297760009765625
1773521773237621000,11.48562109375,-0.4157562255859375,0.9436187744140625,-0.1545562744140625
1773521773247659300,11.4956591796875,-0.2938385009765625,0.9652862548828125,-0.194183349609375
1773521773257698000,11.505697998046875,-0.157470703125,1.0193328857421875,-0.2252960205078125
1773521773267737000,11.515737060546876,0.02288818359375,1.0616455078125,-0.2555999755859375
1773521773277775000,11.525775146484374,0.1875457763671875,1.081939697265625,-0.2992095947265625
1773521773287814100,11.535814208984375,0.2974090576171875,1.089569091796875,-0.343353271484375
1773521773297852200,11.54585205078125,0.3923492431640625,1.081634521484375,-0.3780059814453125
1773521773307891200,11.55589111328125,0.4558563232421875,1.06866455078125,-0.4172210693359375
1773521773317930200,11.56593017578125,0.4721832275390625,1.0303955078125,-0.4514617919921875
1773521773327968000,11.575968017578125,0.4379425048828125,0.9779815673828125,-0.4730224609375
1773521773338007300,11.58600732421875,0.2949676513671875,0.9087677001953125,-0.48004150390625
1773521773348045000,11.596045166015625,0.054901123046875,0.83721923828125,-0.4919586181640625
1773521773358084000,11.606083984375,-0.4404754638671875,0.763763427734375,-0.5544281005859375
1773521773368122000,11.6161220703125,-0.897369384765625,-1.456451416015625,-2.5828399658203125
1773521773378161200,11.6261611328125,-0.8040008544921875,1.3791351318359375,-0.4092254638671875
1773521773388200000,11.636199951171875,-0.5017242431640625,1.7884979248046875,-0.043426513671875
1773521773398238200,11.64623828125,-0.0316314697265625,1.4387359619140625,-0.9596405029296875
1773521773408277000,11.656277099609374,0.5655975341796875,0.68548583984375,-3.117584228515625
1773521773418315300,11.666315185546875,0.2586517333984375,0.9415130615234375,0.5950164794921875
1773521773428354000,11.67635400390625,-0.1136627197265625,0.9380950927734375,-0.062286376953125
1773521773438393000,11.68639306640625,-0.1221466064453125,0.8177642822265625,-0.1130218505859375
1773521773448431000,11.69643115234375,-0.1667938232421875,0.8343505859375,-0.1072235107421875
1773521773458470100,11.70647021484375,-0.2109222412109375,0.904327392578125,-0.1722259521484375
1773521773468508000,11.7165078125,-0.1989288330078125,1.0105438232421875,-0.2375946044921875
1773521773478547200,11.726547119140625,-0.134857177734375,1.105560302734375,-0.2934112548828125
1773521773488585000,11.7365849609375,-0.04339599609375,1.1603240966796875,-0.3036651611328125
1773521773498624000,11.7466240234375,0.0202178955078125,1.209991455078125,-0.300750732421875
1773521773508663300,11.756663330078124,-0.0059967041015625,1.2533721923828125,-0.3408203125
1773521773518701000,11.766701171875,-0.103607177734375,1.2620849609375,-0.3812713623046875
1773521773528740000,11.776739990234375,-0.1613006591796875,1.174163818359375,-0.297393798828125
1773521773538778000,11.786778076171874,-0.2537841796875,1.11090087890625,-0.2722015380859375
1773521773548817200,11.796817138671875,-0.3085784912109375,1.072052001953125,-0.249267578125
1773521773558856000,11.80685595703125,-0.3052978515625,1.030670166015625,-0.23779296875
1773521773568894200,11.816894287109376,-0.2660064697265625,1.0073699951171875,-0.2391204833984375
1773521773578933000,11.82693310546875,-0.2194061279296875,0.99346923828125,-0.248504638671875
1773521773588971300,11.83697119140625,-0.1839447021484375,1.00439453125,-0.2726287841796875
1773521773599010300,11.84701025390625,-0.17083740234375,1.0228424072265625,-0.3002166748046875
1773521773609048000,11.857048095703124,-0.205963134765625,1.030059814453125,-0.3155975341796875
1773521773619087000,11.867087158203125,0.0609130859375,0.881134033203125,-0.3670501708984375
1773521773629126100,11.877126220703126,0.4278411865234375,0.8083648681640625,-0.129791259765625
1773521773639164200,11.8871640625,-1.44769287109375,1.1355133056640625,-0.1071014404296875
1773521773649203000,11.897202880859375,0.649139404296875,0.9946746826171875,-0.145233154296875
1773521773659241200,11.9072412109375,-0.0321502685546875,1.2733612060546875,-0.313323974609375
1773521773669280000,11.917280029296874,0.6406097412109375,1.0517578125,-0.6489715576171875
1773521773679319000,11.927319091796875,0.7942657470703125,0.621795654296875,-0.7763519287109375
1773521773689357000,11.937357177734375,0.1309967041015625,0.6304473876953125,-0.400299072265625
1773521773699396000,11.94739599609375,-0.4952850341796875,1.0042266845703125,-0.05401611328125
1773521773709434000,11.95743408203125,-0.624053955078125,1.13482666015625,0.0059814453125
1773521773719473200,11.96747314453125,-0.3929901123046875,1.2423553466796875,-0.0288543701171875
1773521773729512200,11.97751220703125,-0.0557098388671875,1.229644775390625,-0.1497802734375
1773521773739550200,11.98755029296875,0.1797027587890625,1.1354217529296875,-0.2501220703125
1773521773749589200,11.99758935546875,0.2953338623046875,1.1078948974609375,-0.324432373046875
1773521773759627000,12.007626953125,0.214691162109375,1.1080780029296875,-0.31304931640625
1773521773769666300,12.017666259765624,0.087646484375,1.0560150146484375,-0.1921539306640625
1773521773779704000,12.0277041015625,0.014007568359375,1.01055908203125,-0.1094512939453125
1773521773789743000,12.0377431640625,-0.0139312744140625,0.9281005859375,-0.1344451904296875
1773521773799782100,12.0477822265625,-0.074554443359375,0.8748779296875,-0.13604736328125
1773521773809820200,12.057820068359375,-0.1226348876953125,0.85101318359375,-0.1501922607421875
1773521773819859000,12.06785888671875,-0.1646728515625,0.872894287109375,-0.191253662109375
1773521773829897200,12.077897216796876,-0.162933349609375,0.9114532470703125,-0.2065887451171875
1773521773839936000,12.08793603515625,-0.1439056396484375,0.9508514404296875,-0.2059173583984375
1773521773849975000,12.09797509765625,-0.1145477294921875,0.98944091796875,-0.2088623046875
1773521773860013000,12.108012939453126,-0.0672454833984375,1.020233154296875,-0.20849609375
1773521773870052000,12.118052001953124,-0.00579833984375,1.0205535888671875,-0.200592041015625
1773521773880090000,12.128090087890625,0.0566253662109375,0.9999542236328125,-0.1936492919921875
1773521773890129200,12.138129150390625,0.1125030517578125,0.9574737548828125,-0.1827239990234375
1773521773900167200,12.148167236328124,0.1486053466796875,0.924591064453125,-0.163970947265625
1773521773910206000,12.1582060546875,0.1527862548828125,0.9091339111328125,-0.133575439453125
1773521773920245200,12.168245361328125,0.099822998046875,0.9057159423828125,-0.095367431640625
1773521773930283000,12.178282958984376,0.0437164306640625,0.917755126953125,-0.064971923828125
1773521773940322600,12.188322509765625,0.017425537109375,0.9376220703125,-0.050079345703125
1773521773950360800,12.19836083984375,0.000457763671875,0.9598541259765625,-0.041015625
1773521773960399600,12.208399658203126,-0.0215606689453125,0.9791107177734375,-0.0299072265625
1773521773970438700,12.218438720703125,-0.043975830078125,1.0019378662109375,-0.0190277099609375
1773521773980477000,12.228476806640625,-0.0663909912109375,1.028900146484375,-0.011138916015625
1773521773990515700,12.238515625,-0.0848541259765625,1.0557861328125,-0.006683349609375
1773521774000553700,12.2485537109375,-0.0976104736328125,1.07867431640625,-0.0035552978515625
1773521774010592800,12.2585927734375,-0.0993499755859375,1.0921478271484375,-0.00079345703125
1773521774020631800,12.2686318359375,-0.1007232666015625,1.1007843017578125,0.00628662109375
1773521774030669600,12.278669677734374,-0.1098175048828125,1.097625732421875,0.015167236328125
1773521774040708900,12.288708984375,-0.122100830078125,1.092529296875,0.0217742919921875
1773521774050746600,12.29874658203125,-0.1378631591796875,1.0850982666015625,0.0310211181640625
1773521774060785700,12.30878564453125,-0.1492919921875,1.05511474609375,0.0347137451171875
1773521774070823700,12.31882373046875,-0.15679931640625,1.01055908203125,0.0187835693359375
1773521774080862700,12.32886279296875,-0.1475677490234375,0.97906494140625,0.0065765380859375
1773521774090901800,12.33890185546875,-0.127105712890625,0.9768218994140625,0.001708984375
1773521774100939800,12.348939697265624,-0.1080169677734375,0.9971160888671875,0.004150390625
1773521774110978800,12.358978759765625,-0.1049346923828125,1.023193359375,0.01171875
1773521774121016800,12.369016845703126,-0.10321044921875,1.041534423828125,0.0021209716796875
1773521774131055900,12.379055908203124,-0.066864013671875,1.0323486328125,-0.07452392578125
1773521774141094700,12.3890947265625,-0.2818603515625,1.06915283203125,-0.1503143310546875
1773521774151133000,12.3991328125,-0.8814849853515625,1.00970458984375,-0.09405517578125
1773521774161171700,12.409171630859374,-0.8927154541015625,0.9917449951171875,0.02435302734375
1773521774171209700,12.419209716796875,-0.7118988037109375,0.989288330078125,0.0476531982421875
1773521774181248800,12.429248779296875,-0.54437255859375,0.980743408203125,0.0309600830078125
1773521774191287800,12.439287841796874,-0.414031982421875,0.9635772705078125,0.0247344970703125
1773521774201325600,12.44932568359375,-0.3404083251953125,0.924530029296875,-0.000152587890625
1773521774211364900,12.45936474609375,-0.3039703369140625,0.8825836181640625,-0.0701141357421875
1773521774221402600,12.469402587890626,-0.2441864013671875,0.830657958984375,-0.1410064697265625
1773521774231441700,12.479441650390624,-0.1645965576171875,0.836090087890625,-0.205474853515625
1773521774241479700,12.489479736328125,-0.0865478515625,0.8836517333984375,-0.264373779296875
1773521774251518700,12.499518798828126,-0.020904541015625,0.9404144287109375,-0.3219451904296875
1773521774261557800,12.509557861328124,0.0449371337890625,0.999786376953125,-0.3772735595703125
1773521774271595800,12.519595703125,0.0971832275390625,1.0304412841796875,-0.4143218994140625
1773521774281634800,12.529634765625,0.1309967041015625,1.03167724609375,-0.4222412109375
1773521774291672800,12.5396728515625,0.1297454833984375,1.012725830078125,-0.4150238037109375
1773521774301712000,12.5497119140625,0.093231201171875,0.9870452880859375,-0.41497802734375
1773521774311750700,12.559750732421875,0.04840087890625,0.956787109375,-0.419219970703125
1773521774321788700,12.56978857421875,0.0247650146484375,0.940155029296875,-0.421905517578125
1773521774331827700,12.57982763671875,0.017608642578125,0.9309234619140625,-0.4152984619140625
1773521774341865700,12.58986572265625,0.0239105224609375,0.928253173828125,-0.38134765625
1773521774351904500,12.599904541015626,0.043701171875,0.966156005859375,-0.313079833984375
1773521774361943800,12.60994384765625,0.054351806640625,1.0268707275390625,-0.25421142578125
1773521774371981600,12.619981689453125,0.0499420166015625,1.0442352294921875,-0.2300567626953125
1773521774382020600,12.6300205078125,0.036376953125,1.0861968994140625,-0.2242889404296875
1773521774392059000,12.640058837890624,0.003021240234375,1.1695404052734375,-0.226318359375
1773521774402097700,12.65009765625,-0.0438690185546875,1.252532958984375,-0.2265777587890625
1773521774412136700,12.66013671875,-0.113250732421875,1.3169097900390625,-0.2298583984375
1773521774422174700,12.6701748046875,-0.180633544921875,1.3310394287109375,-0.2476959228515625
1773521774432213800,12.6802138671875,-0.209808349609375,1.244903564453125,-0.281402587890625
1773521774442251800,12.690251708984375,-0.1749267578125,1.1614227294921875,-0.294464111328125
1773521774452290800,12.700290771484376,-0.1112823486328125,1.10546875,-0.293670654296875
1773521774462328600,12.71032861328125,-0.0489501953125,1.0243988037109375,-0.30352783203125
1773521774472367900,12.720367919921875,0.013031005859375,0.945892333984375,-0.321990966796875
1773521774482407000,12.730406982421876,0.0737762451171875,0.88470458984375,-0.342620849609375
1773521774492444700,12.740444580078124,0.134796142578125,0.841583251953125,-0.365264892578125
1773521774502484000,12.75048388671875,0.189178466796875,0.814117431640625,-0.3907928466796875
1773521774512521700,12.760521728515625,0.212921142578125,0.8001861572265625,-0.424224853515625
1773521774522560800,12.770560791015624,0.126800537109375,0.7998046875,-0.4873046875
1773521774532599800,12.780599853515625,-0.0426788330078125,0.860260009765625,-0.548828125
1773521774542637800,12.790637939453125,-0.1968841552734375,0.9349365234375,-0.5482635498046875
1773521774552676600,12.800676513671876,-0.2190399169921875,0.95068359375,-0.4506378173828125
1773521774562715000,12.81071484375,-0.1390838623046875,0.956085205078125,-0.3388824462890625
1773521774572753700,12.820753662109375,-0.0748291015625,1.0184173583984375,-0.304962158203125
1773521774582792700,12.830792724609376,-0.0384979248046875,1.0245513916015625,-0.293731689453125
1773521774592830700,12.840830810546874,-0.011322021484375,1.02728271484375,-0.2929229736328125
1773521774602869800,12.850869873046875,0.0082550048828125,1.03271484375,-0.3071746826171875
1773521774612907800,12.86090771484375,0.0118255615234375,1.014190673828125,-0.3184356689453125
1773521774622946800,12.87094677734375,0.0019073486328125,1.001678466796875,-0.3362884521484375
1773521774632985900,12.88098583984375,-0.0025177001953125,0.9895477294921875,-0.3509674072265625
1773521774643023600,12.891023681640625,0.024200439453125,0.95379638671875,-0.3473663330078125
1773521774653063000,12.90106298828125,0.0964508056640625,0.8819122314453125,-0.2822418212890625
1773521774663100700,12.9111005859375,0.574615478515625,-0.33270263671875,2.6022186279296875
1773521774673139700,12.9211396484375,-0.4824371337890625,1.31231689453125,0.433837890625
1773521774683177700,12.931177734375,-0.0252685546875,1.5772857666015625,-1.043121337890625
1773521774693216800,12.941216796875,0.1121063232421875,1.2670135498046875,-0.3365936279296875
1773521774703255600,12.951255615234375,-0.188812255859375,0.9644775390625,0.1388092041015625
1773521774713293800,12.9612939453125,-0.3773956298828125,1.112030029296875,-0.05316162109375
1773521774723332600,12.97133251953125,-0.192840576171875,1.213409423828125,-0.203887939453125
1773521774733371000,12.981370849609375,-0.3119964599609375,0.982513427734375,-0.06304931640625
1773521774743409700,12.99140966796875,-0.298065185546875,0.999298095703125,-0.1582794189453125
1773521774753448700,13.00144873046875,0.331756591796875,1.8034820556640625,-0.7095184326171875
1773521774763486700,13.01148681640625,0.281768798828125,1.6044158935546875,-0.7936248779296875
1773521774773525800,13.02152587890625,-0.027008056640625,1.388427734375,-0.9310302734375
1773521774783563800,13.031563720703126,-0.460784912109375,1.4866790771484375,-1.129302978515625
1773521774793602800,13.041602783203125,-0.9314727783203125,1.2867584228515625,-1.057769775390625
1773521774803641900,13.051641845703125,-0.3244781494140625,0.574798583984375,-0.500457763671875
1773521774813679600,13.0616796875,-0.157867431640625,0.180908203125,-0.367034912109375
1773521774823719000,13.071718994140625,-0.5040740966796875,0.3099365234375,-0.6600799560546875
1773521774833756700,13.081756591796875,-0.36468505859375,0.348602294921875,-0.69415283203125
1773521774843795700,13.091795654296876,-0.249053955078125,0.3967437744140625,-0.7181396484375
1773521774853833700,13.101833740234374,-0.2173309326171875,0.4866485595703125,-0.630523681640625
1773521774863872800,13.111872802734375,-0.2847747802734375,0.6057586669921875,-0.5006256103515625
1773521774873911800,13.121911865234376,-0.4280242919921875,0.7032318115234375,-0.3850860595703125
1773521774883949800,13.13194970703125,-0.561798095703125,0.7292633056640625,-0.299041748046875
1773521774893988900,13.14198876953125,-0.6391754150390625,0.733062744140625,-0.245025634765625
1773521774904026600,13.152026611328125,-0.6353759765625,0.7641448974609375,-0.2483062744140625
1773521774914066000,13.16206591796875,-0.59637451171875,0.7898406982421875,-0.2813262939453125
1773521774924104700,13.172104736328125,-0.57135009765625,0.8211822509765625,-0.2849273681640625
1773521774934142700,13.182142822265625,-0.5806427001953125,0.8507843017578125,-0.266571044921875
1773521774944181500,13.192181396484376,-0.594146728515625,0.8758697509765625,-0.2366485595703125
1773521774954219500,13.202219482421874,-0.5680999755859375,0.8577880859375,-0.2110595703125
1773521774964258600,13.212258544921875,-0.49615478515625,0.811492919921875,-0.1987457275390625
1773521774974296600,13.222296630859375,-0.413665771484375,0.754730224609375,-0.1847381591796875
1773521774984335400,13.23233544921875,-0.3311004638671875,0.6999053955078125,-0.169342041015625
