time,seconds_elapsed,z,y,x
1773521762044546800,0.292546875,-9.220456377708912,-3.339112274494767,-0.06238518560260999
1773521762054585600,0.302585693359375,-9.220596662962436,-3.338782019627094,-0.05926035441323183
1773521762064623900,0.312623779296875,-9.221426684045792,-3.3365564525321125,-0.055320288717676885
1773521762074662700,0.32266259765625,-9.223307675486803,-3.331424350340664,-0.05087453852230683
1773521762084701700,0.33270166015625,-9.225917565724252,-3.324261034582555,-0.04598215880428906
1773521762094739700,0.34273974609375,-9.228042302793265,-3.318427506123483,-0.04071944336995948
1773521762104778800,0.35277880859375,-9.228726193404198,-3.3166043823495506,-0.033628482745296784
1773521762114817800,0.36281787109375,-9.227771669158338,-3.319342867402732,-0.02409367948233848
1773521762124855800,0.372855712890625,-9.225561007371544,-3.3255417220428583,-0.01329574382372084
1773521762134894800,0.382894775390625,-9.223209475809336,-3.3320842755541205,-0.0016521927912166573
1773521762144933600,0.39293359375,-9.221660492801666,-3.3363530389145013,0.010311662537103984
1773521762154972000,0.402971923828125,-9.221531313464045,-3.336668388473987,0.01982709437931189
1773521762165010700,0.4130107421875,-9.222347890543936,-3.3343168569117783,0.031834498300880656
1773521762175049700,0.4230498046875,-9.223066852468252,-3.332045989370346,0.053785804592818016
1773521762185087700,0.433087646484375,-9.223277864870429,-3.3307901440903542,0.08582858219938352
1773521762195126800,0.443126708984375,-9.223252730429172,-3.329503903672099,0.12805307353716344
1773521762205165600,0.45316552734375,-9.22353797711134,-3.3262299965679643,0.18143917475529014
1773521762215203800,0.463203857421875,-9.22515710274577,-3.317725495333969,0.2440323725188151
1773521762225243000,0.473242919921875,-9.226904823195934,-3.30713162060529,0.31224176619630306
1773521762235281700,0.48328173828125,-9.225579127550125,-3.3025349404647946,0.390295166083239
1773521762245320000,0.49331982421875,-9.220859113290905,-3.3045410195901987,0.4755555016743019
1773521762255358700,0.503358642578125,-9.212091869467496,-3.3124338186666367,0.5792507808832451
1773521762265397800,0.513397705078125,-9.199864840579032,-3.322449893507361,0.7029901559397578
1773521762275435800,0.523435791015625,-9.184263951343297,-3.3316923536270853,0.8482374888513237
1773521762285474800,0.533474853515625,-9.164735075008869,-3.33723215983659,1.0202427725680172
1773521762295513600,0.543513671875,-9.139803462848066,-3.3387852344974873,1.2193836082305758
1773521762305552000,0.5535517578125,-9.105252958470583,-3.3391017531007527,1.4543565125137567
1773521762315590700,0.563590576171875,-9.057564155578612,-3.3411689147636294,1.7226470914438365
1773521762325629700,0.573629638671875,-8.994391952350735,-3.3615564537540075,1.99279586546123
1773521762335668000,0.58366796875,-8.911996577736735,-3.409805228616297,2.262726028291881
1773521762345706800,0.593706787109375,-8.804323554003238,-3.47965296408534,2.558572138145566
1773521762355745800,0.603745849609375,-8.666492707893251,-3.561647356683016,2.8942975461840628
1773521762365783800,0.61378369140625,-8.536776779177785,-3.6096342657387255,3.203804517121613
1773521762375822800,0.62382275390625,-8.448025898057223,-3.563342177902162,3.4790558749750256
1773521762385861600,0.633861572265625,-8.363385959386825,-3.464871282278001,3.7707851971596478
1773521762395899600,0.643899658203125,-8.280809967508912,-3.3414649751007555,4.05378643848747
1773521762405938700,0.653938720703125,-8.205921607524155,-3.191784701243043,4.318072457951307
1773521762415977700,0.663977783203125,-8.11950764491856,-3.033970805290341,4.586829777610301
1773521762426015700,0.674015625,-8.006235486003757,-2.8857904146015643,4.872657474535703
1773521762436054800,0.6840546875,-7.8657181772887705,-2.7482813477918504,5.171828052636981
1773521762446093800,0.69409375,-7.703061517480015,-2.623835760694742,5.472541768527031
1773521762456131600,0.704131591796875,-7.533893283820152,-2.521579209052026,5.749127589854598
1773521762466171000,0.7141708984375,-7.37350690703094,-2.4600901366055012,5.979108896395564
1773521762476209700,0.724209716796875,-7.2212009608447545,-2.435814065743983,6.17182693246901
1773521762486247700,0.73424755859375,-7.071293892493844,-2.4298804379113017,6.345302507933974
1773521762496286700,0.74428662109375,-6.943127531307935,-2.426474136599153,6.486569758233427
1773521762506325800,0.75432568359375,-6.871537043824792,-2.4288472954712805,6.56148325265944
1773521762516363500,0.764363525390625,-6.849062761688232,-2.434007162452489,6.583033405688405
1773521762526402800,0.77440283203125,-6.822200473725795,-2.427247312928736,6.613352556106448
1773521762536441900,0.78444189453125,-6.788907860454916,-2.4026842418193817,6.656441756248474
1773521762546479600,0.794479736328125,-6.758910197076201,-2.3529684631444514,6.704554922032356
1773521762556519000,0.804518798828125,-6.740850808772445,-2.27026226901561,6.751090463235974
1773521762566557700,0.8145576171875,-6.739911482095718,-2.1437153257250783,6.79326605566442
1773521762576595700,0.824595703125,-6.733959295693039,-1.9754259207263587,6.849953573048114
1773521762586634800,0.834634765625,-6.740159903898835,-1.7724872271507977,6.89919661964476
1773521762596673800,0.844673828125,-6.761945619249343,-1.55491605098024,6.930274479475617
1773521762606711600,0.854711669921875,-6.794336899766326,-1.3394294259987771,6.943579951250553
1773521762616750600,0.86475048828125,-6.838104729822278,-1.1266939994215965,6.938391734957695
1773521762626790000,0.874789794921875,-6.886977189540863,-0.9006659605510532,6.923057972225546
1773521762636828700,0.88482861328125,-6.925525823643803,-0.6439911467432975,6.913230405694246
1773521762646866700,0.89486669921875,-6.956704805761575,-0.34612650014143437,6.903248525384068
1773521762656905700,0.90490576171875,-6.9816925320237875,-0.00027748537382985884,6.8866796678990125
1773521762666944800,0.91494482421875,-7.00149379555881,0.39494547610711306,6.855179783263802
1773521762676982500,0.924982421875,-7.0222969296127555,0.8356628155689686,6.794070357784628
1773521762687021800,0.935021728515625,-7.044805698540807,1.3116504615828395,6.694824386134743
1773521762697060900,0.945060791015625,-7.0636132748633615,1.8074062725797295,6.558127512490749
1773521762707098600,0.9550986328125,-7.06995650641024,2.306740964976698,6.3925780538499355
1773521762717138000,0.965137939453125,-7.0516071952492,2.7977707703649997,6.214314075064658
1773521762727176700,0.9751767578125,-6.999865317574143,3.273526872645318,6.037905368757247
1773521762737214700,0.985214599609375,-6.912375250169634,3.732885966876149,5.869839543381333
1773521762747253800,0.995253662109375,-6.78627166673243,4.178718640057743,5.714474794146418
1773521762757292800,1.005292724609375,-6.616495530307293,4.61853833656013,5.573282362648844
1773521762767330600,1.01533056640625,-6.399125283536314,5.0580374228060245,5.44406444658339
1773521762777369900,1.025369873046875,-6.135749656915665,5.490992786496878,5.326533461180329
1773521762787409000,1.035408935546875,-5.8389615900367495,5.897570430871844,5.2245174402952195
1773521762797446700,1.04544677734375,-5.52823092252314,6.2582940865665675,5.142255921193957
1773521762807485700,1.055485595703125,-5.2247670311421155,6.565341681653261,5.07626632245779
1773521762817524700,1.065524658203125,-4.941853175836801,6.8223769993364805,5.020323485961556
1773521762827562800,1.075562744140625,-4.675334282754362,7.038213460668921,4.977466341009736
1773521762837601500,1.0856015625,-4.41795614298284,7.221513680055737,4.949926592177152
1773521762847640800,1.095640869140625,-4.16988300717324,7.376539406594634,4.936510645765066
1773521762857678600,1.1056787109375,-3.9349867483228445,7.502194661742449,4.939973937961459
1773521762867717600,1.115717529296875,-3.718006962174177,7.596651061028242,4.963638306665421
1773521762877757000,1.1257568359375,-3.5235561109587548,7.659839046347141,5.008171860396862
1773521762887794700,1.135794677734375,-3.352404010005295,7.6940312388062475,5.072836348009109
1773521762897833700,1.145833740234375,-3.2008582345366476,7.703702153471112,5.155373761442303
1773521762907872800,1.155872802734375,-3.064941113093495,7.693506338149309,5.252283983621001
1773521762917910800,1.165910888671875,-2.94421045486629,7.665536381205916,5.361114360696077
1773521762927949600,1.175949462890625,-2.838542925736308,7.6216078076303,5.479430358996987
1773521762937988000,1.185988037109375,-2.7517335340723394,7.5632479731202125,5.603181241828203
1773521762948026000,1.196026123046875,-2.6851711038842794,7.491983648851513,5.72978342243731
1773521762958065200,1.206065185546875,-2.6339430209502575,7.411020352867245,5.857433066272735
1773521762968104200,1.216104248046875,-2.5953455792695284,7.32432640427649,5.982375789237022
1773521762978143200,1.226143310546875,-2.5703172287359832,7.2362260960191485,6.099252110123634
1773521762988181000,1.236180908203125,-2.558749248278141,7.151529458725452,6.203127495139837
1773521762998220300,1.24622021484375,-2.558157419864833,7.075050030156969,6.290459157112241
1773521763008259000,1.256259033203125,-2.567361593800783,7.008637237572669,6.360664912238716
1773521763018297000,1.266297119140625,-2.5861437434211374,6.952915934872627,6.413985583537817
1773521763028336000,1.276336181640625,-2.6107076913133263,6.9091136180251835,6.4512587908774615
1773521763038375200,1.286375244140625,-2.637522925263643,6.878015299928188,6.473545441487431
1773521763048413000,1.296412841796875,-2.6655957580596206,6.858420957142115,6.482828818139433
1773521763058452200,1.3064521484375,-2.697492533057928,6.847223855823278,6.481469220224023
1773521763068491300,1.3164912109375,-2.7382415998145935,6.840587778809666,6.471380956929922
1773521763078529000,1.326529052734375,-2.781040877099335,6.8300096861720085,6.464299474236369
1773521763088568300,1.336568359375,-2.8249554221495985,6.810150554969907,6.466207353684306
1773521763098607000,1.346607177734375,-2.8742104514449833,6.779079709401726,6.477143173718452
1773521763108645000,1.35664501953125,-2.927087178368866,6.736808839905262,6.497534804362059
1773521763118684200,1.36668408203125,-2.9799840712979435,6.687434275883436,6.524439177900552
1773521763128723200,1.37672314453125,-3.0523370675861834,6.633062049704789,6.546456363919377
1773521763138761000,1.386760986328125,-3.1418051570653915,6.573795037221908,6.563890898323058
1773521763148800300,1.39680029296875,-3.2240596619039774,6.5111377977788445,6.58641837195158
1773521763158839300,1.40683935546875,-3.2997815501034258,6.444743709895015,6.614160365357995
1773521763168877000,1.416876953125,-3.3791379954129455,6.37707068811655,6.639636167398095
1773521763178916000,1.426916015625,-3.4565862690135836,6.3127610052913425,6.661189827558398
1773521763188955100,1.436955078125,-3.5229654515892266,6.248039819055795,6.687384007000923
1773521763198993200,1.4469931640625,-3.570943592816591,6.178647718399763,6.726296798241138
1773521763209032000,1.457031982421875,-3.5949490300431846,6.107847504511475,6.7779737939864395
1773521763219071200,1.4670712890625,-3.5853833293184634,6.042587973615527,6.841237767150997
1773521763229109000,1.47710888671875,-3.5343308952122925,5.989117664712667,6.914429844611883
1773521763239148000,1.48714794921875,-3.4468843746885653,5.948644784548878,6.9930667434751985
1773521763249187300,1.497187255859375,-3.3383065110698342,5.92163636611402,7.06826022388637
1773521763259226000,1.50722607421875,-3.22222718577981,5.908959839892387,7.132448910680413
1773521763269264100,1.51726416015625,-3.107340577405691,5.908416234534979,7.183691606661677
1773521763279303200,1.52730322265625,-3.004500088395178,5.915059325811266,7.221871407452225
1773521763289342200,1.53734228515625,-2.92499108287245,5.92296147723794,7.247989014527201
1773521763299380000,1.5473798828125,-2.8635788750544187,5.9309513069480655,7.265956048372387
1773521763309419300,1.557419189453125,-2.8097274578794837,5.939005434066057,7.28038672478497
1773521763319458300,1.567458251953125,-2.754220382452011,5.947713056656718,7.294475455892085
1773521763329496000,1.57749609375,-2.6853374003618953,5.9574792483896015,7.312167764449119
1773521763339535400,1.587535400390625,-2.6017957783222196,5.9687096674561495,7.333183079949021
1773521763349574100,1.59757421875,-2.510835112197697,5.983794423863292,7.352571086508036
1773521763359612200,1.607612060546875,-2.423278117036819,5.999381284573674,7.3692276222765445
1773521763369651200,1.617651123046875,-2.3526541364982725,6.011048341491818,7.382593299806118
1773521763379690200,1.627690185546875,-2.31115761237517,6.0178574369847775,7.3901499987959856
1773521763389728000,1.63772802734375,-2.3063955125398934,6.022610184469818,7.387766903051734
1773521763399767000,1.64776708984375,-2.340218725556135,6.027949791932105,7.37275988805592
1773521763409806300,1.657806396484375,-2.4116851482681927,6.036414253416657,7.3427417664110655
1773521763419844000,1.667843994140625,-2.518417822411656,6.049683484834432,7.295840899026394
1773521763429883100,1.677883056640625,-2.659785610476136,6.062700202795863,7.234609308472275
1773521763439922200,1.687922119140625,-2.8300296566739678,6.067567516571283,7.165607668438553
1773521763449960200,1.697960205078125,-3.0225489553049205,6.057849255633354,7.094860061520338
1773521763459999000,1.7079990234375,-3.241798439951241,6.02792290392518,7.023195339757204
1773521763470038300,1.718038330078125,-3.5025738209456203,5.970871813926101,6.946297393515706
1773521763480076000,1.728075927734375,-3.8085000107869504,5.882718898698688,6.859981046065688
1773521763490115000,1.738114990234375,-4.14871513146013,5.76296146941781,6.763640732729435
1773521763500154400,1.748154296875,-4.504144480139017,5.615497702565789,6.659523940172791
1773521763510193200,1.758193115234375,-4.849651277479529,5.449637862801551,6.5538318611234425
1773521763520231200,1.768231201171875,-5.1620203598499295,5.274131073769927,6.4581327683001755
1773521763530270200,1.778270263671875,-5.429501668223739,5.093111074274778,6.383660003378987
1773521763540309200,1.788309326171875,-5.645014888951182,4.910621586748958,6.339557826802134
1773521763550347000,1.798346923828125,-5.800663131302595,4.730587383420765,6.335947819611429
1773521763560386300,1.80838623046875,-5.895886423307657,4.551362742909789,6.379184903791546
1773521763570425300,1.81842529296875,-5.937274664750695,4.3681402649343015,6.468268962389231
1773521763580463000,1.828463134765625,-5.930562015369534,4.179062338928878,6.598049773034453
1773521763590502100,1.838502197265625,-5.885758997046947,3.9833910060077904,6.757278796482086
1773521763600541200,1.848541259765625,-5.8205491505116225,3.7822789433375,6.927188788419961
1773521763610579200,1.8585791015625,-5.7479906947791575,3.577489945720136,7.094543250656128
1773521763620618000,1.868617919921875,-5.674774067398905,3.370438263867795,7.253100073930621
1773521763630657300,1.8786572265625,-5.607697842469811,3.159629275308549,7.398706230217218
1773521763640695000,1.888695068359375,-5.551886523398757,2.9428704384341833,7.529040583091974
1773521763650734000,1.898734130859375,-5.507914695203304,2.7203955620005726,7.644128266996145
1773521763660773000,1.908773193359375,-5.4758928325206035,2.4947633905798194,7.743458409798145
1773521763670811100,1.91881103515625,-5.457947425985336,2.2674409279845653,7.825593087649345
1773521763680850200,1.92885009765625,-5.452945087653398,2.039923235078156,7.89141843573451
1773521763690889200,1.93888916015625,-5.459271952587366,1.813040625204891,7.942267163962125
1773521763700927200,1.94892724609375,-5.465786449047923,1.5875141061156988,7.985947900256514
1773521763710966000,1.958966064453125,-5.464477120015025,1.3639119792178271,8.028052181014418
1773521763721005300,1.96900537109375,-5.453219228419661,1.1407472208239138,8.070407806184887
1773521763731043000,1.97904296875,-5.4209623879373074,0.920339359922707,8.120130745252967
1773521763741082000,1.98908203125,-5.356364535820484,0.7099141830492764,8.183872857323289
1773521763751121200,1.99912109375,-5.2576966563194985,0.513710642947629,8.262149106180667
1773521763761160200,2.00916015625,-5.126433498162031,0.3327716362668201,8.353402325510979
1773521763771198200,2.0191982421875,-4.973537769389152,0.16877618386866525,8.450196812355518
1773521763781237200,2.0292373046875,-4.809177228271961,0.022747167094075118,8.546442433145641
1773521763791276300,2.0392763671875,-4.64432188937515,-0.10593148642894812,8.636518425390124
1773521763801314000,2.04931396484375,-4.521330592739582,-0.2136687071056105,8.699557942149042
1773521763811353000,2.05935302734375,-4.466005303619801,-0.30190036839134987,8.725482072478533
1773521763821392100,2.06939208984375,-4.488969415099919,-0.3743218633385375,8.710880131152273
1773521763831430100,2.07943017578125,-4.654359007003903,-0.4357964688682928,8.620754454547166
1773521763841469000,2.089468994140625,-5.09250960125029,-0.5223947019996121,8.36443985235393
1773521763851508200,2.09950830078125,-5.60469632256627,-0.6347001713067293,8.022152017059922
1773521763861546000,2.1095458984375,-6.171867849001288,-0.7806975188679993,7.580827468952537
1773521763871585000,2.1195849609375,-6.819564280003309,-0.9618057081032544,6.981322529667615
1773521763881624300,2.129624267578125,-7.4874460054218765,-1.176163109859079,6.222955646681785
1773521763891662000,2.139662109375,-8.109117768329382,-1.4235685755401848,5.3278556496948
1773521763901701000,2.149701171875,-8.641552327904105,-1.7245733833312988,4.3034649636670945
1773521763911740200,2.159740234375,-9.050700699549912,-2.126508608727902,3.119800538267195
1773521763921778200,2.169778076171875,-9.256159559252858,-2.599474934159219,1.9330349319815634
1773521763931821600,2.179821533203125,-9.22474852194488,-2.9839617427572604,1.4732193261548876
1773521763941860600,2.189860595703125,-9.152434980884195,-3.247193284732103,1.3634712497130035
1773521763951898600,2.199898681640625,-9.121680946180224,-3.3563249828413126,1.303995562915504
1773521763961937700,2.209937744140625,-9.14527984843254,-3.319164880487323,1.231822453238815
1773521763971976400,2.2199765625,-9.214503022262454,-3.148326083266735,1.1624816443786024
1773521763982015500,2.230015380859375,-9.301281726527213,-2.8871611184328794,1.1492813865438103
1773521763992053500,2.240053466796875,-9.384790615341068,-2.594566411590576,1.1680373057443647
1773521764002092500,2.250092529296875,-9.468904484310746,-2.2861931208580732,1.1329423922918735
1773521764012131600,2.260131591796875,-9.54028746652305,-1.9922791481107471,1.088173787695542
1773521764022169600,2.270169677734375,-9.594523499101399,-1.726991842649877,1.0644245902523397
1773521764032208600,2.280208740234375,-9.638578329405188,-1.494202639081329,1.0176176847614347
1773521764042247400,2.290247314453125,-9.679581955444812,-1.2909852746948598,0.8996828677978366
1773521764052285700,2.30028564453125,-9.718649060463905,-1.1114547831051051,0.6949181278388947
1773521764062324500,2.310324462890625,-9.750656894621253,-0.9476669273093342,0.4438512901060283
1773521764072363500,2.320363525390625,-9.771486916682123,-0.7953696028210222,0.23624478738252072
1773521764082401500,2.330401611328125,-9.784348736342787,-0.6504360120337456,0.11764258341821841
1773521764092440600,2.340440673828125,-9.79307155650258,-0.5105131986131891,0.0742093556114938
1773521764102479600,2.350479736328125,-9.798698164212704,-0.38244565815925596,0.09815470581445843
1773521764112517600,2.360517578125,-9.80129694853425,-0.27104804267836735,0.1774733763968572
1773521764122556700,2.370556640625,-9.80064286853969,-0.17517801373498512,0.29511969527527687
1773521764132595500,2.380595458984375,-9.796755797973274,-0.08795861649801955,0.43153216248732057
1773521764142633700,2.3906337890625,-9.790989489531517,-0.00006858107585624111,0.5539973528895527
1773521764152672500,2.400672607421875,-9.78449252872765,0.09394194695763289,0.6521230883378535
1773521764162711600,2.410711669921875,-9.777154440924525,0.19705533462539315,0.7340349902838468
1773521764172750600,2.42075048828125,-9.768483058691023,0.3101931265708059,0.8067889685884118
1773521764182788600,2.43078857421875,-9.757084297320246,0.42396643994078037,0.88878504168652
1773521764192827600,2.44082763671875,-9.743578919059038,0.5205316846067085,0.9808696703396736
1773521764202866400,2.450866455078125,-9.728628602686523,0.5860191425070166,1.0866226857960224
1773521764212904700,2.46090478515625,-9.710427175563574,0.6208114928163587,1.2217124895695597
1773521764222943500,2.470943603515625,-9.68381915462315,0.640580315386504,1.4084339886419475
1773521764232982500,2.480982421875,-9.64519336363077,0.656264425926283,1.6461908976204693
1773521764243020500,2.4910205078125,-9.59288099259138,0.6636256754092872,1.925256991456449
1773521764253059600,2.5010595703125,-9.526802546527982,0.6524496899437159,2.2326500389799473
1773521764263098600,2.5110986328125,-9.447527349761128,0.629128947045654,2.5531945367604494
1773521764273136600,2.52113671875,-9.348591174712777,0.6024832609759644,2.9002137844905254
1773521764283175700,2.53117578125,-9.223009569323063,0.5826817782452329,3.2813056899532675
1773521764293214500,2.54121435546875,-9.064435794913768,0.5778968455236405,3.6976232225760817
1773521764303252700,2.551252685546875,-8.865684908416867,0.5978588891109451,4.148805147831141
1773521764313291500,2.56129150390625,-8.618406430116295,0.6502873973432928,4.633636244709789
1773521764323330600,2.57133056640625,-8.313793368700146,0.7392146579440683,5.148280003789067
1773521764333368600,2.58136865234375,-7.946204503411054,0.8734400269079953,5.680257467246055
1773521764343407600,2.59140771484375,-7.517844650816917,1.0653100678499787,6.206248257508873
1773521764353446700,2.60144677734375,-7.038195340490341,1.3217888476289807,6.699781131759286
1773521764363484700,2.611484619140625,-6.511514814397692,1.6418090292744338,7.146679096084832
1773521764373523700,2.621523681640625,-5.9369976013749834,2.0161837553113697,7.540387906536459
1773521764383562500,2.6315625,-5.314070869970322,2.4321089276157317,7.8750167515099045
1773521764393600800,2.641600830078125,-4.648526063066721,2.8771175710633394,8.141485083448886
1773521764403639600,2.6516396484375,-3.958915613181889,3.341657575063407,8.326504966235161
1773521764413678600,2.6616787109375,-3.278799844612181,3.819500420489907,8.416131461146474
1773521764423717400,2.67171728515625,-2.6437264560788867,4.302461047321557,8.406540041458607
1773521764433755600,2.681755615234375,-2.087997968547791,4.782654839788377,8.302822477352619
1773521764443794700,2.691794677734375,-1.6393183815024792,5.2558308624476195,8.115371568027138
1773521764453833500,2.70183349609375,-1.3061750989116727,5.710439255020022,7.864805738618969
1773521764463871700,2.711871826171875,-1.08528413066864,6.125638597267866,7.580837405824661
1773521764473910500,2.72191064453125,-0.97270104999654,6.482194611889123,7.294203653213382
1773521764483949600,2.731949462890625,-0.9573987053159624,6.773164347878098,7.026949139332771
1773521764493987600,2.741987548828125,-1.0216411681238562,6.997922951334714,6.793799139627814
1773521764504026600,2.752026611328125,-1.143717103480175,7.152180031588673,6.611248277303576
1773521764514065400,2.7620654296875,-1.310269528618455,7.231222004121541,6.493304619446397
1773521764524103700,2.772103759765625,-1.5040164693482219,7.24010322971344,6.441213197681307
1773521764534142700,2.782142822265625,-1.7021056770659981,7.195428221684693,6.4419730761379
1773521764544181500,2.792181396484375,-1.8861008929796517,7.11719873457849,6.477537141472101
1773521764554219800,2.8022197265625,-2.0529529586516317,7.023074343726038,6.529334548726678
1773521764564258600,2.812258544921875,-2.2043672166951,6.92178254546225,6.587873246935009
1773521764574297600,2.822297607421875,-2.3342620091088113,6.813691004055738,6.655465020170808
1773521764584335600,2.832335693359375,-2.4379786964319643,6.696335375219583,6.736892426535487
1773521764594374700,2.842374755859375,-2.5110581072986125,6.5672524837106465,6.83638448190093
1773521764604413400,2.852413330078125,-2.553256788341701,6.424487103807926,6.955373849418759
1773521764614451700,2.86245166015625,-2.5649337821319698,6.267571617999672,7.092887884664535
1773521764624490500,2.872490478515625,-2.5426471315219996,6.105874743133783,7.240417117968201
1773521764634529500,2.882529541015625,-2.481405604095757,5.955615792605281,7.38536802521646
1773521764644567800,2.89256787109375,-2.3743710243962703,5.834629113790393,7.51597418076992
1773521764654606600,2.902606689453125,-2.2188085606321692,5.751482628548145,7.626775565657019
1773521764664645600,2.912645751953125,-2.0167939961642025,5.7027650671303265,7.718899138081073
1773521764674683600,2.92268359375,-1.7842112749531864,5.682289849856495,7.790929186025261
1773521764684722700,2.93272265625,-1.5502159104652702,5.675276171702146,7.845919836363196
1773521764694761500,2.942761474609375,-1.3435425604060292,5.664520968931913,7.891672702756524
1773521764704799700,2.9527998046875,-1.165828397523239,5.643953981721401,7.934544460755586
1773521764714838500,2.962838623046875,-1.0020510631214827,5.617680307301878,7.975458654946088
1773521764724877600,2.972877685546875,-0.8498804337527602,5.582281661662459,8.0178686406523
1773521764734915600,2.98291552734375,-0.7268564769566058,5.525660779774189,8.06902365835011
1773521764744954600,2.99295458984375,-0.6589177169140428,5.431268677896261,8.1386448915869
1773521764754993700,3.00299365234375,-0.6462849567689001,5.269340916883945,8.245408399260043
1773521764765031700,3.01303173828125,-0.6874024184465408,5.0611178531646726,8.371556406360865
1773521764775070700,3.02307080078125,-0.7832013183824718,4.854505439512431,8.484736795338987
1773521764785109500,3.033109619140625,-0.8873974597856402,4.6488235847085715,8.58902485280931
1773521764795147800,3.043147705078125,-1.0107804591525344,4.446268922014534,8.682131006529927
1773521764805186600,3.0531865234375,-1.1632033827818928,4.23477691962719,8.768351492390035
1773521764815225600,3.0632255859375,-1.3237237612143158,4.008973775553703,8.851343079331517
1773521764825263600,3.073263671875,-1.4903781123571096,3.7955268397063016,8.918696367636322
1773521764835302700,3.083302734375,-1.6321911599710583,3.5962890464752912,8.976250146460533
1773521764845341700,3.093341796875,-1.7125687650218604,3.409327674232423,9.034045332825183
1773521764855380500,3.10338037109375,-1.7284300587594508,3.2592791515842077,9.0862542434901
1773521764865418800,3.113418701171875,-1.7013287013441323,3.1560140074208376,9.127729578694701
1773521764875457500,3.12345751953125,-1.6711838845796883,3.085480920036137,9.15736483850181
1773521764885496600,3.13349658203125,-1.6703496257126331,3.0301617683961988,9.175970754772424
1773521764895534600,3.14353466796875,-1.682795704179257,2.9967744625791903,9.184657919096946
1773521764905573600,3.15357373046875,-1.6781768122069536,2.9808994325771927,9.190666804122925
1773521764915612700,3.16361279296875,-1.6537702468335627,2.9673312182128426,9.19947730256617
1773521764925650700,3.173650634765625,-1.6270263245537877,2.953402938364446,9.208723269817233
1773521764935689200,3.183689208984375,-1.6174587241329252,2.9601085734829304,9.208255067783593
1773521764945728300,3.193728271484375,-1.6445235489301382,2.996914747832715,9.191541248869896
1773521764955766300,3.203766357421875,-1.7136017613314092,3.0503993775218725,9.161278797075152
1773521764965805300,3.213805419921875,-1.8017003160230813,3.1000621108353137,9.127643069455027
1773521764975844000,3.223843994140625,-1.8904687328003347,3.138843676911294,9.096382838794588
1773521764985882400,3.23388232421875,-1.9790866351909935,3.16645356837064,9.06792012989819
1773521764995921200,3.243921142578125,-2.0720169939532873,3.1921319072455168,9.038109513524175
1773521765005960200,3.253960205078125,-2.1740954125501215,3.225936561691761,9.002056787890195
1773521765015998200,3.263998291015625,-2.2909726102195678,3.2699048827558754,8.957095364135503
1773521765026037200,3.274037353515625,-2.42115104188025,3.3183722688049078,8.904877101120352
1773521765036076300,3.284076171875,-2.557600078243017,3.370708020719886,8.846885515400766
1773521765046114300,3.2941142578125,-2.6951827948108313,3.4335815332621333,8.781621892851591
1773521765056153300,3.3041533203125,-2.8258932875216005,3.5150317359805103,8.708000191801785
1773521765066192100,3.314192138671875,-2.949044158633053,3.6214869083568453,8.623129366984964
1773521765076230400,3.32423046875,-3.0677842275649305,3.7488998208269475,8.526713065803051
1773521765086269200,3.334269287109375,-3.173888102285564,3.8880981558978553,8.424933776283263
1773521765096308200,3.34430810546875,-3.2629593014016747,4.036581036664545,8.32042652310431
1773521765106346200,3.35434619140625,-3.3362820195049046,4.197374532949924,8.211069491806626
1773521765116385300,3.36438525390625,-3.399531379622221,4.363117760597169,8.09794930858314
1773521765126424300,3.37442431640625,-3.455689904695749,4.51125372762233,7.9923209424197665
1773521765136462300,3.38446240234375,-3.4963758430883285,4.639530563445389,7.900664402985572
1773521765146501400,3.39450146484375,-3.518081771200895,4.7697021269738675,7.813028789630532
1773521765156540200,3.4045400390625,-3.528203059981763,4.917380413359403,7.716316720372438
1773521765166578200,3.414578125,-3.5357784636721012,5.069708571377396,7.6135881673038
1773521765176617200,3.4246171875,-3.5466400494262573,5.199889779517054,7.520164618197083
1773521765186656300,3.43465625,-3.5620492154821752,5.270598223468661,7.4634420295000075
1773521765196694000,3.444694091796875,-3.588810381157696,5.308215129679441,7.423859376174211
1773521765206733300,3.4547333984375,-3.6015909522756933,5.346805849358439,7.389898654383421
1773521765216772400,3.4647724609375,-3.60194137314856,5.398091215437651,7.352346630102396
1773521765226810000,3.47481005859375,-3.618011048939824,5.44410127146244,7.31041419878006
1773521765236849400,3.484849365234375,-3.650001347440481,5.464018854853511,7.279585345274209
1773521765246888200,3.49488818359375,-3.690168230395019,5.458904872840643,7.26315443495512
1773521765256926200,3.50492626953125,-3.731590374107659,5.4368865177780386,7.2585033942788835
1773521765266965200,3.51496533203125,-3.775104521663487,5.406100334370136,7.258996730753779
1773521765277004300,3.52500439453125,-3.81535499124825,5.372942161133885,7.262571666631102
1773521765287042000,3.5350419921875,-3.840241302962601,5.3326440530151125,7.279138770550489
1773521765297081300,3.545081298828125,-3.8523891291350125,5.283668717443943,7.308375386428833
1773521765307120400,3.555120361328125,-3.843719208206236,5.238393405434489,7.345436996844411
1773521765317158100,3.565158203125,-3.807695124144852,5.219745403587818,7.377405668035149
1773521765327197400,3.575197509765625,-3.767709442976117,5.244160882920027,7.380618784862756
1773521765337236200,3.585236328125,-3.7454943962976333,5.3042848044931885,7.348891521212458
1773521765347274200,3.595274169921875,-3.7465380601316687,5.381626402848958,7.291909989318251
1773521765357313300,3.605313232421875,-3.753240188118815,5.460381375133991,7.229647302150726
1773521765367352300,3.615352294921875,-3.747932729360461,5.532254186689853,7.177571077954768
1773521765377390000,3.62539013671875,-3.724506845587492,5.601202050709724,7.136174068683386
1773521765387429000,3.63542919921875,-3.693801326200366,5.682959711942076,7.087324989840388
1773521765397468400,3.645468505859375,-3.6908570894420145,5.795327030971646,6.997295759347081
1773521765407506200,3.655506103515625,-3.7435765799775718,5.926606555742025,6.857941649192571
1773521765417545200,3.665545166015625,-3.848566940498352,6.035785892385244,6.70284987168014
1773521765427584300,3.675584228515625,-3.9653687348440285,6.11447773630619,6.561965483218431
1773521765437622300,3.685622314453125,-4.054731025861203,6.175405375477672,6.449335129338502
1773521765447661000,3.6956611328125,-4.125856526181102,6.227826467588543,6.353099445420503
1773521765457700400,3.705700439453125,-4.191661708261073,6.273859904488921,6.26410657223761
1773521765467738000,3.715738037109375,-4.255147215221822,6.315225934100151,6.1791609286189075
1773521765477777200,3.725777099609375,-4.3040483165130015,6.355565543273091,6.103468851035833
1773521765487816400,3.73581640625,-4.328295161280035,6.4000838994354,6.03946721124649
1773521765497854200,3.745854248046875,-4.328409727570414,6.442107516172528,5.99454085880518
1773521765507893200,3.755893310546875,-4.293640612006187,6.466901765689253,5.9928486679345365
1773521765517932300,3.765932373046875,-4.219973610509932,6.452303916016221,6.060527534931897
1773521765527970300,3.77597021484375,-4.120635284401476,6.40027153096199,6.182820620170236
1773521765538009000,3.786009033203125,-4.006713429406285,6.339138140085339,6.319173794943094
1773521765548048400,3.79604833984375,-3.8843437718003986,6.280858969596028,6.452368797945976
1773521765558086100,3.806086181640625,-3.7665675794646143,6.219050455936789,6.580787672588229
1773521765568125200,3.816125244140625,-3.655297700282931,6.15692513141334,6.70085489847064
1773521765578164200,3.826164306640625,-3.5397719172224402,6.1081216452777385,6.806705967473984
1773521765588202200,3.8362021484375,-3.4121073680788276,6.0848892382502555,6.892170666530728
1773521765598241300,3.8462412109375,-3.2750711794778704,6.086769645169377,6.956689608192444
1773521765608280000,3.856280029296875,-3.134756115336716,6.103220429232716,7.006738125953078
1773521765618318300,3.866318359375,-2.995102145452797,6.124205934116244,7.04938601206839
1773521765628357000,3.876357177734375,-2.853918189522624,6.146828100290894,7.088162609708308
1773521765638396200,3.886396240234375,-2.7097256994262335,6.183237384277581,7.11303986133337
1773521765648434200,3.89643408203125,-2.5629332559645173,6.2354030403226615,7.121902382224798
1773521765658473200,3.90647314453125,-2.4229741656541823,6.284817351832985,7.127458847308159
1773521765668512300,3.91651220703125,-2.28377919158414,6.302124460464715,7.158069674149155
1773521765678550300,3.92655029296875,-2.16620422090888,6.266903509479761,7.2252248095333576
1773521765688589300,3.93658935546875,-2.09281632861495,6.179533269062638,7.321467507714033
1773521765698628000,3.946628173828125,-2.0382314825989303,6.055519351381063,7.439534499689937
1773521765708666400,3.956666259765625,-1.9758108283907174,5.920884670963883,7.563707991847395
1773521765718705200,3.966705078125,-1.8919605787932872,5.794485903972387,7.682110499387979
1773521765728744200,3.976744140625,-1.7954302958428858,5.683600347933173,7.787394582158327
1773521765738782200,3.9867822265625,-1.704895892306417,5.584006001237034,7.8792521971225735
1773521765748821200,3.9968212890625,-1.6294807319685816,5.4852486898869275,7.964120683851838
1773521765758860300,4.0068603515625,-1.5762421859949827,5.388111088693142,8.040776053509116
1773521765768898300,4.016898193359375,-1.5413291319154203,5.2997208575785155,8.106026232054829
1773521765778937300,4.026937255859375,-1.516263225850463,5.225790528970957,8.15858001063466
1773521765788976000,4.03697607421875,-1.497835734886676,5.161884166249632,8.202550669786334
1773521765799014400,4.047014404296875,-1.4918829639621078,5.098723068937659,8.243039916563033
1773521765809053200,4.05705322265625,-1.506437997406721,5.034995569914579,8.279484271863103
1773521765819092200,4.06709228515625,-1.5549695347331463,4.968740013718604,8.310480298629402
1773521765829130200,4.077130126953125,-1.645346848011762,4.894720253261924,8.336961478319763
1773521765839169300,4.087169189453125,-1.7717153659954665,4.810356208923459,8.360136017680167
1773521765849208300,4.097208251953125,-1.919960346353054,4.7143654396772385,8.382056757587193
1773521765859246300,4.107246337890625,-2.0718302392095325,4.605668041332065,8.4062910351336
1773521765869285400,4.117285400390625,-2.222902551947534,4.490177621845901,8.430148296061157
1773521765879324200,4.12732421875,-2.3823130694419143,4.3696334261015055,8.449926178720593
1773521765889362400,4.137362548828125,-2.549543613037467,4.245383361576497,8.464451547679305
1773521765899401200,4.147401123046875,-2.7194021670490502,4.127264054891467,8.470000998499989
1773521765909440300,4.157440185546875,-2.8894100664034483,4.02245372711271,8.464132983249426
1773521765919478300,4.167478271484375,-3.052882718770206,3.932674087466299,8.448927815333008
1773521765929517300,4.177517333984375,-3.2046798386514186,3.8579745280519124,8.427126317891478
1773521765939552500,4.187552490234375,-3.3535736383065577,3.794720491759479,8.39785872235298
1773521765949590800,4.1975908203125,-3.5100285208657382,3.7383179287970063,8.359131224551797
1773521765959629800,4.2076298828125,-3.6741467776596544,3.6853733973339198,8.311983688929676
1773521765969668600,4.217668701171875,-3.8383679103061557,3.6351138671711083,8.25973678434193
1773521765979707000,4.227706787109375,-3.9936820983976125,3.5874385082826015,8.206775594004988
1773521765989745700,4.23774560546875,-4.136441048559546,3.5449431823804973,8.154362100678682
1773521765999784700,4.24778466796875,-4.266920362862944,3.5107065662577748,8.1017714972198
1773521766009822700,4.25782275390625,-4.388503254005313,3.483520160907507,8.048384774947166
1773521766019861800,4.26786181640625,-4.50997625503242,3.461708434332907,7.990435859325528
1773521766029900500,4.277900634765625,-4.628505603823066,3.445156235721707,7.929579531824588
1773521766039938800,4.287938720703125,-4.73985643928647,3.430588488925993,7.869893417146802
1773521766049977600,4.2979775390625,-4.842689329512417,3.41308147380799,7.814705198410153
1773521766060015600,4.308015625,-4.945605806368589,3.3862273691520093,7.7617545294672246
1773521766070054700,4.3180546875,-5.060713364017009,3.3489205518037077,7.703525043338537
1773521766080093700,4.32809375,-5.188083021867275,3.3050372786745426,7.637467640063166
1773521766090131700,4.338131591796875,-5.325442158812284,3.2533392401412127,7.564775913339853
1773521766100170500,4.34817041015625,-5.470083269459009,3.1967233266890047,7.485287950605153
1773521766110209800,4.358209716796875,-5.616624076247215,3.1401746332541105,7.400218388345837
1773521766120247600,4.36824755859375,-5.756096844345331,3.087440529671311,7.314742583373189
1773521766130286600,4.37828662109375,-5.879388292971253,3.0490733896151183,7.232312137445807
1773521766140325600,4.38832568359375,-5.982935176685452,3.0183062031686303,7.159937221586704
1773521766150363600,4.39836376953125,-6.08243716892302,2.9759333346024155,7.093529105177521
1773521766160402400,4.40840234375,-6.184332778298854,2.9146362775966526,7.030598894011974
1773521766170441700,4.418441650390625,-6.278568812832236,2.843755399687588,6.97588764513731
1773521766180479700,4.428479736328125,-6.359443261489272,2.773189579077065,6.930894072678685
1773521766190518500,4.4385185546875,-6.422489792510866,2.711101663954556,6.897241978445649
1773521766200557800,4.448557861328125,-6.471356991532445,2.660911984157562,6.871060073962807
1773521766210595600,4.458595703125,-6.518149722367525,2.625428875105083,6.840411837720871
1773521766220634600,4.468634521484375,-6.569927840399742,2.605887431550026,6.798219294157624
1773521766230673700,4.478673583984375,-6.630858402180671,2.602766961441934,6.740007343685627
1773521766240711700,4.488711669921875,-6.7008157355040305,2.6133362862512466,6.666327774968743
1773521766250750500,4.49875048828125,-6.771654527837038,2.6358362873509527,6.585396627688407
1773521766260789800,4.508789794921875,-6.830190887957811,2.675430046592653,6.508529076585173
1773521766270827800,4.518827880859375,-6.873937675225735,2.73866742401123,6.4357637001037595
1773521766280866600,4.528866455078125,-6.910445158889889,2.8266210172742605,6.358171341857314
1773521766290905600,4.538905517578125,-6.945605904120207,2.939516159570217,6.268029298639297
1773521766300943600,4.548943603515625,-6.982549441114068,3.078313804885745,6.159412856575846
1773521766310982700,4.558982666015625,-7.01965956684649,3.241563462151587,6.032165948322415
1773521766321021400,4.569021484375,-7.057636538541317,3.420661553673446,5.88720861133337
1773521766331059700,4.579059814453125,-7.09403647017777,3.594177753409743,5.738198199561238
1773521766341098500,4.589098388671875,-7.116129644042253,3.7394516090020535,5.616724614012241
1773521766351137500,4.599137451171875,-7.101554006201028,3.863026258483529,5.551157040080428
1773521766361175600,4.609175537109375,-7.0392603393733495,3.989519718021154,5.541022015035152
1773521766371214600,4.619214599609375,-6.937670434945821,4.138341329222917,5.5599681230455635
1773521766381253600,4.629253662109375,-6.816186912524699,4.314595137229562,5.576222507753968
1773521766391291600,4.639291748046875,-6.686612438106536,4.513576325351,5.575592393156886
1773521766401330700,4.64933056640625,-6.548174273753165,4.724570315088331,5.565090872886777
1773521766411368700,4.65936865234375,-6.414140481838584,4.93085072030723,5.542192812380194
1773521766421407700,4.66940771484375,-6.301266966852546,5.114930691894888,5.504716191422939
1773521766431446500,4.679446533203125,-6.223109375938773,5.259682277178764,5.4570180361807346
1773521766441484800,4.68948486328125,-6.177419053387641,5.353345480260253,5.417709523621201
1773521766451523600,4.699523681640625,-6.1523056549191475,5.398196429377794,5.401757921251654
1773521766461562600,4.709562744140625,-6.138246734428406,5.3992555830419064,5.416673166310787
1773521766471601000,4.719600830078125,-6.1270753520727155,5.3621174002587795,5.465987524577975
1773521766481639700,4.7296396484375,-6.118792676895857,5.286482605820894,5.548319770827889
1773521766491678700,4.7396787109375,-6.115537474492192,5.161606518352031,5.668192350921035
1773521766501716700,4.749716796875,-6.116815823864936,4.981152920567989,5.826067621672153
1773521766511755800,4.759755859375,-6.113779817169904,4.752024431464076,6.017502632197737
1773521766521794600,4.769794677734375,-6.100044721806049,4.481560307887197,6.2350184249192475
1773521766531832600,4.77983251953125,-6.074265552905201,4.169924800488353,6.471893582627177
1773521766541871600,4.78987158203125,-6.029201837819814,3.8205519753694532,6.724767688977718
1773521766551910700,4.79991064453125,-5.956756194812059,3.4445220294713974,6.987324984952807
1773521766561948400,4.809948486328125,-5.850073935681581,3.0598207013398406,7.251518942219018
1773521766571987700,4.81998779296875,-5.720463805428147,2.688902107106149,7.497765154862403
1773521766582026800,4.83002685546875,-5.587056620979308,2.3493787680894136,7.70944917269051
1773521766592064500,4.840064453125,-5.4630134772032495,2.042050894756615,7.8839014842331405
1773521766602103800,4.850103759765625,-5.3486751503616565,1.7519409904673695,8.030738643619417
1773521766612141600,4.8601416015625,-5.232586180460452,1.45544591518566,8.165299089756607
1773521766622180600,4.8701806640625,-5.113064313501119,1.1306363073065877,8.291478661039472
1773521766632219600,4.8802197265625,-4.999364869084954,0.7558850030422211,8.402699732643365
1773521766642257700,4.890257568359375,-4.911257546564936,0.315075674447976,8.482373573338984
1773521766652296400,4.90029638671875,-4.880818861420452,-0.18628334511714056,8.503722066316008
1773521766662335700,4.910335693359375,-4.918593880802392,-0.6942756652168929,8.455519468683004
1773521766672373800,4.920373779296875,-5.010148128905892,-1.1415982116300611,8.35257756512463
1773521766682412500,4.93041259765625,-5.132852133032679,-1.4714470557853578,8.225512443178891
1773521766692451800,4.940451904296875,-5.287961446201801,-1.6602420731961727,8.090206731632351
1773521766702489600,4.950489501953125,-5.468115768778324,-1.7456122258372604,7.95128516767621
1773521766712528600,4.960528564453125,-5.641674346351623,-1.7862381046056746,7.819926732450723
1773521766722567700,4.970567626953125,-5.790560839483142,-1.8179978092208504,7.702900189438462
1773521766732605700,4.980605712890625,-5.920490703210234,-1.8624743720680474,7.592717228710651
1773521766742644500,4.99064453125,-6.045242872038483,-1.9294012516543269,7.476819981989264
1773521766752683500,5.00068359375,-6.163249658259749,-2.00668571299538,7.359209501609206
1773521766762721500,5.010721435546875,-6.257416134688258,-2.0678806248009205,7.262162501308321
1773521766772760600,5.020760498046875,-6.319508725985885,-2.088598126398027,7.202218612477183
1773521766782799600,5.030799560546875,-6.343969798025489,-2.06385268445909,7.187832944250107
1773521766792837600,5.040837646484375,-6.311817002439499,-2.005195182176679,7.232603229346871
1773521766802876700,5.050876708984375,-6.171891229876875,-1.9256962596565483,7.373591078183055
1773521766812914700,5.060914794921875,-5.896375083607435,-1.8368864879556,7.617676313400268
1773521766822953700,5.07095361328125,-5.5359501185983415,-1.7531931824855504,7.9025278587698935
1773521766832992500,5.080992431640625,-5.153282926642895,-1.7205958580024538,8.164166870856285
1773521766843030800,5.09103076171875,-4.745212705622613,-1.8178969791948794,8.387407470965385
1773521766853069600,5.101069580078125,-4.313298667678237,-2.049002029068768,8.565478557527065
1773521766863108600,5.111108642578125,-3.8842692452594636,-2.3804538514412936,8.684253990033268
1773521766873147000,5.12114697265625,-3.4637998536542054,-2.7845497620031234,8.741782634416221
1773521766883185700,5.131185546875,-2.9448750562548636,-3.1681480973288414,8.801190516674518
1773521766893224700,5.141224609375,-1.9746730565324424,-3.404596261796355,8.982192980512977
1773521766903262700,5.1512626953125,-0.8526665573399513,-3.5681674061015247,9.09458777207136
1773521766913301800,5.1613017578125,0.26544593008868395,-3.6881864089280363,9.082797965556383
1773521766923340500,5.171340576171875,0.7397217306833713,-3.800907655961811,9.009788258925079
1773521766933379300,5.18137939453125,0.7823854719549417,-3.8143142500236626,9.000515403667091
1773521766943418600,5.191418701171875,0.604739661600627,-3.5963846158042547,9.103333973106741
1773521766953457700,5.201457763671875,0.31054782175999135,-3.215116769252717,9.259425867572427
1773521766963495400,5.211495361328125,0.13138499443884938,-2.857050934590399,9.380318438363075
1773521766973534500,5.221534423828125,0.12292483467007986,-2.6316937807187437,9.446133849576116
1773521766983572500,5.231572509765625,0.15741609227415174,-2.501491237530112,9.480936282888054
1773521766993611500,5.241611572265625,0.09222221049293876,-2.3937243980333207,9.50957317930758
1773521767003650300,5.251650390625,-0.08616037143701687,-2.2767706279963256,9.538305937317013
1773521767013688600,5.2616884765625,-0.371585168383643,-2.144724064376205,9.56203343438506
1773521767023727400,5.271727294921875,-0.7365127785742283,-1.9991506413154303,9.572426233583688
1773521767033766400,5.281766357421875,-1.1526632110018282,-1.8547911240890622,9.560414308750628
1773521767043804400,5.291804443359375,-1.6077159132756291,-1.7140299236156045,9.52091115040183
1773521767053843500,5.301843505859375,-2.0567491360642016,-1.5546417640835046,9.461673364013432
1773521767063882500,5.311882568359375,-2.4521871083959934,-1.3470029299929738,9.399082760065793
1773521767073920500,5.32192041015625,-2.783991543598473,-1.0764647913318126,9.341359469893574
1773521767083959600,5.33195947265625,-3.0622268856987356,-0.7488822116080671,9.286136179843544
1773521767093997600,5.34199755859375,-3.2942721390321847,-0.3906568755351007,9.228518103611469
1773521767104036600,5.35203662109375,-3.49443406137079,-0.03251798020314891,9.162873957312106
1773521767114075400,5.362075439453125,-3.651703767444193,0.30959231113344426,9.096130325338244
1773521767124113700,5.37211376953125,-3.780074419030547,0.6441429763041436,9.025878392982483
1773521767134152400,5.38215234375,-3.887394391542673,0.9970132881499826,8.947877453935146
1773521767144191500,5.39219140625,-3.975170874673128,1.3902632489182054,8.856385749673843
1773521767154229500,5.4022294921875,-4.038561104565859,1.8306037544243037,8.746959744793177
1773521767164268500,5.4122685546875,-4.0752138419196005,2.3070995691560205,8.616281108525396
1773521767174307600,5.4223076171875,-4.09547892357409,2.798197763605416,8.4597590059489
1773521767184345600,5.432345703125,-4.11428737667948,3.2920699528127906,8.270749176743626
1773521767194384600,5.442384521484375,-4.158463203014433,3.8000735432252286,8.02726658359468
1773521767204422400,5.45242236328125,-4.242022068449854,4.32999407415241,7.7088780948042865
1773521767214461400,5.46246142578125,-4.377831637865305,4.867537355042994,7.301510176834464
1773521767224500500,5.47250048828125,-4.551254021838307,5.395545038086175,6.807683872595429
1773521767234538500,5.48253857421875,-4.683259230534732,5.91147094593048,6.268330911934376
1773521767244577300,5.492577392578125,-4.686225971385836,6.422893112614751,5.740743207868934
1773521767254616600,5.502616455078125,-4.537829892119765,6.927680955851078,5.252209749341011
1773521767264654300,5.512654296875,-4.266231503815948,7.412251940488815,4.798767770199477
1773521767274693400,5.522693359375,-3.925507264576852,7.851383946987986,4.372246238948405
1773521767284732700,5.532732666015625,-3.57990752825588,8.218056866475939,3.9772085179805754
1773521767294770400,5.5427705078125,-3.26108415517956,8.50209534189701,3.640066813403368
1773521767304809500,5.5528095703125,-2.9693086557656523,8.712789179643988,3.3824402518287298
1773521767314847500,5.562847412109375,-2.7028441232189535,8.867979156833886,3.197492557495832
1773521767324886500,5.572886474609375,-2.4548393764704466,8.984063450559972,3.0709514594241973
1773521767334925300,5.58292529296875,-2.2100470158971843,9.073397684526443,2.993248918801546
1773521767344963600,5.592963623046875,-1.961948161124438,9.142216369208693,2.9565239929944274
1773521767355002400,5.60300244140625,-1.7140889603264629,9.194003839591145,2.950012126882374
1773521767365041400,5.61304150390625,-1.4745328929714858,9.230985370507836,2.963956773343682
1773521767375079400,5.623079345703125,-1.2454327531792222,9.254770150721072,2.994749971014261
1773521767385118500,5.633118408203125,-1.0273031394083052,9.268326966908573,3.035319297289848
1773521767395156500,5.643156494140625,-0.8203674120858311,9.274810483708977,3.078194562420249
1773521767405195500,5.653195556640625,-0.6262612095896154,9.274291428270935,3.125015058045089
1773521767415234600,5.663234619140625,-0.43458541257809846,9.264075739204882,3.187228353112936
1773521767425272600,5.6732724609375,-0.22779188847159965,9.235778450003266,3.28920842590183
1773521767435311600,5.6833115234375,0.00089922727636731,9.183395351815223,3.440296228469908
1773521767445350400,5.693350341796875,0.23926090206699444,9.106742904767394,3.630476270498335
1773521767455388700,5.703388671875,0.488726971806027,9.007598055404424,3.8463866738498207
1773521767465427500,5.713427490234375,0.7637106551665812,8.88828135562837,4.072540531057119
1773521767475466500,5.723466552734375,1.0718046175010503,8.750961966171861,4.2944504670843475
1773521767485504500,5.73350439453125,1.404642341274023,8.624333482077716,4.451765765865147
1773521767495543600,5.74354345703125,1.7130455887533724,8.567409817850589,4.4536923500135535
1773521767505581300,5.753581298828125,1.9363233060024678,8.609268599414825,4.2780251097232105
1773521767515620400,5.763620361328125,2.03399895959571,8.727763461413979,3.982382413487136
1773521767525659600,5.77365966796875,2.0578378080837427,8.857298188343643,3.6720465905100106
1773521767535697400,5.783697509765625,2.0898279604539276,8.945344720587133,3.432757941919565
1773521767545736400,5.793736328125,2.1409319786168632,8.978259148195386,3.3132547796607015
1773521767555775500,5.803775390625,2.166220441391319,8.960932165819406,3.343591465735435
1773521767565813500,5.8138134765625,2.13793031258285,8.904424096655845,3.5086814901709555
1773521767575852300,5.823852294921875,2.0690680810198185,8.821499145209788,3.751064305384457
1773521767585890600,5.833890625,1.998752728039026,8.724910994592308,4.006407724457979
1773521767595929300,5.843929443359375,1.9425950797483325,8.624844354209303,4.243675096353888
1773521767605968400,5.853968505859375,1.8984514021173118,8.527854637053608,4.454432646986842
1773521767616006400,5.86400634765625,1.8758112618945537,8.430863166332244,4.644597491446137
1773521767626045400,5.87404541015625,1.8787712807439267,8.325124325531721,4.830416123394667
1773521767636083700,5.884083740234375,1.9018610644303262,8.198335682439804,5.033944015035033
1773521767646122500,5.89412255859375,1.9465633988574147,8.041850404742359,5.264024105775356
1773521767656161500,5.90416162109375,2.0082488706588744,7.8491446436285965,5.525238754969835
1773521767666199600,5.914199462890625,2.073963159584999,7.629680639448761,5.801469771510362
1773521767676238600,5.924238525390625,2.1259230639249087,7.422890238881111,6.045785892874002
1773521767686277400,5.93427734375,2.1594277125112713,7.269163904502987,6.218239724075794
1773521767696315600,5.944315673828125,2.1899057067528367,7.148195930388569,6.346497270676493
1773521767706354400,5.9543544921875,2.2118583031028507,7.009805112308263,6.491589047700167
1773521767716392400,5.964392333984375,2.2305776166200637,6.843224557054042,6.660721625524759
1773521767726431500,5.974431396484375,2.26727404698506,6.6809846613526345,6.81133654988408
1773521767736470500,5.984470458984375,2.326401650997251,6.540075722971558,6.927167745631933
1773521767746508500,5.994508544921875,2.399858224613219,6.423778663277625,7.010432888817787
1773521767756547300,6.00454736328125,2.468324588726461,6.3179731869816775,7.082443063017726
1773521767766586600,6.014586669921875,2.513504039146006,6.212669230467081,7.159288402289151
1773521767776624400,6.024624267578125,2.5295515031054614,6.1043625850051635,7.24627694991231
1773521767786663400,6.034663330078125,2.5107784135743976,5.9927785253077746,7.345272161671518
1773521767796701400,6.044701416015625,2.4589216773480174,5.884881629690527,7.449313550904392
1773521767806740500,6.054740478515625,2.3832430437684056,5.776039562177658,7.558297657236457
1773521767816779300,6.064779296875,2.2861568805009127,5.655601749417185,7.678415152001381
1773521767826817500,6.074817626953125,2.159113385865092,5.522288088470697,7.811081162694096
1773521767836856600,6.084856689453125,1.995904937392473,5.378531359443068,7.953499921116232
1773521767846895400,6.094895263671875,1.8086834529086946,5.226781293573976,8.09813577106595
1773521767856933600,6.10493359375,1.622133876337111,5.071467397743463,8.2352488242954
1773521767866972400,6.114972412109375,1.4592732183888553,4.912660983622074,8.361022152864933
1773521767877010700,6.1250107421875,1.330647276867181,4.753446573221683,8.473754213553667
1773521767887049500,6.135049560546875,1.2238327696591615,4.590942473626137,8.57880331852436
1773521767897088500,6.145088623046875,1.1193885717790573,4.414201758885383,8.685169351312517
1773521767907126500,6.15512646484375,1.0181200813256204,4.219605653980374,8.793677656826377
1773521767917165600,6.16516552734375,0.9288718451421707,4.022002476213872,8.895566836461425
1773521767927203300,6.175203369140625,0.8525643390744924,3.8455385325878857,8.980832798075676
1773521767937246000,6.185245849609375,0.7968776692964136,3.7037460893705485,9.045310238683223
1773521767947284700,6.19528466796875,0.764888905165717,3.5900817162677643,9.09376885690391
1773521767957322800,6.20532275390625,0.7574654771666973,3.4965389246955514,9.130763247302173
1773521767967361800,6.21536181640625,0.780834662316367,3.4250232560142875,9.155866708898543
1773521767977399800,6.22539990234375,0.8316135401781648,3.379318320415914,9.16836904759705
1773521767987438600,6.2354384765625,0.9089068424127995,3.3602199444532395,9.16805282125473
1773521767997478000,6.245477783203125,0.9975289825871586,3.3603140524774786,9.158798670697212
1773521768007515600,6.255515625,1.0783266396809368,3.363413772058487,9.148498225957155
1773521768017554700,6.2655546875,1.142189382456243,3.3694045369058845,9.138537972956895
1773521768027593700,6.27559375,1.1996185119874774,3.3762402281448245,9.128653707802295
1773521768037631700,6.2856318359375,1.2585492782533167,3.3693405317589638,9.123267338588834
1773521768047670800,6.2956708984375,1.3301882810533046,3.3374235907554626,9.124835026296973
1773521768057708800,6.305708740234375,1.3981860047414898,3.2624367388322946,9.141770379006863
1773521768067747800,6.315747802734375,1.4353746025376022,3.157619396790862,9.172759391510485
1773521768077786600,6.32578662109375,1.4438636139415204,3.0291809406653045,9.214645061081647
1773521768087825000,6.335824951171875,1.443730050689727,2.882764052517712,9.261517286893724
1773521768097863700,6.34586376953125,1.4490084294840693,2.749959217876196,9.300994726279377
1773521768107901700,6.355901611328125,1.4711382820971308,2.6515266084358093,9.326066623693704
1773521768117940700,6.365940673828125,1.499601575515419,2.602198513904214,9.335425403669475
1773521768127979800,6.375979736328125,1.5096367934480308,2.6091239292532205,9.33187501771152
1773521768138017500,6.386017578125,1.496575651822984,2.661701088708639,9.319118411990999
1773521768148056800,6.396056884765625,1.5156471397787332,2.7487252921670673,9.29073169094026
1773521768158096000,6.406095947265625,1.563895330119133,2.892001544201374,9.239097949814797
1773521768168133600,6.416133544921875,1.6404605372749268,3.1290467977792025,9.14813523786366
1773521768178173000,6.4261728515625,1.724960629083216,3.47363005053401,9.007150311636924
1773521768188210700,6.436210693359375,1.7689787806384265,3.914978271777928,8.815556895679235
1773521768198249700,6.446249755859375,1.7384896804809569,4.426792068128288,8.576219731771946
1773521768208288800,6.456288818359375,1.615601405828446,4.971006789606809,8.297549505385756
1773521768218326800,6.466326904296875,1.411869077657163,5.506025520455837,7.99128926128447
1773521768228365600,6.476365478515625,1.1534906748019158,6.006975392964482,7.665252303567528
1773521768238403800,6.48640380859375,0.8777752796333282,6.460339922955632,7.325565006160736
1773521768248442600,6.496442626953125,0.6500847874432801,6.863180134367942,6.974564872100949
1773521768258481700,6.506481689453125,0.5085878200411796,7.205472061315178,6.632715428224206
1773521768268519700,6.516519775390625,0.4513792013928294,7.4784811931997535,6.327634749296307
1773521768278558700,6.526558837890625,0.4761879178263247,7.651211503255367,6.1157636844635
1773521768288596700,6.5365966796875,0.5032035697195678,7.701785506194829,6.049765317898989
1773521768298635800,6.5466357421875,0.5013625814953818,7.649703436779975,6.115640934866667
1773521768308674800,6.5566748046875,0.5028336404286324,7.542383464267849,6.247400352108478
1773521768318712800,6.566712890625,0.5607607460772618,7.4071502334356305,6.402347168192267
1773521768328751900,6.576751953125,0.6952882032603025,7.253416884794831,6.563148555523156
1773521768338790700,6.586790771484375,0.8760857921764255,7.095874791520833,6.712035633176565
1773521768348828700,6.59682861328125,1.0971476600069552,6.944790496084094,6.836413707995415
1773521768358867700,6.60686767578125,1.3348833070017396,6.80283292543292,6.9361319733321665
1773521768368905700,6.61690576171875,1.551394160464406,6.671963735029101,7.017723630347848
1773521768378944500,6.626944580078125,1.7128135335631667,6.561647503310442,7.083882740432023
1773521768388983800,6.63698388671875,1.8149637022219598,6.4770157479465,7.136141919979453
1773521768399021600,6.647021484375,1.87250359865129,6.428105294305086,7.165441079699993
1773521768409060600,6.657060546875,1.8922043244212865,6.425604125139117,7.162509117901325
1773521768419099000,6.667098876953125,1.869873542408645,6.472109271204471,7.126414891213178
1773521768429137700,6.6771376953125,1.8074429513283072,6.56390784945786,7.058236258000135
1773521768439176700,6.6871767578125,1.7046389949358998,6.692787911871076,6.9621239082008595
1773521768449214700,6.697214599609375,1.555329892478138,6.847229116520285,6.845930893403291
1773521768459253800,6.707253662109375,1.37237410261482,7.008111167871951,6.721112089079618
1773521768469291800,6.717291748046875,1.1847891916461288,7.159191956177353,6.5964113581776616
1773521768479330800,6.727330810546875,1.011305652070418,7.294780576318502,6.475633353677392
1773521768489369600,6.73736962890625,0.8531858319737017,7.415172796371579,6.360635101622343
1773521768499408000,6.747407958984375,0.6994122974529862,7.528485871818662,6.245246388944983
1773521768509446700,6.75744677734375,0.5366651828818023,7.648985059377551,6.113541916760802
1773521768519484700,6.767484619140625,0.3609428514033556,7.790860212442278,5.944962296643853
1773521768529524000,6.77752392578125,0.18450152146797627,7.954894590345025,5.732015711534023
1773521768539562800,6.787562744140625,0.021324657726997973,8.136063642922043,5.4748857013046734
1773521768549600800,6.797600830078125,-0.10810024530277587,8.330382684451342,5.1733402107656
1773521768559639800,6.807639892578125,-0.16012549736332146,8.531351831519602,4.833300154398382
1773521768569678800,6.817678955078125,-0.11092284670914522,8.731618383276462,4.462840117587149
1773521768579716600,6.827716552734375,-0.05849543445534072,8.928198939996957,4.056379085329175
1773521768589755600,6.837755615234375,-0.10462806654702872,9.096222095274925,3.6630835318535566
1773521768599793700,6.847793701171875,-0.11807782389717175,9.252274242252112,3.248361159467697
1773521768609832700,6.857832763671875,-0.09153514154423027,9.377079602572321,2.869212497027218
1773521768619871700,6.867871826171875,-0.05207617853018455,9.471328496587276,2.54196587125957
1773521768629909800,6.87790966796875,-0.03273193348108325,9.539088027605414,2.274887298467755
1773521768639948800,6.88794873046875,0.032852107528341,9.585062427794933,2.072653538291156
1773521768649986800,6.89798681640625,0.16923454036172478,9.610033202922343,1.9465334421105682
1773521768660025900,6.90802587890625,0.3150026822770014,9.617659460017084,1.8899113911785184
1773521768670064600,6.918064697265625,0.45919239589441563,9.614654432982206,1.8756183696709572
1773521768680103000,6.92810302734375,0.5739846770485862,9.606098201560973,1.8878120808117091
1773521768690141700,6.9381416015625,0.6418593223463743,9.59547393169403,1.9197129474632442
1773521768700179700,6.9481796875,0.674774845933169,9.584178630697727,1.96433184139058
1773521768710218800,6.95821875,0.6941491162277758,9.57382090281248,2.007615248930454
1773521768720257800,6.9682578125,0.708440749495849,9.5665313303262,2.0371463177107274
1773521768730295600,6.978295654296875,0.7142190406363457,9.566224456334114,2.0365769933901725
1773521768740334800,6.9883349609375,0.7117762505941092,9.572916062927245,2.005750916363299
1773521768750372600,6.99837255859375,0.7015367422610521,9.582962240645289,1.9608774631530046
1773521768760411600,7.00841162109375,0.6810346369802951,9.594109073081611,1.9130222176529466
1773521768770451000,7.018450927734375,0.6484931343376636,9.604589550563693,1.8712813633799552
1773521768780488700,7.02848876953125,0.6072146368794142,9.61332464568317,1.8400136800654232
1773521768790527700,7.03852783203125,0.5689378785204142,9.619916299033164,1.8176603939600289
1773521768800565800,7.048565673828125,0.5469540102493018,9.625144262814521,1.7966155601046978
1773521768810604800,7.058604736328125,0.540807652981393,9.630365796855092,1.7702976081520319
1773521768820643600,7.0686435546875,0.54196138959378,9.637302318120001,1.7317819995358585
1773521768830681900,7.078681884765625,0.5428920945726334,9.646274144604801,1.6807830491825937
1773521768840720600,7.088720703125,0.5398931684849784,9.655049571734667,1.6306192344792185
1773521768850759700,7.098759765625,0.526686590507254,9.66248469017148,1.5903985755108296
1773521768860797700,7.108797607421875,0.47738461679760363,9.675176998484135,1.5275605726733803
1773521768870836700,7.118836669921875,0.40804475778546184,9.690576227667927,1.4479732412174344
1773521768880874800,7.128874755859375,0.3709477107303217,9.701451841947435,1.3837034520111977
1773521768890913800,7.138913818359375,0.37773126992322503,9.710072370776533,1.3199353287167845
1773521768900952800,7.148952880859375,0.4133677794391289,9.718162738251685,1.2477233483344317
1773521768910990600,7.158990478515625,0.46161184159368274,9.72520213536918,1.1737654010675846
1773521768921030000,7.16902978515625,0.4953821553789079,9.732449037757515,1.0974513921938835
1773521768931067600,7.179067626953125,0.5202793538134545,9.742240948453546,0.9941916548579931
1773521768941102300,7.189102294921875,0.5313284614963457,9.758093182101845,0.8171093601379543
1773521768951141400,7.199141357421875,0.5674583440197631,9.775906486690044,0.5291476833911612
1773521768961179100,7.20917919921875,0.553724344634451,9.790327226230502,0.11521972191915847
1773521768971218400,7.219218505859375,0.4840434536322951,9.78721347812414,-0.3827936678793281
1773521768981256200,7.229256103515625,0.3386974095866084,9.762750067996977,-0.8627785668358207
1773521768991295200,7.239295166015625,0.21131070926999673,9.71973977831006,-1.2854611044459043
1773521769001334500,7.24933447265625,0.08526083791456185,9.662866967487334,-1.6709652733929454
1773521769011372300,7.259372314453125,-0.03386902035276871,9.59534182974696,-2.0245117309346794
1773521769021411300,7.269411376953125,-0.12385851705730892,9.525735209557414,-2.327106146004796
1773521769031449300,7.279449462890625,-0.18804956933837383,9.461346031755209,-2.5725419190481302
1773521769041488400,7.28948828125,-0.22961103019015863,9.40718306441307,-2.7608979605197903
1773521769051527200,7.299527099609375,-0.2538729994610883,9.36570363755524,-2.8964725521355867
1773521769061565400,7.3095654296875,-0.26564150745971127,9.339570832911134,-2.9786268114700913
1773521769071604200,7.319604248046875,-0.266481173154246,9.326177098330854,-3.020226357576251
1773521769081642500,7.329642578125,-0.2647605051077902,9.318386590585112,-3.04433291708976
1773521769091681500,7.339681640625,-0.2559037381037138,9.315942704564332,-3.0525606472089883
1773521769101720300,7.34972021484375,-0.22706110824532805,9.31859409585595,-3.046740855014324
1773521769111758600,7.359758544921875,-0.1660984525593929,9.321860404175519,-3.0406752713650462
1773521769121797400,7.36979736328125,-0.07505577070722357,9.323460240587591,-3.039382016684115
1773521769131836400,7.37983642578125,0.0339779788862681,9.324517056164146,-3.036872956472635
1773521769141874400,7.38987451171875,0.15665442371927202,9.327924818781018,-3.022524113124609
1773521769151913500,7.39991357421875,0.29626420740159226,9.334028396353125,-2.9930796997144817
1773521769161951200,7.409951171875,0.4325643550792709,9.338007821378111,-2.963936315077543
1773521769171990300,7.419990234375,0.5231635674802586,9.337976841717959,-2.949383473590016
1773521769182029300,7.430029296875,0.5456465809125453,9.33386882187724,-2.958302400843799
1773521769192067300,7.4400673828125,0.5168414883192628,9.324182125121354,-2.993812397903204
1773521769202106400,7.4501064453125,0.46952177446801213,9.30899273929596,-3.048376347261667
1773521769212144400,7.460144287109375,0.4231409123694524,9.289678382495046,-3.113396224182844
1773521769222183400,7.470183349609375,0.3859076351813972,9.267521495744585,-3.183469585101306
1773521769232222200,7.48022216796875,0.3556932603120804,9.24266996308267,-3.258359114129841
1773521769242260500,7.490260498046875,0.32767909890078006,9.215427735891938,-3.3374960714697837
1773521769252299300,7.50029931640625,0.29833036441747096,9.187227477324008,-3.4170477470904586
1773521769262337500,7.510337646484375,0.264943752720207,9.160173466181755,-3.49161783490628
1773521769272376300,7.520376220703125,0.2260595299873501,9.135753310674428,-3.5577062178418037
1773521769282415400,7.530415283203125,0.18378170102713628,9.114767805790901,-3.613533611264825
1773521769292453400,7.540453369140625,0.14271998812472447,9.097540192136169,-3.6585216307654975
1773521769302492400,7.550492431640625,0.10795568573293275,9.084135351639986,-3.692858784653246
1773521769312530200,7.5605302734375,0.0847855302867014,9.074543931952118,-3.7169638828620313
1773521769322569500,7.570569580078125,0.076653095501801,9.068872900578379,-3.730957336901128
1773521769332608500,7.5806083984375,0.08521136361649259,9.0673981518507,-3.7343577929943796
1773521769342646300,7.590646240234375,0.1094351106357295,9.069460345077514,-3.7287113115400072
1773521769352685600,7.600685546875,0.14640440312535502,9.074137689238785,-3.716045014451444
1773521769362723300,7.610723388671875,0.1923175472474657,9.079941407081485,-3.699735392424464
1773521769372762400,7.620762451171875,0.24409975693291053,9.085216717135905,-3.6836975730761883
1773521769382801400,7.630801513671875,0.29994978231284763,9.088269090443848,-3.6720258399829264
1773521769392839400,7.64083935546875,0.3591832578523084,9.089564975473284,-3.6634935739591716
1773521769402878200,7.650878173828125,0.42273547337371853,9.091703156545758,-3.651388710145652
1773521769412916500,7.66091650390625,0.4916085551243275,9.095772013419866,-3.6325773344308137
1773521769422955300,7.670955322265625,0.5661872281054035,9.101430185312033,-3.6074651050060984
1773521769432994300,7.680994384765625,0.6466632885619997,9.10852102035582,-3.575902384267747
1773521769443032300,7.6910322265625,0.7322961837925016,9.118225252768397,-3.534417404451966
1773521769453071400,7.7010712890625,0.8183964773390442,9.131458828350901,-3.4809576169431207
1773521769463109400,7.711109375,0.8947954610824584,9.148374891838431,-3.4171538378134367
1773521769473148400,7.7211484375,0.9372162604436278,9.169178025892377,-3.3493498831316826
1773521769483187500,7.7311875,0.918216595615074,9.19360461114049,-3.2870795971795914
1773521769493225200,7.74122509765625,0.8362295095410197,9.219040081170201,-3.237344675412774
1773521769503264500,7.751264404296875,0.7134358543694019,9.241336084130406,-3.2029788799524304
1773521769513303300,7.76130322265625,0.567558808719553,9.256669262340663,-3.187839763009548
1773521769523341300,7.77134130859375,0.4054724596120417,9.262638399878144,-3.1952298732608555
1773521769533380400,7.78138037109375,0.22787721040118483,9.259237067002058,-3.222575560826063
1773521769543418400,7.79141845703125,0.034348727877822234,9.248910318776964,-3.259888515654206
1773521769553457200,7.80145703125,-0.17366638532932846,9.235644594490527,-3.292889452502131
1773521769563496400,7.811496337890625,-0.3915643457688391,9.223140502226352,-3.3091905989617105
1773521769573534200,7.8215341796875,-0.6149241883434355,9.213162713569401,-3.303013079370558
1773521769583573200,7.8315732421875,-0.8410241234064102,9.20490400379002,-3.2760978921771047
1773521769593611500,7.841611572265625,-1.069791743308678,9.195107416918873,-3.2366549395829436
1773521769603650300,7.851650390625,-1.3024185228571294,9.179580177441238,-3.1952146756917235
1773521769613689300,7.861689453125,-1.5378496192365885,9.156948658916354,-3.1552605587050317
1773521769623727400,7.871727294921875,-1.7711963105574249,9.128619805532693,-3.1147289340913296
1773521769633766400,7.881766357421875,-1.9968788969911633,9.09712576611638,-3.07004223562479
1773521769643804400,7.891804443359375,-2.2113418780133127,9.064658497753738,-3.018663346043229
1773521769653843500,7.901843505859375,-2.412689941396564,9.032170771124958,-2.9612831702202556
1773521769663882200,7.91188232421875,-2.599441616411507,8.999806378614903,-2.9011656783878803
1773521769673920500,7.92192041015625,-2.771229677180946,8.967627864065765,-2.8411867182433603
1773521769683959300,7.931959228515625,-2.929136804375052,8.935903523024916,-2.782114643810689
1773521769693997300,7.941997314453125,-3.0753488176003096,8.904799944230914,-2.723443843655288
1773521769704036400,7.952036376953125,-3.2116406175747514,8.87388282791972,-2.6664474064528942
1773521769714075400,7.962075439453125,-3.3379625199377534,8.842667605444788,-2.6145024074211713
1773521769724113400,7.972113525390625,-3.454657346777618,8.810641066586971,-2.5706653115212914
1773521769734152200,7.982152099609375,-3.563082357922196,8.777330917659402,-2.5363918705195188
1773521769744190500,7.9921904296875,-3.665689622698724,8.742188292607665,-2.5114213876530527
1773521769754229200,8.002229248046875,-3.7652109041586517,8.704920345965027,-2.493580026014149
1773521769764268300,8.012268310546874,-3.8631536842554803,8.665790697103738,-2.4800205794781447
1773521769774306300,8.022306396484375,-3.958318524071574,8.626048469302058,-2.4684800715491173
1773521769784345300,8.032345458984375,-4.047820808081329,8.587446059185266,-2.457904901520908
1773521769794383400,8.04238330078125,-4.128653755684197,8.551821203574537,-2.447641720051318
1773521769804422400,8.05242236328125,-4.198584493261575,8.52065098928511,-2.4373743007980284
1773521769814461400,8.06246142578125,-4.25650184470117,8.494546826213599,-2.4280147901698945
1773521769824499500,8.07249951171875,-4.301094435143471,8.47410258859992,-2.420857465761155
1773521769834538500,8.08253857421875,-4.331348995892704,8.459822718834877,-2.416857436339557
1773521769844576300,8.092576171875,-4.34666697653383,8.45162947550714,-2.418023703639954
1773521769854615600,8.102615478515625,-4.3481297425627705,8.447879183062911,-2.4284740782447156
1773521769864654300,8.112654296875,-4.337886288706958,8.447183017492295,-2.4491262595206496
1773521769874692400,8.1226923828125,-4.31876599317342,8.448899173760413,-2.4768404881373045
1773521769884731400,8.1327314453125,-4.292828126579523,8.45312059084773,-2.5073425939068197
1773521769894769400,8.142769287109376,-4.261520257385075,8.460084584641455,-2.5370859902635217
1773521769904808200,8.15280810546875,-4.230057782150805,8.468423958441615,-2.5617995757594705
1773521769914847500,8.162847412109375,-4.206958353853225,8.476037940576672,-2.574621647931635
1773521769924885200,8.17288525390625,-4.196214256998896,8.481928752180934,-2.572753808233142
1773521769934924000,8.182924072265624,-4.19442766584307,8.48641145055294,-2.560860541343689
1773521769944963300,8.19296337890625,-4.193742606188357,8.49032774721384,-2.548972242890298
1773521769955001000,8.2030009765625,-4.182596066012978,8.496244862303138,-2.5475661754846572
1773521769965040000,8.2130400390625,-4.152421292501688,8.507095926663279,-2.560682554428279
1773521769975078100,8.223078125,-4.100413457366824,8.524653210663795,-2.5859765701606867
1773521769985117200,8.2331171875,-4.0277939190968866,8.548580029696225,-2.620881879325211
1773521769995156000,8.243156005859374,-3.9385125843614337,8.577621415263414,-2.661376386798918
1773521770005194200,8.2531943359375,-3.836627496379614,8.609069277450441,-2.7082453977406025
1773521770015233000,8.26323291015625,-3.7245384097695347,8.64072172229886,-2.763357336370647
1773521770025271300,8.273271240234376,-3.6049388013988732,8.671136149784923,-2.8259879800677297
1773521770035310300,8.283310302734375,-3.4822008950024843,8.698740196025371,-2.8942329565152525
1773521770045349000,8.29334912109375,-3.3622689859375354,8.721046135857701,-2.967975653596222
1773521770055387100,8.30338720703125,-3.2520921626895665,8.73675399259925,-3.0435826832443476
1773521770065426200,8.31342626953125,-3.158366708026826,8.746322031411529,-3.1139924365103244
1773521770075464200,8.323464111328125,-3.085039021487534,8.753041110533475,-3.168152188982069
1773521770085503000,8.3335029296875,-3.0318261944770812,8.761772113999724,-3.195271082054078
1773521770095542300,8.343542236328124,-2.9943206396862863,8.775185137802362,-3.1938293588131663
1773521770105580000,8.353580078125,-2.9658824807092548,8.79340702319145,-3.170159144890308
1773521770115619000,8.363619140625,-2.9422657505393026,8.815325425010919,-3.131054338209331
1773521770125657000,8.373656982421876,-2.9192703671380875,8.839581914389132,-3.0838366599604488
1773521770135696100,8.383696044921875,-2.8905066294685002,8.865206184989214,-3.0370176256403325
1773521770145735200,8.393735107421875,-2.853432744093239,8.890924563613533,-2.996622486887872
1773521770155773200,8.403773193359376,-2.8120994477078316,8.914642123809456,-2.9650699952825903
1773521770165812200,8.413812255859375,-2.7713325530335307,8.934247572511435,-2.944370029342174
1773521770175850200,8.423850341796875,-2.7323917047426103,8.949410070329904,-2.934704375374317
1773521770185889300,8.43388916015625,-2.693760653053224,8.961893119806051,-2.9323233254566787
1773521770195928000,8.443927978515624,-2.656473709449172,8.973545563676954,-2.930702738517523
1773521770205966300,8.45396630859375,-2.6322946692213414,8.984680121153593,-2.9183772176906464
1773521770216005000,8.464005126953126,-2.632513572669029,8.99414119246006,-2.888887211573124
1773521770226043100,8.474043212890624,-2.663923733194172,8.998635581269859,-2.8457757995992896
1773521770236082200,8.484082275390625,-2.7197759687975047,8.99619286429286,-2.8003055495396256
1773521770246121200,8.494121337890626,-2.7688220315173266,8.989611732336877,-2.7732451086565852
1773521770256159000,8.504158935546876,-2.7877579103946686,8.983786387184262,-2.7731542155027387
1773521770266198300,8.5141982421875,-2.7786124809086323,8.983698708900809,-2.782596289847791
1773521770276236000,8.524236083984375,-2.748971960404515,8.989692396357656,-2.7926643871366976
1773521770286275000,8.534275146484376,-2.708050751951337,8.996203385686874,-2.811616340366006
1773521770296314000,8.544314208984375,-2.6687331793025133,8.994237054049968,-2.8551632211476563
1773521770306352000,8.55435205078125,-2.6376953592211008,8.980255874970554,-2.9271041295036673
1773521770316391200,8.56439111328125,-2.615608615097403,8.95652370172739,-3.018219109407067
1773521770326429200,8.57442919921875,-2.602283854100108,8.927592790797352,-3.1139345688432454
1773521770336468200,8.58446826171875,-2.5957068137973547,8.899542754355073,-3.1985680777728556
1773521770346507000,8.594507080078126,-2.589808403408527,8.879954841309786,-3.257249691583216
1773521770356545300,8.604545166015624,-2.57515414737314,8.872758207803964,-3.2883325198501345
1773521770366584000,8.614583984375,-2.5415450154989956,8.878049299949407,-3.3001793172493574
1773521770376622000,8.6246220703125,-2.4793919261857864,8.892797956269979,-3.307741569197178
1773521770386661000,8.6346611328125,-2.38511395220682,8.913341562604904,-3.3217367768019437
1773521770396700200,8.6447001953125,-2.2664900570005178,8.936446543860434,-3.342653892624378
1773521770406738000,8.654738037109375,-2.140243557961285,8.958236935386061,-3.367452818316221
1773521770416777200,8.664777099609376,-2.024270469524711,8.97528685438633,-3.393663948893547
1773521770426815200,8.674815185546874,-1.9297553257890045,8.987187720060348,-3.4171462390288707
1773521770436854000,8.68485400390625,-1.8597705199368297,8.99591346282959,-3.4329584329277276
1773521770446893300,8.694893310546876,-1.8129259127840398,9.00365194812715,-3.4377217018067836
1773521770456931000,8.70493115234375,-1.7842641741842031,9.012051527681946,-3.430698671302199
1773521770466970000,8.71497021484375,-1.767681434304267,9.021234951090813,-3.4151144409403202
1773521770477008100,8.725008056640625,-1.757402763004601,9.031616644373536,-3.392906700785458
1773521770487047200,8.735047119140624,-1.7502914696946739,9.043366703400014,-3.3651708448588846
1773521770497086000,8.7450859375,-1.7427796327598393,9.056723028579354,-3.332998760050535
1773521770507124200,8.755124267578125,-1.7287022998295722,9.072094200712442,-3.298345672081411
1773521770517163000,8.7651630859375,-1.7019377731531857,9.089613490790128,-3.263850112761557
1773521770527201300,8.775201171875,-1.6538031261898576,9.110710054832696,-3.229596837764978
1773521770537240300,8.785240234375,-1.5805350608833133,9.135104491376877,-3.197209648901224
1773521770547279000,8.795279052734376,-1.4846085890449583,9.16077903085947,-3.169612909184396
1773521770557317400,8.8053173828125,-1.3691869970113038,9.186874426102637,-3.1459576005697247
1773521770567356200,8.815356201171875,-1.2335872709542512,9.213101923292875,-3.1252853994190692
1773521770577394200,8.825394287109376,-1.0786870704911649,9.23873613076508,-3.1068624384999275
1773521770587433200,8.83543310546875,-0.9201734287712723,9.260728766864538,-3.092342037977278
1773521770597472300,8.84547216796875,-0.7907529028058051,9.276717778635025,-3.080193627282977
1773521770607510000,8.855510009765625,-0.7180384527940302,9.285870806905626,-3.0704066850230096
1773521770617549000,8.865549072265624,-0.7027512326173484,9.287213453686237,-3.0698864605411886
1773521770627587000,8.875587158203125,-0.7277608784504235,9.282034005221725,-3.079708474114537
1773521770637626000,8.885626220703125,-0.7730839751243591,9.273214738950132,-3.095193335755169
1773521770647665200,8.8956650390625,-0.8226600530676543,9.263305339354275,-3.1120407179206606
1773521770657703200,8.905703125,-0.8662003579780458,9.254124838554858,-3.1274998605981468
1773521770667742200,8.9157421875,-0.898613485000655,9.246582168090344,-3.140639912678301
1773521770677780200,8.9257802734375,-0.9188622000422328,9.2406960326612,-3.152078421537578
1773521770687819300,8.9358193359375,-0.9292526611533015,9.236226193770765,-3.1621172927320003
1773521770697858000,8.945858154296875,-0.9334040817443281,9.23313933367133,-3.1699028320416804
1773521770707896300,8.955896240234376,-0.9346689140483736,9.231225609004497,-3.17509777033627
1773521770717935000,8.96593505859375,-0.9355353946845978,9.229805220812558,-3.178969351072609
1773521770727973000,8.97597314453125,-0.9363596436142921,9.228257406848668,-3.1832170716449615
1773521770738012200,8.98601220703125,-0.9359918332152068,9.226282891905306,-3.1890453394070266
1773521770748051200,8.99605126953125,-0.9323597603231668,9.223494722491502,-3.1981600814938544
1773521770758089000,9.0060888671875,-0.9237976106178015,9.218855956774949,-3.213977828350663
1773521770768128300,9.016128173828125,-0.9100761784531175,9.21124665081501,-3.239609989996254
1773521770778166000,9.026166015625,-0.8933578294947743,9.199804634824394,-3.2765684322983026
1773521770788205000,9.036205078125,-0.8772988942932337,9.184162829056381,-3.324434637583792
1773521770798244400,9.046244384765625,-0.8650194776304065,9.16465791811943,-3.3810014511972666
1773521770808282000,9.0562822265625,-0.857953411701694,9.141832922849058,-3.444008234730363
1773521770818321200,9.066321044921875,-0.8553654410351067,9.116630092531443,-3.5108097343713043
1773521770828359200,9.076359130859375,-0.8552375768717377,9.090079939258098,-3.5790222698539496
1773521770838398200,9.086398193359376,-0.854500129442662,9.06310659213662,-3.6469589110046625
1773521770848437000,9.09643701171875,-0.8498167208667844,9.036682695591448,-3.7130265434131022
1773521770858475300,9.106475341796875,-0.8385518150087445,9.011681525325775,-3.775818807412684
1773521770868514000,9.11651416015625,-0.8190503381378949,8.988179653707146,-3.835648129953444
1773521770878552300,9.12655224609375,-0.7925803374286741,8.965819937860966,-3.89310633944869
1773521770888591000,9.136591064453125,-0.7623823291722684,8.94414119001627,-3.948609323222935
1773521770898630100,9.146630126953125,-0.7335829356674104,8.92323050393462,-4.001024862375855
1773521770908668200,9.156668212890626,-0.7113876896679401,8.903046378561854,-4.049699461434781
1773521770918707200,9.166707275390625,-0.6992156058371066,8.883839573788642,-4.09376218278408
1773521770928745200,9.1767451171875,-0.6986980117037892,8.86586669472456,-4.132627920012176
1773521770938784800,9.18678466796875,-0.7090016713142394,8.84980929389298,-4.165161239348352
1773521770948823800,9.19682373046875,-0.7258812021836638,8.83781432019472,-4.187662701752782
1773521770958861800,9.20686181640625,-0.7441252994045615,8.831111023163794,-4.198592384307086
1773521770968900600,9.216900634765626,-0.7581604006282985,8.82925282807648,-4.199983838665485
1773521770978939000,9.22693896484375,-0.7646098690286278,8.830966061735152,-4.195211217436194
1773521770988977700,9.236977783203125,-0.7625431457571685,8.834985234248638,-4.1871179273515935
1773521770999016700,9.2470166015625,-0.7537213222023099,8.840490845927595,-4.177082271027564
1773521771009055000,9.257054931640624,-0.7398232913617044,8.84691591053903,-4.16594859033376
1773521771019093800,9.26709375,-0.7231367988463491,8.853604010000824,-4.154657673251629
1773521771029131800,9.2771318359375,-0.706218178075552,8.859154629865289,-4.145723548428714
1773521771039170800,9.2871708984375,-0.6914229791995138,8.862039829912781,-4.142048951569199
1773521771049209900,9.2972099609375,-0.6803425630629062,8.860589046582579,-4.146983485361933
1773521771059247600,9.30724755859375,-0.6728712042689323,8.852980325144529,-4.16441889654845
1773521771069287000,9.317286865234376,-0.6693011637624353,8.839224186992645,-4.194107640108466
1773521771079324700,9.32732470703125,-0.6685277682371437,8.82099178020954,-4.2324440927654505
1773521771089363700,9.33736376953125,-0.6685501992646604,8.800887149813772,-4.274086601230501
1773521771099402800,9.34740283203125,-0.6684061876840889,8.781086470800638,-4.314640729936957
1773521771109440800,9.357440673828124,-0.6679521603062748,8.763068583551048,-4.351190006916225
1773521771119479800,9.367479736328125,-0.6671472736641765,8.747677537673711,-4.382175220027566
1773521771129517800,9.377517822265625,-0.6654439038123935,8.735393225640058,-4.406866593691706
1773521771139556900,9.387556884765624,-0.661423854516074,8.726704307749866,-4.424649795402586
1773521771149595000,9.397594970703125,-0.6532648057188838,8.721509077194332,-4.436089765566587
1773521771159634000,9.407634033203125,-0.6393209629751742,8.718685836467147,-4.44366546151787
1773521771169672700,9.417672607421874,-0.6196363846223801,8.717554786610602,-4.4486704301983115
1773521771179711000,9.4277109375,-0.5955197786388918,8.717400472831725,-4.4522672856464975
1773521771189749800,9.437749755859375,-0.5685025558430701,8.718146322762966,-4.454338831223547
1773521771199787800,9.447787841796876,-0.5407976795766503,8.719483124324679,-4.455169729089737
1773521771209826800,9.457826904296875,-0.5144998936291784,8.720660935932397,-4.455981045472622
1773521771219865900,9.467865966796875,-0.4915896312281489,8.720928062435984,-4.458042361916601
1773521771229903600,9.477903564453126,-0.47344917704481626,8.719887028950453,-4.462039030337333
1773521771239943000,9.48794287109375,-0.46147078915517775,8.71755887826383,-4.467840117831528
1773521771249980700,9.497980712890625,-0.4577963749587536,8.713988034039735,-4.475178497895598
1773521771260019700,9.508019775390625,-0.4646739691106602,8.709537484371662,-4.483127411073446
1773521771270058800,9.518058837890624,-0.48349564702380443,8.704062852352857,-4.491761383906007
1773521771280096800,9.5280966796875,-0.5141078255716711,8.697410993248223,-4.50123911408633
1773521771290135800,9.5381357421875,-0.552692261640355,8.690248846533894,-4.510489757512509
1773521771300173800,9.548173828125,-0.593172521393001,8.683228154116868,-4.518858065146207
1773521771310212900,9.558212890625,-0.627993586340174,8.676783215761183,-4.526525823295116
1773521771320251600,9.568251708984375,-0.6503810669761151,8.67106776072383,-4.5343101935610175
1773521771330290000,9.5782900390625,-0.6569023585036396,8.665989434546232,-4.543073637992143
1773521771340328700,9.58832861328125,-0.6473675643738359,8.661454713726043,-4.553075684307515
1773521771350366700,9.59836669921875,-0.6249021231308579,8.656954479697346,-4.564762614969909
1773521771360405800,9.60840576171875,-0.5964557077821344,8.650396144095062,-4.580968776622415
1773521771370444800,9.61844482421875,-0.5676144844295457,8.640907015737891,-4.6024882422521705
1773521771380482600,9.628482666015625,-0.5426062268359586,8.629597101694346,-4.626662021782994
1773521771390521900,9.63852197265625,-0.5242240728512406,8.618299462610482,-4.649780447041988
1773521771400559600,9.6485595703125,-0.5141334714695811,8.60821295288205,-4.669554238048195
1773521771410598700,9.6585986328125,-0.5128750689063221,8.599870071950555,-4.685036469340324
1773521771420638000,9.668637939453125,-0.5202778925087302,8.593678816094995,-4.695573060923815
1773521771430675700,9.67867578125,-0.5352583848237991,8.589617558005452,-4.701315988489985
1773521771440714800,9.68871484375,-0.556657731205225,8.58693518705368,-4.7037324019819495
1773521771450752800,9.698752685546875,-0.5831052278216928,8.584380241873859,-4.705191660879552
1773521771460791800,9.708791748046876,-0.6120217083675786,8.581403271889686,-4.706945226548612
1773521771470830600,9.71883056640625,-0.640491979515925,8.578061560246347,-4.709247658272087
1773521771480868900,9.728868896484375,-0.6676636987537146,8.574491300544143,-4.711977667757869
1773521771490907600,9.73890771484375,-0.6937870779823512,8.571159525772929,-4.7142649019122125
1773521771500946000,9.74894580078125,-0.7194687778580934,8.568293030425906,-4.71562128495723
1773521771510985000,9.75898486328125,-0.7451652369115501,8.565826932573318,-4.716113160127401
1773521771521022700,9.769022705078125,-0.7694406501859427,8.563647250446676,-4.716174242664874
1773521771531061800,9.779061767578124,-0.7889931265916675,8.561838155198096,-4.716227434156835
1773521771541100800,9.789100830078125,-0.7991557702962309,8.560857327467202,-4.716296992261707
1773521771551138800,9.799138916015625,-0.7952778328843414,8.561324360457062,-4.71610526908189
1773521771561177900,9.809177734375,-0.7749616055645048,8.563571847122907,-4.715408518989384
1773521771571216000,9.8192158203125,-0.7379369661584496,8.567843533092736,-4.713583933910727
1773521771581254700,9.829254638671875,-0.6859788153842091,8.574172151592373,-4.70992307331562
1773521771591293700,9.839293701171876,-0.6225618436150252,8.582502173042297,-4.703559383502602
1773521771601331700,9.849331787109374,-0.5541332176962867,8.592544843629002,-4.693773025764525
1773521771611370800,9.859370849609375,-0.49011396918501704,8.60338480207324,-4.681019927175343
1773521771621408800,9.86940869140625,-0.44084429030977185,8.613955295926331,-4.666455979771912
1773521771631447800,9.87944775390625,-0.41248785479944194,8.62257582475543,-4.653110175986588
1773521771641486800,9.88948681640625,-0.4040968969425186,8.627685715115069,-4.644363682690263
1773521771651524900,9.89952490234375,-0.40989246801137924,8.628593477609753,-4.6421699720382685
1773521771661564000,9.90956396484375,-0.42282673185374586,8.62540958687663,-4.646925349871814
1773521771671601700,9.9196015625,-0.4376796157337725,8.618999135312437,-4.65743329988271
1773521771681641000,9.929640869140625,-0.45086376268398015,8.610170516690612,-4.672481815932691
1773521771691679700,9.9396796875,-0.46101248746104534,8.6002698849231,-4.689694524279236
1773521771701717800,9.9497177734375,-0.46783900901284065,8.590967219048737,-4.706038633097708
1773521771711756800,9.9597568359375,-0.4716088829403743,8.583216458791494,-4.719784834377467
1773521771721794800,9.969794921875,-0.47213498917371033,8.577253750994801,-4.7305628335013985
1773521771731833600,9.97983349609375,-0.4694452751656994,8.573062144523858,-4.738420561264455
1773521771741871900,9.989871826171875,-0.4639475545322522,8.570247087103128,-4.744050968366861
1773521771751910700,9.99991064453125,-0.4569003394344821,8.568497028565407,-4.747892446225881
1773521771761949700,10.00994970703125,-0.44975967389959837,8.566932847988605,-4.751397239476442
1773521771771987700,10.01998779296875,-0.4440000143943354,8.564694713672996,-4.755972000046074
1773521771782026800,10.03002685546875,-0.43937308524604884,8.561261232092976,-4.762578850965202
1773521771792064800,10.040064697265626,-0.43583895630314945,8.556353586307168,-4.771714635840058
1773521771802103800,10.050103759765625,-0.4332711516417563,8.55011907583177,-4.78310579842627
1773521771812142800,10.060142822265625,-0.43262485309485343,8.543055128794908,-4.795774141341448
1773521771822180900,10.070180908203126,-0.43498117043003437,8.535991766279935,-4.808121289478242
1773521771832220000,10.080219970703125,-0.4400900013437494,8.529310096558929,-4.819499300321937
1773521771842257700,10.090257568359375,-0.44669312593583016,8.523195413070917,-4.829699791818857
1773521771852296700,10.100296630859376,-0.4529547801464796,8.517719027486443,-4.838770694763959
1773521771862335700,10.110335693359374,-0.4564369962390512,8.513390642893313,-4.846055591075122
1773521771872373800,10.120373779296875,-0.45518856708053496,8.510603058001399,-4.851062897843122
1773521771882412800,10.130412841796876,-0.4488211144078523,8.509541566249728,-4.85351876656264
1773521771892450800,10.140450927734374,-0.4374258601684123,8.510509534499048,-4.852859133610129
1773521771902489600,10.150489501953125,-0.4220007293583825,8.513999130180478,-4.848105217081308
1773521771912528600,10.160528564453125,-0.403721341628395,8.520564480045437,-4.838118076074123
1773521771922567000,10.17056689453125,-0.38368773064222184,8.530807641640305,-4.821666999749839
1773521771932605700,10.180605712890625,-0.36331425670981404,8.544252814146876,-4.799388824707269
1773521771942643500,10.1906435546875,-0.34458511591833085,8.560006848117709,-4.772621813812852
1773521771952682500,10.2006826171875,-0.3291997325967997,8.57751678584516,-4.742176114405692
1773521771962720500,10.210720458984374,-0.3180978718133643,8.596475753337144,-4.708483980423212
1773521771972759600,10.220759521484375,-0.31218313134424386,8.616585644429922,-4.671980003890395
1773521771982798300,10.23079833984375,-0.3113758700819686,8.63736481308639,-4.633506188589334
1773521771992836400,10.24083642578125,-0.3156930026287213,8.658229321938753,-4.594105029310286
1773521772002875400,10.25087548828125,-0.3252018951322883,8.678061565133929,-4.55586326919943
1773521772012913400,10.260913330078125,-0.3398808472175151,8.695785437873006,-4.520863559749722
1773521772022952200,10.2709521484375,-0.3597523629771545,8.711809520956873,-4.488358297464251
1773521772032991500,10.280991455078125,-0.3851119182264432,8.726714829143882,-4.457189544479549
1773521772043029200,10.291029296875,-0.41667109530083835,8.740309639254212,-4.427613613644242
1773521772053068300,10.301068359375,-0.4532436800904572,8.753508143523336,-4.3978480054557325
1773521772063106300,10.311106201171874,-0.49152368985246864,8.76711347502768,-4.366523477387428
1773521772073145300,10.321145263671875,-0.5282193530324846,8.781018081739544,-4.334179835404456
1773521772083184400,10.331184326171876,-0.5598799081221223,8.794239382362365,-4.303286976751685
1773521772093222400,10.341222412109374,-0.5837273417754099,8.806978452426195,-4.273966774243116
1773521772103261400,10.351261474609375,-0.5985122019205242,8.819230031234026,-4.24657286362201
1773521772113299500,10.361299560546875,-0.6050699164682999,8.83033828522563,-4.222490854027867
1773521772123338500,10.37133837890625,-0.6045617477504536,8.840709457114338,-4.2008033383548256
1773521772133376300,10.381376220703125,-0.5976095539923757,8.850323673155904,-4.1815071017324925
1773521772143415600,10.39141552734375,-0.5845388408213853,8.85844209768176,-4.166138559947908
1773521772153454300,10.401454345703126,-0.5643496739473194,8.864553274038434,-4.1559138107925655
1773521772163492400,10.411492431640625,-0.536200013055466,8.86806741963923,-4.152136045819521
1773521772173531400,10.421531494140625,-0.49967590705007314,8.868708640152215,-4.155323443683981
1773521772183569400,10.4315693359375,-0.4554283671857789,8.866675673019886,-4.16473512289077
1773521772193608400,10.4416083984375,-0.4045772278053686,8.862866928386687,-4.178072158847749
1773521772203647500,10.4516474609375,-0.34853663002308455,8.858568938931823,-4.192212327881157
1773521772213685500,10.461685546875,-0.2892218876746483,8.854889373636246,-4.204483488172293
1773521772223724300,10.471724365234374,-0.22907531587826085,8.852783341267704,-4.212618571572006
1773521772233762600,10.481762451171875,-0.17065715704336762,8.85288621712029,-4.215174101273715
1773521772243801300,10.49180126953125,-0.11611949290363117,8.855885398936271,-4.210724428388476
1773521772253839600,10.501839599609376,-0.06719142597371246,8.861998328858613,-4.198914748129249
1773521772263878400,10.51187841796875,-0.026183840711601077,8.87142315980792,-4.179424157978594
1773521772273917400,10.52191748046875,0.004566402591596124,8.883689351662992,-4.153364418570697
1773521772283955500,10.53195556640625,0.024228788520535453,8.897561225149035,-4.123492427398264
1773521772293994500,10.541994384765625,0.03365546436705626,8.911772121331095,-4.092624995447695
1773521772304032300,10.5520322265625,0.034418347631487996,8.925201511746645,-4.063246340750157
1773521772314071300,10.5620712890625,0.027721580806048585,8.937305206516385,-4.036606755627692
1773521772324110600,10.572110595703125,0.013315253383433446,8.948293633520603,-4.012262880226969
1773521772334148400,10.5821484375,-0.008554997874549008,8.958788724049926,-3.988784974005818
1773521772344187400,10.5921875,-0.03670004937747726,8.969082739049195,-3.965426310250163
1773521772354225400,10.602225341796874,-0.06979744375364388,8.979248159232736,-3.9419071952357885
1773521772364264400,10.612264404296875,-0.10610192935871891,8.988985709393024,-3.918835823988914
1773521772374303200,10.62230322265625,-0.1448866281067021,8.998088468781113,-3.8966362671405075
1773521772384341500,10.632341552734376,-0.18617593921991063,9.006395109355449,-3.8756390718191858
1773521772394380300,10.64238037109375,-0.22972391598010433,9.013318186616898,-3.857164380712807
1773521772404418600,10.65241845703125,-0.27472316926084456,9.018055736532807,-3.8431235804006456
1773521772414457300,10.662457275390626,-0.32004166282489893,9.020907618832588,-3.832909352639317
1773521772424495400,10.672495361328124,-0.36443620994444936,9.023070349824428,-3.8238413723036646
1773521772434534400,10.682534423828125,-0.406855036544241,9.025610097435116,-3.8135555406108494
1773521772444573400,10.692573486328126,-0.4451914161359891,9.029739160063862,-3.799474116027355
1773521772454611200,10.702611083984374,-0.47767088639307764,9.036032122728228,-3.7805177788838744
1773521772464650500,10.712650390625,-0.5032071133835241,9.04274009593427,-3.76112012771368
1773521772474688300,10.722688232421875,-0.522680240942724,9.047579352658987,-3.7468002181991933
1773521772484727300,10.732727294921874,-0.5374030321696773,9.050716481640935,-3.7371240428373214
1773521772494766600,10.7427666015625,-0.5475112788058817,9.053286624389886,-3.729426766332984
1773521772504804400,10.752804443359375,-0.5526400565290823,9.055736355629563,-3.722713824690878
1773521772514843400,10.762843505859376,-0.5518061995208263,9.057695088481903,-3.7180744744524357
1773521772524881400,10.77288134765625,-0.5442804801911115,9.058785221806168,-3.7165266604885456
1773521772534920400,10.78292041015625,-0.5300819320339709,9.059008509168029,-3.718032973398268
1773521772544959200,10.792959228515626,-0.5087952522467821,9.06006883187592,-3.7184205114111304
1773521772554997500,10.80299755859375,-0.480941615159437,9.062807316929101,-3.7154505556896327
1773521772565036300,10.813036376953125,-0.4481565495518967,9.066069533595442,-3.711591542173922
1773521772575074600,10.823074462890625,-0.4120747074212879,9.06857187180519,-3.7096605741113424
1773521772585113300,10.83311328125,-0.376122117693536,9.069732732278109,-3.710642570886016
1773521772595151400,10.8431513671875,-0.34931561503894626,9.06907631419599,-3.7148639879733323
1773521772605190400,10.8531904296875,-0.3419851625530049,9.066797847869992,-3.721102882362902
1773521772615229400,10.8632294921875,-0.3592193886116147,9.062916038000584,-3.728928753682971
1773521772625267500,10.873267333984375,-0.39607360335420816,9.05747881538272,-3.7383930398598313
1773521772635306200,10.88330615234375,-0.4414156969895586,9.050380381554364,-3.7504882590621706
1773521772645344500,10.893344482421876,-0.486405652718991,9.04154942484498,-3.766189978323877
1773521772655383300,10.90338330078125,-0.5289920544380322,9.031054918837548,-3.7855791539266703
1773521772665422300,10.91342236328125,-0.5723610944347456,9.019567310139536,-3.80659797655791
1773521772675460400,10.92346044921875,-0.6207901577673852,9.007858752167225,-3.8266815641656517
1773521772685499400,10.93349951171875,-0.6752748313445598,8.99660261413753,-3.843892811207473
1773521772695537400,10.943537353515625,-0.7322196844901889,8.987188304582238,-3.8554762814953922
1773521772705576400,10.953576416015625,-0.7842003393571824,8.98211348553598,-3.8570831321701404
1773521772715614200,10.9636142578125,-0.8270237281698734,8.983386574211716,-3.845148656487465
1773521772725653500,10.973653564453125,-0.8614866273291408,8.990697774007916,-3.8204169508129358
1773521772735692500,10.983692626953125,-0.8898305321514606,9.00246069251597,-3.7860640148341655
1773521772745730300,10.993730224609376,-0.9128660283673554,9.017727235230803,-3.7440176017433404
1773521772755769600,11.00376953125,-0.9296779008280486,9.03600874185264,-3.695490302200615
1773521772765807400,11.013807373046875,-0.9390507823944091,9.056901307755709,-3.6415816018804907
1773521772775846400,11.023846435546876,-0.9405081415958702,9.079941991603373,-3.5833614681020376
1773521772785885400,11.033885498046875,-0.9346233213409781,9.103941291350125,-3.523507303380966
1773521772795923500,11.04392333984375,-0.9236129747658968,9.127103555750846,-3.466020452313125
1773521772805962200,11.053962158203126,-0.9115984195843339,9.147607414597273,-3.4147686962425707
1773521772816000500,11.06400048828125,-0.9030729486275464,9.164098530671,-3.3725545253694054
1773521772826039300,11.074039306640625,-0.9014381139673292,9.175778447070718,-3.3410882507428523
1773521772836077600,11.08407763671875,-0.9081957715339958,9.182607416307926,-3.3204312471613284
1773521772846116400,11.094116455078124,-0.9207447258532047,9.185176390013098,-3.3098546158283946
1773521772856155400,11.1041552734375,-0.9345539093665778,9.184715786764025,-3.307262261247635
1773521772866193400,11.114193359375,-0.9455804033588617,9.182462454879284,-3.3103865307480094
1773521772876232400,11.124232421875,-0.9540631311524659,9.17920432986617,-3.316984029316902
1773521772886270500,11.1342705078125,-0.9664911625057458,9.172386466544866,-3.3322049793243407
1773521772896309200,11.144309326171875,-0.9903385596264153,9.15937793188989,-3.3608629185318946
1773521772906348500,11.1543486328125,-1.0297482675381004,9.139476130589843,-3.4029406035438177
1773521772916386300,11.16438623046875,-1.0844341627757996,9.113063924482464,-3.4563641506955025
1773521772926425300,11.17442529296875,-1.1497971540462224,9.081118634167312,-3.518753971374035
1773521772936463400,11.18446337890625,-1.2191782949168235,9.045213792571426,-3.587213759616017
1773521772946502100,11.194502197265624,-1.297576781914383,9.038065674382448,-3.577717324735224
1773521772956540200,11.2045400390625,-1.3887689187072216,9.115653356453775,-3.3386469950705764
1773521772966579200,11.2145791015625,-1.4240757944099605,9.157121092873812,-3.2077307506546378
1773521772976618000,11.224617919921876,-1.4162509460031985,9.168677090632915,-3.178050190401077
1773521772986656300,11.23465625,-1.4245990876317023,9.183801010006666,-3.130285984185338
1773521772996695000,11.244695068359375,-1.4507140643581746,9.195251209303736,-3.0843422713950273
1773521773006733000,11.254733154296876,-1.4900152703940868,9.182138629752396,-3.104608229832351
1773521773016772000,11.264772216796874,-1.5524777179174125,9.156903650730849,-3.1482226228922605
1773521773026811100,11.27481103515625,-1.6114869562469423,9.109225953754782,-3.2550700094565745
1773521773036849000,11.284848876953125,-1.649030651091039,9.04045052369237,-3.4236446611374616
1773521773046888200,11.29488818359375,-1.6412363439530133,8.958312338709831,-3.6366710334852335
1773521773056926000,11.304926025390625,-1.594175317570567,8.87252498356998,-3.860994752655923
1773521773066965000,11.314965087890625,-1.526523192449659,8.792035150316357,-4.066969745187461
1773521773077003000,11.3250029296875,-1.4493570967912672,8.724601197990774,-4.236870092514157
1773521773087042000,11.3350419921875,-1.365890439683944,8.675586699452996,-4.363361506225169
1773521773097081000,11.3450810546875,-1.2732760150030256,8.645703602364659,-4.449827491278946
1773521773107119000,11.355119140625,-1.1617754688706248,8.630977742397784,-4.508534824052453
1773521773117158100,11.365158203125,-1.0204684710826724,8.627289409273862,-4.54960625463128
1773521773127196200,11.375196044921875,-0.847316063157469,8.634611130464076,-4.571208137847483
1773521773137235200,11.385235107421876,-0.6732322926662861,8.652819571849703,-4.565725907044112
1773521773147274000,11.39527392578125,-0.6199509304642677,8.670029065325856,-4.540554933169484
1773521773157312300,11.405312255859375,-0.7528268575806171,8.682470613747835,-4.496484320774674
1773521773167351000,11.41535107421875,-0.9892250454265624,8.701383988532424,-4.413356540232897
1773521773177389000,11.42538916015625,-1.2230475375656038,8.73908155876398,-4.278200466290116
1773521773187428000,11.435427978515625,-1.4031006647899746,8.793509899044036,-4.108027439501881
1773521773197467100,11.445467041015625,-1.5348808325588703,8.854033633589744,-3.926909824851155
1773521773207505200,11.455505126953126,-1.6400085557237267,8.909811050391196,-3.754467976348102
1773521773217544200,11.465544189453125,-1.7398494245268403,8.953087882059812,-3.603543255387246
1773521773227582200,11.475582275390625,-1.83879816679582,8.983348580288887,-3.4768756083264947
1773521773237621000,11.48562109375,-1.9309617789693176,9.001931115683913,-3.3774259307980534
1773521773247659300,11.4956591796875,-2.0059217428855596,9.012348464801907,-3.3051869162783025
1773521773257698000,11.505697998046875,-2.0570599555790423,9.017662937822937,-3.258934283669293
1773521773267737000,11.515737060546876,-2.084488499122113,9.019574324402212,-3.2361376377105713
1773521773277775000,11.525775146484374,-2.0914682750068603,9.020311991026997,-3.229570826540887
1773521773287814100,11.535814208984375,-2.0838808886177835,9.02146291462779,-3.2312615561068054
1773521773297852200,11.54585205078125,-2.070665871605277,9.02340177373588,-3.234337894812226
1773521773307891200,11.55589111328125,-2.059311972289532,9.026640609526634,-3.2325524727001786
1773521773317930200,11.56593017578125,-2.051791367526352,9.032341451516746,-3.2213919039994474
1773521773327968000,11.575968017578125,-2.045797387808561,9.04261033207476,-3.1962922417953608
1773521773338007300,11.58600732421875,-2.0318185468167065,9.060677903684974,-3.15376272136271
1773521773348045000,11.596045166015625,-1.9944661367610095,9.088838999286294,-3.0960432305827736
1773521773358084000,11.606083984375,-1.933800363396108,9.137171945300699,-2.9904636719971895
1773521773368122000,11.6161220703125,-1.9182213937312362,9.268858881828189,-2.564963300487399
1773521773378161200,11.6261611328125,-1.8638256405465303,9.371043245017528,-2.2090926377817985
1773521773388200000,11.636199951171875,-1.761826716926694,9.432162022846937,-2.025005213540047
1773521773398238200,11.64623828125,-1.642754931822419,9.460178157019614,-1.9941824975140392
1773521773408277000,11.656277099609374,-1.5339787691526114,9.467467144984006,-2.0455660632707175
1773521773418315300,11.666315185546875,-1.4340845627270637,9.473587089169024,-2.089243146303296
1773521773428354000,11.67635400390625,-1.3560137733139097,9.465174065610766,-2.1776360077664254
1773521773438393000,11.68639306640625,-1.3144257715150713,9.446706681028008,-2.2808817165769635
1773521773448431000,11.69643115234375,-1.30346671673581,9.425630575251578,-2.3725262733124195
1773521773458470100,11.70647021484375,-1.3045122802659868,9.407281848612428,-2.4437065725594755
1773521773468508000,11.7165078125,-1.2989325804375111,9.395113271912932,-2.4929917047321797
1773521773478547200,11.726547119140625,-1.2771804750956595,9.390365200603007,-2.5219506727129217
1773521773488585000,11.7365849609375,-1.239343788654357,9.392268403875827,-2.533711253133416
1773521773498624000,11.7466240234375,-1.191030643318966,9.400092813891172,-2.527864572931826
1773521773508663300,11.756663330078124,-1.136062058682367,9.411368241143226,-2.511154261149466
1773521773518701000,11.766701171875,-1.0755931961290537,9.425424239024519,-2.4849273484811185
1773521773528740000,11.776739990234375,-1.0127936986710875,9.443560784217714,-2.442092707622051
1773521773538778000,11.786778076171874,-0.9519904895968735,9.465065929061174,-2.3825689438991247
1773521773548817200,11.796817138671875,-0.9011529403503984,9.488243975552916,-2.309011686387658
1773521773558856000,11.80685595703125,-0.8695809403270482,9.511151388409733,-2.2253530138395727
1773521773568894200,11.816894287109376,-0.8598952664844691,9.532302897509933,-2.1368584455676376
1773521773578933000,11.82693310546875,-0.8660830152086914,9.550801846274734,-2.0499879713661966
1773521773588971300,11.83697119140625,-0.880383124044165,9.56615431370735,-1.9707858398355542
1773521773599010300,11.84701025390625,-0.8969734627086668,9.578409399646521,-1.9026095447100697
1773521773609048000,11.857048095703124,-0.9112007985688746,9.587851181730628,-1.8474882537297903
1773521773619087000,11.867087158203125,-0.8253370171919464,9.598846622997522,-1.8306684902235864
1773521773629126100,11.877126220703126,-0.7252308485161513,9.60979997868836,-1.8155404791966079
1773521773639164200,11.8871640625,-0.7208905542895198,9.612657121685146,-1.802092530211061
1773521773649203000,11.897202880859375,-0.7582810313332825,9.610137832340598,-1.8001788055442272
1773521773659241200,11.9072412109375,-0.8270048042736947,9.601275895971058,-1.817125702561438
1773521773669280000,11.917280029296874,-0.8672185220446437,9.591794366398453,-1.848184127039462
1773521773679319000,11.927319091796875,-0.8560154293764383,9.589257541397213,-1.8664789315342902
1773521773689357000,11.937357177734375,-0.8071822056896985,9.595576223024725,-1.8557357114627957
1773521773699396000,11.94739599609375,-0.7640918365038931,9.605730537292361,-1.82111754867658
1773521773709434000,11.95743408203125,-0.7597472314283251,9.614899932175874,-1.7739479473531246
1773521773719473200,11.96747314453125,-0.7970259917259216,9.620195700496435,-1.728280421155691
1773521773729512200,11.97751220703125,-0.8605863905537873,9.620569209983945,-1.6954104172110556
1773521773739550200,11.98755029296875,-0.935827655629441,9.61641968908906,-1.67901355529204
1773521773749589200,11.99758935546875,-1.0155552723389119,9.607297055956721,-1.6848897538490593
1773521773759627000,12.007626953125,-1.1012552414562553,9.590355858027934,-1.7270443034894762
1773521773769666300,12.017666259765624,-1.197360430862382,9.563798105970024,-1.8084530051536858
1773521773779704000,12.0277041015625,-1.3173852058425546,9.527934765428304,-1.91137445044592
1773521773789743000,12.0377431640625,-1.4685131942905485,9.48463572192788,-2.0138347079671917
1773521773799782100,12.0477822265625,-1.6441197904348372,9.436435462382436,-2.10260341700539
1773521773809820200,12.057820068359375,-1.834017654521018,9.38532486834824,-2.173114877080172
1773521773819859000,12.06785888671875,-2.027161807052046,9.333549088403583,-2.223934671474248
1773521773829897200,12.077897216796876,-2.2146960107468066,9.283204218044876,-2.255572211014479
1773521773839936000,12.08793603515625,-2.3896342061102387,9.23517113175988,-2.274127127750218
1773521773849975000,12.09797509765625,-2.5472058177396653,9.18957257914543,-2.287769576394558
1773521773860013000,12.108012939453126,-2.6853131427034733,9.146331403312086,-2.3030630071163176
1773521773870052000,12.118052001953124,-2.8038769782856106,9.1056089323014,-2.3230476643942297
1773521773880090000,12.128090087890625,-2.9025287834346294,9.068675916701554,-2.346240031672269
1773521773890129200,12.138129150390625,-2.981387508355081,9.03722045572996,-2.36861786769703
1773521773900167200,12.148167236328124,-3.0401582617536187,9.01297857939899,-2.386217383404076
1773521773910206000,12.1582060546875,-3.077951985836029,8.997250264391303,-2.397096212553978
1773521773920245200,12.168245361328125,-3.095812928958237,8.989583090764283,-2.4028568219073114
1773521773930283000,12.178282958984376,-3.0959990991801023,8.98880684569478,-2.405518734592944
1773521773940322600,12.188322509765625,-3.080260847300291,8.99410319853723,-2.4059241005234417
1773521773950360800,12.19836083984375,-3.049745297527313,9.005026743611692,-2.4039395025774835
1773521773960399600,12.208399658203126,-3.0050232354864477,9.02090469622314,-2.4007243399232623
1773521773970438700,12.218438720703125,-2.945850038766861,9.04093450781703,-2.3987184069283307
1773521773980477000,12.228476806640625,-2.8706960135832427,9.064379096290468,-2.401355915825069
1773521773990515700,12.238515625,-2.7786899300590155,9.090145405709743,-2.4121660636529323
1773521774000553700,12.2485537109375,-2.6700159125894305,9.116967361661791,-2.43358119212538
1773521774010592800,12.2585927734375,-2.546368782393634,9.143174985107779,-2.4675410371333357
1773521774020631800,12.2686318359375,-2.408781974172592,9.167570006173849,-2.514722475025058
1773521774030669600,12.278669677734374,-2.2565211823023854,9.18957257914543,-2.5749314445331692
1773521774040708900,12.288708984375,-2.08597157728672,9.209356307023763,-2.647051508848369
1773521774050746600,12.29874658203125,-1.8919529800087211,9.226997177654503,-2.730096579542756
1773521774060785700,12.30878564453125,-1.6712544655978678,9.242507465997338,-2.82016848013401
1773521774070823700,12.31882373046875,-1.4243642559625207,9.25613617837727,-2.909552982982993
1773521774080862700,12.32886279296875,-1.1586392166715114,9.267191240876912,-2.991169189918041
1773521774090901800,12.33890185546875,-0.8849697211820632,9.274405994561315,-3.0614699298515915
1773521774100939800,12.348939697265624,-0.6138155695144086,9.276642959833145,-3.1204972883597013
1773521774110978800,12.358978759765625,-0.3504534964950755,9.273327551674843,-3.170642544493079
1773521774121016800,12.369016845703126,-0.11997950193318538,9.261786166962981,-3.2210771389618515
1773521774131055900,12.379055908203124,-0.011302473947539693,9.239084505811332,-3.2877941751897333
1773521774141094700,12.3890947265625,-0.04184115457599982,9.213387754496932,-3.3588857732400297
1773521774151133000,12.3991328125,-0.09544773927754722,9.192622029843927,-3.414228890277445
1773521774161171700,12.409171630859374,-0.10892686885264702,9.1784035348773,-3.4518706386685367
1773521774171209700,12.419209716796875,-0.0933319161673542,9.17224793485701,-3.4686525543823836
1773521774181248800,12.429248779296875,-0.07160938397985883,9.174126003688574,-3.4641973285391923
1773521774191287800,12.439287841796874,-0.05223692661642562,9.180667388156056,-3.447176343372464
1773521774201325600,12.44932568359375,-0.026117127584363332,9.188766523459552,-3.4258246355250477
1773521774211364900,12.45936474609375,0.019307584566832518,9.199762549248337,-3.3962329225987196
1773521774221402600,12.469402587890626,0.08857462037135846,9.21594445324242,-3.3509593641549347
1773521774231441700,12.479441650390624,0.1771352304836735,9.236673353016377,-3.2898125292748213
1773521774241479700,12.489479736328125,0.27351076126378027,9.258330473551153,-3.2216283431038257
1773521774251518700,12.499518798828126,0.36102713215332477,9.275852686238288,-3.1620600095868108
1773521774261557800,12.509557861328124,0.4213015681130811,9.285293883800506,-3.1266929281294344
1773521774271595800,12.519595703125,0.4463498289234936,9.286008169549703,-3.121090870338678
1773521774281634800,12.529634765625,0.4409598429808393,9.279666691568494,-3.1406539412036536
1773521774291672800,12.5396728515625,0.4166424902608618,9.269194397392868,-3.174711693628132
1773521774301712000,12.5497119140625,0.3862112212378531,9.25820655491054,-3.210425104305148
1773521774311750700,12.559750732421875,0.3561140795400366,9.250158857533336,-3.2369951313227414
1773521774321788700,12.56978857421875,0.32694435488544404,9.247419203436374,-3.247877759864926
1773521774331827700,12.57982763671875,0.29607171703679486,9.250358179497718,-3.2424647949054837
1773521774341865700,12.58986572265625,0.25966396742006764,9.257190071344375,-3.22604995893836
1773521774351904500,12.599904541015626,0.2119090952882543,9.263437441301345,-3.2115760279059407
1773521774361943800,12.60994384765625,0.1475395994340535,9.26615020739138,-3.2073502269044516
1773521774371981600,12.619981689453125,0.062498025726783084,9.266197553664446,-3.2099954807162283
1773521774382020600,12.6300205078125,-0.043794192906492384,9.265637581694126,-3.2119217726036906
1773521774392059000,12.640058837890624,-0.16672588200904429,9.265718830236793,-3.2076547628089784
1773521774402097700,12.65009765625,-0.2965793560316786,9.266313873520494,-3.1965356951624155
1773521774412136700,12.66013671875,-0.4182458703368902,9.26713804938495,-3.180504890076816
1773521774422174700,12.6701748046875,-0.5142459554007277,9.269618175762892,-3.1591292168319223
1773521774432213800,12.6802138671875,-0.5737114495977759,9.276046162983775,-3.129886755734682
1773521774442251800,12.690251708984375,-0.5976510550465435,9.28500688355267,-3.0986805933490396
1773521774452290800,12.700290771484376,-0.5928429606450721,9.29326910046339,-3.074745883271098
1773521774462328600,12.71032861328125,-0.5673624458972364,9.298798093017934,-3.062819006372988
1773521774472367900,12.720367919921875,-0.5297272733774036,9.301375834551454,-3.061727704004943
1773521774482407000,12.730406982421876,-0.4894425361968577,9.3012712051332,-3.0687440125077963
1773521774492444700,12.740444580078124,-0.4568795523747802,9.29892025809288,-3.0808675810217854
1773521774502484000,12.75048388671875,-0.4433856818882748,9.295093977802992,-3.094358053974807
1773521774512521700,12.760521728515625,-0.4630326316444203,9.290483853659033,-3.105300596010685
1773521774522560800,12.770560791015624,-0.5434849824318662,9.283592925101518,-3.1128596330881115
1773521774532599800,12.780599853515625,-0.7018574986480176,9.273304170799255,-3.111848702479899
1773521774542637800,12.790637939453125,-0.9152581842008978,9.262944104826449,-3.087159082381427
1773521774552676600,12.800676513671876,-1.1435277914531528,9.25414120516777,-3.037035745818913
1773521774562715000,12.81071484375,-1.3598336238630115,9.244846722599863,-2.975575899466872
1773521774572753700,12.820753662109375,-1.5553057809501885,9.232290607887506,-2.9182570984423157
1773521774582792700,12.830792724609376,-1.7353429068878292,9.213619809687136,-2.875443792632222
1773521774592830700,12.840830810546874,-1.9117782089412212,9.187514477571845,-2.8469419207692144
1773521774602869800,12.850869873046875,-2.091654006837308,9.154047092255949,-2.828214131684601
1773521774612907800,12.86090771484375,-2.274438677917421,9.114104957967996,-2.8161002077817914
1773521774622946800,12.87094677734375,-2.4529700754672286,9.0701582642138,-2.808120607204735
1773521774632985900,12.88098583984375,-2.6168819960340857,9.025923401167988,-2.8026792929336426
1773521774643023600,12.891023681640625,-2.7559669338583945,8.98647694144249,-2.796116281156242
1773521774653063000,12.90106298828125,-2.8682658638268705,8.970748626434803,-2.7329686278477308
1773521774663100700,12.9111005859375,-2.919592438699305,9.028581222200392,-2.47610340603441
1773521774673139700,12.9211396484375,-2.89914235586673,9.092893827635049,-2.254917838758975
1773521774683177700,12.931177734375,-2.8590140513569113,9.126945150318742,-2.1668618080347777
1773521774693216800,12.941216796875,-2.819725120280683,9.149048845577239,-2.124724355659634
1773521774703255600,12.951255615234375,-2.7810788710221646,9.169534584245085,-2.0870139259465037
1773521774713293800,12.9612939453125,-2.750178705845773,9.183678844931721,-2.065656519010663
1773521774723332600,12.97133251953125,-2.7358710712909695,9.188999163171648,-2.0609933495052157
1773521774733371000,12.981370849609375,-2.736646731838584,9.192927150270343,-2.042361714271456
1773521774743409700,12.99140966796875,-2.748256505611539,9.195950882005691,-2.012944773390144
1773521774753448700,13.00144873046875,-2.770270769020915,9.185063577288389,-2.0323858253106475
1773521774763486700,13.01148681640625,-2.7959362484142183,9.164462103286384,-2.089437938223034
1773521774773525800,13.02152587890625,-2.820741311585903,9.132630210217833,-2.192914825440943
1773521774783563800,13.031563720703126,-2.8639263733178377,9.067595720249415,-2.3972930503003296
1773521774793602800,13.041602783203125,-2.9421187432840465,8.957908434084057,-2.6963296267583963
1773521774803641900,13.051641845703125,-3.037061464782059,8.846553506967425,-2.9470550306424497
1773521774813679600,13.0616796875,-3.1387872705489395,8.755896499964594,-3.106878220590949
1773521774823719000,13.071718994140625,-3.2478616855129596,8.676088803756237,-3.2167154366210102
1773521774833756700,13.081756591796875,-3.350123497852683,8.613050456041098,-3.280613031513989
1773521774843795700,13.091795654296876,-3.4271474085614084,8.575807059317826,-3.2985704207479953
1773521774853833700,13.101833740234374,-3.4682521568879485,8.562831257888675,-3.289303702969849
1773521774863872800,13.111872802734375,-3.467176052089035,8.566957397907972,-3.2796830571874973
1773521774873911800,13.121911865234376,-3.4249481449514625,8.58109698241949,-3.287078720396757
1773521774883949800,13.13194970703125,-3.3573379592761396,8.599443955492973,-3.308810951994359
1773521774893988900,13.14198876953125,-3.290836027103662,8.616111012655496,-3.332179552622139
