time,seconds_elapsed,z,y,x
1773521762044546800,0.292546875,-0.02605043724179268,0.01667385920882225,-0.004387505352497101
1773521762054585600,0.302585693359375,-0.027499863877892494,0.03135349974036217,-0.011236412450671196
1773521762064623900,0.312623779296875,-0.028423713520169258,0.03532294183969498,-0.04154425114393234
1773521762074662700,0.32266259765625,-0.035592444241046906,0.039211373776197433,-0.07010289281606674
1773521762084701700,0.33270166015625,-0.041478559374809265,0.03730614855885506,-0.07891928404569626
1773521762094739700,0.34273974609375,-0.03961104154586792,0.05102343112230301,-0.04375683516263962
1773521762104778800,0.35277880859375,-0.03262264281511307,0.07412662357091904,0.005555056035518646
1773521762114817800,0.36281787109375,-0.03571408614516258,0.10865263640880585,0.05395923927426338
1773521762124855800,0.372855712890625,-0.025922175496816635,0.10813944786787033,0.07336276024580002
1773521762134894800,0.382894775390625,-0.006749793887138367,0.13176770508289337,0.06201688200235367
1773521762144933600,0.39293359375,-0.006930622272193432,0.10922963917255402,0.027081267908215523
1773521762154972000,0.402971923828125,-0.03365297242999077,0.09093381464481354,-0.016242269426584244
1773521762165010700,0.4130107421875,-0.04893898218870163,0.15278467535972595,-0.03054424189031124
1773521762175049700,0.4230498046875,-0.05212162435054779,0.275866836309433,-0.016096774488687515
1773521762185087700,0.433087646484375,-0.0630006417632103,0.3736993968486786,-0.012363288551568985
1773521762195126800,0.443126708984375,-0.054385632276535034,0.4983026385307312,-0.01659476011991501
1773521762205165600,0.45316552734375,-0.034292884171009064,0.6268142461776733,-0.05866604298353195
1773521762215203800,0.463203857421875,-0.006710064597427845,0.6893132328987122,-0.11985985934734344
1773521762225243000,0.473242919921875,0.04859819635748863,0.8278490304946899,-0.09178508073091507
1773521762235281700,0.48328173828125,0.06435234844684601,0.8870876431465149,-0.015688033774495125
1773521762245320000,0.49331982421875,0.09039565920829773,1.0307211875915527,0.053391169756650925
1773521762255358700,0.503358642578125,0.1869255155324936,1.3182600736618042,0.08922874927520752
1773521762265397800,0.513397705078125,0.3696300685405731,1.5720665454864502,0.08490777015686035
1773521762275435800,0.523435791015625,0.5626806616783142,1.9223933219909668,0.03194887191057205
1773521762285474800,0.533474853515625,0.7814177870750427,2.2946953773498535,-0.05108742415904999
1773521762295513600,0.543513671875,1.014285922050476,2.720585346221924,-0.12904667854309082
1773521762305552000,0.5535517578125,1.2702434062957764,3.2414870262145996,-0.19406747817993164
1773521762315590700,0.563590576171875,1.6351003646850586,3.687885284423828,-0.26045653223991394
1773521762325629700,0.573629638671875,2.4154763221740723,3.848071336746216,-0.13645151257514954
1773521762335668000,0.58366796875,2.9966115951538086,4.236059188842773,-0.09055168181657791
1773521762345706800,0.593706787109375,3.2986042499542236,4.907327175140381,-0.06588921695947647
1773521762355745800,0.603745849609375,3.1695103645324707,5.230738162994385,-0.12388252466917038
1773521762365783800,0.61378369140625,1.9106247425079346,3.9907209873199463,-0.7345000505447388
1773521762375822800,0.62382275390625,0.6389853358268738,3.6365182399749756,-1.2336113452911377
1773521762385861600,0.633861572265625,0.01637290045619011,3.4926552772521973,-1.33512544631958
1773521762395899600,0.643899658203125,-0.39624834060668945,3.1137373447418213,-1.4603537321090698
1773521762405938700,0.653938720703125,-0.5811726450920105,2.941986083984375,-1.6198827028274536
1773521762415977700,0.663977783203125,-0.36719387769699097,3.2617475986480713,-1.687387228012085
1773521762426015700,0.674015625,-0.0487823486328125,3.6594271659851074,-1.7354857921600342
1773521762436054800,0.6840546875,0.09436679631471634,3.8934333324432373,-1.747786283493042
1773521762446093800,0.69409375,0.1258581429719925,3.7715706825256348,-1.5708987712860107
1773521762456131600,0.704131591796875,0.08918824791908264,3.4669508934020996,-1.2047879695892334
1773521762466171000,0.7141708984375,0.08266137540340424,2.7772316932678223,-0.5901080965995789
1773521762476209700,0.724209716796875,-0.024867691099643707,2.521878480911255,-0.14399239420890808
1773521762486247700,0.73424755859375,-0.19267480075359344,2.222416639328003,0.13323360681533813
1773521762496286700,0.74428662109375,-0.39695629477500916,1.4962588548660278,0.33615848422050476
1773521762506325800,0.75432568359375,-0.26884469389915466,0.41673293709754944,0.35190337896347046
1773521762516363500,0.764363525390625,0.03164968639612198,0.2827756702899933,0.002321250969544053
1773521762526402800,0.77440283203125,0.06286326795816422,0.6243947744369507,-0.2907998263835907
1773521762536441900,0.78444189453125,-0.16178637742996216,0.5800215005874634,-0.35795822739601135
1773521762546479600,0.794479736328125,-0.46895137429237366,0.5992753505706787,-0.48229217529296875
1773521762556519000,0.804518798828125,-0.6978133916854858,0.3652347922325134,-0.8249586820602417
1773521762566557700,0.8145576171875,-0.8225888609886169,0.44946205615997314,-1.3798713684082031
1773521762576595700,0.824595703125,-0.7316187620162964,0.6792801022529602,-2.027857780456543
1773521762586634800,0.834634765625,-0.7096503376960754,0.3777889311313629,-2.45194673538208
1773521762596673800,0.844673828125,-0.6737344861030579,0.17919762432575226,-2.522117853164673
1773521762606711600,0.854711669921875,-0.6949132680892944,-0.08021768927574158,-2.4019687175750732
1773521762616750600,0.86475048828125,-0.8971930742263794,-0.34877678751945496,-2.2321128845214844
1773521762626790000,0.874789794921875,-1.3742573261260986,-0.38338935375213623,-2.072777271270752
1773521762636828700,0.88482861328125,-2.100468158721924,-0.3049948811531067,-1.8676689863204956
1773521762646866700,0.89486669921875,-2.9588985443115234,-0.3253163993358612,-1.6610523462295532
1773521762656905700,0.90490576171875,-3.7785391807556152,-0.31033855676651,-1.5610971450805664
1773521762666944800,0.91494482421875,-4.435422420501709,-0.37343576550483704,-1.6236114501953125
1773521762676982500,0.924982421875,-4.87113618850708,-0.5468824505805969,-1.8234659433364868
1773521762687021800,0.935021728515625,-5.059053897857666,-0.7398270964622498,-2.1067800521850586
1773521762697060900,0.945060791015625,-5.015280723571777,-0.8813797235488892,-2.3986752033233643
1773521762707098600,0.9550986328125,-4.8018083572387695,-0.9000428915023804,-2.6593873500823975
1773521762717138000,0.965137939453125,-4.507565498352051,-0.7414414882659912,-2.8666234016418457
1773521762727176700,0.9751767578125,-4.266721248626709,-0.4644889533519745,-2.9704952239990234
1773521762737214700,0.985214599609375,-4.153600215911865,-0.09735804051160812,-2.9812636375427246
1773521762747253800,0.995253662109375,-4.148238182067871,0.3783770799636841,-2.981558322906494
1773521762757292800,1.005292724609375,-4.1969404220581055,0.9019292593002319,-3.0774028301239014
1773521762767330600,1.01533056640625,-4.153305530548096,1.3567523956298828,-3.300974130630493
1773521762777369900,1.025369873046875,-3.9342377185821533,1.7228491306304932,-3.4674172401428223
1773521762787409000,1.035408935546875,-3.587114095687866,2.046337842941284,-3.386157512664795
1773521762797446700,1.04544677734375,-3.2131361961364746,2.330641269683838,-3.0326757431030273
1773521762807485700,1.055485595703125,-2.8994252681732178,2.4890072345733643,-2.533214807510376
1773521762817524700,1.065524658203125,-2.6499593257904053,2.641026735305786,-2.0371994972229004
1773521762827562800,1.075562744140625,-2.4405272006988525,2.93091082572937,-1.6251050233840942
1773521762837601500,1.0856015625,-2.2573962211608887,3.2228944301605225,-1.2813642024993896
1773521762847640800,1.095640869140625,-2.0358290672302246,3.462062358856201,-0.9539216756820679
1773521762857678600,1.1056787109375,-1.7434190511703491,3.6581032276153564,-0.6025391817092896
1773521762867717600,1.115717529296875,-1.4169338941574097,3.806791067123413,-0.21623863279819489
1773521762877757000,1.1257568359375,-1.07659912109375,3.891512632369995,0.17437003552913666
1773521762887794700,1.135794677734375,-0.7504396438598633,3.9261865615844727,0.5127020478248596
1773521762897833700,1.145833740234375,-0.46131518483161926,3.9171555042266846,0.76993328332901
1773521762907872800,1.155872802734375,-0.19684091210365295,3.8554325103759766,0.9703295230865479
1773521762917910800,1.165910888671875,0.043998610228300095,3.7439401149749756,1.1450514793395996
1773521762927949600,1.175949462890625,0.2423226237297058,3.621394157409668,1.332207441329956
1773521762937988000,1.185988037109375,0.3988036811351776,3.446884870529175,1.5504881143569946
1773521762948026000,1.196026123046875,0.5092146396636963,3.317620277404785,1.7670207023620605
1773521762958065200,1.206065185546875,0.5628196001052856,3.228389024734497,1.9490845203399658
1773521762968104200,1.216104248046875,0.5598562955856323,3.0983381271362305,2.0936403274536133
1773521762978143200,1.226143310546875,0.5003230571746826,2.905421733856201,2.201730966567993
1773521762988181000,1.236180908203125,0.36573269963264465,2.7152047157287598,2.2764315605163574
1773521762998220300,1.24622021484375,0.20066672563552856,2.511521577835083,2.2941768169403076
1773521763008259000,1.256259033203125,0.05390657112002373,2.2434654235839844,2.235975980758667
1773521763018297000,1.266297119140625,-0.07081931829452515,1.929165005683899,2.105586528778076
1773521763028336000,1.276336181640625,-0.20153924822807312,1.6628813743591309,1.9259475469589233
1773521763038375200,1.286375244140625,-0.3330264687538147,1.4454127550125122,1.7612766027450562
1773521763048413000,1.296412841796875,-0.4513073265552521,1.2994104623794556,1.647937536239624
1773521763058452200,1.3064521484375,-0.554795503616333,1.161508321762085,1.6155468225479126
1773521763068491300,1.3164912109375,-0.5860370993614197,1.0425065755844116,1.639365315437317
1773521763078529000,1.326529052734375,-0.4762534201145172,1.0724047422409058,1.6269603967666626
1773521763088568300,1.336568359375,-0.3102892339229584,0.9742253422737122,1.6020569801330566
1773521763098607000,1.346607177734375,-0.13572195172309875,0.8434712290763855,1.5812832117080688
1773521763108645000,1.35664501953125,0.029876329004764557,0.7962560057640076,1.531732439994812
1773521763118684200,1.36668408203125,0.12072901427745819,0.6225027441978455,1.452330231666565
1773521763128723200,1.37672314453125,0.22919903695583344,0.007922656834125519,1.373700737953186
1773521763138761000,1.386760986328125,0.42422783374786377,-0.26726022362709045,1.0505430698394775
1773521763148800300,1.39680029296875,0.6816341280937195,-0.5705453157424927,0.5997378826141357
1773521763158839300,1.40683935546875,0.956685483455658,-1.0238702297210693,0.13590385019779205
1773521763168877000,1.416876953125,1.1329851150512695,-1.4724594354629517,-0.2683134078979492
1773521763178916000,1.426916015625,1.2598811388015747,-1.6759188175201416,-0.6172985434532166
1773521763188955100,1.436955078125,1.4554020166397095,-1.681764006614685,-0.8671435117721558
1773521763198993200,1.4469931640625,1.5872522592544556,-1.472551703453064,-1.000961422920227
1773521763209032000,1.457031982421875,1.5960502624511719,-1.112666130065918,-1.0811113119125366
1773521763219071200,1.4670712890625,1.4821223020553589,-0.5999693274497986,-1.170082688331604
1773521763229109000,1.47710888671875,1.3213286399841309,-0.059965766966342926,-1.260557770729065
1773521763239148000,1.48714794921875,1.124609351158142,0.326748788356781,-1.3018362522125244
1773521763249187300,1.497187255859375,0.8904160261154175,0.5243140459060669,-1.2992441654205322
1773521763259226000,1.50722607421875,0.6978424787521362,0.5139219164848328,-1.3533400297164917
1773521763269264100,1.51726416015625,0.6014783382415771,0.2875494956970215,-1.5352016687393188
1773521763279303200,1.52730322265625,0.6164257526397705,-0.17151297628879547,-1.7492120265960693
1773521763289342200,1.53734228515625,0.6598365902900696,-0.6256866455078125,-1.9104083776474
1773521763299380000,1.5473798828125,0.6766099333763123,-0.8605651259422302,-1.9955668449401855
1773521763309419300,1.557419189453125,0.6530872583389282,-0.9043983817100525,-1.9838111400604248
1773521763319458300,1.567458251953125,0.5921976566314697,-0.7373486757278442,-1.9105174541473389
1773521763329496000,1.57749609375,0.5232974290847778,-0.4088757038116455,-1.7976133823394775
1773521763339535400,1.587535400390625,0.421854704618454,-0.1726880520582199,-1.6883760690689087
1773521763349574100,1.59757421875,0.32691168785095215,-0.058744706213474274,-1.601533055305481
1773521763359612200,1.607612060546875,0.3021048903465271,-0.12258893996477127,-1.5027698278427124
1773521763369651200,1.617651123046875,0.32865631580352783,-0.36321112513542175,-1.4074506759643555
1773521763379690200,1.627690185546875,0.33991149067878723,-0.7411698698997498,-1.3067004680633545
1773521763389728000,1.63772802734375,0.31316351890563965,-1.1798640489578247,-1.2058295011520386
1773521763399767000,1.64776708984375,0.261709600687027,-1.6051840782165527,-1.0866758823394775
1773521763409806300,1.657806396484375,0.17733639478683472,-2.02742075920105,-0.996353268623352
1773521763419844000,1.667843994140625,0.13284865021705627,-2.500485897064209,-0.9678619503974915
1773521763429883100,1.677883056640625,0.21098074316978455,-2.9723732471466064,-0.9621648788452148
1773521763439922200,1.687922119140625,0.4018777906894684,-3.350789785385132,-0.9676162600517273
1773521763449960200,1.697960205078125,0.653145432472229,-3.6460959911346436,-0.9225673079490662
1773521763459999000,1.7079990234375,0.9543429017066956,-4.024859428405762,-0.768704891204834
1773521763470038300,1.718038330078125,1.2657214403152466,-4.470946311950684,-0.4572192132472992
1773521763480076000,1.728075927734375,1.5263782739639282,-4.753467082977295,-0.02286199852824211
1773521763490115000,1.738114990234375,1.7306597232818604,-4.829395771026611,0.41792309284210205
1773521763500154400,1.748154296875,1.884672999382019,-4.708003997802734,0.720553457736969
1773521763510193200,1.758193115234375,1.9961355924606323,-4.3597307205200195,0.8318107724189758
1773521763520231200,1.768231201171875,2.0977156162261963,-3.817234516143799,0.8240386843681335
1773521763530270200,1.778270263671875,2.197739839553833,-3.1810052394866943,0.7695937752723694
1773521763540309200,1.788309326171875,2.2310755252838135,-2.3932836055755615,0.6984030604362488
1773521763550347000,1.798346923828125,2.2023239135742188,-1.461734414100647,0.6668176651000977
1773521763560386300,1.80838623046875,2.1944241523742676,-0.5641310811042786,0.6716749668121338
1773521763570425300,1.81842529296875,2.216015100479126,0.2264288365840912,0.7074622511863708
1773521763580463000,1.828463134765625,2.2452340126037598,0.8951756954193115,0.7303730845451355
1773521763590502100,1.838502197265625,2.2775795459747314,1.305479884147644,0.7496978044509888
1773521763600541200,1.848541259765625,2.2925074100494385,1.4227672815322876,0.7524513006210327
1773521763610579200,1.8585791015625,2.3124547004699707,1.3995062112808228,0.7147497534751892
1773521763620618000,1.868617919921875,2.350790023803711,1.2851836681365967,0.6540051102638245
1773521763630657300,1.8786572265625,2.427593946456909,1.0860666036605835,0.5932136178016663
1773521763640695000,1.888695068359375,2.504490613937378,0.8696888089179993,0.5503565669059753
1773521763650734000,1.898734130859375,2.5565731525421143,0.685972273349762,0.5116935968399048
1773521763660773000,1.908773193359375,2.5671942234039307,0.4791692793369293,0.4936334490776062
1773521763670811100,1.91881103515625,2.522667407989502,0.30393409729003906,0.5403876900672913
1773521763680850200,1.92885009765625,2.4205784797668457,0.1460532546043396,0.6466506719589233
1773521763690889200,1.93888916015625,2.294593095779419,0.06511154025793076,0.7963554859161377
1773521763700927200,1.94892724609375,2.17499041557312,0.14920197427272797,0.9109835624694824
1773521763710966000,1.958966064453125,2.0795936584472656,0.23646284639835358,1.0106134414672852
1773521763721005300,1.96900537109375,1.9688568115234375,0.39643627405166626,1.15945565700531
1773521763731043000,1.97904296875,1.793146014213562,0.7310488820075989,1.2984726428985596
1773521763741082000,1.98908203125,1.5798025131225586,1.1134732961654663,1.3734394311904907
1773521763751121200,1.99912109375,1.3935037851333618,1.484421730041504,1.3857797384262085
1773521763761160200,2.00916015625,1.2677628993988037,1.7758582830429077,1.292770504951477
1773521763771198200,2.0191982421875,1.1601070165634155,1.9101563692092896,1.1319427490234375
1773521763781237200,2.0292373046875,1.076277256011963,1.9581702947616577,0.92912358045578
1773521763791276300,2.0392763671875,1.028826355934143,1.7758369445800781,0.650127649307251
1773521763801314000,2.04931396484375,0.8620744347572327,1.0208381414413452,0.47376957535743713
1773521763811353000,2.05935302734375,0.7485372424125671,0.20975624024868011,0.3307620882987976
1773521763821392100,2.06939208984375,0.6213018298149109,-0.7747690081596375,0.20679153501987457
1773521763831430100,2.07943017578125,0.48157933354377747,-3.8044679164886475,0.6262305974960327
1773521763841469000,2.089468994140625,0.4909598231315613,-5.939886569976807,1.1035951375961304
1773521763851508200,2.09950830078125,0.6739605069160461,-6.7471184730529785,1.318329095840454
1773521763861546000,2.1095458984375,0.8361595869064331,-8.133657455444336,1.612220048904419
1773521763871585000,2.1195849609375,0.8986048698425293,-9.924572944641113,1.9746118783950806
1773521763881624300,2.129624267578125,0.9814899563789368,-10.832184791564941,2.2527105808258057
1773521763891662000,2.139662109375,1.0273231267929077,-11.705954551696777,2.5776655673980713
1773521763901701000,2.149701171875,0.8841549158096313,-12.014368057250977,3.7119741439819336
1773521763911740200,2.159740234375,0.886864423751831,-13.922202110290527,4.552441596984863
1773521763921778200,2.169778076171875,1.0427582263946533,-9.035760879516602,4.72653865814209
1773521763931821600,2.179821533203125,0.9432538747787476,-1.592801809310913,3.369483470916748
1773521763941860600,2.189860595703125,0.9092209935188293,-0.4427286982536316,1.928317904472351
1773521763951898600,2.199898681640625,0.8697731494903564,-0.33959832787513733,0.23140446841716766
1773521763961937700,2.209937744140625,0.5293560028076172,-0.6685619950294495,-1.2290096282958984
1773521763971976400,2.2199765625,0.002312476746737957,-0.5739920735359192,-2.5049023628234863
1773521763982015500,2.230015380859375,-0.5726903080940247,0.1044859066605568,-2.914292097091675
1773521763992053500,2.240053466796875,-0.6635645627975464,-0.23091526329517365,-3.17311429977417
1773521764002092500,2.250092529296875,-0.5028221011161804,-0.7074975371360779,-3.151604175567627
1773521764012131600,2.260131591796875,-0.36355793476104736,-0.38867005705833435,-2.8913028240203857
1773521764022169600,2.270169677734375,-0.28480955958366394,-0.3041667938232422,-2.549086332321167
1773521764032208600,2.280208740234375,-0.29746755957603455,-0.8337227702140808,-2.2120912075042725
1773521764042247400,2.290247314453125,-0.40143123269081116,-1.728562593460083,-1.913222074508667
1773521764052285700,2.30028564453125,-0.5696018934249878,-2.54341459274292,-1.710672378540039
1773521764062324500,2.310324462890625,-0.8341101408004761,-2.5964958667755127,-1.571486473083496
1773521764072363500,2.320363525390625,-1.2898926734924316,-1.7568954229354858,-1.4682354927062988
1773521764082401500,2.330401611328125,-1.8382071256637573,-0.9271789193153381,-1.434852123260498
1773521764092440600,2.340440673828125,-2.3503317832946777,-0.20911268889904022,-1.3617384433746338
1773521764102479600,2.350479736328125,-2.7396674156188965,0.45230141282081604,-1.1912895441055298
1773521764112517600,2.360517578125,-2.891554355621338,0.9464365839958191,-0.9922174215316772
1773521764122556700,2.370556640625,-2.767521381378174,1.293618083000183,-0.8266599774360657
1773521764132595500,2.380595458984375,-2.5345616340637207,1.3497010469436646,-0.762313961982727
1773521764142633700,2.3906337890625,-2.193758487701416,1.10259211063385,-0.7955745458602905
1773521764152672500,2.400672607421875,-1.6495720148086548,0.9270156621932983,-0.8877982497215271
1773521764162711600,2.410711669921875,-0.9036701321601868,0.7816770672798157,-1.0360678434371948
1773521764172750600,2.42075048828125,-0.02477000653743744,0.7672845721244812,-1.1827590465545654
1773521764182788600,2.43078857421875,0.6269915103912354,0.8671691417694092,-1.166828989982605
1773521764192827600,2.44082763671875,0.7892802953720093,0.9536041617393494,-0.9247928857803345
1773521764202866400,2.450866455078125,0.603862464427948,1.148880124092102,-0.5617038607597351
1773521764212904700,2.46090478515625,0.3988770544528961,1.6003775596618652,-0.29747673869132996
1773521764222943500,2.470943603515625,0.3077934682369232,2.1825428009033203,-0.2165500521659851
1773521764232982500,2.480982421875,0.30364131927490234,2.6622722148895264,-0.2007306069135666
1773521764243020500,2.4910205078125,0.38919657468795776,3.058882236480713,-0.059898871928453445
1773521764253059600,2.5010595703125,0.3752914071083069,3.2613766193389893,0.11119510978460312
1773521764263098600,2.5110986328125,0.19108952581882477,3.4675064086914062,0.22872859239578247
1773521764273136600,2.52113671875,-0.10930199921131134,3.8891711235046387,0.30139559507369995
1773521764283175700,2.53117578125,-0.5114268064498901,4.331064224243164,0.3265056014060974
1773521764293214500,2.54121435546875,-1.037966012954712,4.837052822113037,0.36359119415283203
1773521764303252700,2.551252685546875,-1.5965088605880737,5.366891860961914,0.34640711545944214
1773521764313291500,2.56129150390625,-2.094839572906494,5.950016975402832,0.3184998333454132
1773521764323330600,2.57133056640625,-2.522244453430176,6.5271220207214355,0.2517014443874359
1773521764333368600,2.58136865234375,-2.959122657775879,7.024494171142578,0.09616351872682571
1773521764343407600,2.59140771484375,-3.479713201522827,7.295952796936035,-0.09220074117183685
1773521764353446700,2.60144677734375,-4.03361177444458,7.435570240020752,-0.25279465317726135
1773521764363484700,2.611484619140625,-4.588649272918701,7.595962047576904,-0.31303873658180237
1773521764373523700,2.621523681640625,-5.107633113861084,7.861011981964111,-0.18674816191196442
1773521764383562500,2.6315625,-5.56658935546875,8.213172912597656,0.13660955429077148
1773521764393600800,2.641600830078125,-5.961156368255615,8.584779739379883,0.6619364619255066
1773521764403639600,2.6516396484375,-6.281495094299316,8.802316665649414,1.320129632949829
1773521764413678600,2.6616787109375,-6.506363391876221,8.779378890991211,2.043921709060669
1773521764423717400,2.67171728515625,-6.594599723815918,8.55174732208252,2.785963296890259
1773521764433755600,2.681755615234375,-6.603461265563965,8.067079544067383,3.470402717590332
1773521764443794700,2.691794677734375,-6.56013822555542,7.43890380859375,4.088395118713379
1773521764453833500,2.70183349609375,-6.342757225036621,6.9084038734436035,4.689006328582764
1773521764463871700,2.711871826171875,-5.858376979827881,6.420894145965576,5.262399673461914
1773521764473910500,2.72191064453125,-5.17997932434082,5.888337135314941,5.679929256439209
1773521764483949600,2.731949462890625,-4.457921028137207,5.229670524597168,5.850733757019043
1773521764493987600,2.741987548828125,-3.6631264686584473,4.527440071105957,5.7667365074157715
1773521764504026600,2.752026611328125,-2.7245402336120605,3.7899982929229736,5.543277740478516
1773521764514065400,2.7620654296875,-1.680917501449585,2.934026002883911,5.170364856719971
1773521764524103700,2.772103759765625,-0.7249553799629211,1.984235405921936,4.520869731903076
1773521764534142700,2.782142822265625,0.06870445609092712,0.9899383783340454,3.5558648109436035
1773521764544181500,2.792181396484375,0.6762264370918274,-0.08912044018507004,2.3627285957336426
1773521764554219800,2.8022197265625,1.160395622253418,-1.2858765125274658,1.0695241689682007
1773521764564258600,2.812258544921875,1.63462233543396,-2.327399492263794,-0.17048846185207367
1773521764574297600,2.822297607421875,2.0972542762756348,-2.9859507083892822,-1.198305606842041
1773521764584335600,2.832335693359375,2.467963695526123,-3.111461639404297,-1.8027446269989014
1773521764594374700,2.842374755859375,2.7167043685913086,-2.775686025619507,-2.0245795249938965
1773521764604413400,2.852413330078125,2.8906304836273193,-2.246122121810913,-2.005159616470337
1773521764614451700,2.86245166015625,2.904834270477295,-1.462639570236206,-1.7326457500457764
1773521764624490500,2.872490478515625,2.668156385421753,-0.6100854277610779,-1.3790313005447388
1773521764634529500,2.882529541015625,2.214616298675537,0.3094273805618286,-1.011046290397644
1773521764644567800,2.89256787109375,1.5645558834075928,1.2098736763000488,-0.6830136775970459
1773521764654606600,2.902606689453125,0.9691228270530701,2.0538580417633057,-0.404085636138916
1773521764664645600,2.912645751953125,0.46099022030830383,2.7627980709075928,-0.12408709526062012
1773521764674683600,2.92268359375,0.0757937952876091,3.2168712615966797,0.19788508117198944
1773521764684722700,2.93272265625,-0.029583744704723358,3.2578485012054443,0.572519063949585
1773521764694761500,2.942761474609375,0.05012946203351021,3.022250175476074,0.8874170780181885
1773521764704799700,2.9527998046875,0.1644667685031891,2.793902635574341,0.9484413266181946
1773521764714838500,2.962838623046875,0.2681630551815033,2.5157310962677,0.7496086955070496
1773521764724877600,2.972877685546875,0.4901859760284424,2.094322681427002,0.4589359760284424
1773521764734915600,2.98291552734375,0.8787632584571838,1.2798731327056885,0.07649406790733337
1773521764744954600,2.99295458984375,1.528752326965332,0.15865309536457062,-0.4028569459915161
1773521764754993700,3.00299365234375,2.4547197818756104,-0.6214278340339661,-0.8485377430915833
1773521764765031700,3.01303173828125,2.6046218872070312,-1.593766212463379,-1.1173771619796753
1773521764775070700,3.02307080078125,2.5411300659179688,-2.144151449203491,-1.5555206537246704
1773521764785109500,3.033109619140625,2.5876827239990234,-2.307152032852173,-2.0187041759490967
1773521764795147800,3.043147705078125,2.558316469192505,-2.70398211479187,-2.071017026901245
1773521764805186600,3.0531865234375,2.7516281604766846,-2.5650665760040283,-1.5917576551437378
1773521764815225600,3.0632255859375,2.6663761138916016,-2.3205583095550537,-1.0152360200881958
1773521764825263600,3.073263671875,2.3786163330078125,-2.081817865371704,-0.6156252026557922
1773521764835302700,3.083302734375,2.286944627761841,-1.5333224534988403,-0.6267489194869995
1773521764845341700,3.093341796875,2.08850359916687,-0.8416498303413391,-0.9308755397796631
1773521764855380500,3.10338037109375,1.6476526260375977,-0.38149285316467285,-1.3631036281585693
1773521764865418800,3.113418701171875,1.200533151626587,-0.1456945389509201,-1.634189486503601
1773521764875457500,3.12345751953125,0.9511001706123352,-0.3256794810295105,-1.5145403146743774
1773521764885496600,3.13349658203125,0.7047321200370789,-0.5108513832092285,-1.1181308031082153
1773521764895534600,3.14353466796875,0.3666438162326813,-0.31845399737358093,-0.7332602739334106
1773521764905573600,3.15357373046875,0.1965099722146988,0.0709286704659462,-0.34378913044929504
1773521764915612700,3.16361279296875,0.16189846396446228,0.3445431590080261,0.051003195345401764
1773521764925650700,3.173650634765625,0.02214972674846649,0.3396851122379303,0.35121074318885803
1773521764935689200,3.183689208984375,-0.3424234390258789,0.13779619336128235,0.5819227695465088
1773521764945728300,3.193728271484375,-0.69942307472229,-0.26161569356918335,0.8785108923912048
1773521764955766300,3.203766357421875,-0.779455304145813,-0.5653457045555115,1.0395927429199219
1773521764965805300,3.213805419921875,-0.6803662776947021,-0.6536962985992432,0.9581970572471619
1773521764975844000,3.223843994140625,-0.5219382643699646,-0.6844717860221863,0.8066312074661255
1773521764985882400,3.23388232421875,-0.4152144193649292,-0.7542955279350281,0.6744847297668457
1773521764995921200,3.243921142578125,-0.4402499794960022,-0.8627559542655945,0.5566508173942566
1773521765005960200,3.253960205078125,-0.5438912510871887,-1.049856424331665,0.43658140301704407
1773521765015998200,3.263998291015625,-0.6139169335365295,-1.2634128332138062,0.3433278799057007
1773521765026037200,3.274037353515625,-0.6294643878936768,-1.397093415260315,0.2777416706085205
1773521765036076300,3.284076171875,-0.6988216042518616,-1.4738954305648804,0.227390855550766
1773521765046114300,3.2941142578125,-0.8297634124755859,-1.492611289024353,0.09977685660123825
1773521765056153300,3.3041533203125,-1.0627588033676147,-1.4485520124435425,-0.013959028758108616
1773521765066192100,3.314192138671875,-1.3875956535339355,-1.3916189670562744,0.022301722317934036
1773521765076230400,3.32423046875,-1.6122615337371826,-1.2836416959762573,0.1223958283662796
1773521765086269200,3.334269287109375,-1.7897701263427734,-1.0403697490692139,0.24608106911182404
1773521765096308200,3.34430810546875,-1.9938321113586426,-0.779974639415741,0.3840908706188202
1773521765106346200,3.35434619140625,-2.2571706771850586,-0.5170199871063232,0.5799788236618042
1773521765116385300,3.36438525390625,-2.461099863052368,-0.11432152986526489,1.1489957571029663
1773521765126424300,3.37442431640625,-2.3732142448425293,0.251140296459198,1.5626307725906372
1773521765136462300,3.38446240234375,-2.3377647399902344,0.6646953821182251,1.7712947130203247
1773521765146501400,3.39450146484375,-2.5242795944213867,0.8399040699005127,1.6729042530059814
1773521765156540200,3.4045400390625,-2.591698169708252,0.7428885698318481,1.3083739280700684
1773521765166578200,3.414578125,-2.4428255558013916,0.617681622505188,1.1107213497161865
1773521765176617200,3.4246171875,-2.147632360458374,0.9282261729240417,1.5407267808914185
1773521765186656300,3.43465625,-1.7778509855270386,1.408740520477295,2.477020025253296
1773521765196694000,3.444694091796875,-1.4424703121185303,1.1326706409454346,2.0469377040863037
1773521765206733300,3.4547333984375,-1.163580060005188,0.813251793384552,1.1323679685592651
1773521765216772400,3.4647724609375,-0.8841966986656189,0.1446942687034607,0.2999573051929474
1773521765226810000,3.47481005859375,-0.42160627245903015,-0.4214244484901428,-0.10301007330417633
1773521765236849400,3.484849365234375,0.04000820964574814,-0.6927976608276367,-0.2375018447637558
1773521765246888200,3.49488818359375,0.32085585594177246,-0.7397768497467041,-0.22712962329387665
1773521765256926200,3.50492626953125,0.4502122402191162,-0.6707714200019836,-0.13136661052703857
1773521765266965200,3.51496533203125,0.48873698711395264,-0.6706420183181763,-0.08110581338405609
1773521765277004300,3.52500439453125,0.5160708427429199,-0.518980860710144,-0.0804208517074585
1773521765287042000,3.5350419921875,0.6478002667427063,-0.2731490135192871,-0.04476427659392357
1773521765297081300,3.545081298828125,0.6852395534515381,-0.06978204101324081,0.003387006465345621
1773521765307120400,3.555120361328125,0.5124298930168152,0.31306037306785583,-0.024454187601804733
1773521765317158100,3.565158203125,0.0006638513877987862,0.5487173795700073,-0.05240805819630623
1773521765327197400,3.575197509765625,-0.6782763004302979,0.5441398620605469,0.11760027706623077
1773521765337236200,3.585236328125,-1.1981942653656006,0.43700167536735535,0.43597131967544556
1773521765347274200,3.595274169921875,-1.4623335599899292,0.4049656391143799,0.7001521587371826
1773521765357313300,3.605313232421875,-1.4591317176818848,0.5715468525886536,0.8024665713310242
1773521765367352300,3.615352294921875,-1.3638523817062378,0.7988134622573853,0.7857220768928528
1773521765377390000,3.62539013671875,-1.3564969301223755,0.9906854033470154,0.6945956349372864
1773521765387429000,3.63542919921875,-1.6657606363296509,0.8503516316413879,0.6267899870872498
1773521765397468400,3.645468505859375,-2.3685860633850098,0.5232230424880981,1.0300631523132324
1773521765407506200,3.655506103515625,-2.8252315521240234,0.3339173495769501,1.7649378776550293
1773521765417545200,3.665545166015625,-2.633847713470459,0.23855756223201752,2.3020973205566406
1773521765427584300,3.675584228515625,-2.435708522796631,0.552448034286499,2.2997069358825684
1773521765437622300,3.685622314453125,-2.1970326900482178,0.8818957209587097,2.1539056301116943
1773521765447661000,3.6956611328125,-2.0201151371002197,0.7942312955856323,1.8754128217697144
1773521765457700400,3.705700439453125,-1.8403903245925903,0.6824725866317749,1.724194884300232
1773521765467738000,3.715738037109375,-1.4700578451156616,0.2687070071697235,1.2039381265640259
1773521765477777200,3.725777099609375,-1.0145480632781982,-0.1210026815533638,0.45366594195365906
1773521765487816400,3.73581640625,-0.6414965987205505,-0.36872538924217224,-0.14820429682731628
1773521765497854200,3.745854248046875,-0.20070189237594604,-0.3757372200489044,-0.5804409384727478
1773521765507893200,3.755893310546875,0.40410295128822327,0.09937818348407745,-0.7627183198928833
1773521765517932300,3.765932373046875,1.1570364236831665,0.6627504229545593,-0.7624306678771973
1773521765527970300,3.77597021484375,1.6166396141052246,0.7647241353988647,-0.9339767098426819
1773521765538009000,3.786009033203125,1.5901105403900146,0.8432024717330933,-1.0415408611297607
1773521765548048400,3.79604833984375,1.3580132722854614,1.1700644493103027,-0.7406438589096069
1773521765558086100,3.806086181640625,1.0965489149093628,1.5015758275985718,-0.22217917442321777
1773521765568125200,3.816125244140625,0.8263356685638428,1.714512825012207,0.07239751517772675
1773521765578164200,3.826164306640625,0.49917274713516235,1.856611967086792,0.0875551626086235
1773521765588202200,3.8362021484375,0.17187120020389557,1.857509970664978,-0.08086763322353363
1773521765598241300,3.8462412109375,0.010929730720818043,1.6808929443359375,-0.3660098910331726
1773521765608280000,3.856280029296875,0.03577963262796402,1.3714700937271118,-0.7145925164222717
1773521765618318300,3.866318359375,0.12972211837768555,1.1169413328170776,-0.9959967136383057
1773521765628357000,3.876357177734375,0.18532150983810425,0.7657765746116638,-1.4088512659072876
1773521765638396200,3.886396240234375,0.12731413543224335,0.30851155519485474,-2.0280873775482178
1773521765648434200,3.89643408203125,0.13395902514457703,-0.22165778279304504,-2.538709878921509
1773521765658473200,3.90647314453125,0.40060296654701233,-0.5153179168701172,-2.784759998321533
1773521765668512300,3.91651220703125,0.8789126873016357,-0.25555190443992615,-2.444291591644287
1773521765678550300,3.92655029296875,1.3557010889053345,-0.11253242194652557,-1.6330227851867676
1773521765688589300,3.93658935546875,1.738413691520691,0.06506305932998657,-0.8436620831489563
1773521765698628000,3.946628173828125,1.9291309118270874,0.3434153199195862,-0.48487114906311035
1773521765708666400,3.956666259765625,1.8886455297470093,0.5261549353599548,-0.5422731637954712
1773521765718705200,3.966705078125,1.7102128267288208,0.7116014957427979,-0.6718071699142456
1773521765728744200,3.976744140625,1.4634037017822266,0.7632853984832764,-0.6300703883171082
1773521765738782200,3.9867822265625,1.3035473823547363,0.8490673899650574,-0.3109893500804901
1773521765748821200,3.9968212890625,1.2265386581420898,0.862311840057373,0.06828871369361877
1773521765758860300,4.0068603515625,1.1176766157150269,0.6803615093231201,0.2417643666267395
1773521765768898300,4.016898193359375,0.9812911748886108,0.4246353209018707,0.10904951393604279
1773521765778937300,4.026937255859375,0.8627398014068604,0.11083957552909851,-0.2430400848388672
1773521765788976000,4.03697607421875,0.8522219061851501,-0.16513262689113617,-0.5264659523963928
1773521765799014400,4.047014404296875,0.8811717629432678,-0.4073077142238617,-0.611642062664032
1773521765809053200,4.05705322265625,0.8676256537437439,-0.6744123697280884,-0.5356952548027039
1773521765819092200,4.06709228515625,0.913644552230835,-1.0953240394592285,-0.44430676102638245
1773521765829130200,4.077130126953125,1.0268328189849854,-1.5766161680221558,-0.4299386739730835
1773521765839169300,4.087169189453125,1.167484164237976,-1.9432634115219116,-0.48119014501571655
1773521765849208300,4.097208251953125,1.3451709747314453,-2.1137564182281494,-0.524405300617218
1773521765859246300,4.107246337890625,1.4833900928497314,-2.0998969078063965,-0.5821756720542908
1773521765869285400,4.117285400390625,1.5744361877441406,-2.184615135192871,-0.7031458020210266
1773521765879324200,4.12732421875,1.6844226121902466,-2.3660130500793457,-0.8134505152702332
1773521765889362400,4.137362548828125,1.7391899824142456,-2.4647724628448486,-0.9599205851554871
1773521765899401200,4.147401123046875,1.6718279123306274,-2.5444538593292236,-1.0939159393310547
1773521765909440300,4.157440185546875,1.5416676998138428,-2.5335257053375244,-1.1710612773895264
1773521765919478300,4.167478271484375,1.4083266258239746,-2.4230380058288574,-1.2171578407287598
1773521765929517300,4.177517333984375,1.272505283355713,-2.3082275390625,-1.237983226776123
1773521765939552500,4.187552490234375,1.1745333671569824,-2.338933229446411,-1.1885600090026855
1773521765949590800,4.1975908203125,1.101723313331604,-2.39920711517334,-1.076663851737976
1773521765959629800,4.2076298828125,1.0552796125411987,-2.427450656890869,-0.9943059682846069
1773521765969668600,4.217668701171875,1.0407273769378662,-2.3675246238708496,-0.9597317576408386
1773521765979707000,4.227706787109375,1.0275628566741943,-2.2347209453582764,-0.9709569811820984
1773521765989745700,4.23774560546875,0.9870167374610901,-2.1065738201141357,-1.0147703886032104
1773521765999784700,4.24778466796875,0.9507956504821777,-2.0043270587921143,-1.1012786626815796
1773521766009822700,4.25782275390625,0.951302170753479,-2.0124475955963135,-1.191726803779602
1773521766019861800,4.26786181640625,0.9213653206825256,-2.030414342880249,-1.211593747138977
1773521766029900500,4.277900634765625,0.8644939661026001,-1.963361144065857,-1.1731511354446411
1773521766039938800,4.287938720703125,0.8624662756919861,-1.8380740880966187,-1.115849494934082
1773521766049977600,4.2979775390625,0.9201318621635437,-1.7322545051574707,-1.050518274307251
1773521766060015600,4.308015625,1.110919713973999,-1.8578156232833862,-1.0793955326080322
1773521766070054700,4.3180546875,1.3234084844589233,-2.104424238204956,-1.2134284973144531
1773521766080093700,4.32809375,1.5610820055007935,-2.3276565074920654,-1.3789637088775635
1773521766090131700,4.338131591796875,1.8247995376586914,-2.530956745147705,-1.5587475299835205
1773521766100170500,4.34817041015625,2.0017638206481934,-2.6862165927886963,-1.7002148628234863
1773521766110209800,4.358209716796875,2.0597469806671143,-2.675464391708374,-1.7141767740249634
1773521766120247600,4.36824755859375,1.9405854940414429,-2.509979486465454,-1.6578913927078247
1773521766130286600,4.37828662109375,1.7792502641677856,-2.2462971210479736,-1.6577755212783813
1773521766140325600,4.38832568359375,1.8129973411560059,-2.0369374752044678,-1.6157639026641846
1773521766150363600,4.39836376953125,1.9562782049179077,-2.037923574447632,-1.4258339405059814
1773521766160402400,4.40840234375,1.9895710945129395,-1.8831815719604492,-1.1604667901992798
1773521766170441700,4.418441650390625,1.9327640533447266,-1.6776516437530518,-0.9971941709518433
1773521766180479700,4.428479736328125,1.8783652782440186,-1.4358371496200562,-0.9907957315444946
1773521766190518500,4.4385185546875,1.7114003896713257,-1.1601930856704712,-0.9615312814712524
1773521766200557800,4.448557861328125,1.409005045890808,-0.9838066101074219,-0.8319663405418396
1773521766210595600,4.458595703125,0.9954257607460022,-0.9382051229476929,-0.6213600635528564
1773521766220634600,4.468634521484375,0.48272520303726196,-0.9435786008834839,-0.3255648910999298
1773521766230673700,4.478673583984375,-0.0696837529540062,-0.9827414751052856,-0.006374160293489695
1773521766240711700,4.488711669921875,-0.5641994476318359,-0.9618380665779114,0.33153730630874634
1773521766250750500,4.49875048828125,-0.9827480912208557,-0.7996792197227478,0.5163503289222717
1773521766260789800,4.508789794921875,-1.4902989864349365,-0.490997850894928,0.6886650919914246
1773521766270827800,4.518827880859375,-2.076148509979248,-0.22730296850204468,0.8407580256462097
1773521766280866600,4.528866455078125,-2.6828744411468506,-0.0873088538646698,1.0236843824386597
1773521766290905600,4.538905517578125,-3.3054816722869873,-0.029107127338647842,1.182421326637268
1773521766300943600,4.548943603515625,-3.8907253742218018,0.042245082557201385,1.2644346952438354
1773521766310982700,4.558982666015625,-4.399258136749268,0.08463402837514877,1.321732997894287
1773521766321021400,4.569021484375,-4.687199592590332,0.1372506320476532,1.3376924991607666
1773521766331059700,4.579059814453125,-4.7148213386535645,0.38916295766830444,1.5520439147949219
1773521766341098500,4.589098388671875,-4.548749923706055,1.0429044961929321,1.7631555795669556
1773521766351137500,4.599137451171875,-4.372743129730225,1.8856480121612549,1.7359031438827515
1773521766361175600,4.609175537109375,-4.270900726318359,2.5786774158477783,1.4479163885116577
1773521766371214600,4.619214599609375,-4.222972869873047,2.8443117141723633,1.0446796417236328
1773521766381253600,4.629253662109375,-4.303463459014893,2.829286813735962,0.7601696252822876
1773521766391291600,4.639291748046875,-4.408421516418457,2.87739896774292,0.5815659165382385
1773521766401330700,4.64933056640625,-4.403357028961182,2.9438424110412598,0.5121463537216187
1773521766411368700,4.65936865234375,-4.257195472717285,2.797774076461792,0.598810076713562
1773521766421407700,4.66940771484375,-3.927877426147461,2.4897284507751465,0.7820307612419128
1773521766431446500,4.679446533203125,-3.290830612182617,2.01208233833313,0.9665988683700562
1773521766441484800,4.68948486328125,-2.302063226699829,1.5316764116287231,0.9203181862831116
1773521766451523600,4.699523681640625,-1.1157325506210327,0.9439443349838257,0.6225385665893555
1773521766461562600,4.709562744140625,0.14054444432258606,0.40610697865486145,0.18609224259853363
1773521766471601000,4.719600830078125,1.3036187887191772,-0.07893512398004532,-0.2653253972530365
1773521766481639700,4.7296396484375,2.364046096801758,-0.4101050794124603,-0.5519608855247498
1773521766491678700,4.7396787109375,3.341550588607788,-0.5520938038825989,-0.605500340461731
1773521766501716700,4.749716796875,4.11693000793457,-0.49275296926498413,-0.5507976412773132
1773521766511755800,4.759755859375,4.650091648101807,-0.25680071115493774,-0.5002663135528564
1773521766521794600,4.769794677734375,5.0732831954956055,-0.0056555611081421375,-0.4332728981971741
1773521766531832600,4.77983251953125,5.490855693817139,0.25744694471359253,-0.4091198146343231
1773521766541871600,4.78987158203125,5.866435527801514,0.5522729754447937,-0.5117500424385071
1773521766551910700,4.79991064453125,6.140910625457764,0.8879162669181824,-0.777929961681366
1773521766561948400,4.809948486328125,6.235942840576172,1.1512280702590942,-1.2274813652038574
1773521766571987700,4.81998779296875,6.13884162902832,1.1282559633255005,-1.8343385457992554
1773521766582026800,4.83002685546875,5.9731268882751465,0.9155482053756714,-2.509465217590332
1773521766592064500,4.840064453125,5.848796844482422,0.6896244287490845,-3.074906826019287
1773521766602103800,4.850103759765625,5.797325134277344,0.675085186958313,-3.3378689289093018
1773521766612141600,4.8601416015625,5.805370807647705,0.8755688071250916,-3.231921911239624
1773521766622180600,4.8701806640625,5.935296535491943,1.0336215496063232,-2.8910560607910156
1773521766632219600,4.8802197265625,6.259440898895264,1.0482226610183716,-2.432310104370117
1773521766642257700,4.890257568359375,6.744561195373535,0.6612882614135742,-1.979678988456726
1773521766652296400,4.90029638671875,6.999208927154541,-0.0005413375329226255,-1.6329405307769775
1773521766662335700,4.910335693359375,6.629073143005371,-0.7063642740249634,-1.4774222373962402
1773521766672373800,4.920373779296875,5.696213722229004,-1.0913703441619873,-1.5799931287765503
1773521766682412500,4.93041259765625,4.366466522216797,-1.3026067018508911,-1.9976085424423218
1773521766692451800,4.940451904296875,3.115983724594116,-1.6364586353302002,-2.4014837741851807
1773521766702489600,4.950489501953125,2.317741632461548,-1.7677778005599976,-2.3921711444854736
1773521766712528600,4.960528564453125,1.8540908098220825,-1.5921591520309448,-2.0138659477233887
1773521766722567700,4.970567626953125,1.5381954908370972,-1.4357441663742065,-1.4488667249679565
1773521766732605700,4.980605712890625,1.4175597429275513,-1.4146473407745361,-0.8764109015464783
1773521766742644500,4.99064453125,1.4180737733840942,-1.5398913621902466,-0.49354422092437744
1773521766752683500,5.00068359375,1.4570106267929077,-1.3263524770736694,-0.5318422317504883
1773521766762721500,5.010721435546875,1.447060227394104,-0.8114063739776611,-0.9735336303710938
1773521766772760600,5.020760498046875,1.3505207300186157,-0.1467578411102295,-1.5939431190490723
1773521766782799600,5.030799560546875,1.2670215368270874,0.577507495880127,-2.132533073425293
1773521766792837600,5.040837646484375,1.2710248231887817,1.7396273612976074,-2.5796256065368652
1773521766802876700,5.050876708984375,1.212620735168457,3.573817014694214,-2.844083547592163
1773521766812914700,5.060914794921875,1.172712802886963,5.109444618225098,-3.023010492324829
1773521766822953700,5.07095361328125,1.2331050634384155,5.405730247497559,-3.1096725463867188
1773521766832992500,5.080992431640625,1.833335041999817,5.286885738372803,-2.4555251598358154
1773521766843030800,5.09103076171875,3.0222065448760986,5.45309591293335,-1.7733322381973267
1773521766853069600,5.101069580078125,3.9973244667053223,5.344795227050781,-1.3000209331512451
1773521766863108600,5.111108642578125,4.715559959411621,5.150937557220459,-0.9901246428489685
1773521766873147000,5.12114697265625,5.2877678871154785,5.03471040725708,-0.9519768357276917
1773521766883185700,5.131185546875,3.583127975463867,8.208809852600098,-0.32070809602737427
1773521766893224700,5.141224609375,2.080357074737549,12.091526985168457,0.28211963176727295
1773521766903262700,5.1512626953125,1.426891803741455,12.3167142868042,0.3947218358516693
1773521766913301800,5.1613017578125,1.2789726257324219,9.7767915725708,1.1536650657653809
1773521766923340500,5.171340576171875,1.382098913192749,0.01685466803610325,3.889644145965576
1773521766933379300,5.18137939453125,-0.6448348760604858,-2.5799505710601807,4.281702041625977
1773521766943418600,5.191418701171875,-3.4735124111175537,-3.853053569793701,2.8442044258117676
1773521766953457700,5.201457763671875,-4.260560989379883,-3.504129409790039,1.8151426315307617
1773521766963495400,5.211495361328125,-3.1444082260131836,-1.2815269231796265,0.9210729002952576
1773521766973534500,5.221534423828125,-1.7141419649124146,0.6891399621963501,-0.28893688321113586
1773521766983572500,5.231572509765625,-1.1541210412979126,0.20250293612480164,-1.0238795280456543
1773521766993611500,5.241611572265625,-1.1769152879714966,-0.8482997417449951,-1.7540949583053589
1773521767003650300,5.251650390625,-1.2643569707870483,-1.788862943649292,-2.7670516967773438
1773521767013688600,5.2616884765625,-1.3328176736831665,-2.673570394515991,-3.5133941173553467
1773521767023727400,5.271727294921875,-1.2355455160140991,-3.280348300933838,-3.908193349838257
1773521767033766400,5.281766357421875,-1.001276969909668,-3.8198935985565186,-3.8464324474334717
1773521767043804400,5.291804443359375,-0.9244226217269897,-4.250744342803955,-3.4397292137145996
1773521767053843500,5.301843505859375,-1.233906865119934,-4.022075653076172,-2.983914613723755
1773521767063882500,5.311882568359375,-1.8398449420928955,-3.466163158416748,-2.6182925701141357
1773521767073920500,5.32192041015625,-2.523123264312744,-2.9624907970428467,-2.355172634124756
1773521767083959600,5.33195947265625,-3.0321500301361084,-2.5301895141601562,-2.158820152282715
1773521767093997600,5.34199755859375,-3.223663091659546,-2.242572546005249,-1.9518897533416748
1773521767104036600,5.35203662109375,-3.1389002799987793,-1.961984634399414,-1.778968095779419
1773521767114075400,5.362075439453125,-2.921231746673584,-1.5741384029388428,-1.8436331748962402
1773521767124113700,5.37211376953125,-2.9100663661956787,-1.4423390626907349,-1.9697842597961426
1773521767134152400,5.38215234375,-3.1858456134796143,-1.3229460716247559,-2.144254684448242
1773521767144191500,5.39219140625,-3.648009777069092,-1.233939290046692,-2.3288650512695312
1773521767154229500,5.4022294921875,-4.109614849090576,-1.0789152383804321,-2.4927008152008057
1773521767164268500,5.4122685546875,-4.397934913635254,-1.0037773847579956,-2.626140832901001
1773521767174307600,5.4223076171875,-4.454980850219727,-1.1017214059829712,-2.7734363079071045
1773521767184345600,5.432345703125,-4.49379301071167,-1.4959965944290161,-3.001821517944336
1773521767194384600,5.442384521484375,-4.696232318878174,-2.3972864151000977,-3.3915507793426514
1773521767204422400,5.45242236328125,-4.758929252624512,-3.598369836807251,-3.9779624938964844
1773521767214461400,5.46246142578125,-4.415279865264893,-5.438150405883789,-4.8108229637146
1773521767224500500,5.47250048828125,-3.661198139190674,-7.192266464233398,-5.927574157714844
1773521767234538500,5.48253857421875,-2.7996137142181396,-8.022587776184082,-7.161128044128418
1773521767244577300,5.492577392578125,-2.2915101051330566,-7.679760456085205,-8.025747299194336
1773521767254616600,5.502616455078125,-2.4257147312164307,-6.5869832038879395,-8.1188325881958
1773521767264654300,5.512654296875,-3.006511926651001,-5.058811187744141,-7.53886604309082
1773521767274693400,5.522693359375,-3.462148666381836,-3.6048028469085693,-6.469852447509766
1773521767284732700,5.532732666015625,-3.521326780319214,-2.279113531112671,-5.142121315002441
1773521767294770400,5.5427705078125,-3.1823067665100098,-0.8268722295761108,-3.9169023036956787
1773521767304809500,5.5528095703125,-2.6081607341766357,0.3924509882926941,-3.053077459335327
1773521767314847500,5.562847412109375,-2.031851291656494,1.011120080947876,-2.492255210876465
1773521767324886500,5.572886474609375,-1.4799267053604126,1.314465045928955,-2.2505760192871094
1773521767334925300,5.58292529296875,-1.015956163406372,1.6714942455291748,-2.151460647583008
1773521767344963600,5.592963623046875,-0.6270433664321899,1.926358938217163,-2.095078468322754
1773521767355002400,5.60300244140625,-0.32471951842308044,2.034013271331787,-1.9965542554855347
1773521767365041400,5.61304150390625,-0.10392747074365616,2.160372495651245,-1.8325965404510498
1773521767375079400,5.623079345703125,0.0885009691119194,2.380295515060425,-1.6311366558074951
1773521767385118500,5.633118408203125,0.13463197648525238,2.853158473968506,-1.3566558361053467
1773521767395156500,5.643156494140625,0.1735905259847641,3.351775884628296,-1.0381717681884766
1773521767405195500,5.653195556640625,0.29353079199790955,3.7865359783172607,-0.7630488872528076
1773521767415234600,5.663234619140625,0.6309432983398438,4.120166301727295,-0.6843281388282776
1773521767425272600,5.6732724609375,1.2710849046707153,4.229705333709717,-0.8607354164123535
1773521767435311600,5.6833115234375,1.8791104555130005,3.8937833309173584,-1.095072627067566
1773521767445350400,5.693350341796875,2.3400397300720215,3.4525015354156494,-1.2647035121917725
1773521767455388700,5.703388671875,2.6658284664154053,3.4751644134521484,-1.390044927597046
1773521767465427500,5.713427490234375,2.879063606262207,3.924611806869507,-1.4639703035354614
1773521767475466500,5.723466552734375,2.961649179458618,4.562767028808594,-1.4680190086364746
1773521767485504500,5.73350439453125,1.9228405952453613,5.463940143585205,-1.0210587978363037
1773521767495543600,5.74354345703125,0.1267033815383911,5.73669958114624,-0.23533155024051666
1773521767505581300,5.753581298828125,-1.8882765769958496,4.821013450622559,0.5184605121612549
1773521767515620400,5.763620361328125,-2.9240334033966064,3.137730360031128,0.9720752239227295
1773521767525659600,5.77365966796875,-2.670034408569336,2.3181962966918945,0.7537370324134827
1773521767535697400,5.783697509765625,-1.6613574028015137,1.8342714309692383,0.15820157527923584
1773521767545736400,5.793736328125,-0.2755047380924225,1.0757861137390137,-0.10849454998970032
1773521767555775500,5.803775390625,1.195807695388794,0.06401214003562927,0.015605463646352291
1773521767565813500,5.8138134765625,2.183088779449463,-1.006467342376709,0.22882772982120514
1773521767575852300,5.823852294921875,2.5803418159484863,-1.4421520233154297,0.24014578759670258
1773521767585890600,5.833890625,2.5375359058380127,-1.303680419921875,0.11789684742689133
1773521767595929300,5.843929443359375,2.3809852600097656,-0.9211105108261108,0.12652407586574554
1773521767605968400,5.853968505859375,2.265348434448242,-0.23582033812999725,0.29712429642677307
1773521767616006400,5.86400634765625,2.355799674987793,0.827309250831604,0.5599979162216187
1773521767626045400,5.87404541015625,2.679943084716797,1.7232164144515991,0.8348132371902466
1773521767636083700,5.884083740234375,3.1367342472076416,2.204495429992676,0.9508312344551086
1773521767646122500,5.89412255859375,3.590280771255493,2.283747434616089,0.8104288578033447
1773521767656161500,5.90416162109375,3.9547677040100098,1.8559705018997192,0.4679432809352875
1773521767666199600,5.914199462890625,3.9544694423675537,1.4576932191848755,0.2929309904575348
1773521767676238600,5.924238525390625,3.1615073680877686,1.2298067808151245,0.45983731746673584
1773521767686277400,5.93427734375,2.3742902278900146,1.5212225914001465,0.8839094638824463
1773521767696315600,5.944315673828125,2.2921769618988037,1.6889156103134155,1.1108475923538208
1773521767706354400,5.9543544921875,2.677363634109497,1.0536994934082031,0.7396819591522217
1773521767716392400,5.964392333984375,2.560615062713623,0.42346975207328796,0.05357249453663826
1773521767726431500,5.974431396484375,2.084209442138672,0.25228041410446167,-0.4542720913887024
1773521767736470500,5.984470458984375,1.6626299619674683,0.5292219519615173,-0.503997802734375
1773521767746508500,5.994508544921875,1.4550822973251343,0.8783469200134277,-0.20333009958267212
1773521767756547300,6.00454736328125,1.509868860244751,0.8912861943244934,0.0767149031162262
1773521767766586600,6.014586669921875,1.5785858631134033,0.7029407620429993,0.2977748215198517
1773521767776624400,6.024624267578125,1.6448074579238892,0.27784964442253113,0.3633747696876526
1773521767786663400,6.034663330078125,1.6237764358520508,-0.24254962801933289,0.3015369772911072
1773521767796701400,6.044701416015625,1.442660927772522,-0.7504189610481262,0.17220185697078705
1773521767806740500,6.054740478515625,1.4805169105529785,-1.1635795831680298,-0.059052396565675735
1773521767816779300,6.064779296875,1.556835412979126,-1.6697896718978882,-0.3276914358139038
1773521767826817500,6.074817626953125,1.6064343452453613,-2.2640292644500732,-0.5743600726127625
1773521767836856600,6.084856689453125,1.6793315410614014,-2.7346103191375732,-0.7305710315704346
1773521767846895400,6.094895263671875,1.692136526107788,-2.9220099449157715,-0.8645551800727844
1773521767856933600,6.10493359375,1.7139513492584229,-2.7558977603912354,-0.9745302200317383
1773521767866972400,6.114972412109375,1.6675846576690674,-2.4227051734924316,-1.1329087018966675
1773521767877010700,6.1250107421875,1.702609658241272,-1.9944431781768799,-1.2755837440490723
1773521767887049500,6.135049560546875,1.7419557571411133,-1.998307228088379,-1.4507408142089844
1773521767897088500,6.145088623046875,1.9373115301132202,-1.9668123722076416,-1.5235595703125
1773521767907126500,6.15512646484375,2.122422456741333,-1.6764678955078125,-1.2792073488235474
1773521767917165600,6.16516552734375,2.0434741973876953,-1.4061391353607178,-0.9804018139839172
1773521767927203300,6.175203369140625,1.6918385028839111,-1.124264121055603,-0.9091519117355347
1773521767937246000,6.185245849609375,1.2999807596206665,-0.836919367313385,-0.8518610000610352
1773521767947284700,6.19528466796875,1.0686694383621216,-0.5119665861129761,-0.7473036646842957
1773521767957322800,6.20532275390625,0.8453229069709778,-0.12217686325311661,-0.6080519556999207
1773521767967361800,6.21536181640625,0.6209509968757629,0.25128114223480225,-0.3685259521007538
1773521767977399800,6.22539990234375,0.3210068941116333,0.6314869523048401,-0.24822917580604553
1773521767987438600,6.2354384765625,0.06651999801397324,0.8583033084869385,-0.18999063968658447
1773521767997478000,6.245477783203125,-0.05350320041179657,0.9095132350921631,-0.11503973603248596
1773521768007515600,6.255515625,-0.05992567539215088,0.7654053568840027,-0.09644580632448196
1773521768017554700,6.2655546875,-0.09927242994308472,0.5618714094161987,-0.14395885169506073
1773521768027593700,6.27559375,-0.06607639789581299,0.5351322293281555,-0.2536722719669342
1773521768037631700,6.2856318359375,0.1480875462293625,0.5845409035682678,-0.335524320602417
1773521768047670800,6.2956708984375,0.47186478972435,0.6315521001815796,-0.5647292733192444
1773521768057708800,6.305708740234375,0.9068828225135803,0.3108937442302704,-0.7704111933708191
1773521768067747800,6.315747802734375,1.116339921951294,-0.08008469641208649,-0.8443149328231812
1773521768077786600,6.32578662109375,1.3937448263168335,-0.2931077182292938,-0.9671282172203064
1773521768087825000,6.335824951171875,1.4108563661575317,-0.30961745977401733,-0.9536462426185608
1773521768097863700,6.34586376953125,1.1363672018051147,-0.09070493280887604,-0.8060877323150635
1773521768107901700,6.355901611328125,0.7288685441017151,0.14861737191677094,-0.6315438747406006
1773521768117940700,6.365940673828125,0.15221357345581055,0.12405962496995926,-0.3960702121257782
1773521768127979800,6.375979736328125,-0.3860112726688385,-0.11320538818836212,-0.2024320513010025
1773521768138017500,6.386017578125,-0.7628932595252991,-0.12094846367835999,-0.12401828169822693
1773521768148056800,6.396056884765625,-1.1683963537216187,0.3998585343360901,-0.053878333419561386
1773521768158096000,6.406095947265625,-1.8832955360412598,0.8304557204246521,0.5596315860748291
1773521768168133600,6.416133544921875,-2.9040188789367676,1.4696930646896362,1.4808086156845093
1773521768178173000,6.4261728515625,-3.934624195098877,1.7167975902557373,2.363058567047119
1773521768188210700,6.436210693359375,-4.853463649749756,1.4185494184494019,2.9424898624420166
1773521768198249700,6.446249755859375,-5.590270519256592,0.768747866153717,3.1667983531951904
1773521768208288800,6.456288818359375,-5.942079544067383,-0.11187001317739487,3.161890983581543
1773521768218326800,6.466326904296875,-5.975394248962402,-0.9378440976142883,2.9293465614318848
1773521768228365600,6.476365478515625,-5.863283157348633,-1.7368617057800293,2.3734354972839355
1773521768238403800,6.48640380859375,-5.661086082458496,-2.3447954654693604,1.4188724756240845
1773521768248442600,6.496442626953125,-5.345749378204346,-2.426074743270874,0.2330014407634735
1773521768258481700,6.506481689453125,-4.737360954284668,-2.5406277179718018,-0.9317696690559387
1773521768268519700,6.516519775390625,-3.74695086479187,-2.0679967403411865,-1.652757167816162
1773521768278558700,6.526558837890625,-1.8786934614181519,-0.16426007449626923,-0.6579881310462952
1773521768288596700,6.5365966796875,0.19398696720600128,0.9815860390663147,0.6212085485458374
1773521768298635800,6.5466357421875,1.5347061157226562,1.2177519798278809,1.1117085218429565
1773521768308674800,6.5566748046875,2.0440874099731445,1.518656611442566,0.9780912399291992
1773521768318712800,6.566712890625,2.3236186504364014,2.0739526748657227,0.467773973941803
1773521768328751900,6.576751953125,2.3984625339508057,2.3824784755706787,-0.08597978204488754
1773521768338790700,6.586790771484375,2.254011392593384,2.578855037689209,-0.39108559489250183
1773521768348828700,6.59682861328125,2.034738302230835,2.8356688022613525,-0.6154047250747681
1773521768358867700,6.60686767578125,1.8098191022872925,2.4819040298461914,-0.8850963115692139
1773521768368905700,6.61690576171875,1.4899787902832031,1.7205857038497925,-1.0852503776550293
1773521768378944500,6.626944580078125,1.1192964315414429,0.7950804829597473,-1.0939322710037231
1773521768388983800,6.63698388671875,0.727175772190094,0.22807753086090088,-0.9424530267715454
1773521768399021600,6.647021484375,0.19384251534938812,-0.09502449631690979,-0.7007977366447449
1773521768409060600,6.657060546875,-0.44028863310813904,-0.43588724732398987,-0.48370641469955444
1773521768419099000,6.667098876953125,-1.0778753757476807,-0.9527342915534973,-0.3671398460865021
1773521768429137700,6.6771376953125,-1.6548081636428833,-1.4105433225631714,-0.2951796352863312
1773521768439176700,6.6871767578125,-2.0904011726379395,-1.8821271657943726,-0.08379042893648148
1773521768449214700,6.697214599609375,-2.2672970294952393,-2.0944273471832275,0.3925319314002991
1773521768459253800,6.707253662109375,-2.119502067565918,-1.7257602214813232,1.0555636882781982
1773521768469291800,6.717291748046875,-1.8843575716018677,-1.021196961402893,1.5968570709228516
1773521768479330800,6.727330810546875,-1.658555269241333,-0.38127467036247253,1.9082461595535278
1773521768489369600,6.73736962890625,-1.5219992399215698,-0.020898398011922836,2.039125919342041
1773521768499408000,6.747407958984375,-1.5811171531677246,0.012306680902838707,2.0731325149536133
1773521768509446700,6.75744677734375,-1.9255785942077637,-0.19150635600090027,2.0631704330444336
1773521768519484700,6.767484619140625,-2.455104351043701,-0.29796233773231506,2.0662856101989746
1773521768529524000,6.77752392578125,-2.943624496459961,-0.05104416236281395,2.1152608394622803
1773521768539562800,6.787562744140625,-3.4225480556488037,0.3902569115161896,2.135207176208496
1773521768549600800,6.797600830078125,-3.8756041526794434,1.1856192350387573,1.9460755586624146
1773521768559639800,6.807639892578125,-4.20198392868042,2.3485889434814453,1.341462254524231
1773521768569678800,6.817678955078125,-4.442739009857178,3.326469898223877,0.5990018844604492
1773521768579716600,6.827716552734375,-4.311856746673584,5.349467754364014,2.941840171813965
1773521768589755600,6.837755615234375,-4.510257244110107,4.195458889007568,2.0629637241363525
1773521768599793700,6.847793701171875,-4.5137834548950195,2.9079878330230713,1.0509475469589233
1773521768609832700,6.857832763671875,-3.691028118133545,1.7367874383926392,-0.03684528172016144
1773521768619871700,6.867871826171875,-3.163085460662842,0.6675958037376404,-0.1410485953092575
1773521768629909800,6.87790966796875,-2.45768404006958,0.6044179201126099,0.04463072121143341
1773521768639948800,6.88794873046875,-1.7009668350219727,1.5925407409667969,-0.9107114672660828
1773521768649986800,6.89798681640625,-0.885452151298523,1.1039295196533203,-1.2682172060012817
1773521768660025900,6.90802587890625,-0.32485806941986084,-0.08953522145748138,-1.5595781803131104
1773521768670064600,6.918064697265625,-0.028754495084285736,-0.8270716071128845,-1.555468201637268
1773521768680103000,6.92810302734375,0.16584104299545288,-0.9826440215110779,-1.1536204814910889
1773521768690141700,6.9381416015625,0.3815067410469055,-0.7069317698478699,-0.6171115040779114
1773521768700179700,6.9481796875,0.42420798540115356,-0.7002432942390442,-0.38685813546180725
1773521768710218800,6.95821875,0.3530890643596649,-0.8693588376045227,-0.35081252455711365
1773521768720257800,6.9682578125,0.09603328257799149,-1.0802892446517944,-0.3465959429740906
1773521768730295600,6.978295654296875,-0.26705729961395264,-1.0176138877868652,-0.22418084740638733
1773521768740334800,6.9883349609375,-0.5065659880638123,-1.12565016746521,-0.17860211431980133
1773521768750372600,6.99837255859375,-0.5962122082710266,-1.303841233253479,-0.11183027923107147
1773521768760411600,7.00841162109375,-0.5722353458404541,-1.2557085752487183,0.02082560583949089
1773521768770451000,7.018450927734375,-0.44891446828842163,-0.9914771914482117,0.205373615026474
1773521768780488700,7.02848876953125,-0.3062778115272522,-0.6128935813903809,0.3255707323551178
1773521768790527700,7.03852783203125,-0.23282331228256226,-0.4181009829044342,0.24935506284236908
1773521768800565800,7.048565673828125,-0.2562400698661804,-0.3938596248626709,0.05725794658064842
1773521768810604800,7.058604736328125,-0.3391876816749573,-0.3017515540122986,-0.04985412582755089
1773521768820643600,7.0686435546875,-0.48860427737236023,-0.2522457540035248,-0.059819772839546204
1773521768830681900,7.078681884765625,-0.5900943875312805,-0.4736729562282562,-0.07948135584592819
1773521768840720600,7.088720703125,-0.4767184257507324,-0.7362111806869507,-0.06611443310976028
1773521768850759700,7.098759765625,-0.5122220516204834,-0.718845546245575,0.15163280069828033
1773521768860797700,7.108797607421875,-0.8257173299789429,-0.3709897994995117,0.6650804877281189
1773521768870836700,7.118836669921875,-0.8033270835876465,-0.4586852788925171,0.5426807999610901
1773521768880874800,7.128874755859375,-0.6263740062713623,-1.049177885055542,-0.030904637649655342
1773521768890913800,7.138913818359375,-0.7674496173858643,-1.501521348953247,-0.41854825615882874
1773521768900952800,7.148952880859375,-0.8469155430793762,-1.6662780046463013,-0.706878662109375
1773521768910990600,7.158990478515625,-0.8053334951400757,-1.5945968627929688,-0.647788941860199
1773521768921030000,7.16902978515625,-0.9657342433929443,-1.8136510848999023,-0.42132437229156494
1773521768931067600,7.179067626953125,-1.392696738243103,-1.8614872694015503,-0.5473645925521851
1773521768941102300,7.189102294921875,-2.443716526031494,-2.082667589187622,-0.35858163237571716
1773521768951141400,7.199141357421875,-3.737525701522827,-2.9680206775665283,-0.11997225135564804
1773521768961179100,7.20917919921875,-4.943797588348389,-2.905970811843872,0.21674823760986328
1773521768971218400,7.219218505859375,-5.235350608825684,-1.0994722843170166,1.1924628019332886
1773521768981256200,7.229256103515625,-4.604245662689209,-1.0415664911270142,1.6637120246887207
1773521768991295200,7.239295166015625,-4.17599630355835,-2.264416217803955,1.4087883234024048
1773521769001334500,7.24933447265625,-3.8893253803253174,-2.023315668106079,1.6210976839065552
1773521769011372300,7.259372314453125,-3.42429256439209,-2.07334566116333,1.5498086214065552
1773521769021411300,7.269411376953125,-2.8395369052886963,-2.410348892211914,1.3720269203186035
1773521769031449300,7.279449462890625,-2.2333853244781494,-2.3943240642547607,1.187009572982788
1773521769041488400,7.28948828125,-1.6612364053726196,-2.252328395843506,0.9729107618331909
1773521769051527200,7.299527099609375,-1.1123123168945312,-1.7558926343917847,0.733659029006958
1773521769061565400,7.3095654296875,-0.5678513646125793,-1.368705153465271,0.48574748635292053
1773521769071604200,7.319604248046875,-0.29455986618995667,-0.9480580687522888,0.2859925627708435
1773521769081642500,7.329642578125,-0.17860102653503418,-0.4207865595817566,0.11338093876838684
1773521769091681500,7.339681640625,0.032127171754837036,-0.030186587944626808,-0.1555493324995041
1773521769101720300,7.34972021484375,0.07817116379737854,0.18668903410434723,-0.5242542624473572
1773521769111758600,7.359758544921875,0.026414230465888977,0.30803143978118896,-0.9392240643501282
1773521769121797400,7.36979736328125,-0.001522749662399292,0.4914286732673645,-1.2515361309051514
1773521769131836400,7.37983642578125,0.07223057001829147,0.7903681993484497,-1.4888023138046265
1773521769141874400,7.38987451171875,0.26683828234672546,1.003158688545227,-1.7284218072891235
1773521769151913500,7.39991357421875,0.3806559145450592,0.89616459608078,-1.8354910612106323
1773521769161951200,7.409951171875,0.2765372097492218,0.511223554611206,-1.4570574760437012
1773521769171990300,7.419990234375,0.04886731505393982,0.015042873099446297,-0.6131954789161682
1773521769182029300,7.430029296875,-0.25855952501296997,-0.2986755669116974,0.1954965740442276
1773521769192067300,7.4400673828125,-0.5229605436325073,-0.4641526937484741,0.6095004081726074
1773521769202106400,7.4501064453125,-0.6809093952178955,-0.47231894731521606,0.6838140487670898
1773521769212144400,7.460144287109375,-0.7454795837402344,-0.35633936524391174,0.5706981420516968
1773521769222183400,7.470183349609375,-0.7844701409339905,-0.1800958663225174,0.41234469413757324
1773521769232222200,7.48022216796875,-0.8339282274246216,-0.006404243875294924,0.307568222284317
1773521769242260500,7.490260498046875,-0.865531861782074,0.13199453055858612,0.25578561425209045
1773521769252299300,7.50029931640625,-0.8367875814437866,0.253099650144577,0.24205675721168518
1773521769262337500,7.510337646484375,-0.7576109170913696,0.3924300968647003,0.2431553453207016
1773521769272376300,7.520376220703125,-0.6544890403747559,0.534687876701355,0.2419838160276413
1773521769282415400,7.530415283203125,-0.5378485321998596,0.6462131142616272,0.20884700119495392
1773521769292453400,7.540453369140625,-0.4228487014770508,0.6978381872177124,0.14561450481414795
1773521769302492400,7.550492431640625,-0.3108200430870056,0.6779150366783142,0.051108259707689285
1773521769312530200,7.5605302734375,-0.20481640100479126,0.6132122278213501,-0.07290742546319962
1773521769322569500,7.570569580078125,-0.09082113206386566,0.5121616125106812,-0.21324707567691803
1773521769332608500,7.5806083984375,0.02225002646446228,0.42606300115585327,-0.3599105477333069
1773521769342646300,7.590646240234375,0.10855702310800552,0.39226657152175903,-0.5056217908859253
1773521769352685600,7.600685546875,0.1730223000049591,0.39950263500213623,-0.6261053085327148
1773521769362723300,7.610723388671875,0.19748008251190186,0.4457938075065613,-0.7212739586830139
1773521769372762400,7.620762451171875,0.17103488743305206,0.48193609714508057,-0.7886618375778198
1773521769382801400,7.630801513671875,0.11533010005950928,0.5240185260772705,-0.843530535697937
1773521769392839400,7.64083935546875,0.11890299618244171,0.5049859881401062,-0.8748229146003723
1773521769402878200,7.650878173828125,0.18768616020679474,0.4147805869579315,-0.889863908290863
1773521769412916500,7.66091650390625,0.2560444474220276,0.2517693042755127,-0.8907414674758911
1773521769422955300,7.670955322265625,0.3065297305583954,0.019767753779888153,-0.8557595014572144
1773521769432994300,7.680994384765625,0.3673289120197296,-0.2946341335773468,-0.799835741519928
1773521769443032300,7.6910322265625,0.4614782929420471,-0.6761049032211304,-0.68906170129776
1773521769453071400,7.7010712890625,0.556620717048645,-1.0086891651153564,-0.5394482612609863
1773521769463109400,7.711109375,0.6120383739471436,-1.2531520128250122,-0.24119432270526886
1773521769473148400,7.7211484375,0.5835263133049011,-1.3610504865646362,0.3274582326412201
1773521769483187500,7.7311875,0.48731324076652527,-1.2902588844299316,1.041035532951355
1773521769493225200,7.74122509765625,0.3515615165233612,-1.1324479579925537,1.5533955097198486
1773521769503264500,7.751264404296875,0.2137015461921692,-0.865372896194458,1.7706072330474854
1773521769513303300,7.76130322265625,0.019690267741680145,-0.39366716146469116,1.7985416650772095
1773521769523341300,7.77134130859375,-0.18539880216121674,0.2882668077945709,1.7238019704818726
1773521769533380400,7.78138037109375,-0.34463372826576233,1.0914157629013062,1.617099404335022
1773521769543418400,7.79141845703125,-0.3987724483013153,1.8576546907424927,1.5141818523406982
1773521769553457200,7.80145703125,-0.3280133306980133,2.3724169731140137,1.4599887132644653
1773521769563496400,7.811496337890625,-0.16503125429153442,2.5217275619506836,1.485059142112732
1773521769573534200,7.8215341796875,0.03059070184826851,2.3869400024414062,1.5775092840194702
1773521769583573200,7.8315732421875,0.19187317788600922,2.085339307785034,1.7177366018295288
1773521769593611500,7.841611572265625,0.24234648048877716,1.7906123399734497,1.865559697151184
1773521769603650300,7.851650390625,0.20897498726844788,1.6420531272888184,1.9761888980865479
1773521769613689300,7.861689453125,0.15847079455852509,1.600982904434204,2.0096938610076904
1773521769623727400,7.871727294921875,0.14668472111225128,1.6045972108840942,1.96597421169281
1773521769633766400,7.881766357421875,0.16459208726882935,1.6297308206558228,1.864732265472412
1773521769643804400,7.891804443359375,0.1905680000782013,1.6914182901382446,1.7243446111679077
1773521769653843500,7.901843505859375,0.18064479529857635,1.7745059728622437,1.5596094131469727
1773521769663882200,7.91188232421875,0.1365751326084137,1.8403879404067993,1.3911504745483398
1773521769673920500,7.92192041015625,0.08788777142763138,1.8475499153137207,1.2408303022384644
1773521769683959300,7.931959228515625,0.08284972608089447,1.752297282218933,1.1434332132339478
1773521769693997300,7.941997314453125,0.13320398330688477,1.5031955242156982,1.1192021369934082
1773521769704036400,7.952036376953125,0.19827763736248016,1.1729722023010254,1.1221249103546143
1773521769714075400,7.962075439453125,0.24489572644233704,0.7978443503379822,1.1316635608673096
1773521769724113400,7.972113525390625,0.27185821533203125,0.43382444977760315,1.1418715715408325
1773521769734152200,7.982152099609375,0.27187207341194153,0.15080150961875916,1.1476948261260986
1773521769744190500,7.9921904296875,0.24864575266838074,-0.01903597265481949,1.1536697149276733
1773521769754229200,8.002229248046875,0.21387764811515808,-0.09715607017278671,1.1564010381698608
1773521769764268300,8.012268310546874,0.20382358133792877,-0.14261876046657562,1.1563752889633179
1773521769774306300,8.022306396484375,0.20304754376411438,-0.1664828062057495,1.12198805809021
1773521769784345300,8.032345458984375,0.20781417191028595,-0.18917216360569,1.0487843751907349
1773521769794383400,8.04238330078125,0.21098174154758453,-0.19490328431129456,0.9363030791282654
1773521769804422400,8.05242236328125,0.21747586131095886,-0.2015841156244278,0.8059009909629822
1773521769814461400,8.06246142578125,0.213727205991745,-0.23312126100063324,0.6704222559928894
1773521769824499500,8.07249951171875,0.2040203958749771,-0.26586028933525085,0.5149889588356018
1773521769834538500,8.08253857421875,0.17848120629787445,-0.3029402792453766,0.3560490906238556
1773521769844576300,8.092576171875,0.12789180874824524,-0.3638637959957123,0.19893990457057953
1773521769854615600,8.102615478515625,0.01382595393806696,-0.39340758323669434,0.05438511446118355
1773521769864654300,8.112654296875,-0.07355896383523941,-0.4276254177093506,-0.056417062878608704
1773521769874692400,8.1226923828125,-0.1454818993806839,-0.40894439816474915,-0.14885538816452026
1773521769884731400,8.1327314453125,-0.14636626839637756,-0.42080461978912354,-0.21776250004768372
1773521769894769400,8.142769287109376,-0.11710238456726074,-0.43481549620628357,-0.2573021650314331
1773521769904808200,8.15280810546875,-0.02135438099503517,-0.43018466234207153,-0.2105092853307724
1773521769914847500,8.162847412109375,0.13197818398475647,-0.3957899212837219,-0.07960453629493713
1773521769924885200,8.17288525390625,0.2895454168319702,-0.3862907886505127,0.055445216596126556
1773521769934924000,8.182924072265624,0.37362194061279297,-0.42347997426986694,0.13749614357948303
1773521769944963300,8.19296337890625,0.37644585967063904,-0.5711351037025452,0.12877899408340454
1773521769955001000,8.2030009765625,0.36310315132141113,-0.8769799470901489,0.0329347625374794
1773521769965040000,8.2130400390625,0.37524208426475525,-1.2457908391952515,-0.10567376017570496
1773521769975078100,8.223078125,0.3869650363922119,-1.5459136962890625,-0.26437872648239136
1773521769985117200,8.2331171875,0.3781679570674896,-1.7488833665847778,-0.4178523123264313
1773521769995156000,8.243156005859374,0.34709709882736206,-1.8494467735290527,-0.5454848408699036
1773521770005194200,8.2531943359375,0.2556593716144562,-1.8951239585876465,-0.6468265056610107
1773521770015233000,8.26323291015625,0.14364705979824066,-1.9151601791381836,-0.7308242321014404
1773521770025271300,8.273271240234376,0.06219468638300896,-1.969838261604309,-0.7602600455284119
1773521770035310300,8.283310302734375,0.007867801003158092,-2.056330680847168,-0.7178417444229126
1773521770045349000,8.29334912109375,-0.051799967885017395,-2.109370708465576,-0.6130030155181885
1773521770055387100,8.30338720703125,-0.07864809036254883,-2.0814878940582275,-0.4515238106250763
1773521770065426200,8.31342626953125,-0.03397554159164429,-1.943483829498291,-0.2630612552165985
1773521770075464200,8.323464111328125,0.11577267199754715,-1.6867002248764038,-0.10431262850761414
1773521770085503000,8.3335029296875,0.3188973665237427,-1.3177640438079834,-0.021258143708109856
1773521770095542300,8.343542236328124,0.4492495059967041,-0.8567532896995544,-0.04807031527161598
1773521770105580000,8.353580078125,0.4858626127243042,-0.3479098081588745,-0.16343948245048523
1773521770115619000,8.363619140625,0.4629887342453003,0.1245671957731247,-0.29910892248153687
1773521770125657000,8.373656982421876,0.39733758568763733,0.4552721679210663,-0.4375244975090027
1773521770135696100,8.383696044921875,0.3038739562034607,0.5954708456993103,-0.5761330127716064
1773521770145735200,8.393735107421875,0.22299540042877197,0.5773672461509705,-0.6476450562477112
1773521770155773200,8.403773193359376,0.14702099561691284,0.46382471919059753,-0.621204137802124
1773521770165812200,8.413812255859375,0.07336365431547165,0.306327223777771,-0.5453088879585266
1773521770175850200,8.423850341796875,0.020105760544538498,0.11244137585163116,-0.4659695625305176
1773521770185889300,8.43388916015625,0.04742446914315224,-0.1456919014453888,-0.38528192043304443
1773521770195928000,8.443927978515624,0.13541796803474426,-0.2952377200126648,-0.2819696366786957
1773521770205966300,8.45396630859375,0.28275421261787415,-0.17983673512935638,-0.09067511558532715
1773521770216005000,8.464005126953126,0.36998870968818665,0.15064556896686554,0.11620669066905975
1773521770226043100,8.474043212890624,0.38065722584724426,0.4911791682243347,0.37599655985832214
1773521770236082200,8.484082275390625,0.24313054978847504,0.6878557205200195,0.4346071481704712
1773521770246121200,8.494121337890626,-0.059012625366449356,0.5927638411521912,0.21011187136173248
1773521770256159000,8.504158935546876,-0.17731744050979614,0.28964364528656006,-0.056547775864601135
1773521770266198300,8.5141982421875,-0.1285811811685562,0.056675978004932404,-0.24490982294082642
1773521770276236000,8.524236083984375,-0.08315777033567429,-0.1400730311870575,-0.3754502534866333
1773521770286275000,8.534275146484376,-0.23431101441383362,-0.2979574203491211,-0.37522125244140625
1773521770296314000,8.544314208984375,-0.5106422305107117,-0.4565707743167877,-0.24983800947666168
1773521770306352000,8.55435205078125,-0.7183998823165894,-0.7355077862739563,-0.05612551420927048
1773521770316391200,8.56439111328125,-0.7421923279762268,-1.1206493377685547,0.18082843720912933
1773521770326429200,8.57442919921875,-0.6020755171775818,-1.5211448669433594,0.425026535987854
1773521770336468200,8.58446826171875,-0.2839966416358948,-1.850299596786499,0.6122294068336487
1773521770346507000,8.594507080078126,0.08400903642177582,-1.9803149700164795,0.631235659122467
1773521770356545300,8.604545166015624,0.33334964513778687,-1.8890076875686646,0.44810497760772705
1773521770366584000,8.614583984375,0.39360013604164124,-1.6399186849594116,0.0874851867556572
1773521770376622000,8.6246220703125,0.25022780895233154,-1.2921068668365479,-0.39948368072509766
1773521770386661000,8.6346611328125,0.06481941789388657,-0.9922704100608826,-0.8473788499832153
1773521770396700200,8.6447001953125,-0.04841606318950653,-0.8360959887504578,-1.0927931070327759
1773521770406738000,8.654738037109375,-0.08820486813783646,-0.8457317352294922,-1.0623058080673218
1773521770416777200,8.664777099609376,-0.058224067091941833,-1.0125789642333984,-0.7978683114051819
1773521770426815200,8.674815185546874,0.04373381286859512,-1.260716199874878,-0.43476900458335876
1773521770436854000,8.68485400390625,0.17771078646183014,-1.4245853424072266,-0.09631957858800888
1773521770446893300,8.694893310546876,0.2954792082309723,-1.389839768409729,0.1256134808063507
1773521770456931000,8.70493115234375,0.36872920393943787,-1.195149540901184,0.2152371108531952
1773521770466970000,8.71497021484375,0.3756980299949646,-0.8651614189147949,0.18822161853313446
1773521770477008100,8.725008056640625,0.3683610260486603,-0.4600405991077423,0.07984107732772827
1773521770487047200,8.735047119140624,0.34244343638420105,-0.06362157315015793,-0.04541301354765892
1773521770497086000,8.7450859375,0.33361053466796875,0.21601220965385437,-0.18705801665782928
1773521770507124200,8.755124267578125,0.3021754324436188,0.41989535093307495,-0.3624860942363739
1773521770517163000,8.7651630859375,0.27780404686927795,0.5127219557762146,-0.5796107053756714
1773521770527201300,8.775201171875,0.27240270376205444,0.5562437772750854,-0.8631396889686584
1773521770537240300,8.785240234375,0.2248287796974182,0.5957323312759399,-1.1419532299041748
1773521770547279000,8.795279052734376,0.16167902946472168,0.7006101012229919,-1.3917970657348633
1773521770557317400,8.8053173828125,0.12658841907978058,0.7449709177017212,-1.6120980978012085
1773521770567356200,8.815356201171875,0.12332130968570709,0.6579365730285645,-1.8020989894866943
1773521770577394200,8.825394287109376,0.1324000358581543,0.4129694402217865,-1.881767749786377
1773521770587433200,8.83543310546875,0.1323857456445694,0.03280800208449364,-1.6343485116958618
1773521770597472300,8.84547216796875,0.14568662643432617,-0.21126246452331543,-1.0441161394119263
1773521770607510000,8.855510009765625,0.08482573926448822,-0.22061240673065186,-0.37550944089889526
1773521770617549000,8.865549072265624,-0.05736761540174484,0.00435199961066246,0.09099382907152176
1773521770627587000,8.875587158203125,-0.1788182556629181,0.43478453159332275,0.2692306637763977
1773521770637626000,8.885626220703125,-0.2579900324344635,0.9306678175926208,0.22409354150295258
1773521770647665200,8.8956650390625,-0.30037206411361694,1.3633774518966675,0.05724706873297691
1773521770657703200,8.905703125,-0.3069194257259369,1.649383306503296,-0.14261837303638458
1773521770667742200,8.9157421875,-0.30291399359703064,1.7534431219100952,-0.3149709701538086
1773521770677780200,8.9257802734375,-0.2854660153388977,1.7132426500320435,-0.42692333459854126
1773521770687819300,8.9358193359375,-0.2578592300415039,1.5848405361175537,-0.47129833698272705
1773521770697858000,8.945858154296875,-0.21029838919639587,1.4151673316955566,-0.4625152349472046
1773521770707896300,8.955896240234376,-0.17018069326877594,1.245568037033081,-0.4214661419391632
1773521770717935000,8.96593505859375,-0.15424299240112305,1.1071233749389648,-0.3717510402202606
1773521770727973000,8.97597314453125,-0.15346646308898926,1.0119779109954834,-0.3432777225971222
1773521770738012200,8.98601220703125,-0.16870692372322083,0.926304042339325,-0.3381357192993164
1773521770748051200,8.99605126953125,-0.21354980766773224,0.8574123978614807,-0.3614431321620941
1773521770758089000,9.0060888671875,-0.29750141501426697,0.7965112328529358,-0.3998831808567047
1773521770768128300,9.016128173828125,-0.4094792306423187,0.7505565285682678,-0.4361400306224823
1773521770778166000,9.026166015625,-0.5309774279594421,0.7221062779426575,-0.4427023231983185
1773521770788205000,9.036205078125,-0.6385076642036438,0.6989468932151794,-0.41223326325416565
1773521770798244400,9.046244384765625,-0.715599536895752,0.6570921540260315,-0.34861111640930176
1773521770808282000,9.0562822265625,-0.7674158215522766,0.5810521841049194,-0.26828259229660034
1773521770818321200,9.066321044921875,-0.7854893207550049,0.47623419761657715,-0.19410447776317596
1773521770828359200,9.076359130859375,-0.7809455394744873,0.3444425165653229,-0.1331266313791275
1773521770838398200,9.086398193359376,-0.7561906576156616,0.18945825099945068,-0.1013423353433609
1773521770848437000,9.09643701171875,-0.7137030959129333,0.024165520444512367,-0.09144484996795654
1773521770858475300,9.106475341796875,-0.6625538468360901,-0.14560221135616302,-0.10988537222146988
1773521770868514000,9.11651416015625,-0.6198107004165649,-0.296806275844574,-0.13210561871528625
1773521770878552300,9.12655224609375,-0.5944749712944031,-0.39495307207107544,-0.15430334210395813
1773521770888591000,9.136591064453125,-0.5675563812255859,-0.42076587677001953,-0.15365912020206451
1773521770898630100,9.146630126953125,-0.5341041088104248,-0.37108859419822693,-0.12911489605903625
1773521770908668200,9.156668212890626,-0.5028266310691833,-0.2205374836921692,-0.09630562365055084
1773521770918707200,9.166707275390625,-0.46692773699760437,0.02092520333826542,-0.0844377800822258
1773521770928745200,9.1767451171875,-0.4335019290447235,0.3468128740787506,-0.09925779700279236
1773521770938784800,9.18678466796875,-0.37431344389915466,0.6909899115562439,-0.16154086589813232
1773521770948823800,9.19682373046875,-0.2684778571128845,0.9896476864814758,-0.2589307427406311
1773521770958861800,9.20686181640625,-0.16528303921222687,1.2031311988830566,-0.38056159019470215
1773521770968900600,9.216900634765626,-0.09073150157928467,1.3307280540466309,-0.5138854384422302
1773521770978939000,9.22693896484375,-0.037925537675619125,1.352463960647583,-0.6215088367462158
1773521770988977700,9.236977783203125,-0.007638007868081331,1.2989780902862549,-0.6819819211959839
1773521770999016700,9.2470166015625,0.021041572093963623,1.1715437173843384,-0.6861897110939026
1773521771009055000,9.257054931640624,0.04717399179935455,0.9730730056762695,-0.6353608965873718
1773521771019093800,9.26709375,0.06177131086587906,0.7207509875297546,-0.5333029627799988
1773521771029131800,9.2771318359375,0.04124462231993675,0.42986762523651123,-0.385342001914978
1773521771039170800,9.2871708984375,-0.008046225644648075,0.13025909662246704,-0.2096860259771347
1773521771049209900,9.2972099609375,-0.10929879546165466,-0.1466606706380844,-0.03544621169567108
1773521771059247600,9.30724755859375,-0.24355781078338623,-0.3478260040283203,0.10224267840385437
1773521771069287000,9.317286865234376,-0.36340418457984924,-0.422096312046051,0.17883920669555664
1773521771079324700,9.32732470703125,-0.4317654073238373,-0.42216527462005615,0.201729878783226
1773521771089363700,9.33736376953125,-0.4449634552001953,-0.38242673873901367,0.18225228786468506
1773521771099402800,9.34740283203125,-0.4200948476791382,-0.2960279583930969,0.14090324938297272
1773521771109440800,9.357440673828124,-0.37341922521591187,-0.18400458991527557,0.08454010635614395
1773521771119479800,9.367479736328125,-0.31576791405677795,-0.06681643426418304,0.019569892436265945
1773521771129517800,9.377517822265625,-0.2449571043252945,0.046201035380363464,-0.05555396527051926
1773521771139556900,9.387556884765624,-0.1747167706489563,0.15830999612808228,-0.14301510155200958
1773521771149595000,9.397594970703125,-0.12190032005310059,0.23929652571678162,-0.2481469213962555
1773521771159634000,9.407634033203125,-0.09256240725517273,0.29812735319137573,-0.34620794653892517
1773521771169672700,9.417672607421874,-0.07173342257738113,0.3412473201751709,-0.42722758650779724
1773521771179711000,9.4277109375,-0.062815822660923,0.37090906500816345,-0.4861324429512024
1773521771189749800,9.437749755859375,-0.039752088487148285,0.3754827380180359,-0.5106214880943298
1773521771199787800,9.447787841796876,-0.029350316151976585,0.3567604720592499,-0.4955568015575409
1773521771209826800,9.457826904296875,-0.03542308136820793,0.3442670702934265,-0.45903345942497253
1773521771219865900,9.467865966796875,-0.05204573646187782,0.3389141261577606,-0.4107399582862854
1773521771229903600,9.477903564453126,-0.0772395059466362,0.3457203805446625,-0.3532567024230957
1773521771239943000,9.48794287109375,-0.09776129573583603,0.3767448663711548,-0.2887013852596283
1773521771249980700,9.497980712890625,-0.1130552887916565,0.4401710033416748,-0.2134561687707901
1773521771260019700,9.508019775390625,-0.11996778845787048,0.5228115916252136,-0.12484961003065109
1773521771270058800,9.518058837890624,-0.13902607560157776,0.6249828338623047,-0.03637724742293358
1773521771280096800,9.5280966796875,-0.15102148056030273,0.7098426222801208,0.03989382088184357
1773521771290135800,9.5381357421875,-0.14852279424667358,0.7473997473716736,0.082268625497818
1773521771300173800,9.548173828125,-0.14120016992092133,0.7137627005577087,0.07483627647161484
1773521771310212900,9.558212890625,-0.1301829069852829,0.5973139405250549,0.027897745370864868
1773521771320251600,9.568251708984375,-0.12415749579668045,0.41606107354164124,-0.04863964021205902
1773521771330290000,9.5782900390625,-0.12482916563749313,0.2171405702829361,-0.13170257210731506
1773521771340328700,9.58832861328125,-0.12231380492448807,0.02003975212574005,-0.20919550955295563
1773521771350366700,9.59836669921875,-0.14477868378162384,-0.11441124975681305,-0.2458113431930542
1773521771360405800,9.60840576171875,-0.2092282474040985,-0.15884742140769958,-0.2562525272369385
1773521771370444800,9.61844482421875,-0.2610373795032501,-0.14635133743286133,-0.2375095635652542
1773521771380482600,9.628482666015625,-0.2733760476112366,-0.10462174564599991,-0.2002149224281311
1773521771390521900,9.63852197265625,-0.2476292997598648,-0.03693424537777901,-0.14592590928077698
1773521771400559600,9.6485595703125,-0.20867496728897095,0.0536518469452858,-0.09593437612056732
1773521771410598700,9.6585986328125,-0.16098961234092712,0.1738051027059555,-0.05858927220106125
1773521771420638000,9.668637939453125,-0.11310624331235886,0.3233160376548767,-0.04561861231923103
1773521771430675700,9.67867578125,-0.07196542620658875,0.4753199815750122,-0.045365121215581894
1773521771440714800,9.68871484375,-0.05652867630124092,0.600031316280365,-0.04677526652812958
1773521771450752800,9.698752685546875,-0.06536935269832611,0.6927008628845215,-0.05239315703511238
1773521771460791800,9.708791748046876,-0.07475912570953369,0.722107470035553,-0.05913681536912918
1773521771470830600,9.71883056640625,-0.07962754368782043,0.6867662072181702,-0.0531124621629715
1773521771480868900,9.728868896484375,-0.07962514460086823,0.6057419180870056,-0.026633981615304947
1773521771490907600,9.73890771484375,-0.06286787241697311,0.4961702227592468,0.025392595678567886
1773521771500946000,9.74894580078125,-0.04119586944580078,0.36544468998908997,0.09860555082559586
1773521771510985000,9.75898486328125,-0.022240208461880684,0.2117936909198761,0.18157082796096802
1773521771521022700,9.769022705078125,-0.000003878958523273468,0.02695486508309841,0.2477266788482666
1773521771531061800,9.779061767578124,0.0153897013515234,-0.1840117871761322,0.2847690284252167
1773521771541100800,9.789100830078125,0.03850886970758438,-0.4114825129508972,0.2716255187988281
1773521771551138800,9.799138916015625,0.06238313019275665,-0.6266742944717407,0.2095189094543457
1773521771561177900,9.809177734375,0.08332090079784393,-0.8048203587532043,0.10773980617523193
1773521771571216000,9.8192158203125,0.11189235746860504,-0.9326736330986023,-0.01021132804453373
1773521771581254700,9.829254638671875,0.13672234117984772,-1.0086352825164795,-0.12686684727668762
1773521771591293700,9.839293701171876,0.17108869552612305,-1.0603281259536743,-0.20151405036449432
1773521771601331700,9.849331787109374,0.20339763164520264,-1.0988610982894897,-0.1924038976430893
1773521771611370800,9.859370849609375,0.22448848187923431,-1.0743061304092407,-0.08981208503246307
1773521771621408800,9.86940869140625,0.21561403572559357,-0.953912615776062,0.06234363466501236
1773521771631447800,9.87944775390625,0.16920523345470428,-0.7160466909408569,0.18275196850299835
1773521771641486800,9.88948681640625,0.08396303653717041,-0.4135446548461914,0.22290204465389252
1773521771651524900,9.89952490234375,-0.009676503017544746,-0.09245871752500534,0.16803120076656342
1773521771661564000,9.90956396484375,-0.10139390826225281,0.2137017548084259,0.05668017640709877
1773521771671601700,9.9196015625,-0.17258693277835846,0.44359466433525085,-0.07166321575641632
1773521771681641000,9.929640869140625,-0.223542258143425,0.5795005559921265,-0.18210504949092865
1773521771691679700,9.9396796875,-0.23459038138389587,0.6166530251502991,-0.23685111105442047
1773521771701717800,9.9497177734375,-0.20674623548984528,0.5648132562637329,-0.25030219554901123
1773521771711756800,9.9597568359375,-0.16726699471473694,0.4528611898422241,-0.22215072810649872
1773521771721794800,9.969794921875,-0.12461168318986893,0.28343087434768677,-0.17193256318569183
1773521771731833600,9.97983349609375,-0.08067726343870163,0.09326426684856415,-0.10161750018596649
1773521771741871900,9.989871826171875,-0.04747297242283821,-0.09320893883705139,-0.024737896397709846
1773521771751910700,9.99991064453125,-0.026657549664378166,-0.24116215109825134,0.04554157331585884
1773521771761949700,10.00994970703125,-0.028170490637421608,-0.31923776865005493,0.10192575305700302
1773521771771987700,10.01998779296875,-0.04692669212818146,-0.3314478397369385,0.1252540647983551
1773521771782026800,10.03002685546875,-0.0760403722524643,-0.29992613196372986,0.11994638293981552
1773521771792064800,10.040064697265626,-0.10853513330221176,-0.24112963676452637,0.09817510843276978
1773521771802103800,10.050103759765625,-0.1341313123703003,-0.18024790287017822,0.07664930820465088
1773521771812142800,10.060142822265625,-0.14146016538143158,-0.12968988716602325,0.08013350516557693
1773521771822180900,10.070180908203126,-0.1331668198108673,-0.0987924262881279,0.10215838253498077
1773521771832220000,10.080219970703125,-0.12119182199239731,-0.10197344422340393,0.12867778539657593
1773521771842257700,10.090257568359375,-0.10523256659507751,-0.1433914601802826,0.16042134165763855
1773521771852296700,10.100296630859376,-0.08434736728668213,-0.22115705907344818,0.18735599517822266
1773521771862335700,10.110335693359374,-0.053701307624578476,-0.34117189049720764,0.21076171100139618
1773521771872373800,10.120373779296875,-0.01826028898358345,-0.4918271601200104,0.23671875894069672
1773521771882412800,10.130412841796876,0.023527638986706734,-0.6646231412887573,0.2733372449874878
1773521771892450800,10.140450927734374,0.07126996666193008,-0.8331345915794373,0.3113207519054413
1773521771902489600,10.150489501953125,0.13031144440174103,-0.9797578454017639,0.3571503162384033
1773521771912528600,10.160528564453125,0.20652443170547485,-1.097880482673645,0.3974995017051697
1773521771922567000,10.17056689453125,0.28290095925331116,-1.1935479640960693,0.43178021907806396
1773521771932605700,10.180605712890625,0.33845093846321106,-1.2330772876739502,0.4599052965641022
1773521771942643500,10.1906435546875,0.38340243697166443,-1.2225980758666992,0.4785461127758026
1773521771952682500,10.2006826171875,0.4182412028312683,-1.1626611948013306,0.4871521294116974
1773521771962720500,10.210720458984374,0.4460081160068512,-1.0635085105895996,0.4815429747104645
1773521771972759600,10.220759521484375,0.4699336886405945,-0.9308063983917236,0.4654196798801422
1773521771982798300,10.23079833984375,0.4779095947742462,-0.762576699256897,0.4291602075099945
1773521771992836400,10.24083642578125,0.47775551676750183,-0.5808051228523254,0.3880273103713989
1773521772002875400,10.25087548828125,0.4345313310623169,-0.3700769245624542,0.33104977011680603
1773521772012913400,10.260913330078125,0.389794260263443,-0.15435123443603516,0.27684640884399414
1773521772022952200,10.2709521484375,0.36086222529411316,0.04644498601555824,0.23155592381954193
1773521772032991500,10.280991455078125,0.3357255458831787,0.20273292064666748,0.22098809480667114
1773521772043029200,10.291029296875,0.3205452561378479,0.26334381103515625,0.25891682505607605
1773521772053068300,10.301068359375,0.3342832028865814,0.2263324111700058,0.31853702664375305
1773521772063106300,10.311106201171874,0.35956671833992004,0.1223282441496849,0.3720329999923706
1773521772073145300,10.321145263671875,0.3618066906929016,0.012772718444466591,0.38696667551994324
1773521772083184400,10.331184326171876,0.3428356647491455,-0.049661897122859955,0.3428399860858917
1773521772093222400,10.341222412109374,0.32622259855270386,-0.05993609502911568,0.2468041181564331
1773521772103261400,10.351261474609375,0.2933650314807892,-0.024540286511182785,0.13073237240314484
1773521772113299500,10.361299560546875,0.2545354664325714,0.017596082761883736,0.022315500304102898
1773521772123338500,10.37133837890625,0.23487123847007751,0.011948582716286182,-0.049482524394989014
1773521772133376300,10.381376220703125,0.20188242197036743,-0.08428559452295303,-0.07183432579040527
1773521772143415600,10.39141552734375,0.16406074166297913,-0.25190362334251404,-0.06905398517847061
1773521772153454300,10.401454345703126,0.1108962744474411,-0.4634854197502136,-0.05190344899892807
1773521772163492400,10.411492431640625,0.04595908522605896,-0.6865834593772888,-0.041703272610902786
1773521772173531400,10.421531494140625,-0.02245783619582653,-0.9067968726158142,-0.030760301277041435
1773521772183569400,10.4315693359375,-0.07616899907588959,-1.1270495653152466,-0.006268541794270277
1773521772193608400,10.4416083984375,-0.10159464925527573,-1.3163150548934937,0.018045760691165924
1773521772203647500,10.4516474609375,-0.09612078219652176,-1.4559621810913086,0.033877190202474594
1773521772213685500,10.461685546875,-0.06801687180995941,-1.5411170721054077,0.05475559085607529
1773521772223724300,10.471724365234374,-0.023821180686354637,-1.5774599313735962,0.07696022838354111
1773521772233762600,10.481762451171875,0.04134347289800644,-1.5751157999038696,0.1112741157412529
1773521772243801300,10.49180126953125,0.11109299212694168,-1.5349256992340088,0.14211085438728333
1773521772253839600,10.501839599609376,0.1865946352481842,-1.4492825269699097,0.1769067943096161
1773521772263878400,10.51187841796875,0.26457226276397705,-1.3072412014007568,0.21048739552497864
1773521772273917400,10.52191748046875,0.3216085433959961,-1.1140220165252686,0.23672670125961304
1773521772283955500,10.53195556640625,0.34313032031059265,-0.8892000913619995,0.25351017713546753
1773521772293994500,10.541994384765625,0.3404444456100464,-0.6549306511878967,0.24591805040836334
1773521772304032300,10.5520322265625,0.31161201000213623,-0.42650333046913147,0.2282695472240448
1773521772314071300,10.5620712890625,0.27938881516456604,-0.23219917714595795,0.22310632467269897
1773521772324110600,10.572110595703125,0.2639424800872803,-0.08360996842384338,0.23995746672153473
1773521772334148400,10.5821484375,0.26023611426353455,-0.001785501604899764,0.2835156321525574
1773521772344187400,10.5921875,0.26063159108161926,-0.0003708302974700928,0.3414021134376526
1773521772354225400,10.602225341796874,0.2596834897994995,-0.05327371880412102,0.41210857033729553
1773521772364264400,10.612264404296875,0.25273290276527405,-0.12435481697320938,0.47087547183036804
1773521772374303200,10.62230322265625,0.24348682165145874,-0.19134403765201569,0.5252370834350586
1773521772384341500,10.632341552734376,0.2267928123474121,-0.24116778373718262,0.5740261673927307
1773521772394380300,10.64238037109375,0.1882203370332718,-0.2699333727359772,0.6067031025886536
1773521772404418600,10.65241845703125,0.1372722089290619,-0.27521440386772156,0.6195195317268372
1773521772414457300,10.662457275390626,0.11259154975414276,-0.273181289434433,0.6136626601219177
1773521772424495400,10.672495361328124,0.1119111105799675,-0.2531825304031372,0.5891927480697632
1773521772434534400,10.682534423828125,0.13756637275218964,-0.21931058168411255,0.5415574908256531
1773521772444573400,10.692573486328126,0.19403231143951416,-0.15551002323627472,0.4592282474040985
1773521772454611200,10.702611083984374,0.22917470335960388,-0.06433738023042679,0.345241516828537
1773521772464650500,10.712650390625,0.18697504699230194,0.060526784509420395,0.2209528386592865
1773521772474688300,10.722688232421875,0.11724948137998581,0.16445723176002502,0.11929082125425339
1773521772484727300,10.732727294921874,0.07868052273988724,0.19313202798366547,0.05877422168850899
1773521772494766600,10.7427666015625,0.07111474871635437,0.14521202445030212,0.026069534942507744
1773521772504804400,10.752804443359375,0.0664113387465477,0.04413146898150444,0.006577858701348305
1773521772514843400,10.762843505859376,0.041004929691553116,-0.09280999004840851,-0.005291344132274389
1773521772524881400,10.77288134765625,0.004489264450967312,-0.23026078939437866,-0.027291186153888702
1773521772534920400,10.78292041015625,-0.0027164071798324585,-0.3443834185600281,-0.052747588604688644
1773521772544959200,10.792959228515626,0.04324549436569214,-0.4517591595649719,-0.08836337924003601
1773521772554997500,10.80299755859375,0.07221223413944244,-0.507202684879303,-0.12822683155536652
1773521772565036300,10.813036376953125,0.060740672051906586,-0.523876428604126,-0.1667609065771103
1773521772575074600,10.823074462890625,0.0336688794195652,-0.5101600885391235,-0.19829650223255157
1773521772585113300,10.83311328125,-0.016442488878965378,-0.42189541459083557,-0.19675453007221222
1773521772595151400,10.8431513671875,-0.04988592863082886,-0.20726606249809265,-0.12085416913032532
1773521772605190400,10.8531904296875,-0.08210218697786331,0.09062102437019348,0.015819784253835678
1773521772615229400,10.8632294921875,-0.1057586744427681,0.3921375572681427,0.15537530183792114
1773521772625267500,10.873267333984375,-0.14389726519584656,0.5633891820907593,0.24278263747692108
1773521772635306200,10.88330615234375,-0.17489996552467346,0.5569064617156982,0.2795386016368866
1773521772645344500,10.893344482421876,-0.21707458794116974,0.37366873025894165,0.32292813062667847
1773521772655383300,10.90338330078125,-0.23333828151226044,0.09647219628095627,0.42475733160972595
1773521772665422300,10.91342236328125,-0.21887892484664917,-0.1788584440946579,0.5762597322463989
1773521772675460400,10.92346044921875,-0.18154892325401306,-0.4184752106666565,0.7517072558403015
1773521772685499400,10.93349951171875,-0.12226614356040955,-0.5978449583053589,0.8864962458610535
1773521772695537400,10.943537353515625,-0.027247242629528046,-0.6913598775863647,0.9144619703292847
1773521772705576400,10.953576416015625,0.11362279951572418,-0.6882266402244568,0.8233003616333008
1773521772715614200,10.9636142578125,0.26065853238105774,-0.5440062880516052,0.654409646987915
1773521772725653500,10.973653564453125,0.3617212474346161,-0.2778715193271637,0.46377819776535034
1773521772735692500,10.983692626953125,0.4197356104850769,0.0504927933216095,0.2637746334075928
1773521772745730300,10.993730224609376,0.46446603536605835,0.3795149028301239,0.06600987166166306
1773521772755769600,11.00376953125,0.4973710775375366,0.6743099689483643,-0.13087473809719086
1773521772765807400,11.013807373046875,0.5246668457984924,0.9271190762519836,-0.3130485415458679
1773521772775846400,11.023846435546876,0.537667989730835,1.140828251838684,-0.47879448533058167
1773521772785885400,11.033885498046875,0.5133512020111084,1.3360542058944702,-0.6163832545280457
1773521772795923500,11.04392333984375,0.44655171036720276,1.5288504362106323,-0.7155011296272278
1773521772805962200,11.053962158203126,0.3402945101261139,1.7300498485565186,-0.7666971683502197
1773521772816000500,11.06400048828125,0.21399827301502228,1.9259036779403687,-0.7673086524009705
1773521772826039300,11.074039306640625,0.07573733478784561,2.08369517326355,-0.7277950644493103
1773521772836077600,11.08407763671875,-0.04388328269124031,2.1410558223724365,-0.660724401473999
1773521772846116400,11.094116455078124,-0.14242663979530334,2.0743045806884766,-0.5930476188659668
1773521772856155400,11.1041552734375,-0.19982753694057465,1.8839598894119263,-0.5398207902908325
1773521772866193400,11.114193359375,-0.2151590883731842,1.5942074060440063,-0.47928524017333984
1773521772876232400,11.124232421875,-0.2409106194972992,1.3397685289382935,-0.38659435510635376
1773521772886270500,11.1342705078125,-0.3634602427482605,1.2098312377929688,-0.2557141184806824
1773521772896309200,11.144309326171875,-0.5156883597373962,1.1852014064788818,-0.09290754050016403
1773521772906348500,11.1543486328125,-0.6597794890403748,1.1899175643920898,0.07572115212678909
1773521772916386300,11.16438623046875,-0.7764087319374084,1.1666405200958252,0.224103182554245
1773521772926425300,11.17442529296875,-0.8597555756568909,1.0714839696884155,0.3382449150085449
1773521772936463400,11.18446337890625,-0.8983754515647888,0.896032989025116,0.4086337983608246
1773521772946502100,11.194502197265624,2.72908353805542,-0.3847850561141968,1.3444666862487793
1773521772956540200,11.2045400390625,2.098513603210449,-0.4480660855770111,0.8224823474884033
1773521772966579200,11.2145791015625,0.8816601634025574,-0.3447711169719696,0.21379022300243378
1773521772976618000,11.224617919921876,-0.08380701392889023,-0.209311842918396,-0.0922871083021164
1773521772986656300,11.23465625,0.9997885227203369,-0.2732817828655243,0.4174259305000305
1773521772996695000,11.244695068359375,0.04027079418301582,-0.02144215814769268,0.29458025097846985
1773521773006733000,11.254733154296876,-0.30081701278686523,-0.08575137704610825,0.5866909623146057
1773521773016772000,11.264772216796874,-0.7495762705802917,-0.09921711683273315,0.7604213953018188
1773521773026811100,11.27481103515625,-1.4607503414154053,-0.34550198912620544,0.6986413598060608
1773521773036849000,11.284848876953125,-2.0616042613983154,-0.5505810976028442,0.4042024612426758
1773521773046888200,11.29488818359375,-2.439122438430786,-0.3348402976989746,-0.2128993570804596
1773521773056926000,11.304926025390625,-2.426743268966675,-0.21586278080940247,-0.5754451155662537
1773521773066965000,11.314965087890625,-2.126443862915039,-0.16516923904418945,-0.7617790102958679
1773521773077003000,11.3250029296875,-1.6848118305206299,-0.08692354708909988,-0.8722662329673767
1773521773087042000,11.3350419921875,-1.2006566524505615,-0.005768769420683384,-0.9937143325805664
1773521773097081000,11.3450810546875,-0.8301753997802734,0.14169242978096008,-1.2237555980682373
1773521773107119000,11.355119140625,-0.6183579564094543,0.4055333733558655,-1.6510573625564575
1773521773117158100,11.365158203125,-0.4821196496486664,0.8119798898696899,-2.2659313678741455
1773521773127196200,11.375196044921875,-0.22019724547863007,1.2940945625305176,-2.8220925331115723
1773521773137235200,11.385235107421876,0.00595285277813673,2.4728457927703857,-2.941164970397949
1773521773147274000,11.39527392578125,-0.004620163235813379,5.518672466278076,-2.354217052459717
1773521773157312300,11.405312255859375,0.002396540716290474,7.355562686920166,-1.501322627067566
1773521773167351000,11.41535107421875,0.3982035219669342,7.608520984649658,-0.9775670170783997
1773521773177389000,11.42538916015625,0.90142822265625,6.344176292419434,-0.7178109884262085
1773521773187428000,11.435427978515625,1.3220285177230835,4.464068412780762,-0.3601875603199005
1773521773197467100,11.445467041015625,1.5967167615890503,2.4757654666900635,0.18634280562400818
1773521773207505200,11.455505126953126,1.7021369934082031,0.6339033246040344,0.845014750957489
1773521773217544200,11.465544189453125,1.708613395690918,-0.8218491673469543,1.4473395347595215
1773521773227582200,11.475582275390625,1.6673780679702759,-1.96876060962677,1.8428322076797485
1773521773237621000,11.48562109375,1.5339970588684082,-2.750938892364502,1.9810357093811035
1773521773247659300,11.4956591796875,1.356783390045166,-3.1578829288482666,1.86003839969635
1773521773257698000,11.505697998046875,1.0974231958389282,-3.1953721046447754,1.5839914083480835
1773521773267737000,11.515737060546876,0.8070212006568909,-2.8576812744140625,1.204012393951416
1773521773277775000,11.525775146484374,0.529820442199707,-2.23814058303833,0.7802447080612183
1773521773287814100,11.535814208984375,0.29131919145584106,-1.4298138618469238,0.37786638736724854
1773521773297852200,11.54585205078125,0.08568138629198074,-0.4586838185787201,0.01969769224524498
1773521773307891200,11.55589111328125,-0.06688950955867767,0.5740956664085388,-0.30924928188323975
1773521773317930200,11.56593017578125,-0.1704683154821396,1.574600100517273,-0.625356137752533
1773521773327968000,11.575968017578125,-0.16989174485206604,2.3905603885650635,-0.9254581928253174
1773521773338007300,11.58600732421875,-0.06360937654972076,2.801239490509033,-1.230991244316101
1773521773348045000,11.596045166015625,0.11680567264556885,2.519733428955078,-1.4331104755401611
1773521773358084000,11.606083984375,2.5863678455352783,0.5188267230987549,-0.7791231870651245
1773521773368122000,11.6161220703125,5.016984939575195,-1.6301932334899902,0.14595751464366913
1773521773378161200,11.6261611328125,3.320361375808716,-2.5254647731781006,-0.30523473024368286
1773521773388200000,11.636199951171875,1.5945124626159668,-2.546809196472168,-0.6905749440193176
1773521773398238200,11.64623828125,-0.14129699766635895,-2.2418439388275146,-0.651016116142273
1773521773408277000,11.656277099609374,-0.2881716787815094,-1.1643786430358887,-1.036611557006836
1773521773418315300,11.666315185546875,-0.6851981282234192,0.031322743743658066,-0.9310464262962341
1773521773428354000,11.67635400390625,-1.1179263591766357,0.3787052035331726,-0.6672976016998291
1773521773438393000,11.68639306640625,-1.1342779397964478,0.5688877701759338,-0.38659441471099854
1773521773448431000,11.69643115234375,-0.9728810787200928,0.710383415222168,-0.20311059057712555
1773521773458470100,11.70647021484375,-0.7517132759094238,0.8229528665542603,-0.21263016760349274
1773521773468508000,11.7165078125,-0.5391549468040466,0.94558185338974,-0.3867412209510803
1773521773478547200,11.726547119140625,-0.36731305718421936,1.152433156967163,-0.6339054703712463
1773521773488585000,11.7365849609375,-0.22878499329090118,1.4654730558395386,-0.864424467086792
1773521773498624000,11.7466240234375,-0.07730808109045029,1.799151062965393,-1.0327261686325073
1773521773508663300,11.756663330078124,-0.03289160877466202,1.9063241481781006,-1.1271374225616455
1773521773518701000,11.766701171875,0.14110144972801208,1.9933432340621948,-1.17583429813385
1773521773528740000,11.776739990234375,0.3370107412338257,1.9244270324707031,-1.158743977546692
1773521773538778000,11.786778076171874,0.5301227569580078,1.7727978229522705,-1.0538804531097412
1773521773548817200,11.796817138671875,0.6792009472846985,1.6248499155044556,-0.8417537808418274
1773521773558856000,11.80685595703125,0.7689085006713867,1.5590976476669312,-0.5770308971405029
1773521773568894200,11.816894287109376,0.7866161465644836,1.599611759185791,-0.35949376225471497
1773521773578933000,11.82693310546875,0.7206698060035706,1.711012363433838,-0.24505454301834106
1773521773588971300,11.83697119140625,0.6008083820343018,1.8687678575515747,-0.21867327392101288
1773521773599010300,11.84701025390625,0.45677804946899414,2.009803533554077,-0.22647631168365479
1773521773609048000,11.857048095703124,0.305823415517807,1.8603450059890747,-0.2652902901172638
1773521773619087000,11.867087158203125,0.21122893691062927,0.14208993315696716,-1.5852162837982178
1773521773629126100,11.877126220703126,0.2674426734447479,-2.656036853790283,-0.3527291417121887
1773521773639164200,11.8871640625,0.2762092351913452,-2.8830113410949707,0.4881615936756134
1773521773649203000,11.897202880859375,0.23762938380241394,-3.747141122817993,1.5272552967071533
1773521773659241200,11.9072412109375,-0.08127479255199432,-2.3442556858062744,1.0922620296478271
1773521773669280000,11.917280029296874,-0.46872904896736145,1.729550838470459,-0.17567823827266693
1773521773679319000,11.927319091796875,-0.5320373773574829,5.473733901977539,-1.4466339349746704
1773521773689357000,11.937357177734375,-0.2713432013988495,6.282991409301758,-1.780121088027954
1773521773699396000,11.94739599609375,0.03744034469127655,5.180819034576416,-1.264214038848877
1773521773709434000,11.95743408203125,0.20317497849464417,3.8875808715820312,-0.5234770178794861
1773521773719473200,11.96747314453125,0.13193446397781372,3.509657144546509,-0.07811443507671356
1773521773729512200,11.97751220703125,-0.10388951003551483,4.041069030761719,0.030516967177391052
1773521773739550200,11.98755029296875,-0.42127135396003723,5.09738302230835,-0.09273677319288254
1773521773749589200,11.99758935546875,-0.8352869153022766,5.85170316696167,-0.1741304248571396
1773521773759627000,12.007626953125,-1.3756167888641357,6.217960357666016,-0.18006204068660736
1773521773769666300,12.017666259765624,-1.7739324569702148,6.077906608581543,-0.06468485295772552
1773521773779704000,12.0277041015625,-1.9013303518295288,5.72369909286499,0.2703853249549866
1773521773789743000,12.0377431640625,-1.82339346408844,5.17457914352417,0.6368746757507324
1773521773799782100,12.0477822265625,-1.623292326927185,4.496698379516602,0.9472064971923828
1773521773809820200,12.057820068359375,-1.3763126134872437,3.708394765853882,1.1946760416030884
1773521773819859000,12.06785888671875,-1.056735634803772,2.8882949352264404,1.358059287071228
1773521773829897200,12.077897216796876,-0.768373429775238,2.1602108478546143,1.4362962245941162
1773521773839936000,12.08793603515625,-0.5542517304420471,1.5358411073684692,1.4227421283721924
1773521773849975000,12.09797509765625,-0.44279205799102783,1.0654736757278442,1.3384227752685547
1773521773860013000,12.108012939453126,-0.42274805903434753,0.7965050935745239,1.1971409320831299
1773521773870052000,12.118052001953124,-0.4637458324432373,0.7102133631706238,1.0064594745635986
1773521773880090000,12.128090087890625,-0.5211753845214844,0.8171191811561584,0.7625788450241089
1773521773890129200,12.138129150390625,-0.5771092176437378,1.0663197040557861,0.47963714599609375
1773521773900167200,12.148167236328124,-0.6286255717277527,1.3964546918869019,0.16540807485580444
1773521773910206000,12.1582060546875,-0.665520191192627,1.6932810544967651,-0.14919327199459076
1773521773920245200,12.168245361328125,-0.6871271729469299,1.8710929155349731,-0.40327128767967224
1773521773930283000,12.178282958984376,-0.6998549699783325,1.9870898723602295,-0.6231077313423157
1773521773940322600,12.188322509765625,-0.698025643825531,2.0709245204925537,-0.8117684721946716
1773521773950360800,12.19836083984375,-0.6833857297897339,2.113804578781128,-0.9802948832511902
1773521773960399600,12.208399658203126,-0.6723321676254272,2.12481951713562,-1.1395812034606934
1773521773970438700,12.218438720703125,-0.6849606037139893,2.1159982681274414,-1.2991975545883179
1773521773980477000,12.228476806640625,-0.7254911661148071,2.0818495750427246,-1.4691203832626343
1773521773990515700,12.238515625,-0.7953333854675293,2.0387449264526367,-1.6428825855255127
1773521774000553700,12.2485537109375,-0.8809404373168945,1.987730860710144,-1.8031986951828003
1773521774010592800,12.2585927734375,-0.9802228212356567,1.9473962783813477,-1.9508185386657715
1773521774020631800,12.2686318359375,-1.0839405059814453,1.9040703773498535,-2.090988874435425
1773521774030669600,12.278669677734374,-1.1747090816497803,1.8584238290786743,-2.259101152420044
1773521774040708900,12.288708984375,-1.2552191019058228,1.8196783065795898,-2.4861366748809814
1773521774050746600,12.29874658203125,-1.3181955814361572,1.7988531589508057,-2.7686407566070557
1773521774060785700,12.30878564453125,-1.3062365055084229,1.7832521200180054,-3.071598529815674
1773521774070823700,12.31882373046875,-1.19813871383667,1.7346388101577759,-3.3228070735931396
1773521774080862700,12.32886279296875,-1.026239275932312,1.651982307434082,-3.455886125564575
1773521774090901800,12.33890185546875,-0.8374066352844238,1.5377366542816162,-3.450420379638672
1773521774100939800,12.348939697265624,-0.6740010380744934,1.4181405305862427,-3.3519198894500732
1773521774110978800,12.358978759765625,-0.5578323602676392,1.3688504695892334,-3.2385411262512207
1773521774121016800,12.369016845703126,-0.6436699032783508,2.2893435955047607,-2.8433525562286377
1773521774131055900,12.379055908203124,-0.8031557202339172,4.774096965789795,-1.9414459466934204
1773521774141094700,12.3890947265625,-0.7305394411087036,5.477788925170898,-1.3459513187408447
1773521774151133000,12.3991328125,-0.5481030344963074,4.585024833679199,-1.2815883159637451
1773521774161171700,12.409171630859374,-0.3410424292087555,3.0075337886810303,-1.2098898887634277
1773521774171209700,12.419209716796875,-0.07472017407417297,1.469475269317627,-0.8016300797462463
1773521774181248800,12.429248779296875,0.14536188542842865,0.111435167491436,-0.25173884630203247
1773521774191287800,12.439287841796874,0.21736018359661102,-0.9590035080909729,0.13980655372142792
1773521774201325600,12.44932568359375,0.26338136196136475,-1.740919589996338,0.27687954902648926
1773521774211364900,12.45936474609375,0.39041629433631897,-2.2608277797698975,0.21349099278450012
1773521774221402600,12.469402587890626,0.5591712594032288,-2.5180699825286865,0.04243891313672066
1773521774231441700,12.479441650390624,0.676463782787323,-2.468172311782837,-0.14694060385227203
1773521774241479700,12.489479736328125,0.6600341796875,-2.109360694885254,-0.29389217495918274
1773521774251518700,12.499518798828126,0.47753703594207764,-1.452030897140503,-0.3298299312591553
1773521774261557800,12.509557861328124,0.18949443101882935,-0.6146190762519836,-0.25159379839897156
1773521774271595800,12.519595703125,-0.08040762692689896,0.2215551882982254,-0.1597784012556076
1773521774281634800,12.529634765625,-0.26917383074760437,0.9335874319076538,-0.13130415976047516
1773521774291672800,12.5396728515625,-0.33299699425697327,1.4791268110275269,-0.1909123659133911
1773521774301712000,12.5497119140625,-0.2741100788116455,1.83731210231781,-0.3068504333496094
1773521774311750700,12.559750732421875,-0.13299503922462463,2.0539193153381348,-0.4039072096347809
1773521774321788700,12.56978857421875,0.05182797834277153,2.168088912963867,-0.4471778869628906
1773521774331827700,12.57982763671875,0.20531713962554932,2.2274370193481445,-0.42867958545684814
1773521774341865700,12.58986572265625,0.2589592933654785,2.25937819480896,-0.34850773215293884
1773521774351904500,12.599904541015626,0.15616099536418915,2.281816005706787,-0.2003435641527176
1773521774361943800,12.60994384765625,0.02791428007185459,2.244601011276245,0.016913853585720062
1773521774371981600,12.619981689453125,-0.025842957198619843,2.1245620250701904,0.2955912947654724
1773521774382020600,12.6300205078125,-0.0035351691767573357,1.9196619987487793,0.5812104344367981
1773521774392059000,12.640058837890624,0.053478579968214035,1.6176486015319824,0.8227924704551697
1773521774402097700,12.65009765625,0.1093733161687851,1.216167688369751,0.9663450121879578
1773521774412136700,12.66013671875,0.16174224019050598,0.7360159754753113,0.9511482119560242
1773521774422174700,12.6701748046875,0.25638455152511597,0.24412241578102112,0.7582708597183228
1773521774432213800,12.6802138671875,0.3586962819099426,-0.17501279711723328,0.4972573518753052
1773521774442251800,12.690251708984375,0.34044575691223145,-0.44323647022247314,0.23526369035243988
1773521774452290800,12.700290771484376,0.23017597198486328,-0.5666660070419312,0.009274243377149105
1773521774462328600,12.71032861328125,0.0966053307056427,-0.550938069820404,-0.17303144931793213
1773521774472367900,12.720367919921875,-0.014084434136748314,-0.4204666018486023,-0.2983401119709015
1773521774482407000,12.730406982421876,-0.09848254173994064,-0.18084502220153809,-0.3529699146747589
1773521774492444700,12.740444580078124,-0.15427255630493164,0.14342652261257172,-0.3165229558944702
1773521774502484000,12.75048388671875,-0.16082005202770233,0.5175808072090149,-0.18167196214199066
1773521774512521700,12.760521728515625,-0.1452440321445465,0.9549861550331116,0.15553109347820282
1773521774522560800,12.770560791015624,-0.1466321051120758,1.5006085634231567,0.7815264463424683
1773521774532599800,12.780599853515625,-0.03892667219042778,1.9798084497451782,1.4172488451004028
1773521774542637800,12.790637939453125,0.19830112159252167,2.2785568237304688,1.6881206035614014
1773521774552676600,12.800676513671876,0.33065304160118103,2.4473750591278076,1.6252872943878174
1773521774562715000,12.81071484375,0.307699978351593,2.4715805053710938,1.426196575164795
