time,seconds_elapsed,z,y,x
1773521761843591200,0.091591064453125,-226.07260131835938,33.56495666503906,-51.17250061035156
1773521761853713200,0.101713134765625,-225.903076171875,33.551788330078125,-51.04627990722656
1773521761863835100,0.111835205078125,-225.840087890625,33.59339904785156,-51.0989990234375
1773521761873958100,0.121958251953125,-225.9766845703125,33.39361572265625,-51.08345031738281
1773521761884080000,0.132080078125,-226.0182647705078,33.63433837890625,-50.8258056640625
1773521761894202000,0.1422021484375,-226.5645294189453,33.505096435546875,-51.08354187011719
1773521761904325000,0.1523251953125,-227.35891723632812,33.67631530761719,-51.3486328125
1773521761914447000,0.162447021484375,-226.0415802001953,33.468719482421875,-51.14875793457031
1773521761924569000,0.172569091796875,-227.26426696777344,33.528717041015625,-51.2454833984375
1773521761934691600,0.182691650390625,-227.37081909179688,33.752410888671875,-51.195556640625
1773521761944813800,0.192813720703125,-227.26295471191406,33.613525390625,-51.3370361328125
1773521761954935800,0.202935791015625,-227.29690551757812,33.809661865234375,-51.399169921875
1773521761965057800,0.213057861328125,-226.88771057128906,33.97969055175781,-51.03192138671875
1773521761975180500,0.2231806640625,-226.99575805664062,33.7725830078125,-51.21437072753906
1773521761985303600,0.233303466796875,-227.12464904785156,33.68479919433594,-51.23997497558594
1773521761995425800,0.24342578125,-226.974853515625,33.621429443359375,-51.127838134765625
1773521762005546800,0.253546630859375,-226.7636260986328,33.83454895019531,-51.1978759765625
1773521762015668700,0.263668701171875,-225.9591827392578,33.53657531738281,-51.2984619140625
1773521762025789700,0.273789794921875,-226.03927612304688,33.707000732421875,-51.230560302734375
1773521762035911000,0.283910888671875,-226.3679962158203,33.73100280761719,-51.28727722167969
1773521762046031600,0.294031494140625,-226.68484497070312,33.67662048339844,-51.272003173828125
1773521762056152800,0.30415283203125,-226.7381134033203,33.78254699707031,-51.068115234375
1773521762066273800,0.314273681640625,-226.5146484375,33.88923645019531,-51.07794189453125
1773521762076394800,0.324394775390625,-226.67648315429688,33.97328186035156,-51.34217834472656
1773521762086514700,0.3345146484375,-227.00205993652344,33.779541015625,-51.225677490234375
1773521762096633600,0.344633544921875,-227.245361328125,33.89311218261719,-51.13856506347656
1773521762106752500,0.35475244140625,-227.0012664794922,34.09309387207031,-50.90513610839844
1773521762116872700,0.364872802734375,-227.22190856933594,33.6368408203125,-51.01594543457031
1773521762126993700,0.37499365234375,-227.3085479736328,33.68080139160156,-51.17799377441406
1773521762137113900,0.38511376953125,-227.2164764404297,33.631683349609375,-51.13813781738281
1773521762147233800,0.39523388671875,-226.70387268066406,33.52984619140625,-50.878875732421875
1773521762157355800,0.405355712890625,-226.87213134765625,33.75270080566406,-50.940765380859375
1773521762167477800,0.415477783203125,-226.619384765625,33.742584228515625,-50.83766174316406
1773521762177598700,0.4255986328125,-226.7882843017578,33.79876708984375,-50.57856750488281
1773521762187720000,0.435719970703125,-227.02236938476562,33.981201171875,-50.71998596191406
1773521762197840600,0.445840576171875,-226.72543334960938,33.86248779296875,-50.20405578613281
1773521762207960800,0.4559609375,-226.84727478027344,34.029937744140625,-50.002838134765625
1773521762218079700,0.466079833984375,-226.6910400390625,33.99835205078125,-49.69549560546875
1773521762228200700,0.47620068359375,-226.82931518554688,33.97154235839844,-49.4127197265625
1773521762238321700,0.48632177734375,-226.8903045654297,33.95941162109375,-48.94966125488281
1773521762248442600,0.496442626953125,-226.63992309570312,34.15850830078125,-48.28131103515625
1773521762258562800,0.506562744140625,-226.8236541748047,33.88941955566406,-47.8360595703125
1773521762268682800,0.516682861328125,-226.58004760742188,33.808349609375,-46.924713134765625
1773521762278804700,0.5268046875,-226.6105499267578,33.660491943359375,-45.924041748046875
1773521762288926700,0.5369267578125,-226.97117614746094,33.72517395019531,-44.64866638183594
1773521762299049700,0.5470498046875,-226.13816833496094,33.747314453125,-43.192718505859375
1773521762309171700,0.557171630859375,-226.17431640625,33.725494384765625,-41.61827087402344
1773521762319294700,0.567294677734375,-225.82675170898438,33.577880859375,-39.64372253417969
1773521762329416700,0.577416748046875,-225.18336486816406,33.21412658691406,-37.431976318359375
1773521762339538700,0.58753857421875,-224.46592712402344,33.00602722167969,-34.94834899902344
1773521762349659600,0.59765966796875,-223.65283203125,32.2403564453125,-32.505035400390625
1773521762359780900,0.60778076171875,-222.5326385498047,31.9373779296875,-29.862777709960938
1773521762369902800,0.61790283203125,-221.7949981689453,31.47021484375,-27.972396850585938
1773521762380023800,0.62802392578125,-220.94818115234375,31.956802368164062,-26.255386352539062
1773521762390145800,0.638145751953125,-219.20687866210938,32.6904296875,-24.564804077148438
1773521762400268800,0.648268798828125,-218.14535522460938,33.35310363769531,-23.85589599609375
1773521762410390800,0.658390869140625,-217.4867401123047,34.336212158203125,-22.77642822265625
1773521762420512800,0.6685126953125,-216.16116333007812,35.1090087890625,-21.662002563476562
1773521762430635800,0.6786357421875,-214.54937744140625,35.34458923339844,-20.30560302734375
1773521762440757800,0.6887578125,-213.27056884765625,35.94287109375,-18.782394409179688
1773521762450878700,0.698878662109375,-211.8930206298828,36.452484130859375,-17.693359375
1773521762461000700,0.709000732421875,-210.2119903564453,37.07682800292969,-16.626190185546875
1773521762471121700,0.71912158203125,-209.33642578125,37.06559753417969,-15.741836547851562
1773521762481244000,0.729243896484375,-208.48394775390625,37.021514892578125,-15.01873779296875
1773521762491364600,0.739364501953125,-207.65353393554688,37.29364013671875,-14.616363525390625
1773521762501484500,0.749484619140625,-206.85043334960938,37.41094970703125,-14.151779174804688
1773521762511605800,0.759605712890625,-206.60943603515625,37.17680358886719,-14.104385375976562
1773521762521726700,0.769726806640625,-206.54666137695312,37.21684265136719,-13.866943359375
1773521762531847700,0.77984765625,-206.00311279296875,37.47991943359375,-13.656524658203125
1773521762541969700,0.7899697265625,-206.3070526123047,37.73046875,-13.882156372070312
1773521762552092000,0.800091796875,-205.92706298828125,37.61018371582031,-13.681625366210938
1773521762562212600,0.810212646484375,-205.45022583007812,38.438446044921875,-13.774261474609375
1773521762572333800,0.820333740234375,-205.0402374267578,39.217132568359375,-13.810394287109375
1773521762582455600,0.83045556640625,-204.376953125,40.081329345703125,-13.989959716796875
1773521762592577800,0.840577880859375,-204.07177734375,41.028411865234375,-14.21954345703125
1773521762602698800,0.85069873046875,-203.29319763183594,41.85247802734375,-14.29693603515625
1773521762612820700,0.86082080078125,-202.66819763183594,43.20811462402344,-14.755401611328125
1773521762622943700,0.87094384765625,-202.49807739257812,43.86592102050781,-14.978744506835938
1773521762633064700,0.881064697265625,-201.46923828125,45.19248962402344,-15.53814697265625
1773521762643186000,0.89118603515625,-201.38543701171875,46.685089111328125,-16.590087890625
1773521762653307600,0.9013076171875,-201.46046447753906,48.131683349609375,-17.702133178710938
1773521762663428900,0.911428955078125,-200.9375457763672,49.92462158203125,-18.932540893554688
1773521762673550800,0.92155078125,-199.98175048828125,51.99458312988281,-20.389007568359375
1773521762683672600,0.931672607421875,-200.2453155517578,53.924591064453125,-22.494766235351562
1773521762693795600,0.941795654296875,-199.4329376220703,56.076202392578125,-24.63360595703125
1773521762703917800,0.951917724609375,-198.73043823242188,58.11460876464844,-26.595458984375
1773521762714038800,0.962038818359375,-197.78916931152344,59.86956787109375,-28.809814453125
1773521762724159700,0.97215966796875,-196.70999145507812,61.61607360839844,-30.787353515625
1773521762734281700,0.98228173828125,-195.6573944091797,62.89208984375,-32.70121765136719
1773521762744403700,0.99240380859375,-193.93206787109375,64.19337463378906,-34.4713134765625
1773521762754527000,1.00252685546875,-192.61778259277344,65.59030151367188,-36.31658935546875
1773521762764648700,1.012648681640625,-190.81687927246094,66.71231079101562,-38.05072021484375
1773521762774770700,1.022770751953125,-189.00601196289062,67.66566467285156,-39.901092529296875
1773521762784892000,1.032891845703125,-187.6657257080078,68.72181701660156,-41.64582824707031
1773521762795013600,1.043013671875,-185.2111053466797,69.33917236328125,-43.08134460449219
1773521762805133800,1.0531337890625,-183.6981658935547,69.93186950683594,-44.271026611328125
1773521762815254800,1.0632548828125,-181.94381713867188,70.45417785644531,-45.60124206542969
1773521762825375700,1.073375732421875,-180.7920684814453,70.55979919433594,-46.72541809082031
1773521762835498000,1.083498046875,-180.23728942871094,70.66258239746094,-47.73188781738281
1773521762845619700,1.09361962890625,-179.20706176757812,70.71395874023438,-48.57810974121094
1773521762855741700,1.10374169921875,-178.90139770507812,71.01119995117188,-49.4537353515625
1773521762865864700,1.11386474609375,-177.42234802246094,70.91162109375,-49.936279296875
1773521762875985700,1.123985595703125,-177.99920654296875,70.86553955078125,-50.53056335449219
1773521762886105900,1.13410595703125,-178.34103393554688,70.84140014648438,-50.97483825683594
1773521762896227800,1.144227783203125,-178.35020446777344,70.77500915527344,-51.178863525390625
1773521762906348800,1.154348876953125,-178.43130493164062,71.0614013671875,-51.11619567871094
1773521762916470800,1.164470703125,-179.01919555664062,71.00588989257812,-51.20515441894531
1773521762926592800,1.1745927734375,-179.45111083984375,70.66996765136719,-50.92315673828125
1773521762936714200,1.18471435546875,-180.09031677246094,70.76841735839844,-50.51336669921875
1773521762946836200,1.194836181640625,-180.85647583007812,70.59945678710938,-50.3560791015625
1773521762956959200,1.204959228515625,-181.66104125976562,70.52749633789062,-49.77207946777344
1773521762967081000,1.2150810546875,-182.92982482910156,70.36430358886719,-49.35444641113281
1773521762977203200,1.225203125,-183.703369140625,70.16502380371094,-48.9857177734375
1773521762987324200,1.23532421875,-184.60548400878906,70.03097534179688,-48.64454650878906
1773521762997447200,1.245447265625,-185.7847137451172,69.59829711914062,-48.336944580078125
1773521763007570200,1.255570068359375,-186.1250457763672,69.45710754394531,-48.02986145019531
1773521763017692200,1.265692138671875,-187.43894958496094,69.12789916992188,-47.865936279296875
1773521763027813000,1.275813232421875,-188.65411376953125,68.95892333984375,-47.867828369140625
1773521763037934000,1.28593408203125,-189.17330932617188,68.3048095703125,-47.606353759765625
1773521763048056000,1.29605615234375,-189.759033203125,68.539306640625,-47.874755859375
1773521763058178300,1.30617822265625,-190.20558166503906,68.06291198730469,-47.840301513671875
1773521763068301300,1.31630126953125,-191.01731872558594,68.0333251953125,-48.008270263671875
1773521763078422000,1.326422119140625,-191.77955627441406,67.79869079589844,-48.263946533203125
1773521763088542200,1.336542236328125,-192.81704711914062,67.56642150878906,-48.22673034667969
1773521763098661000,1.3466611328125,-193.2269287109375,67.030517578125,-47.843475341796875
1773521763108782000,1.356781982421875,-194.13290405273438,66.70895385742188,-48.111572265625
1773521763118903000,1.366903076171875,-194.8335723876953,66.78279113769531,-47.77485656738281
1773521763129024300,1.377024169921875,-195.59429931640625,66.29898071289062,-47.998687744140625
1773521763139144200,1.387144287109375,-196.0393829345703,66.05880737304688,-47.79673767089844
1773521763149263000,1.39726318359375,-196.3767852783203,65.85153198242188,-47.37945556640625
1773521763159383000,1.407383056640625,-197.02940368652344,65.55827331542969,-47.38276672363281
1773521763169503200,1.417503173828125,-196.851318359375,65.51438903808594,-47.20558166503906
1773521763179624200,1.427624267578125,-196.77276611328125,65.57597351074219,-47.135040283203125
1773521763189745200,1.4377451171875,-196.51409912109375,65.62068176269531,-46.81036376953125
1773521763199865000,1.447864990234375,-196.23680114746094,65.69863891601562,-46.51478576660156
1773521763209984000,1.45798388671875,-195.6201171875,65.67892456054688,-46.079864501953125
1773521763220104200,1.468104248046875,-195.1732635498047,66.04939270019531,-45.541839599609375
1773521763230225200,1.47822509765625,-194.76669311523438,66.359130859375,-45.245635986328125
1773521763240346000,1.48834619140625,-193.8671112060547,66.52688598632812,-44.41426086425781
1773521763250467000,1.498467041015625,-193.7146453857422,66.52778625488281,-43.934814453125
1773521763260586200,1.508586181640625,-193.15512084960938,66.61863708496094,-43.6578369140625
1773521763270706200,1.5187060546875,-192.160400390625,66.97549438476562,-43.28065490722656
1773521763280827100,1.5288271484375,-191.61778259277344,67.02125549316406,-43.11956787109375
1773521763290947000,1.538947021484375,-190.5115203857422,67.24574279785156,-42.765045166015625
1773521763301068000,1.549068115234375,-189.9051971435547,67.33207702636719,-42.619110107421875
1773521763311189200,1.559189208984375,-189.1237335205078,67.7510986328125,-42.49302673339844
1773521763321310000,1.56931005859375,-188.7724151611328,67.7127685546875,-42.17724609375
1773521763331430100,1.57943017578125,-187.91586303710938,68.07749938964844,-42.04045104980469
1773521763341549000,1.589549072265625,-187.02259826660156,68.03999328613281,-41.92857360839844
1773521763351669000,1.5996689453125,-186.12571716308594,68.27532958984375,-41.63751220703125
1773521763361789200,1.6097890625,-185.40371704101562,68.39964294433594,-41.61444091796875
1773521763371909000,1.6199091796875,-184.86474609375,68.5328369140625,-41.3953857421875
1773521763382029000,1.630029052734375,-184.3339080810547,68.63523864746094,-41.06591796875
1773521763392149200,1.640149169921875,-184.12864685058594,68.31671142578125,-41.05873107910156
1773521763402270000,1.65027001953125,-183.53982543945312,68.55909729003906,-41.07366943359375
1773521763412390100,1.66039013671875,-183.4825897216797,68.57749938964844,-41.06916809082031
1773521763422510000,1.670510009765625,-183.23544311523438,68.73565673828125,-41.13966369628906
1773521763432632300,1.68063232421875,-183.30299377441406,68.96905517578125,-41.12184143066406
1773521763442752000,1.690751953125,-183.10394287109375,68.57136535644531,-41.10894775390625
1773521763452872000,1.700871826171875,-182.94297790527344,68.61744689941406,-40.92808532714844
1773521763462992100,1.7109921875,-182.58047485351562,68.72348022460938,-40.81658935546875
1773521763473111000,1.721111083984375,-183.01168823242188,68.60160827636719,-40.5938720703125
1773521763483230200,1.731230224609375,-183.7019805908203,68.29840087890625,-40.14598083496094
1773521763493351200,1.74135107421875,-184.99679565429688,67.94966125488281,-39.722198486328125
1773521763503472000,1.75147216796875,-185.8315887451172,67.56182861328125,-39.13838195800781
1773521763513594000,1.761593994140625,-187.41152954101562,67.35050964355469,-38.54231262207031
1773521763523715300,1.77171533203125,-187.86767578125,66.98391723632812,-37.82798767089844
1773521763533837000,1.781837158203125,-189.05044555664062,66.4212646484375,-37.34979248046875
1773521763543958300,1.791958251953125,-189.72764587402344,65.83634948730469,-36.62969970703125
1773521763554078200,1.802078125,-190.2483367919922,65.66215515136719,-35.72021484375
1773521763564198100,1.8121982421875,-190.81346130371094,65.05717468261719,-34.61506652832031
1773521763574317300,1.8223173828125,-190.62367248535156,64.67341613769531,-33.53302001953125
1773521763584438000,1.83243798828125,-191.0460205078125,64.06639099121094,-32.51091003417969
1773521763594559200,1.842559326171875,-191.23582458496094,63.351470947265625,-31.328598022460938
1773521763604679200,1.85267919921875,-191.37994384765625,62.649566650390625,-29.97418212890625
1773521763614799400,1.86279931640625,-191.06463623046875,61.81800842285156,-28.753204345703125
1773521763624919300,1.872919189453125,-190.84341430664062,61.19769287109375,-27.540863037109375
1773521763635040000,1.8830400390625,-190.50039672851562,60.567169189453125,-26.472946166992188
1773521763645160200,1.89316015625,-191.20152282714844,59.831573486328125,-25.380035400390625
1773521763655281200,1.90328125,-191.18792724609375,59.13360595703125,-24.006179809570312
1773521763665400300,1.913400390625,-191.3335418701172,58.40776062011719,-22.982254028320312
1773521763675521000,1.92352099609375,-191.1759796142578,57.27964782714844,-21.857254028320312
1773521763685641000,1.933640869140625,-191.56243896484375,56.713775634765625,-21.024322509765625
1773521763695761200,1.94376123046875,-191.79916381835938,55.702239990234375,-20.148895263671875
1773521763705883400,1.95388330078125,-192.0319366455078,54.76301574707031,-19.1756591796875
1773521763716005000,1.964005126953125,-192.29086303710938,54.02911376953125,-18.258132934570312
1773521763726126000,1.9741259765625,-193.08128356933594,53.22062683105469,-17.785369873046875
1773521763736246000,1.98424609375,-193.05325317382812,52.34197998046875,-16.84063720703125
1773521763746366200,1.9943662109375,-193.06690979003906,51.60395812988281,-16.039749145507812
1773521763756485000,2.004485107421875,-192.98081970214844,50.78349304199219,-15.13519287109375
1773521763766604300,2.014604248046875,-192.48890686035156,50.061553955078125,-14.56268310546875
1773521763776724200,2.02472412109375,-192.1973876953125,49.35212707519531,-13.717453002929688
1773521763786844200,2.03484423828125,-191.608642578125,48.77909851074219,-13.166259765625
1773521763796964000,2.044964111328125,-190.9783477783203,48.42889404296875,-12.57635498046875
1773521763807083000,2.0550830078125,-190.66917419433594,47.8822021484375,-11.977203369140625
1773521763817202200,2.0652021484375,-190.75775146484375,47.538818359375,-11.88250732421875
1773521763827322400,2.075322265625,-191.7140655517578,47.55450439453125,-11.9554443359375
1773521763837442000,2.085442138671875,-193.92613220214844,46.91017150878906,-12.39990234375
1773521763847561200,2.095561279296875,-196.34619140625,46.700714111328125,-13.26776123046875
1773521763857681200,2.10568115234375,-199.30152893066406,46.02154541015625,-14.320755004882812
1773521763867802000,2.115802001953125,-203.15896606445312,45.19276428222656,-16.230911254882812
1773521763877923300,2.12592333984375,-207.1919708251953,44.03814697265625,-18.612777709960938
1773521763888045000,2.136045166015625,-211.29969787597656,43.174163818359375,-21.944961547851562
1773521763898167000,2.1461669921875,-215.67352294921875,41.69354248046875,-25.761154174804688
1773521763908288300,2.156288330078125,-219.41696166992188,39.48448181152344,-30.435882568359375
1773521763918408200,2.166408203125,-223.2296905517578,36.991058349609375,-35.82133483886719
1773521763928528100,2.176528076171875,-224.3948974609375,35.13102722167969,-37.953277587890625
1773521763938652400,2.18665234375,-225.04888916015625,33.5419921875,-38.344024658203125
1773521763948773600,2.196773681640625,-224.88075256347656,32.68208312988281,-38.13873291015625
1773521763958894800,2.206894775390625,-225.19532775878906,32.83885192871094,-38.548492431640625
1773521763969016600,2.2170166015625,-225.0983428955078,33.6185302734375,-38.83784484863281
1773521763979139600,2.2271396484375,-224.49725341796875,35.120269775390625,-39.061859130859375
1773521763989261600,2.237261474609375,-223.98648071289062,36.3028564453125,-38.94606018066406
1773521763999384600,2.247384521484375,-223.52523803710938,37.85894775390625,-39.46678161621094
1773521764009505500,2.257505615234375,-223.23199462890625,39.16868591308594,-40.04374694824219
1773521764019626500,2.26762646484375,-222.61044311523438,40.7139892578125,-40.351531982421875
1773521764029746400,2.277746337890625,-222.4445037841797,41.73883056640625,-40.51499938964844
1773521764039867600,2.28786767578125,-222.02749633789062,42.91371154785156,-41.32331848144531
1773521764049988600,2.297988525390625,-221.8528289794922,43.36912536621094,-42.17491149902344
1773521764060109600,2.308109619140625,-221.64418029785156,44.606475830078125,-43.828155517578125
1773521764070230800,2.318230712890625,-221.10545349121094,45.019287109375,-44.753631591796875
1773521764080351500,2.3283515625,-221.10617065429688,45.8990478515625,-45.89759826660156
1773521764090472700,2.33847265625,-220.68203735351562,46.52937316894531,-46.39842224121094
1773521764100592600,2.348592529296875,-220.3345184326172,47.13441467285156,-47.17793273925781
1773521764110712600,2.358712646484375,-220.0664825439453,47.55894470214844,-47.53370666503906
1773521764120832800,2.368832763671875,-219.99974060058594,48.54310607910156,-48.11553955078125
1773521764130953500,2.378953369140625,-219.6160888671875,48.919189453125,-48.06452941894531
1773521764141074700,2.38907470703125,-218.8376922607422,49.56352233886719,-48.12239074707031
1773521764151195600,2.399195556640625,-218.81468200683594,49.79901123046875,-48.343109130859375
1773521764161317600,2.409317626953125,-218.48402404785156,50.36663818359375,-48.46894836425781
1773521764171438600,2.4194384765625,-218.2709197998047,50.71357727050781,-48.333160400390625
1773521764181558500,2.42955859375,-217.993896484375,51.39288330078125,-47.944091796875
1773521764191678500,2.439678466796875,-217.66519165039062,51.862396240234375,-47.070770263671875
1773521764201799700,2.449799560546875,-217.1351776123047,52.239044189453125,-46.66477966308594
1773521764211920400,2.45992041015625,-217.18862915039062,52.18937683105469,-45.99186706542969
1773521764222041600,2.47004150390625,-217.16452026367188,52.46922302246094,-45.117218017578125
1773521764232162800,2.480162841796875,-216.7489013671875,52.19207763671875,-43.78163146972656
1773521764242283500,2.490283447265625,-216.46392822265625,52.28271484375,-42.50831604003906
1773521764252402400,2.50040234375,-216.0884246826172,52.155609130859375,-41.021453857421875
1773521764262522600,2.510522705078125,-215.93711853027344,52.323699951171875,-39.865264892578125
1773521764272642600,2.520642578125,-215.48056030273438,51.74629211425781,-38.217987060546875
1773521764282762500,2.530762451171875,-214.95111083984375,51.73118591308594,-36.554779052734375
1773521764292883700,2.5408837890625,-214.4355926513672,51.68089294433594,-35.12818908691406
1773521764303003600,2.551003662109375,-213.72714233398438,51.79963684082031,-33.63349914550781
1773521764313123600,2.56112353515625,-212.5909423828125,51.837615966796875,-32.05818176269531
1773521764323245600,2.57124560546875,-211.2552947998047,52.114654541015625,-30.356048583984375
1773521764333365800,2.58136572265625,-209.7478790283203,52.77574157714844,-28.758346557617188
1773521764343485700,2.591485595703125,-207.85777282714844,53.72674560546875,-27.405136108398438
1773521764353604600,2.6016044921875,-206.07711791992188,54.85371398925781,-26.2530517578125
1773521764363724800,2.611724853515625,-203.7925262451172,56.205047607421875,-25.382186889648438
1773521764373843700,2.62184375,-201.35763549804688,57.7979736328125,-24.972091674804688
1773521764383963600,2.631963623046875,-198.85316467285156,59.518096923828125,-24.880264282226562
1773521764394083600,2.64208349609375,-196.12347412109375,61.20196533203125,-25.130264282226562
1773521764404203800,2.652203857421875,-193.844970703125,63.18565368652344,-25.693740844726562
1773521764414324500,2.662324462890625,-191.90757751464844,64.61967468261719,-26.820648193359375
1773521764424445700,2.67244580078125,-190.4683074951172,66.50199890136719,-28.355880737304688
1773521764434564600,2.682564697265625,-189.58531188964844,68.08778381347656,-30.639617919921875
1773521764444685800,2.692685791015625,-189.60308837890625,69.02334594726562,-33.00862121582031
1773521764454804700,2.7028046875,-190.07730102539062,70.00318908691406,-35.61309814453125
1773521764464924700,2.712924560546875,-192.0107879638672,70.46046447753906,-37.76750183105469
1773521764475043600,2.723043701171875,-193.8835906982422,70.37889099121094,-39.79505920410156
1773521764485163800,2.733163818359375,-196.2591552734375,69.78628540039062,-41.286407470703125
1773521764495281700,2.74328173828125,-198.82635498046875,68.83908081054688,-42.31849670410156
1773521764505401600,2.753401611328125,-201.02554321289062,67.66726684570312,-42.68232727050781
1773521764515521500,2.763521484375,-203.4749755859375,66.32310485839844,-42.71101379394531
1773521764525640700,2.773640625,-205.75489807128906,64.96412658691406,-42.45147705078125
1773521764535760600,2.7837607421875,-207.6508026123047,63.56721496582031,-41.96293640136719
1773521764545880600,2.793880615234375,-208.6416778564453,62.83319091796875,-41.81365966796875
1773521764556000800,2.804000732421875,-209.50799560546875,61.97364807128906,-41.717315673828125
1773521764566119700,2.81411962890625,-209.66627502441406,61.8519287109375,-41.253082275390625
1773521764576238600,2.824238525390625,-209.863037109375,61.85667419433594,-41.50202941894531
1773521764586358500,2.834358642578125,-210.12576293945312,62.43534851074219,-41.43109130859375
1773521764596478700,2.844478759765625,-209.5532989501953,62.68464660644531,-41.30982971191406
1773521764606599700,2.854599609375,-208.72564697265625,62.930908203125,-40.67399597167969
1773521764616720600,2.864720703125,-208.38072204589844,63.1990966796875,-39.831695556640625
1773521764626842600,2.874842529296875,-208.32594299316406,63.30023193359375,-38.79219055175781
1773521764636963600,2.884963623046875,-207.68226623535156,63.07112121582031,-37.789093017578125
1773521764647084800,2.895084716796875,-207.26988220214844,63.273284912109375,-36.80033874511719
1773521764657206500,2.90520654296875,-206.95970153808594,62.95960998535156,-35.56730651855469
1773521764667327700,2.91532763671875,-206.1435089111328,63.05174255371094,-34.648162841796875
1773521764677448400,2.925448486328125,-205.87771606445312,63.001556396484375,-33.47285461425781
1773521764687568600,2.935568603515625,-205.50927734375,63.00128173828125,-32.63014221191406
1773521764697690600,2.945690673828125,-204.87350463867188,62.44181823730469,-31.622039794921875
1773521764707811600,2.9558115234375,-204.39187622070312,62.192840576171875,-30.742401123046875
1773521764717933600,2.96593359375,-204.2994842529297,61.72532653808594,-30.115188598632812
1773521764728053500,2.976053466796875,-203.93829345703125,61.60169982910156,-29.286514282226562
1773521764738175700,2.98617578125,-203.699951171875,61.12025451660156,-28.481307983398438
1773521764748297700,2.996297607421875,-203.50514221191406,60.794189453125,-27.749191284179688
1773521764758418700,3.006418701171875,-203.25335693359375,60.35052490234375,-26.988739013671875
1773521764768540700,3.016540771484375,-203.43408203125,59.83421325683594,-26.472671508789062
1773521764778661600,3.02666162109375,-203.166015625,59.243804931640625,-25.992645263671875
1773521764788782600,3.036782470703125,-203.12692260742188,59.396636962890625,-25.401153564453125
1773521764798903800,3.04690380859375,-203.0416717529297,59.08006286621094,-25.109375
1773521764809025500,3.057025634765625,-203.4536895751953,58.61085510253906,-24.667221069335938
1773521764819145700,3.067145751953125,-203.81687927246094,58.27507019042969,-24.238983154296875
1773521764829265700,3.077265625,-204.2407989501953,57.79930114746094,-23.775985717773438
1773521764839386600,3.08738671875,-204.3626708984375,57.311309814453125,-23.187484741210938
1773521764849507600,3.097507568359375,-204.27569580078125,56.99577331542969,-22.423873901367188
1773521764859627800,3.107627685546875,-203.9066162109375,56.47418212890625,-22.1458740234375
1773521764869748500,3.11774853515625,-203.11532592773438,56.710235595703125,-21.416152954101562
1773521764879868400,3.127868408203125,-202.9252471923828,56.95484924316406,-21.506500244140625
1773521764889989600,3.13798974609375,-202.63717651367188,56.75572204589844,-21.182510375976562
1773521764900110800,3.14811083984375,-202.03111267089844,56.68463134765625,-20.732131958007812
1773521764910231600,3.1582314453125,-202.09414672851562,56.878082275390625,-20.851882934570312
1773521764920352800,3.168352783203125,-202.16844177246094,56.83076477050781,-20.616104125976562
1773521764930472700,3.17847265625,-201.53741455078125,56.70780944824219,-20.687469482421875
1773521764940592400,3.18859228515625,-202.06338500976562,56.64741516113281,-20.777801513671875
1773521764950712300,3.19871240234375,-202.2917938232422,56.86079406738281,-20.991363525390625
1773521764960833300,3.208833251953125,-202.923583984375,56.66230773925781,-21.602203369140625
1773521764970953200,3.218953125,-203.77133178710938,56.4443359375,-21.7926025390625
1773521764981072100,3.229072021484375,-203.8807830810547,56.434814453125,-22.116592407226562
1773521764991191000,3.23919091796875,-204.4322052001953,56.162872314453125,-22.3131103515625
1773521765001311200,3.249311279296875,-204.9717254638672,56.18043518066406,-22.833282470703125
1773521765011431200,3.25943115234375,-205.28965759277344,56.39112854003906,-23.491561889648438
1773521765021550000,3.269550048828125,-205.781494140625,56.48109436035156,-24.089599609375
1773521765031670300,3.279670166015625,-206.1395721435547,56.65998840332031,-24.763992309570312
1773521765041790200,3.289790283203125,-206.21925354003906,56.69261169433594,-25.343414306640625
1773521765051910100,3.29991015625,-207.0165557861328,57.18461608886719,-26.342056274414062
1773521765062031400,3.31003125,-207.44552612304688,57.45375061035156,-27.278900146484375
1773521765072153300,3.3201533203125,-208.32298278808594,57.71784973144531,-28.313308715820312
1773521765082273300,3.330273193359375,-208.47007751464844,58.14202880859375,-29.13897705078125
1773521765092394200,3.340394287109375,-208.59986877441406,58.40330505371094,-30.16937255859375
1773521765102515200,3.35051513671875,-208.79669189453125,58.94367980957031,-31.172439575195312
1773521765112637200,3.36063720703125,-209.30784606933594,59.28814697265625,-32.37474060058594
1773521765122758100,3.370758056640625,-209.21066284179688,59.02001953125,-33.171875
1773521765132879400,3.38087939453125,-210.0299072265625,59.20954895019531,-33.97956848144531
1773521765143000000,3.391,-210.96783447265625,58.94789123535156,-34.780548095703125
1773521765153121300,3.401121337890625,-211.01101684570312,58.84063720703125,-35.46519470214844
1773521765163241200,3.4112412109375,-211.55416870117188,58.73664855957031,-36.26075744628906
1773521765173361400,3.421361328125,-211.75389099121094,58.671783447265625,-36.99922180175781
1773521765183481300,3.4314814453125,-212.1438751220703,58.33709716796875,-37.10664367675781
1773521765193599200,3.44159912109375,-213.20745849609375,57.42424011230469,-37.36424255371094
1773521765203720400,3.451720458984375,-213.2005615234375,56.99235534667969,-37.6280517578125
1773521765213840100,3.461840087890625,-213.08816528320312,56.910736083984375,-37.711700439453125
1773521765223960000,3.4719599609375,-213.31874084472656,57.14283752441406,-38.17669677734375
1773521765234080300,3.482080322265625,-213.46505737304688,56.97892761230469,-38.37138366699219
1773521765244200200,3.4922001953125,-213.8746337890625,57.22520446777344,-38.44146728515625
1773521765254321400,3.5023212890625,-213.992431640625,56.97735595703125,-38.62300109863281
1773521765264442000,3.512442138671875,-213.9222869873047,57.00593566894531,-38.7193603515625
1773521765274562000,3.52256201171875,-213.8315887451172,56.975830078125,-38.72084045410156
1773521765284683300,3.532683349609375,-214.331298828125,56.77806091308594,-38.65144348144531
1773521765294804200,3.54280419921875,-214.08116149902344,56.83477783203125,-38.47102355957031
1773521765304925200,3.55292529296875,-214.16839599609375,56.592437744140625,-38.20280456542969
1773521765315044000,3.563044189453125,-214.1361083984375,56.87303161621094,-37.8348388671875
1773521765325166300,3.573166259765625,-213.89443969726562,56.741241455078125,-37.67253112792969
1773521765335287300,3.583287353515625,-213.5497283935547,56.855438232421875,-37.957489013671875
1773521765345406200,3.59340625,-213.57443237304688,56.69891357421875,-38.28619384765625
1773521765355526100,3.603526123046875,-214.05654907226562,56.511871337890625,-38.65269470214844
1773521765365646000,3.61364599609375,-214.281005859375,56.67839050292969,-38.92445373535156
1773521765375765200,3.62376513671875,-214.26605224609375,56.30601501464844,-38.8701171875
1773521765385887200,3.63388720703125,-214.4297332763672,56.24006652832031,-39.10856628417969
1773521765396009200,3.64400927734375,-214.53146362304688,56.200042724609375,-39.481231689453125
1773521765406129200,3.654129150390625,-215.12149047851562,55.876373291015625,-40.111968994140625
1773521765416250000,3.66425,-215.79745483398438,55.4921875,-40.75654602050781
1773521765426370000,3.6743701171875,-216.71531677246094,54.81532287597656,-41.589202880859375
1773521765436492300,3.6844921875,-217.177001953125,54.118927001953125,-42.055999755859375
1773521765446613200,3.69461328125,-217.6467742919922,53.303253173828125,-42.37998962402344
1773521765456735200,3.7047353515625,-218.3904571533203,52.956207275390625,-42.71318054199219
1773521765466857200,3.714857177734375,-218.55311584472656,52.32551574707031,-42.697967529296875
1773521765476978200,3.724978271484375,-218.9263153076172,52.18206787109375,-43.117462158203125
1773521765487100200,3.73510009765625,-218.9744415283203,52.232879638671875,-43.58416748046875
1773521765497221000,3.74522119140625,-219.15313720703125,52.427154541015625,-43.913238525390625
1773521765507344100,3.75534423828125,-218.67105102539062,52.911346435546875,-44.04411315917969
1773521765517465300,3.76546533203125,-218.39642333984375,53.09745788574219,-43.5155029296875
1773521765527586300,3.77558642578125,-218.2724151611328,53.16981506347656,-42.50352478027344
1773521765537708300,3.785708251953125,-217.95387268066406,53.40318298339844,-41.810821533203125
1773521765547829200,3.795829345703125,-217.54867553710938,53.818511962890625,-41.034210205078125
1773521765557951200,3.805951171875,-217.39947509765625,53.96507263183594,-40.029754638671875
1773521765568073200,3.8160732421875,-217.47845458984375,53.785247802734375,-39.287353515625
1773521765578195500,3.826195556640625,-217.2088623046875,53.7041015625,-38.21385192871094
1773521765588314400,3.836314453125,-216.44580078125,53.92359924316406,-37.375823974609375
1773521765598434300,3.846434326171875,-216.585205078125,53.9296875,-36.868499755859375
1773521765608554200,3.85655419921875,-216.01541137695312,54.18336486816406,-36.01312255859375
1773521765618674200,3.866674072265625,-215.43270874023438,54.27294921875,-35.74418640136719
1773521765628794000,3.876794189453125,-214.93548583984375,54.82331848144531,-35.3212890625
1773521765638914300,3.886914306640625,-214.02847290039062,55.54042053222656,-35.28163146972656
1773521765649034200,3.8970341796875,-213.5966339111328,56.46905517578125,-35.216888427734375
1773521765659154200,3.907154296875,-212.22816467285156,57.43440246582031,-35.444976806640625
1773521765669275400,3.917275390625,-211.39251708984375,58.3731689453125,-35.23963928222656
1773521765679395000,3.92739501953125,-210.78524780273438,58.722442626953125,-35.01786804199219
1773521765689517300,3.937517333984375,-210.5971221923828,58.740966796875,-34.194580078125
1773521765699638000,3.947637939453125,-210.00926208496094,58.67169189453125,-33.28874206542969
1773521765709759200,3.95775927734375,-209.69810485839844,58.31571960449219,-32.39469909667969
1773521765719881200,3.967881103515625,-209.69273376464844,58.55412292480469,-31.711669921875
1773521765730003500,3.97800341796875,-209.1798553466797,58.14909362792969,-30.869766235351562
1773521765740125200,3.988125244140625,-208.6212158203125,58.025238037109375,-30.102294921875
1773521765750246400,3.998246337890625,-208.7591552734375,57.84968566894531,-29.246658325195312
1773521765760366000,4.008365966796875,-208.73912048339844,57.54548645019531,-28.855621337890625
1773521765770488300,4.01848828125,-208.4512939453125,57.11967468261719,-28.359451293945312
1773521765780609000,4.028609130859375,-208.37892150878906,56.9677734375,-28.080703735351562
1773521765790730200,4.038730224609375,-208.52362060546875,56.89732360839844,-27.846343994140625
1773521765800851500,4.0488515625,-208.04212951660156,56.89186096191406,-27.321685791015625
1773521765810970400,4.058970458984375,-208.47755432128906,57.01811218261719,-27.64031982421875
1773521765821091000,4.069091064453125,-208.27809143066406,56.830230712890625,-27.470947265625
1773521765831213300,4.07921337890625,-208.3914031982422,56.674468994140625,-27.64288330078125
1773521765841334300,4.089334228515625,-208.83267211914062,56.51213073730469,-27.8138427734375
1773521765851456300,4.099456298828125,-209.04345703125,56.32478332519531,-27.966949462890625
1773521765861578200,4.109578125,-209.5218963623047,56.252105712890625,-28.332382202148438
1773521765871700200,4.1197001953125,-209.94845581054688,56.09480285644531,-28.365982055664062
1773521765881821200,4.1298212890625,-210.01727294921875,56.17900085449219,-28.597000122070312
1773521765891942100,4.139942138671875,-210.26832580566406,55.79066467285156,-28.470016479492188
1773521765902064400,4.150064453125,-210.3969268798828,55.6593017578125,-29.04388427734375
1773521765912186000,4.16018603515625,-210.43450927734375,55.858673095703125,-29.627548217773438
1773521765922306300,4.170306396484375,-210.7954559326172,55.73893737792969,-29.818389892578125
1773521765932427300,4.18042724609375,-210.9046173095703,55.79541015625,-30.045242309570312
1773521765942544000,4.1905439453125,-211.1739959716797,56.15470886230469,-30.628265380859375
1773521765952664600,4.20066455078125,-210.91944885253906,56.21070861816406,-31.031219482421875
1773521765962786600,4.21078662109375,-211.53123474121094,56.115875244140625,-31.5604248046875
1773521765972908800,4.22090869140625,-211.6919403076172,56.33311462402344,-32.16133117675781
1773521765983028700,4.23102880859375,-211.87083435058594,56.304840087890625,-32.42863464355469
1773521765993149700,4.241149658203125,-211.76901245117188,56.56114196777344,-33.01292419433594
1773521766003270700,4.251270751953125,-211.7779998779297,56.93910217285156,-33.19062805175781
1773521766013391600,4.2613916015625,-211.42124938964844,56.99339294433594,-33.55967712402344
1773521766023512600,4.2715126953125,-211.6591339111328,57.289764404296875,-34.07525634765625
1773521766033633800,4.2816337890625,-211.15415954589844,57.65577697753906,-34.16545104980469
1773521766043754500,4.29175439453125,-211.40939331054688,57.82086181640625,-34.71971130371094
1773521766053875700,4.301875732421875,-211.3103790283203,57.753692626953125,-35.009368896484375
1773521766063995600,4.31199560546875,-211.51600646972656,57.9722900390625,-35.37846374511719
1773521766074117600,4.32211767578125,-211.15428161621094,58.10345458984375,-35.504425048828125
1773521766084238800,4.33223876953125,-211.05918884277344,58.42805480957031,-35.77398681640625
1773521766094359600,4.342359619140625,-211.04605102539062,58.5343017578125,-36.15840148925781
1773521766104480800,4.352480712890625,-210.85885620117188,59.00090026855469,-36.18101501464844
1773521766114600700,4.3626005859375,-210.7100830078125,59.101531982421875,-36.41804504394531
1773521766124720600,4.372720703125,-210.3469696044922,59.16896057128906,-36.42414855957031
1773521766134839800,4.38283984375,-209.81044006347656,59.599090576171875,-36.59208679199219
1773521766144959700,4.392959716796875,-209.95545959472656,59.543243408203125,-36.53973388671875
1773521766155078700,4.40307861328125,-209.8428955078125,59.825042724609375,-36.4222412109375
1773521766165198600,4.413198486328125,-209.7669219970703,59.68382263183594,-36.31452941894531
1773521766175318800,4.42331884765625,-208.96507263183594,59.77284240722656,-35.86985778808594
1773521766185438700,4.433438720703125,-209.3218231201172,59.53448486328125,-35.75636291503906
1773521766195558700,4.44355859375,-208.7142333984375,59.55433654785156,-35.480224609375
1773521766205678600,4.4536787109375,-208.86997985839844,59.60084533691406,-35.4429931640625
1773521766215798500,4.463798583984375,-209.25482177734375,59.68522644042969,-35.21002197265625
1773521766225919700,4.473919677734375,-208.29835510253906,59.67437744140625,-35.238067626953125
1773521766236040700,4.484040771484375,-209.08543395996094,59.36395263671875,-35.51264953613281
1773521766246160600,4.49416064453125,-209.21934509277344,59.45033264160156,-36.197906494140625
1773521766256279800,4.50427978515625,-210.26036071777344,59.37498474121094,-36.84248352050781
1773521766266400500,4.514400390625,-210.16053771972656,59.69061279296875,-37.57795715332031
1773521766276520700,4.524520751953125,-210.7939453125,59.60652160644531,-38.56727600097656
1773521766286641700,4.5346416015625,-211.1009979248047,59.502716064453125,-39.69313049316406
1773521766296761900,4.544761962890625,-211.29669189453125,59.213714599609375,-40.759796142578125
1773521766306882600,4.554882568359375,-212.15907287597656,59.05485534667969,-42.38224792480469
1773521766317004800,4.5650048828125,-212.3522186279297,59.12886047363281,-43.79914855957031
1773521766327125500,4.57512548828125,-212.93121337890625,58.89054870605469,-45.79277038574219
1773521766337246700,4.585246826171875,-213.38218688964844,58.587890625,-47.36402893066406
1773521766347368700,4.59536865234375,-213.9711456298828,58.12406921386719,-48.484710693359375
1773521766357489700,4.60548974609375,-214.34873962402344,57.59442138671875,-49.27842712402344
1773521766367610600,4.615610595703125,-215.0019073486328,57.04499816894531,-49.60523986816406
1773521766377731600,4.625731689453125,-214.99754333496094,56.884063720703125,-50.0389404296875
1773521766387852500,4.6358525390625,-215.66342163085938,56.62260437011719,-50.66102600097656
1773521766397974800,4.645974853515625,-216.2110595703125,56.32701110839844,-50.743377685546875
1773521766408097800,4.656097900390625,-215.94912719726562,56.26628112792969,-51.11277770996094
1773521766418219500,4.666219482421875,-216.42889404296875,55.99519348144531,-51.411712646484375
1773521766428340700,4.6763408203125,-216.91891479492188,55.47245788574219,-51.810821533203125
1773521766438460700,4.686460693359375,-217.22080993652344,54.99263000488281,-51.90821838378906
1773521766448580900,4.696580810546875,-217.36123657226562,54.957794189453125,-52.2552490234375
1773521766458700500,4.706700439453125,-217.3204345703125,54.302490234375,-51.879638671875
1773521766468821800,4.71682177734375,-217.49246215820312,54.23210144042969,-51.89329528808594
1773521766478941700,4.726941650390625,-217.03057861328125,54.57353210449219,-51.392791748046875
1773521766489060600,4.737060546875,-217.09112548828125,54.54998779296875,-50.61528015136719
1773521766499180500,4.7471806640625,-216.82717895507812,54.70469665527344,-49.60221862792969
1773521766509299700,4.7572998046875,-216.6116485595703,54.701324462890625,-48.2393798828125
1773521766519419600,4.767419677734375,-216.22100830078125,54.65142822265625,-46.947723388671875
1773521766529540600,4.77754052734375,-216.2213592529297,54.632049560546875,-45.254791259765625
1773521766539660800,4.787660888671875,-216.15548706054688,54.498870849609375,-43.232635498046875
1773521766549779700,4.79777978515625,-215.87136840820312,54.052276611328125,-40.96533203125
1773521766559899600,4.807899658203125,-215.73326110839844,53.20783996582031,-38.802093505859375
1773521766570019800,4.818019775390625,-214.8131561279297,53.077301025390625,-36.48652648925781
1773521766580140500,4.828140625,-213.8371124267578,52.779083251953125,-34.010894775390625
1773521766590259500,4.838259521484375,-213.09085083007812,52.72126770019531,-32.12562561035156
1773521766600380700,4.848380615234375,-211.97816467285156,52.40055847167969,-29.744094848632812
1773521766610502000,4.858501953125,-211.0785369873047,52.378692626953125,-28.063278198242188
1773521766620622600,4.86862255859375,-209.89749145507812,51.70478820800781,-26.001449584960938
1773521766630743800,4.878743896484375,-209.01014709472656,50.90480041503906,-23.959121704101562
1773521766640863700,4.88886376953125,-207.66598510742188,49.39833068847656,-21.62396240234375
1773521766650984700,4.898984619140625,-207.15809631347656,47.769256591796875,-19.637725830078125
1773521766661105700,4.909105712890625,-207.31155395507812,45.31158447265625,-17.936782836914062
1773521766671226600,4.9192265625,-207.4000244140625,43.519927978515625,-16.788772583007812
1773521766681347600,4.92934765625,-207.42971801757812,42.51054382324219,-16.126922607421875
1773521766691468800,4.93946875,-207.32275390625,41.583648681640625,-15.7476806640625
1773521766701587700,4.949587646484375,-207.68763732910156,41.570037841796875,-15.9307861328125
1773521766711707600,4.959707763671875,-207.58335876464844,41.6717529296875,-15.99652099609375
1773521766721827800,4.969827880859375,-208.11737060546875,41.54313659667969,-16.20465087890625
1773521766731948500,4.979948486328125,-208.28016662597656,41.10844421386719,-16.354141235351562
1773521766742068700,4.99006884765625,-208.69993591308594,40.901519775390625,-16.345413208007812
1773521766752188700,5.000188720703125,-209.37452697753906,40.546112060546875,-16.796783447265625
1773521766762307600,5.0103076171875,-209.44032287597656,40.11509704589844,-16.660140991210938
1773521766772427500,5.020427490234375,-209.61337280273438,39.930023193359375,-16.659286499023438
1773521766782546700,5.030546630859375,-209.36312866210938,40.37385559082031,-16.301788330078125
1773521766792665600,5.04066552734375,-207.654052734375,40.61045837402344,-15.6334228515625
1773521766802786600,5.05078662109375,-206.42022705078125,41.06779479980469,-14.771926879882812
1773521766812906800,5.06090673828125,-203.85650634765625,41.306640625,-13.328857421875
1773521766823028500,5.071028564453125,-201.4423828125,41.51408386230469,-11.751998901367188
1773521766833149700,5.081149658203125,-198.8415069580078,41.50276184082031,-10.444305419921875
1773521766843272700,5.091272705078125,-195.9320831298828,40.56402587890625,-8.986404418945312
1773521766853392600,5.101392578125,-193.2598114013672,39.23402404785156,-7.2593841552734375
1773521766863512800,5.111512939453125,-190.81324768066406,36.996826171875,-5.71636962890625
1773521766873633500,5.121633544921875,-188.27413940429688,34.84492492675781,-4.333526611328125
1773521766883753500,5.13175341796875,-184.35858154296875,32.6649169921875,-3.037872314453125
1773521766893873700,5.141873779296875,-178.81915283203125,31.5306396484375,-2.4300689697265625
1773521766903992600,5.15199267578125,-173.22445678710938,30.943771362304688,-2.622283935546875
1773521766914111500,5.162111572265625,-167.51019287109375,30.459381103515625,-3.2382354736328125
1773521766924231700,5.172231689453125,-166.79408264160156,29.913040161132812,-3.0949554443359375
1773521766934350800,5.182350830078125,-167.96194458007812,30.51318359375,-2.9613189697265625
1773521766944470500,5.192470458984375,-170.12716674804688,32.38356018066406,-3.082183837890625
1773521766954589700,5.202589599609375,-172.0748291015625,34.75537109375,-3.4550018310546875
1773521766964708600,5.21270849609375,-173.60194396972656,36.57411193847656,-4.193634033203125
1773521766974826500,5.222826416015625,-173.4577178955078,37.366729736328125,-4.677032470703125
1773521766984946400,5.232946533203125,-172.89028930664062,38.199005126953125,-4.9395751953125
1773521766995066400,5.24306640625,-173.05703735351562,38.67424011230469,-5.2868194580078125
1773521767005185500,5.253185546875,-173.6165008544922,39.35931396484375,-5.4434814453125
1773521767015305500,5.263305419921875,-174.6241455078125,39.67567443847656,-5.6946258544921875
1773521767025425400,5.27342529296875,-174.93533325195312,40.04423522949219,-5.71466064453125
1773521767035545600,5.283545654296875,-176.03109741210938,40.3336181640625,-5.92437744140625
1773521767045666600,5.29366650390625,-177.5771942138672,40.86296081542969,-6.259918212890625
1773521767055786500,5.303786376953125,-178.70159912109375,41.44157409667969,-6.4040679931640625
1773521767065907500,5.313907470703125,-179.78016662597656,42.17408752441406,-6.92608642578125
1773521767076027400,5.32402734375,-180.30320739746094,43.392578125,-7.4313201904296875
1773521767086147600,5.334147705078125,-181.55479431152344,45.00398254394531,-8.649917602539062
1773521767096267500,5.344267578125,-181.8172607421875,46.381866455078125,-9.64556884765625
1773521767106386400,5.354386474609375,-182.2373809814453,47.80812072753906,-10.730300903320312
1773521767116506600,5.364506591796875,-182.44911193847656,48.8115234375,-11.328811645507812
1773521767126626600,5.37462646484375,-182.1400604248047,50.30216979980469,-12.525131225585938
1773521767136747500,5.38474755859375,-182.1451416015625,51.967742919921875,-13.84490966796875
1773521767146867500,5.394867431640625,-181.69369506835938,53.33740234375,-15.09857177734375
1773521767156988400,5.404988525390625,-181.24441528320312,55.009521484375,-16.56036376953125
1773521767167108600,5.415108642578125,-180.15814208984375,56.62852478027344,-18.117813110351562
1773521767177229300,5.425229248046875,-179.83619689941406,58.269866943359375,-20.165130615234375
1773521767187351600,5.4353515625,-179.11788940429688,59.814239501953125,-21.892822265625
1773521767197472500,5.445472412109375,-178.65576171875,61.19612121582031,-24.082382202148438
1773521767207592400,5.455592529296875,-177.8226318359375,62.65802001953125,-25.991531372070312
1773521767217712400,5.46571240234375,-177.16160583496094,63.90110778808594,-27.661575317382812
1773521767227833600,5.47583349609375,-176.42413330078125,64.70152282714844,-29.682907104492188
1773521767237953500,5.48595361328125,-175.10836791992188,65.02055358886719,-30.56903076171875
1773521767248072400,5.496072509765625,-173.22900390625,65.28260803222656,-31.379104614257812
1773521767258193400,5.506193359375,-170.9326934814453,65.34115600585938,-32.12361145019531
1773521767268313300,5.516313232421875,-168.20712280273438,65.52145385742188,-32.98109436035156
1773521767278432500,5.5264326171875,-166.8577117919922,65.20614624023438,-34.1553955078125
1773521767288553500,5.536553466796875,-164.4261016845703,65.50013732910156,-35.308258056640625
1773521767298673400,5.54667333984375,-163.00355529785156,65.21707153320312,-36.605194091796875
1773521767308792600,5.55679248046875,-161.53602600097656,65.42294311523438,-37.77110290527344
1773521767318912500,5.56691259765625,-160.53831481933594,65.24652099609375,-38.724639892578125
1773521767329032400,5.577032470703125,-159.1563262939453,64.8125,-39.379791259765625
1773521767339151400,5.5871513671875,-158.25518798828125,64.76889038085938,-40.15577697753906
1773521767349270500,5.5972705078125,-157.02191162109375,64.45603942871094,-40.79823303222656
1773521767359390500,5.607390380859375,-155.3673095703125,64.09577941894531,-41.011566162109375
1773521767369509400,5.61750927734375,-154.56906127929688,63.91455078125,-41.73530578613281
1773521767379628500,5.627628662109375,-153.3029022216797,63.32203674316406,-42.017425537109375
1773521767389747500,5.63774755859375,-153.12908935546875,63.036102294921875,-42.68098449707031
1773521767399867600,5.64786767578125,-152.55990600585938,62.957611083984375,-43.45130920410156
1773521767409986600,5.657986572265625,-151.2162628173828,62.76434326171875,-44.16764831542969
1773521767420105500,5.66810546875,-150.484375,62.17646789550781,-44.810394287109375
1773521767430224400,5.678224365234375,-150.04978942871094,62.07086181640625,-45.41291809082031
1773521767440342500,5.688342529296875,-149.30577087402344,61.76751708984375,-45.71305847167969
1773521767450461400,5.69846142578125,-148.2666473388672,61.3660888671875,-45.67572021484375
1773521767460579300,5.708579345703125,-147.89801025390625,60.59820556640625,-45.50306701660156
1773521767470698500,5.718698486328125,-146.8040313720703,60.08619689941406,-45.6580810546875
1773521767480817700,5.728817626953125,-145.79832458496094,59.35493469238281,-45.8248291015625
1773521767490936600,5.7389365234375,-145.1453399658203,59.206146240234375,-47.07505798339844
1773521767501056500,5.749056396484375,-144.83421325683594,59.07337951660156,-48.5721435546875
1773521767511177500,5.759177490234375,-145.1302032470703,59.49200439453125,-51.03279113769531
1773521767521295600,5.769295654296875,-145.0800018310547,59.810516357421875,-53.072967529296875
1773521767531414500,5.77941455078125,-145.48280334472656,59.988555908203125,-54.75648498535156
1773521767541533400,5.789533447265625,-145.37454223632812,59.799224853515625,-55.83650207519531
1773521767551652400,5.79965234375,-145.09959411621094,59.579345703125,-55.76335144042969
1773521767561771500,5.809771484375,-145.37437438964844,59.93524169921875,-55.17649841308594
1773521767571890700,5.819890625,-145.38050842285156,60.142547607421875,-54.030487060546875
1773521767582009600,5.830009521484375,-145.2919464111328,60.39289855957031,-52.50018310546875
1773521767592127500,5.84012744140625,-145.4476776123047,60.168792724609375,-51.112579345703125
1773521767602245600,5.85024560546875,-145.74765014648438,60.029754638671875,-50.293426513671875
1773521767612364500,5.860364501953125,-145.556396484375,60.06837463378906,-49.34675598144531
1773521767622484500,5.870484375,-145.8246612548828,60.49549865722656,-48.84922790527344
1773521767632603400,5.880603271484375,-146.5254364013672,60.671844482421875,-48.30047607421875
1773521767642721500,5.890721435546875,-146.28274536132812,60.68760681152344,-47.595184326171875
1773521767652839400,5.90083935546875,-146.77389526367188,60.71302795410156,-46.82481384277344
1773521767662958300,5.910958251953125,-146.89756774902344,60.43959045410156,-45.81260681152344
1773521767673076500,5.921076416015625,-147.1082000732422,60.23869323730469,-44.816680908203125
1773521767683195600,5.931195556640625,-147.1402130126953,60.544952392578125,-44.03578186035156
1773521767693313500,5.9413134765625,-147.24774169921875,60.52186584472656,-43.51927185058594
1773521767703431700,5.951431640625,-147.77244567871094,60.37290954589844,-43.133270263671875
1773521767713549300,5.96154931640625,-147.9004669189453,60.27693176269531,-42.26268005371094
1773521767723667500,5.97166748046875,-147.39822387695312,59.834716796875,-41.39994812011719
1773521767733784300,5.981784423828125,-147.3560791015625,59.85111999511719,-40.75651550292969
1773521767743902500,5.99190234375,-147.03170776367188,59.71205139160156,-40.53538513183594
1773521767754021400,6.002021484375,-146.8336181640625,59.28410339355469,-40.049835205078125
1773521767764141600,6.0121416015625,-147.19578552246094,59.20539855957031,-39.91319274902344
1773521767774261500,6.022261474609375,-147.07582092285156,59.133453369140625,-39.582183837890625
1773521767784381400,6.03238134765625,-146.93165588378906,58.76130676269531,-38.435699462890625
1773521767794501600,6.042501708984375,-147.2113800048828,58.97129821777344,-38.12345886230469
1773521767804622300,6.052622314453125,-147.6154327392578,58.828582763671875,-37.29685974121094
1773521767814743600,6.06274365234375,-147.56973266601562,58.392578125,-36.389495849609375
1773521767824864500,6.072864501953125,-147.7305145263672,58.18980407714844,-35.33460998535156
1773521767834984400,6.082984375,-147.87701416015625,57.481201171875,-33.910919189453125
1773521767845103600,6.093103515625,-148.83970642089844,56.9388427734375,-32.66314697265625
1773521767855224300,6.103224365234375,-148.4970245361328,56.499053955078125,-31.253631591796875
1773521767865344500,6.113344482421875,-149.1548614501953,55.866607666015625,-29.983917236328125
1773521767875464400,6.12346435546875,-149.4595184326172,54.66717529296875,-28.629501342773438
1773521767885584600,6.133584716796875,-149.39306640625,53.88848876953125,-27.50286865234375
1773521767895703600,6.14370361328125,-149.50921630859375,53.01806640625,-26.419448852539062
1773521767905824500,6.153824462890625,-148.9743194580078,52.23046875,-25.288604736328125
1773521767915944700,6.16394482421875,-149.26145935058594,51.13386535644531,-24.179611206054688
1773521767926065400,6.1740654296875,-149.28289794921875,50.73417663574219,-23.230621337890625
1773521767936186600,6.1841865234375,-149.4391632080078,49.645965576171875,-22.568832397460938
1773521767946310000,6.194309814453125,-149.56346130371094,49.05989074707031,-22.03143310546875
1773521767956428800,6.2044287109375,-149.1545867919922,48.518951416015625,-21.6036376953125
1773521767966548700,6.214548828125,-149.3011016845703,48.055023193359375,-21.437484741210938
1773521767976669000,6.2246689453125,-149.11656188964844,47.984710693359375,-21.462509155273438
1773521767986787800,6.234787841796875,-148.29608154296875,48.23388671875,-21.560638427734375
1773521767996907800,6.24490771484375,-148.58566284179688,48.17759704589844,-22.160293579101562
1773521768007027700,6.25502783203125,-147.84893798828125,47.98582458496094,-22.314697265625
1773521768017148000,6.26514794921875,-147.8068389892578,47.89036560058594,-22.49603271484375
1773521768027267600,6.275267578125,-147.56491088867188,47.791839599609375,-22.641998291015625
1773521768037385700,6.2853857421875,-147.1510009765625,47.82518005371094,-22.71893310546875
1773521768047506000,6.295505859375,-146.9188232421875,47.44642639160156,-22.897415161132812
1773521768057623600,6.30562353515625,-146.5419158935547,47.090576171875,-22.701309204101562
1773521768067741700,6.31574169921875,-146.137451171875,46.582672119140625,-22.13079833984375
1773521768077860900,6.32586083984375,-146.18563842773438,45.990570068359375,-21.945632934570312
1773521768087980800,6.335980712890625,-145.986572265625,44.98899841308594,-21.279541015625
1773521768098100700,6.346100830078125,-145.93954467773438,44.499755859375,-21.18841552734375
1773521768108218600,6.356218505859375,-145.96871948242188,43.97602844238281,-20.867172241210938
1773521768118336800,6.366336669921875,-145.07003784179688,43.6412353515625,-20.669479370117188
1773521768128453600,6.37645361328125,-145.26004028320312,43.790069580078125,-20.554107666015625
1773521768138572800,6.38657275390625,-145.38638305664062,44.015777587890625,-20.915420532226562
1773521768148691700,6.396691650390625,-145.4970245361328,44.13044738769531,-21.274917602539062
1773521768158812000,6.40681201171875,-145.49134826660156,44.80680847167969,-21.927886962890625
1773521768168931800,6.416931884765625,-145.06297302246094,46.0784912109375,-23.151809692382812
1773521768179052800,6.427052734375,-145.4977569580078,47.782958984375,-24.640853881835938
1773521768189171700,6.437171630859375,-145.36656188964844,50.23905944824219,-26.509658813476562
1773521768199291600,6.447291748046875,-146.28536987304688,52.72894287109375,-28.338027954101562
1773521768209411600,6.45741162109375,-146.97634887695312,54.974609375,-30.425216674804688
1773521768219531800,6.46753173828125,-148.58827209472656,57.1075439453125,-32.51466369628906
1773521768229651700,6.477651611328125,-149.64820861816406,58.88055419921875,-33.94673156738281
1773521768239772700,6.487772705078125,-150.71644592285156,60.3297119140625,-36.12274169921875
1773521768249893600,6.4978935546875,-151.252685546875,61.490509033203125,-37.57337951660156
1773521768260015600,6.508015625,-151.01390075683594,61.660400390625,-38.74491882324219
1773521768270137900,6.518137939453125,-151.10816955566406,62.00555419921875,-39.905853271484375
1773521768280258600,6.528258544921875,-150.87098693847656,61.821868896484375,-40.803497314453125
1773521768290380800,6.538380859375,-150.71524047851562,62.04664611816406,-41.055145263671875
1773521768300501800,6.548501708984375,-150.7711944580078,62.279449462890625,-40.893402099609375
1773521768310621700,6.55862158203125,-150.8610076904297,62.17323303222656,-40.462188720703125
1773521768320743000,6.568742919921875,-151.0070037841797,62.18934631347656,-39.99534606933594
1773521768330863600,6.578863525390625,-150.64578247070312,61.51930236816406,-39.55908203125
1773521768340984800,6.58898486328125,-150.27088928222656,61.322662353515625,-39.24391174316406
1773521768351105800,6.599105712890625,-149.16954040527344,60.87359619140625,-39.06224060058594
1773521768361226800,6.609226806640625,-148.8251190185547,60.275238037109375,-39.20237731933594
1773521768371346700,6.6193466796875,-148.20062255859375,59.93452453613281,-39.1163330078125
1773521768381468700,6.62946875,-147.95045471191406,59.141754150390625,-38.7261962890625
1773521768391589600,6.639589599609375,-146.9669952392578,58.94050598144531,-38.69114685058594
1773521768401711600,6.649711669921875,-146.3756866455078,58.96026611328125,-38.4051513671875
1773521768411832800,6.659832763671875,-146.64596557617188,58.70677185058594,-38.56031799316406
1773521768421953800,6.669953857421875,-146.87911987304688,58.71759033203125,-38.535430908203125
1773521768432074800,6.68007470703125,-146.75927734375,59.13816833496094,-38.925018310546875
1773521768442195700,6.69019580078125,-147.2718048095703,59.19453430175781,-39.0560302734375
1773521768452317700,6.700317626953125,-147.59510803222656,59.75270080566406,-39.39768981933594
1773521768462439000,6.71043896484375,-148.2597198486328,60.31867980957031,-39.75358581542969
1773521768472560600,6.720560546875,-149.1311492919922,61.039276123046875,-40.24491882324219
1773521768482680800,6.730680908203125,-150.2039794921875,61.877532958984375,-40.8514404296875
1773521768492801800,6.7408017578125,-150.5275115966797,62.502471923828125,-41.51506042480469
1773521768502923800,6.750923828125,-151.59884643554688,63.25123596191406,-42.43577575683594
1773521768513045800,6.761045654296875,-152.8706817626953,63.84309387207031,-43.15638732910156
1773521768523166700,6.771166748046875,-153.59271240234375,64.5738525390625,-44.36201477050781
1773521768533288700,6.781288818359375,-154.93356323242188,65.16436767578125,-45.73377990722656
1773521768543410700,6.79141064453125,-155.38027954101562,66.08927917480469,-47.32090759277344
1773521768553533700,6.80153369140625,-156.24700927734375,66.64686584472656,-49.38157653808594
1773521768563654700,6.811654541015625,-156.7166748046875,66.81071472167969,-51.829010009765625
1773521768573776000,6.82177587890625,-157.47344970703125,66.99760437011719,-54.61598205566406
1773521768583895800,6.831895751953125,-158.96958923339844,67.4305419921875,-57.53106689453125
1773521768594016800,6.842016845703125,-159.68716430664062,67.4969482421875,-60.455596923828125
1773521768604138800,6.852138671875,-160.43260192871094,67.25648498535156,-62.82456970214844
1773521768614260700,6.8622607421875,-160.77194213867188,66.73265075683594,-64.90333557128906
1773521768624382700,6.8723828125,-160.9482421875,66.470458984375,-66.28233337402344
1773521768634504000,6.88250390625,-160.53465270996094,66.1240234375,-67.22047424316406
1773521768644625700,6.892625732421875,-161.0751495361328,65.64659118652344,-68.25747680664062
1773521768654747600,6.90274755859375,-160.4945831298828,65.57095336914062,-68.96034240722656
1773521768664868900,6.912868896484375,-159.51771545410156,64.9776611328125,-68.77760314941406
1773521768674989800,6.92298974609375,-158.85113525390625,64.74177551269531,-68.64773559570312
1773521768685111800,6.93311181640625,-157.4868621826172,64.6007080078125,-68.19400024414062
1773521768695232500,6.943232421875,-157.57728576660156,64.55909729003906,-67.96517944335938
1773521768705354800,6.953354736328125,-157.49452209472656,64.81759643554688,-67.89776611328125
1773521768715476700,6.963476806640625,-157.28335571289062,64.53166198730469,-67.65176391601562
1773521768725598700,6.9735986328125,-156.87469482421875,64.26261901855469,-67.36909484863281
1773521768735719700,6.9837197265625,-156.7357940673828,64.32791137695312,-67.29718017578125
1773521768745841000,6.9938408203125,-156.46707153320312,64.1533203125,-67.18702697753906
1773521768755961600,7.003961669921875,-156.18067932128906,64.10362243652344,-67.45864868164062
1773521768766083800,7.014083740234375,-156.1494140625,64.21067810058594,-67.33203125
1773521768776205800,7.024205810546875,-156.009521484375,63.94287109375,-67.23408508300781
1773521768786328800,7.034328857421875,-156.6642303466797,64.2733154296875,-67.30641174316406
1773521768796451800,7.044451904296875,-155.92555236816406,64.0198974609375,-67.31736755371094
1773521768806573600,7.054573486328125,-155.9721221923828,63.91294860839844,-67.30964660644531
1773521768816696600,7.064696533203125,-156.22491455078125,63.96696472167969,-67.61582946777344
1773521768826818800,7.07481884765625,-155.9226837158203,64.03666687011719,-67.61001586914062
1773521768836939800,7.084939697265625,-155.91293334960938,63.833221435546875,-68.06301879882812
1773521768847059700,7.095059814453125,-156.21572875976562,63.987701416015625,-67.9664306640625
1773521768857181000,7.105180908203125,-156.0222930908203,63.822723388671875,-68.01451110839844
1773521768867301600,7.115301513671875,-156.3165740966797,63.87324523925781,-68.32844543457031
1773521768877422800,7.1254228515625,-156.72750854492188,63.92625427246094,-68.67495727539062
1773521768887542800,7.135542724609375,-156.56517028808594,63.993621826171875,-69.03811645507812
1773521768897663700,7.145663818359375,-156.05455017089844,63.4403076171875,-68.84249877929688
1773521768907784700,7.15578466796875,-155.30006408691406,63.19439697265625,-68.68882751464844
1773521768917906700,7.16590673828125,-154.62066650390625,63.09263610839844,-68.56764221191406
1773521768928027600,7.176027587890625,-154.67808532714844,62.62835693359375,-68.74066162109375
1773521768938144500,7.18614453125,-154.09642028808594,62.10758972167969,-69.27285766601562
1773521768948264400,7.196264404296875,-153.68865966796875,61.34968566894531,-70.2459716796875
1773521768958384400,7.20638427734375,-153.21641540527344,60.684814453125,-71.48519897460938
1773521768968503600,7.216503662109375,-153.24766540527344,60.45918273925781,-72.8023681640625
1773521768978624300,7.226624267578125,-154.10166931152344,59.897186279296875,-74.7122802734375
1773521768988744200,7.236744140625,-154.73731994628906,59.77537536621094,-75.87457275390625
1773521768998865400,7.246865478515625,-155.25485229492188,59.35479736328125,-76.69071960449219
1773521769008985300,7.2569853515625,-155.0027313232422,58.58294677734375,-77.46237182617188
1773521769019104500,7.2671044921875,-154.97900390625,57.91651916503906,-77.915283203125
1773521769029224400,7.277224365234375,-154.89443969726562,57.685821533203125,-78.23277282714844
1773521769039345200,7.28734521484375,-154.6700439453125,57.46412658691406,-78.58232116699219
1773521769049465300,7.29746533203125,-154.38816833496094,57.280975341796875,-78.32991027832031
1773521769059586300,7.30758642578125,-154.3900604248047,57.10545349121094,-78.31112670898438
1773521769069706500,7.31770654296875,-154.1803741455078,57.15692138671875,-78.19581604003906
1773521769079826400,7.327826416015625,-153.90377807617188,57.31170654296875,-78.07040405273438
1773521769089946400,7.3379462890625,-153.99974060058594,57.11106872558594,-77.94552612304688
1773521769100067300,7.3480673828125,-153.82858276367188,57.13398742675781,-78.11366271972656
1773521769110187300,7.358187255859375,-153.53077697753906,57.07371520996094,-77.85081481933594
1773521769120306200,7.36830615234375,-153.32687377929688,56.6146240234375,-78.07722473144531
1773521769130427400,7.378427490234375,-153.24412536621094,56.20184326171875,-78.23677062988281
1773521769140547300,7.38854736328125,-153.17823791503906,55.83357238769531,-78.35047912597656
1773521769150667500,7.39866748046875,-152.9114532470703,55.61857604980469,-78.61979675292969
1773521769160788200,7.408788330078125,-152.0471954345703,55.3397216796875,-78.42996215820312
1773521769170910500,7.418910400390625,-151.8468475341797,55.308837890625,-78.64266967773438
1773521769181032400,7.429032470703125,-151.70156860351562,55.084625244140625,-78.61457824707031
1773521769191153400,7.4391533203125,-151.8752899169922,55.20616149902344,-78.6536865234375
1773521769201273300,7.4492734375,-151.78347778320312,55.176025390625,-78.7108154296875
1773521769211393300,7.459393310546875,-151.52223205566406,55.08447265625,-78.96746826171875
1773521769221513200,7.46951318359375,-151.81231689453125,54.73614501953125,-79.08528137207031
1773521769231632400,7.47963232421875,-151.7895050048828,54.8734130859375,-79.24636840820312
1773521769241751600,7.48975146484375,-152.0925750732422,54.701202392578125,-79.56924438476562
1773521769251873300,7.499873291015625,-152.0938262939453,54.613128662109375,-79.4840087890625
1773521769261994200,7.509994140625,-152.62071228027344,54.262847900390625,-80.00807189941406
1773521769272115500,7.520115478515625,-152.39968872070312,54.14549255371094,-80.46923828125
1773521769282236400,7.530236328125,-152.30654907226562,54.06367492675781,-80.80030822753906
1773521769292358400,7.5403583984375,-152.81088256835938,53.85467529296875,-81.02981567382812
1773521769302478300,7.550478271484375,-153.12014770507812,53.96856689453125,-81.43168640136719
1773521769312600300,7.560600341796875,-152.95068359375,53.83549499511719,-81.65911865234375
1773521769322722600,7.57072265625,-152.95654296875,53.63752746582031,-81.80583190917969
1773521769332844300,7.58084423828125,-152.8206329345703,53.72126770019531,-82.00460815429688
1773521769342966300,7.59096630859375,-152.787353515625,53.504425048828125,-82.05868530273438
1773521769353087500,7.60108740234375,-152.99111938476562,53.434661865234375,-82.15325927734375
1773521769363208200,7.611208251953125,-152.7652587890625,53.142181396484375,-81.94084167480469
1773521769373329400,7.621329345703125,-152.1575469970703,53.21800231933594,-82.32334899902344
1773521769383451400,7.631451416015625,-152.4457244873047,53.036895751953125,-82.37847900390625
1773521769393571300,7.6415712890625,-151.6933135986328,52.46888732910156,-82.21658325195312
1773521769403691300,7.651691162109375,-152.1945343017578,52.49623107910156,-82.57992553710938
1773521769413811500,7.6618115234375,-152.09373474121094,52.2386474609375,-82.59260559082031
1773521769423931400,7.671931396484375,-151.6721649169922,51.97660827636719,-82.46852111816406
1773521769434051300,7.68205126953125,-151.14141845703125,51.81248474121094,-82.29356384277344
1773521769444170500,7.69217041015625,-150.72560119628906,51.76506042480469,-82.05943298339844
1773521769454290400,7.70229052734375,-150.5657958984375,51.87333679199219,-82.08345031738281
1773521769464412400,7.712412353515625,-150.16104125976562,51.887542724609375,-81.30189514160156
1773521769474534400,7.722534423828125,-149.71189880371094,52.233856201171875,-80.85707092285156
1773521769484655400,7.7326552734375,-149.83494567871094,52.838287353515625,-80.41307067871094
1773521769494775300,7.742775390625,-149.62570190429688,53.0511474609375,-80.18276977539062
1773521769504895500,7.7528955078125,-149.57066345214844,53.79838562011719,-79.77149963378906
1773521769515015400,7.763015380859375,-150.38192749023438,54.37919616699219,-79.90147399902344
1773521769525135400,7.77313525390625,-151.13543701171875,54.61207580566406,-79.83442687988281
1773521769535254500,7.783254638671875,-151.10580444335938,55.313568115234375,-79.96722412109375
1773521769545375200,7.793375244140625,-152.76315307617188,55.61540222167969,-80.8177490234375
1773521769555496400,7.803496337890625,-153.62461853027344,56.004974365234375,-81.63044738769531
1773521769565618200,7.8136181640625,-154.8078155517578,56.51921081542969,-82.23954772949219
1773521769575739400,7.823739501953125,-155.91944885253906,56.7918701171875,-82.86221313476562
1773521769585859300,7.833859375,-156.80809020996094,57.1466064453125,-83.08396911621094
1773521769595979500,7.8439794921875,-158.0131072998047,57.75224304199219,-83.49473571777344
1773521769606100200,7.854100341796875,-158.98167419433594,58.250732421875,-83.96859741210938
1773521769616222500,7.864222412109375,-160.3160858154297,58.72477722167969,-84.33570861816406
1773521769626344400,7.874344482421875,-161.10897827148438,58.87803649902344,-84.39810180664062
1773521769636465400,7.88446533203125,-162.59793090820312,59.46728515625,-84.75852966308594
1773521769646585300,7.89458544921875,-163.52980041503906,59.98463439941406,-84.67912292480469
1773521769656705300,7.904705322265625,-164.4871368408203,60.31639099121094,-85.05191040039062
1773521769666826200,7.914826171875,-165.82730102539062,60.57049560546875,-85.53253173828125
1773521769676948200,7.9249482421875,-166.78260803222656,60.62060546875,-85.46408081054688
1773521769687068400,7.935068359375,-168.0431365966797,60.88038635253906,-86.10409545898438
1773521769697188400,7.945188232421875,-168.49404907226562,61.24433898925781,-86.08473205566406
1773521769707308300,7.955308349609375,-169.710693359375,61.44873046875,-86.1431884765625
1773521769717428500,7.965428466796875,-170.1528778076172,61.6839599609375,-86.05853271484375
1773521769727548400,7.97554833984375,-170.34022521972656,61.83412170410156,-86.09785461425781
1773521769737666300,7.985666259765625,-171.18701171875,62.24238586425781,-86.46577453613281
1773521769747785200,7.99578515625,-171.2401123046875,62.43597412109375,-86.09306335449219
1773521769757905200,8.0059052734375,-171.90101623535156,62.486358642578125,-86.10578918457031
1773521769768025300,8.016025390625,-172.32215881347656,62.71070861816406,-86.10499572753906
1773521769778145300,8.026145263671875,-172.5216064453125,62.911102294921875,-86.12631225585938
1773521769788265500,8.036265380859374,-172.87289428710938,63.07847595214844,-86.15573120117188
1773521769798385400,8.046385498046876,-172.9295654296875,63.17979431152344,-86.00077819824219
1773521769808504300,8.05650439453125,-173.44009399414062,63.36643981933594,-86.05892944335938
1773521769818623200,8.066623291015626,-173.29666137695312,63.5946044921875,-85.68095397949219
1773521769828743400,8.076743408203125,-173.50125122070312,63.78746032714844,-85.99516296386719
1773521769838863400,8.08686328125,-173.66334533691406,63.67059326171875,-85.91879272460938
1773521769848984600,8.096984619140626,-173.68748474121094,64.09629821777344,-86.14578247070312
1773521769859104500,8.1071044921875,-173.2062225341797,63.915557861328125,-85.89131164550781
1773521769869224200,8.11722412109375,-172.8477783203125,64.08912658691406,-85.93592834472656
1773521769879344400,8.127344482421876,-172.66140747070312,63.943511962890625,-85.94801330566406
1773521769889464300,8.13746435546875,-172.19070434570312,64.07901000976562,-86.18316650390625
1773521769899585300,8.147585205078125,-172.0853271484375,63.95195007324219,-86.27986145019531
1773521769909704400,8.157704345703126,-171.68431091308594,63.85166931152344,-86.2052001953125
1773521769919824400,8.167824462890625,-171.76190185546875,64.40130615234375,-86.10987854003906
1773521769929944300,8.1779443359375,-171.2255401611328,64.21659851074219,-85.864013671875
1773521769940064300,8.188064208984375,-171.2340850830078,64.597412109375,-85.73367309570312
1773521769950184200,8.19818408203125,-170.908935546875,64.64675903320312,-85.66386413574219
1773521769960305200,8.20830517578125,-170.3587188720703,64.85824584960938,-85.38859558105469
1773521769970426000,8.218426025390626,-170.40574645996094,64.86848449707031,-85.33663940429688
1773521769980546300,8.22854638671875,-169.5739288330078,64.9892578125,-84.86640930175781
1773521769990666200,8.238666259765624,-168.11459350585938,65.48057556152344,-84.82548522949219
1773521770000787200,8.248787109375,-167.87014770507812,65.25602722167969,-84.33065795898438
1773521770010908200,8.258908203125,-166.64862060546875,65.248046875,-84.11322021484375
1773521770021028000,8.269028076171875,-165.65447998046875,65.24644470214844,-84.10891723632812
1773521770031148300,8.279148193359376,-164.8397979736328,64.84405517578125,-83.61772155761719
1773521770041268200,8.289268310546875,-163.82656860351562,64.90653991699219,-83.52525329589844
1773521770051389200,8.29938916015625,-163.06211853027344,65.02137756347656,-83.1888427734375
1773521770061511000,8.309510986328124,-162.107177734375,64.47991943359375,-82.84432983398438
1773521770071632100,8.319632080078126,-161.01116943359375,64.94992065429688,-82.84147644042969
1773521770081754000,8.329754150390626,-160.63734436035156,64.80120849609375,-82.28643798828125
1773521770091875000,8.339875,-160.01858520507812,65.20326232910156,-82.08345031738281
1773521770101997000,8.3499970703125,-160.09922790527344,65.23049926757812,-81.45701599121094
1773521770112118300,8.3601181640625,-159.55453491210938,65.4002685546875,-81.47833251953125
1773521770122239200,8.3702392578125,-159.6223602294922,65.56199645996094,-81.72105407714844
1773521770132359200,8.380359130859375,-159.26025390625,65.53428649902344,-81.7181396484375
1773521770142480100,8.390480224609375,-159.08827209472656,65.30917358398438,-81.81227111816406
1773521770152600000,8.40060009765625,-158.60365295410156,65.73838806152344,-81.74775695800781
1773521770162721300,8.41072119140625,-158.57015991210938,65.42861938476562,-81.79695129394531
1773521770172841000,8.420841064453125,-158.51089477539062,65.465576171875,-82.02671813964844
1773521770182961200,8.430961181640624,-158.03363037109375,65.48542785644531,-82.119873046875
1773521770193082000,8.44108203125,-158.0257568359375,65.42330932617188,-82.07270812988281
1773521770203204000,8.4512041015625,-157.56109619140625,65.42160034179688,-82.06356811523438
1773521770213326300,8.461326416015625,-157.16973876953125,65.60374450683594,-81.97885131835938
1773521770223448000,8.471447998046875,-157.44517517089844,66.15028381347656,-81.99821472167969
1773521770233570000,8.481570068359375,-157.60801696777344,66.17300415039062,-82.21037292480469
1773521770243691300,8.491691162109374,-157.93875122070312,66.37187194824219,-82.13883972167969
1773521770253813200,8.501813232421876,-158.5268096923828,66.27043151855469,-82.62881469726562
1773521770263934200,8.511934326171875,-158.1058349609375,66.3592529296875,-82.80076599121094
1773521770274056200,8.52205615234375,-158.36773681640625,65.96258544921875,-82.78678894042969
1773521770284177200,8.53217724609375,-157.790283203125,65.9832763671875,-82.89968872070312
1773521770294297300,8.54229736328125,-157.56175231933594,65.83160400390625,-82.85055541992188
1773521770304416300,8.552416259765625,-156.9799041748047,65.76649475097656,-83.63943481445312
1773521770314535200,8.56253515625,-156.92396545410156,65.65866088867188,-83.52664184570312
1773521770324655000,8.572655029296875,-156.39306640625,65.49879455566406,-83.64353942871094
1773521770334774300,8.582774169921874,-156.04696655273438,65.39886474609375,-83.37353515625
1773521770344894200,8.592894287109376,-155.96400451660156,65.35389709472656,-83.15213012695312
1773521770355015000,8.603014892578125,-155.35714721679688,65.85948181152344,-82.65394592285156
1773521770365134300,8.61313427734375,-154.89930725097656,65.99961853027344,-82.13494873046875
1773521770375254300,8.623254150390625,-154.4385986328125,66.10269165039062,-81.75340270996094
1773521770385373200,8.633373291015625,-153.858154296875,66.10479736328125,-81.38252258300781
1773521770395493400,8.643493408203126,-152.9345703125,65.55587768554688,-81.12631225585938
1773521770405613000,8.653613037109375,-152.0176544189453,65.30450439453125,-81.09632873535156
1773521770415734000,8.663734130859375,-151.48348999023438,65.0452880859375,-80.90113830566406
1773521770425855200,8.673855224609374,-150.4931182861328,64.96241760253906,-80.61683654785156
1773521770435974100,8.68397412109375,-150.09417724609375,64.90187072753906,-80.01191711425781
1773521770446094300,8.69409423828125,-149.99302673339844,64.97308349609375,-79.6593017578125
1773521770456214300,8.70421435546875,-149.62294006347656,65.1806640625,-79.42778015136719
1773521770466334200,8.714334228515625,-149.3108367919922,65.24131774902344,-78.94953918457031
1773521770476453000,8.724453125,-149.07403564453125,65.13455200195312,-78.55511474609375
1773521770486573300,8.7345732421875,-149.1681671142578,65.35298156738281,-78.373291015625
1773521770496691200,8.744691162109374,-149.0118865966797,65.44337463378906,-78.23390197753906
1773521770506810000,8.75481005859375,-149.17784118652344,65.49270629882812,-78.38468933105469
1773521770516928300,8.76492822265625,-149.20361328125,65.2542724609375,-78.39071655273438
1773521770527047200,8.775047119140625,-148.81137084960938,65.24974060058594,-78.36589050292969
1773521770537166000,8.785166015625,-148.3006591796875,65.0732421875,-78.50457763671875
1773521770547285000,8.795284912109375,-148.03164672851562,64.35768127441406,-78.40533447265625
1773521770557403100,8.805403076171874,-147.48684692382812,63.92022705078125,-78.68130493164062
1773521770567523300,8.8155234375,-146.32415771484375,63.34228515625,-78.69851684570312
1773521770577641200,8.82564111328125,-145.83111572265625,62.89668273925781,-78.66627502441406
1773521770587760000,8.835760009765625,-145.51162719726562,62.34291076660156,-78.83799743652344
1773521770597879300,8.84587939453125,-144.74453735351562,62.00086975097656,-78.56126403808594
1773521770607998200,8.855998291015625,-144.68206787109375,61.78462219238281,-78.48089599609375
1773521770618118100,8.8661181640625,-144.58074951171875,61.66438293457031,-78.60409545898438
1773521770628237300,8.8762373046875,-144.41424560546875,61.77445983886719,-78.72843933105469
1773521770638357200,8.886357177734375,-144.8001251220703,61.83283996582031,-79.13046264648438
1773521770648476200,8.89647607421875,-145.23818969726562,61.83290100097656,-79.72499084472656
1773521770658596000,8.90659619140625,-145.4470977783203,61.63545227050781,-80.33653259277344
1773521770668715300,8.91671533203125,-145.5731201171875,61.63514709472656,-80.98727416992188
1773521770678835200,8.926835205078126,-145.81338500976562,61.25811767578125,-81.73532104492188
1773521770688953000,8.936953125,-146.27525329589844,61.02311706542969,-82.37727355957031
1773521770699072000,8.947072021484376,-146.33058166503906,60.87730407714844,-82.88955688476562
1773521770709193200,8.957193115234375,-146.4017333984375,60.67015075683594,-83.46833801269531
1773521770719314200,8.967314208984375,-146.5214080810547,60.425750732421875,-83.63804626464844
1773521770729436200,8.977436279296874,-146.73670959472656,60.11436462402344,-84.08775329589844
1773521770739557400,8.987557373046876,-147.02415466308594,60.0599365234375,-84.66184997558594
1773521770749678000,8.997677978515625,-146.6616973876953,59.83558654785156,-84.85934448242188
1773521770759798000,9.007798095703125,-146.80126953125,59.5303955078125,-85.34944152832031
1773521770769918200,9.017918212890624,-147.2797088623047,59.21142578125,-85.69134521484375
1773521770780038100,9.0280380859375,-147.248046875,58.93023681640625,-86.09407043457031
1773521770790157000,9.038156982421874,-147.0032501220703,58.62860107421875,-86.65310668945312
1773521770800277200,9.04827734375,-146.95619201660156,58.2337646484375,-87.11337280273438
1773521770810396200,9.058396240234375,-147.07960510253906,57.92930603027344,-87.59158325195312
1773521770820518100,9.06851806640625,-147.288818359375,57.51777648925781,-88.1798095703125
1773521770830638000,9.07863818359375,-147.2125244140625,57.40357971191406,-88.31651306152344
1773521770840759000,9.088759033203125,-147.44215393066406,56.79716491699219,-88.46609497070312
1773521770850880300,9.09888037109375,-147.22657775878906,56.48968505859375,-88.95498657226562
1773521770861002200,9.109002197265625,-146.87046813964844,56.405029296875,-89.00845336914062
1773521770871123200,9.119123291015624,-146.9042510986328,55.90850830078125,-89.1357421875
1773521770881245200,9.1292451171875,-146.77484130859375,55.6785888671875,-89.41769409179688
1773521770891366100,9.1393662109375,-146.42092895507812,55.40370178222656,-89.45147705078125
1773521770901486000,9.149486083984375,-145.9954376220703,55.269500732421875,-89.28573608398438
1773521770911606000,9.15960595703125,-146.050537109375,55.06976318359375,-89.35261535644531
1773521770921726200,9.169726318359375,-146.36753845214844,54.76081848144531,-89.860595703125
1773521770931846100,9.17984619140625,-146.3577880859375,54.42962646484375,-89.82745361328125
1773521770941967600,9.189967529296876,-146.5719757080078,54.10240173339844,-90.28138732910156
1773521770952087800,9.200087890625,-146.563720703125,54.03898620605469,-90.52871704101562
1773521770962209800,9.210209716796875,-147.02615356445312,53.87132263183594,-90.98574829101562
1773521770972328700,9.22032861328125,-147.3876495361328,53.59539794921875,-91.51676940917969
1773521770982449700,9.23044970703125,-147.85487365722656,53.532318115234375,-92.12760925292969
1773521770992569600,9.240569580078125,-148.02622985839844,53.03886413574219,-92.52735900878906
1773521771002688800,9.250688720703126,-147.8048858642578,52.89820861816406,-92.50950622558594
1773521771012808700,9.26080859375,-147.82415771484375,52.54057312011719,-93.04861450195312
1773521771022928600,9.2709287109375,-148.01150512695312,52.50370788574219,-93.19255065917969
1773521771033049900,9.2810498046875,-148.20394897460938,52.20721435546875,-93.40934753417969
1773521771043169800,9.291169677734375,-148.11354064941406,52.350860595703125,-93.65083312988281
1773521771053288700,9.301288818359374,-147.6594696044922,52.173736572265625,-93.27822875976562
1773521771063409000,9.311408935546876,-147.795654296875,51.90199279785156,-93.45686340332031
1773521771073529600,9.321529541015625,-147.54994201660156,51.8543701171875,-93.49215698242188
1773521771083648800,9.331648681640624,-147.39830017089844,51.52565002441406,-93.45220947265625
1773521771093769000,9.34176904296875,-146.952392578125,51.55509948730469,-93.33238220214844
1773521771103888000,9.351887939453125,-146.95089721679688,51.20721435546875,-93.62271118164062
1773521771114008600,9.362008544921874,-146.22654724121094,51.04969787597656,-93.48393249511719
1773521771124129800,9.3721298828125,-146.67196655273438,50.86834716796875,-93.71890258789062
1773521771134250800,9.382250732421875,-146.4562530517578,50.848968505859375,-93.74812316894531
1773521771144371700,9.392371826171875,-146.177978515625,50.68223571777344,-93.6414794921875
1773521771154493000,9.402492919921874,-146.4190216064453,50.52983093261719,-94.08940124511719
1773521771164614700,9.41261474609375,-146.13101196289062,49.991912841796875,-93.970947265625
1773521771174736000,9.42273583984375,-146.17613220214844,49.72044372558594,-94.21334838867188
1773521771184856800,9.43285693359375,-146.25308227539062,49.545745849609375,-94.32771301269531
1773521771194977800,9.442977783203125,-145.98196411132812,49.075225830078125,-94.19027709960938
1773521771205098800,9.4530986328125,-145.82809448242188,48.7703857421875,-94.75753784179688
1773521771215220700,9.463220703125,-145.94747924804688,48.90495300292969,-94.70852661132812
1773521771225341700,9.473341796875,-146.05001831054688,48.60218811035156,-94.93238830566406
1773521771235464000,9.4834638671875,-145.50302124023438,48.22950744628906,-94.81813049316406
1773521771245585700,9.493585693359375,-145.7394561767578,47.921112060546875,-95.22279357910156
1773521771255707600,9.503707763671875,-145.97723388671875,47.652618408203125,-95.49790954589844
1773521771265827800,9.513827880859376,-145.93978881835938,47.54502868652344,-95.76188659667969
1773521771275949800,9.52394970703125,-146.02847290039062,47.448944091796875,-95.92445373535156
1773521771286071800,9.53407177734375,-146.06210327148438,47.43621826171875,-95.94926452636719
1773521771296192800,9.54419287109375,-146.6496124267578,47.28880310058594,-96.44010925292969
1773521771306313700,9.554313720703124,-146.9677276611328,46.980072021484375,-96.67092895507812
1773521771316435000,9.56443505859375,-147.40206909179688,46.997894287109375,-97.07389831542969
1773521771326555600,9.5745556640625,-147.51751708984375,46.74334716796875,-97.11294555664062
1773521771336676900,9.5846767578125,-147.1312255859375,46.67671203613281,-96.98100280761719
1773521771346797800,9.5947978515625,-147.25999450683594,46.46025085449219,-97.08772277832031
1773521771356918800,9.604918701171876,-146.94215393066406,46.49406433105469,-97.23934936523438
1773521771367040800,9.615040771484376,-147.1045684814453,46.167572021484375,-97.44093322753906
1773521771377160700,9.62516064453125,-146.6752166748047,45.83299255371094,-97.23495483398438
1773521771387282000,9.635281982421875,-146.53802490234375,45.56221008300781,-97.2945556640625
1773521771397403600,9.645403564453124,-146.48086547851562,45.306243896484375,-97.3447265625
1773521771407524900,9.65552490234375,-146.56532287597656,45.41252136230469,-97.37239074707031
1773521771417644800,9.665644775390625,-146.75205993652344,45.046112060546875,-97.57377624511719
1773521771427765800,9.675765869140625,-146.45140075683594,45.02960205078125,-97.46528625488281
1773521771437885000,9.685885009765625,-147.1223907470703,44.92616271972656,-97.93751525878906
1773521771448003800,9.69600390625,-146.98841857910156,44.73432922363281,-97.90646362304688
1773521771458122800,9.706122802734376,-147.36514282226562,44.50343322753906,-98.29476928710938
1773521771468243700,9.71624365234375,-147.77285766601562,44.62660217285156,-98.58535766601562
1773521771478363600,9.72636376953125,-147.68751525878906,44.63710021972656,-98.73262023925781
1773521771488486000,9.73648583984375,-148.2705078125,44.44126892089844,-99.23919677734375
1773521771498607900,9.74660791015625,-148.21865844726562,44.32244873046875,-99.14181518554688
1773521771508729600,9.7567294921875,-148.52127075195312,44.24839782714844,-99.28028869628906
1773521771518851800,9.766851806640625,-148.57583618164062,44.281524658203125,-99.28752136230469
1773521771528974800,9.776974853515625,-148.7877197265625,44.4642333984375,-99.26124572753906
1773521771539095800,9.787095703125,-148.34011840820312,44.377838134765625,-99.19171142578125
1773521771549217800,9.7972177734375,-148.29820251464844,44.52201843261719,-99.16610717773438
1773521771559338800,9.8073388671875,-147.96859741210938,44.37109375,-98.88380432128906
1773521771569459700,9.817459716796876,-147.2545166015625,44.782867431640625,-98.365966796875
1773521771579581700,9.827581787109375,-146.90847778320312,44.87968444824219,-98.26042175292969
1773521771589703700,9.83770361328125,-146.41383361816406,44.67597961425781,-97.75979614257812
1773521771599824600,9.84782470703125,-145.56671142578125,44.87156677246094,-97.4317626953125
1773521771609945900,9.85794580078125,-145.22799682617188,44.80528259277344,-97.10421752929688
1773521771620067800,9.86806787109375,-144.7003173828125,44.9862060546875,-96.77717590332031
1773521771630188800,9.878188720703125,-144.6135711669922,45.08038330078125,-96.35200500488281
1773521771640308700,9.888308837890625,-144.10247802734375,44.98957824707031,-96.09341430664062
1773521771650429700,9.8984296875,-144.16075134277344,45.26153564453125,-96.04216003417969
1773521771660550000,9.9085498046875,-144.3750457763672,45.457305908203125,-96.10383605957031
1773521771670670800,9.9186708984375,-144.20579528808594,45.31788635253906,-96.27006530761719
1773521771680789800,9.928789794921874,-144.5222930908203,44.927215576171875,-96.21510314941406
1773521771690910700,9.93891064453125,-144.7441864013672,44.83515930175781,-96.64735412597656
1773521771701031700,9.94903173828125,-144.69126892089844,44.814788818359375,-96.83506774902344
1773521771711151900,9.95915185546875,-144.65797424316406,44.7213134765625,-96.8814697265625
1773521771721273900,9.96927392578125,-144.82574462890625,44.3848876953125,-97.24827575683594
1773521771731394800,9.979394775390626,-144.7985382080078,44.22236633300781,-97.18215942382812
1773521771741514800,9.9895146484375,-144.99981689453125,44.50923156738281,-97.15325927734375
1773521771751636700,9.99963671875,-144.65126037597656,44.683319091796875,-97.16038513183594
1773521771761758000,10.009758056640624,-144.303466796875,44.74140930175781,-97.09001159667969
1773521771771878700,10.019878662109376,-144.39453125,44.88111877441406,-97.19386291503906
1773521771781997600,10.02999755859375,-144.11788940429688,44.792266845703125,-96.92054748535156
1773521771792118800,10.040118896484374,-144.23399353027344,44.71022033691406,-96.88916015625
1773521771802240000,10.050239990234376,-144.0769500732422,44.80851745605469,-96.80458068847656
1773521771812360700,10.060360595703125,-143.90478515625,44.89250183105469,-96.84458923339844
1773521771822483000,10.07048291015625,-144.13304138183594,44.897705078125,-96.95573425292969
1773521771832603600,10.080603759765625,-143.71795654296875,44.58360290527344,-96.87910461425781
1773521771842723800,10.090723876953126,-143.8130645751953,44.99006652832031,-96.95758056640625
1773521771852842800,10.1008427734375,-143.07334899902344,44.92498779296875,-96.72477722167969
1773521771862961700,10.110961669921876,-143.08932495117188,44.74830627441406,-96.79960632324219
1773521771873081600,10.12108154296875,-142.49020385742188,44.552886962890625,-96.53582763671875
1773521771883202800,10.131202880859375,-142.4059295654297,44.897308349609375,-96.47804260253906
1773521771893323800,10.14132373046875,-141.9681854248047,44.91432189941406,-96.1617431640625
1773521771903444700,10.15144482421875,-141.54745483398438,44.96195983886719,-95.66265869140625
1773521771913563600,10.161563720703125,-141.257080078125,45.03633117675781,-95.303955078125
1773521771923684900,10.171684814453124,-140.31033325195312,45.320465087890625,-94.93499755859375
1773521771933804800,10.1818046875,-139.74143981933594,45.950469970703125,-94.56802368164062
1773521771943923500,10.19192333984375,-139.2776336669922,45.84281921386719,-93.98396301269531
1773521771954043400,10.20204345703125,-138.6484375,46.02033996582031,-93.4420166015625
1773521771964162300,10.212162353515625,-138.06011962890625,46.58607482910156,-92.81285095214844
1773521771974284300,10.2222841796875,-137.87986755371094,46.6683349609375,-92.62849426269531
1773521771984404200,10.232404296875,-137.21788024902344,47.41188049316406,-92.09019470214844
1773521771994524400,10.2425244140625,-136.9270477294922,47.55433654785156,-91.65028381347656
1773521772004645400,10.252645263671875,-136.95993041992188,47.62913513183594,-91.48016357421875
1773521772014765600,10.262765625,-136.6422576904297,47.84013366699219,-91.31370544433594
1773521772024884500,10.272884521484375,-136.57212829589844,48.11907958984375,-91.30082702636719
1773521772035002400,10.28300244140625,-136.4916534423828,48.22669982910156,-91.17344665527344
1773521772045122300,10.293122314453125,-136.11514282226562,48.23579406738281,-91.01310729980469
1773521772055242200,10.3032421875,-136.12249755859375,48.45294189453125,-91.35308837890625
1773521772065361400,10.313361328125,-136.26910400390625,48.60969543457031,-91.26988220214844
1773521772075481300,10.3234814453125,-136.41665649414062,48.8609619140625,-91.28486633300781
1773521772085601300,10.333601318359374,-136.07421875,49.2139892578125,-91.01155090332031
1773521772095721500,10.343721435546875,-135.93516540527344,49.35740661621094,-90.97930908203125
1773521772105841400,10.35384130859375,-136.07032775878906,49.29948425292969,-91.11038208007812
1773521772115960300,10.363960205078126,-136.1776123046875,49.65428161621094,-90.90504455566406
1773521772126079200,10.374079345703125,-136.19337463378906,49.49400329589844,-90.93675231933594
1773521772136198400,10.384198486328126,-135.57884216308594,49.4984130859375,-90.69087219238281
1773521772146319400,10.3943193359375,-135.82493591308594,49.51631164550781,-90.58796691894531
1773521772156438300,10.404438232421874,-135.65997314453125,49.495147705078125,-90.48152160644531
1773521772166558500,10.414558349609376,-134.95095825195312,49.519439697265625,-90.11445617675781
1773521772176678400,10.424678466796875,-134.44773864746094,49.536163330078125,-89.9337158203125
1773521772186798300,10.43479833984375,-133.83523559570312,49.61198425292969,-89.08929443359375
1773521772196918500,10.44491845703125,-133.8443145751953,49.51286315917969,-88.82081604003906
1773521772207037400,10.455037353515625,-133.22352600097656,49.622467041015625,-87.99847412109375
1773521772217157400,10.465157470703126,-132.80831909179688,49.54400634765625,-87.46673583984375
1773521772227277600,10.475277587890625,-131.9752655029297,49.64451599121094,-86.53817749023438
1773521772237396500,10.485396484375,-131.2357177734375,49.85833740234375,-85.9830322265625
1773521772247515400,10.495515380859375,-131.14430236816406,49.94123840332031,-85.02468872070312
1773521772257634300,10.50563427734375,-130.5844268798828,50.24298095703125,-84.55892944335938
1773521772267752400,10.51575244140625,-130.28221130371094,50.70355224609375,-83.71980285644531
1773521772277872400,10.525872314453125,-129.8563690185547,50.604156494140625,-83.065673828125
1773521772287992600,10.53599267578125,-129.81137084960938,50.941131591796875,-82.90824890136719
1773521772298111500,10.546111572265625,-129.46678161621094,51.18022155761719,-82.33694458007812
1773521772308230400,10.55623046875,-129.2113800048828,51.295166015625,-81.94412231445312
1773521772318351600,10.5663515625,-129.1378631591797,51.634124755859375,-81.85223388671875
1773521772328471300,10.57647119140625,-128.87232971191406,51.72483825683594,-81.64463806152344
1773521772338592300,10.58659228515625,-129.04568481445312,51.96662902832031,-81.73245239257812
1773521772348711400,10.59671142578125,-128.5174560546875,52.31044006347656,-81.52897644042969
1773521772358831400,10.606831298828125,-128.65225219726562,52.89778137207031,-81.35206604003906
1773521772368951300,10.616951416015626,-128.73985290527344,53.05619812011719,-81.55101013183594
1773521772379071500,10.627071533203125,-129.02725219726562,53.52458190917969,-81.24446105957031
1773521772389190400,10.6371904296875,-128.8856201171875,53.83842468261719,-81.20343017578125
1773521772399308500,10.64730859375,-129.07810974121094,54.263519287109375,-81.10615539550781
1773521772409427500,10.657427490234374,-129.1672821044922,54.42530822753906,-80.77590942382812
1773521772419547400,10.66754736328125,-128.95993041992188,55.26165771484375,-80.72431945800781
1773521772429665300,10.677665283203124,-129.24964904785156,55.761749267578125,-80.54518127441406
1773521772439784200,10.6877841796875,-129.20333862304688,56.04571533203125,-80.57969665527344
1773521772449903600,10.697903564453124,-129.0599365234375,56.30729675292969,-80.43162536621094
1773521772460022500,10.7080224609375,-129.32452392578125,56.63780212402344,-80.33990478515625
1773521772470143200,10.718143310546875,-128.93099975585938,57.070037841796875,-80.30557250976562
1773521772480263400,10.728263427734374,-129.3048858642578,57.00898742675781,-80.53230285644531
1773521772490384400,10.73838427734375,-129.47341918945312,57.309356689453125,-80.85530090332031
1773521772500506400,10.74850634765625,-129.60177612304688,57.3165283203125,-80.94586181640625
1773521772510626300,10.758626220703125,-129.31417846679688,57.58424377441406,-81.10614013671875
1773521772520747500,10.76874755859375,-129.56411743164062,57.78858947753906,-81.09909057617188
1773521772530867500,10.778867431640625,-129.50486755371094,58.01432800292969,-80.95477294921875
1773521772540987400,10.7889873046875,-129.5917510986328,58.06562805175781,-80.98019409179688
1773521772551108400,10.7991083984375,-129.55966186523438,58.21287536621094,-80.60256958007812
1773521772561228500,10.809228515625,-129.19332885742188,58.23677062988281,-80.19223022460938
1773521772571350300,10.819350341796875,-129.08270263671875,58.4122314453125,-80.32780456542969
1773521772581471500,10.829471435546875,-129.01219177246094,58.43690490722656,-79.88108825683594
1773521772591595500,10.839595458984375,-129.02049255371094,58.27436828613281,-79.83467102050781
1773521772601716500,10.849716552734375,-129.15829467773438,58.09925842285156,-79.69303894042969
1773521772611837400,10.85983740234375,-129.63330078125,57.95652770996094,-79.55709838867188
1773521772621957400,10.869957275390625,-129.9203643798828,57.8631591796875,-80.11897277832031
1773521772632076500,10.88007666015625,-130.71783447265625,57.54756164550781,-80.29316711425781
1773521772642195500,10.890195556640625,-131.28025817871094,57.445281982421875,-80.52806091308594
1773521772652315400,10.9003154296875,-132.16944885253906,57.16798400878906,-80.34207153320312
1773521772662435300,10.910435302734374,-132.2855224609375,57.03570556640625,-80.07569885253906
1773521772672554500,10.920554443359375,-133.24801635742188,57.16853332519531,-79.95600891113281
1773521772682674400,10.93067431640625,-133.77621459960938,57.27143859863281,-79.56901550292969
1773521772692794400,10.94079443359375,-134.25909423828125,57.45100402832031,-79.04205322265625
1773521772702914600,10.95091455078125,-134.99240112304688,57.714569091796875,-78.44450378417969
1773521772713033500,10.961033447265624,-135.7518768310547,57.73014831542969,-77.89451599121094
1773521772723150600,10.971150634765625,-136.74346923828125,57.83332824707031,-77.48324584960938
1773521772733269500,10.98126953125,-137.3436279296875,57.810302734375,-77.24090576171875
1773521772743388400,10.991388427734375,-138.25820922851562,57.664764404296875,-76.90983581542969
1773521772753507300,11.00150732421875,-138.69105529785156,57.47514343261719,-76.43440246582031
1773521772763625500,11.01162548828125,-139.0602569580078,57.1639404296875,-76.58462524414062
1773521772773744400,11.021744384765626,-140.23965454101562,56.745574951171875,-76.47346496582031
1773521772783863300,11.03186328125,-141.05223083496094,56.475616455078125,-76.62944030761719
1773521772793982500,11.041982421875,-141.85971069335938,55.83827209472656,-76.7171630859375
1773521772804100600,11.0521005859375,-142.6426544189453,55.45643615722656,-76.97608947753906
1773521772814219500,11.062219482421876,-143.85467529296875,54.590667724609375,-77.11534118652344
1773521772824337400,11.07233740234375,-144.73497009277344,53.80120849609375,-77.42686462402344
1773521772834456300,11.082456298828125,-145.5296173095703,53.26771545410156,-77.8916015625
1773521772844575500,11.092575439453125,-146.90452575683594,52.30287170410156,-78.06929016113281
1773521772854694400,11.1026943359375,-147.94825744628906,51.717041015625,-78.58857727050781
1773521772864813300,11.112813232421875,-148.93797302246094,50.898193359375,-78.79719543457031
1773521772874931500,11.122931396484375,-149.8795928955078,50.076690673828125,-78.79739379882812
1773521772885049300,11.13304931640625,-150.45779418945312,49.132110595703125,-78.76806640625
1773521772895168300,11.143168212890625,-151.2372589111328,48.3572998046875,-78.71893310546875
1773521772905288400,11.153288330078125,-152.20391845703125,47.5791015625,-79.33641052246094
1773521772915409400,11.163409423828124,-152.9444580078125,46.663330078125,-79.33966064453125
1773521772925528300,11.1735283203125,-153.77194213867188,45.950408935546875,-79.3079833984375
1773521772935647500,11.1836474609375,-154.65208435058594,44.7237548828125,-79.40534973144531
1773521772945767200,11.19376708984375,-154.70480346679688,45.05906677246094,-79.27388000488281
1773521772955888000,11.20388818359375,-154.2096710205078,44.93585205078125,-78.99688720703125
1773521772966008000,11.214008056640624,-154.41693115234375,45.33088684082031,-79.01219177246094
1773521772976129000,11.22412890625,-153.93177795410156,44.62596130371094,-78.80673217773438
1773521772986248000,11.234248046875,-153.4359893798828,44.659271240234375,-78.76963806152344
1773521772996369200,11.244369140625,-153.026611328125,44.58988952636719,-79.04786682128906
1773521773006489000,11.254489013671876,-152.7461700439453,44.261810302734375,-79.47096252441406
1773521773016609300,11.264609375,-152.1566925048828,43.826934814453125,-79.925537109375
1773521773026727200,11.27472705078125,-151.34918212890625,43.190887451171875,-80.51190185546875
1773521773036846000,11.28484619140625,-150.50286865234375,42.5709228515625,-80.82009887695312
1773521773046966000,11.294966064453124,-149.7361602783203,40.78816223144531,-81.25495910644531
1773521773057085000,11.3050849609375,-148.8765106201172,39.06903076171875,-81.43185424804688
1773521773067204000,11.3152041015625,-147.37367248535156,37.27293395996094,-81.35823059082031
1773521773077323300,11.3253232421875,-146.04505920410156,35.418182373046875,-81.21115112304688
1773521773087443200,11.335443115234375,-144.3024444580078,33.794677734375,-80.23277282714844
1773521773097564200,11.345564208984374,-142.6020965576172,32.64280700683594,-79.55682373046875
1773521773107684000,11.35568408203125,-140.87185668945312,31.682647705078125,-78.43244934082031
1773521773117803000,11.365802978515624,-139.69265747070312,31.2158203125,-77.12847900390625
1773521773127923000,11.3759228515625,-139.39105224609375,30.846435546875,-75.92744445800781
1773521773138043100,11.386043212890625,-139.98167419433594,31.229171752929688,-75.12889099121094
1773521773148163000,11.3961630859375,-142.08470153808594,31.613876342773438,-75.29759216308594
1773521773158283000,11.406282958984375,-145.21078491210938,32.40934753417969,-76.31210327148438
1773521773168402200,11.416402099609375,-148.4740447998047,33.5322265625,-77.93280029296875
1773521773178521000,11.42652099609375,-151.841064453125,34.87757873535156,-79.32839965820312
1773521773188640000,11.436639892578125,-154.76707458496094,36.58673095703125,-81.15684509277344
1773521773198761200,11.44676123046875,-156.58673095703125,38.64924621582031,-82.19755554199219
1773521773208881200,11.456881103515625,-157.77024841308594,40.5731201171875,-83.64688110351562
1773521773219001000,11.4670009765625,-158.6841278076172,42.85353088378906,-84.40823364257812
1773521773229121300,11.477121337890624,-157.66342163085938,44.82405090332031,-84.51969909667969
1773521773239240200,11.487240234375,-157.99691772460938,46.239532470703125,-84.91815185546875
1773521773249360100,11.497360107421875,-157.5011444091797,47.55339050292969,-84.61395263671875
1773521773259479000,11.50747900390625,-156.9548797607422,48.37705993652344,-84.35525512695312
1773521773269598000,11.517597900390625,-156.49281311035156,48.73414611816406,-83.82807922363281
1773521773279717000,11.527717041015626,-156.3480682373047,48.595916748046875,-83.48475646972656
1773521773289837000,11.537837158203125,-156.1557159423828,48.24468994140625,-83.31098937988281
1773521773299955200,11.547955078125,-155.9839630126953,47.713104248046875,-83.63117980957031
1773521773310073000,11.558072998046875,-156.61459350585938,46.40580749511719,-83.92161560058594
1773521773320193000,11.568193115234376,-156.52664184570312,44.71409606933594,-84.29261779785156
1773521773330313200,11.578313232421875,-156.57701110839844,42.34590148925781,-85.76513671875
1773521773340434200,11.58843408203125,-156.5209197998047,39.24566650390625,-87.23326110839844
1773521773350554000,11.59855419921875,-156.33326721191406,35.31573486328125,-89.50576782226562
1773521773360674000,11.608674072265625,-153.63717651367188,34.01171875,-92.31744384765625
1773521773370794000,11.6187939453125,-148.2987823486328,37.511566162109375,-93.92243957519531
1773521773380913000,11.628912841796875,-144.03074645996094,41.8492431640625,-94.52249145507812
1773521773391033000,11.639033203125,-138.0739288330078,44.653076171875,-93.41963195800781
1773521773401153000,11.649153076171874,-137.36520385742188,46.695770263671875,-90.91781616210938
1773521773411272000,11.65927197265625,-137.966552734375,48.312408447265625,-89.03146362304688
1773521773421390000,11.66939013671875,-138.61656188964844,48.837554931640625,-87.9813232421875
1773521773431510300,11.67951025390625,-139.39317321777344,49.10595703125,-86.81971740722656
1773521773441629200,11.689629150390624,-140.54745483398438,49.02162170410156,-86.14315795898438
1773521773451749000,11.6997490234375,-141.67034912109375,49.18231201171875,-85.43475341796875
1773521773461869000,11.709869140625,-142.9720916748047,48.97654724121094,-84.58392333984375
1773521773471988200,11.71998828125,-144.4180908203125,49.11878967285156,-84.71968078613281
1773521773482108200,11.730108154296875,-144.78041076660156,49.050018310546875,-84.40931701660156
1773521773492228000,11.74022802734375,-146.2140350341797,49.077423095703125,-84.17387390136719
1773521773502347300,11.75034716796875,-147.084716796875,48.81085205078125,-83.76918029785156
1773521773512466200,11.760466064453125,-147.8919677734375,48.79412841796875,-83.65943908691406
1773521773522586000,11.770586181640626,-148.99984741210938,49.003326416015625,-83.90296936035156
1773521773532706000,11.7807060546875,-150.32803344726562,49.25636291503906,-83.79316711425781
1773521773542827000,11.790826904296875,-150.8123321533203,49.424957275390625,-83.60661315917969
1773521773552948000,11.800947998046874,-151.94422912597656,49.82185363769531,-83.275390625
1773521773563069200,11.811069091796876,-152.71810913085938,50.125152587890625,-82.72303771972656
1773521773573188000,11.82118798828125,-154.07984924316406,50.272674560546875,-82.46919250488281
1773521773583307000,11.83130712890625,-155.20777893066406,50.47322082519531,-82.12351989746094
1773521773593426200,11.84142626953125,-156.69761657714844,50.49983215332031,-81.71044921875
1773521773603544000,11.8515439453125,-157.89630126953125,50.5098876953125,-81.322265625
1773521773613664300,11.861664306640625,-159.25225830078125,50.3416748046875,-80.719482421875
1773521773623783200,11.871783203125,-160.6038055419922,50.425323486328125,-80.86273193359375
1773521773633902000,11.881902099609375,-161.98350524902344,51.45881652832031,-81.02833557128906
1773521773644020000,11.89202001953125,-163.4453582763672,52.32984924316406,-81.19508361816406
1773521773654140000,11.902139892578125,-163.9962921142578,53.602630615234375,-81.27980041503906
1773521773664258000,11.912258056640624,-164.8030548095703,54.30094909667969,-81.78837585449219
1773521773674377200,11.922377197265625,-165.60182189941406,54.23414611816406,-82.79312133789062
1773521773684496100,11.93249609375,-167.82354736328125,53.11500549316406,-83.70210266113281
1773521773694615000,11.942614990234375,-169.91018676757812,52.13380432128906,-84.36703491210938
1773521773704734200,11.952734130859374,-171.72544860839844,51.51310729980469,-85.06224060058594
1773521773714854000,11.96285400390625,-173.62472534179688,51.314300537109375,-85.74411010742188
1773521773724972000,11.972971923828124,-175.25927734375,51.337249755859375,-86.32611083984375
1773521773735091200,11.98309130859375,-176.91989135742188,51.41664123535156,-87.08248901367188
1773521773745210000,11.993210205078125,-178.99624633789062,50.93406677246094,-87.55715942382812
1773521773755329000,12.0033291015625,-181.5302276611328,50.47288513183594,-88.38642883300781
1773521773765448200,12.0134482421875,-184.06439208984375,49.37689208984375,-88.6986083984375
1773521773775567000,12.023567138671876,-186.49844360351562,48.36906433105469,-88.94277954101562
1773521773785687300,12.033687255859375,-188.70050048828125,47.38533020019531,-89.18083190917969
1773521773795805200,12.04380517578125,-190.50128173828125,46.654449462890625,-89.08778381347656
1773521773805923300,12.05392333984375,-192.4388427734375,46.227447509765625,-89.14047241210938
1773521773816041200,12.064041259765625,-193.82757568359375,45.59344482421875,-89.64906311035156
1773521773826161200,12.0741611328125,-195.12193298339844,44.961395263671875,-89.49403381347656
1773521773836280000,12.084280029296876,-195.89501953125,45.05192565917969,-89.68962097167969
1773521773846401300,12.0944013671875,-196.4766082763672,44.72662353515625,-89.75498962402344
1773521773856520200,12.104520263671875,-196.6660919189453,44.49125671386719,-90.04933166503906
1773521773866640100,12.11464013671875,-197.12986755371094,44.3448486328125,-90.20306396484375
1773521773876760000,12.124760009765625,-197.68447875976562,44.01823425292969,-90.64797973632812
1773521773886880300,12.13488037109375,-197.5395965576172,44.04817199707031,-90.43064880371094
1773521773897000200,12.145000244140626,-198.074951171875,43.580657958984375,-90.85026550292969
1773521773907121200,12.15512109375,-198.6784210205078,43.58052062988281,-90.94285583496094
1773521773917241000,12.165240966796874,-199.05465698242188,43.439544677734375,-90.99655151367188
1773521773927362300,12.1753623046875,-199.8412322998047,42.96211242675781,-90.72320556640625
1773521773937482200,12.185482177734375,-200.24407958984375,43.118194580078125,-90.62901306152344
1773521773947603700,12.195603759765625,-200.90606689453125,43.04815673828125,-90.70164489746094
1773521773957725000,12.205724853515624,-201.4569091796875,43.08233642578125,-90.47792053222656
1773521773967844600,12.2158447265625,-202.06640625,43.084564208984375,-90.31455993652344
1773521773977964500,12.225964599609375,-202.58258056640625,43.341278076171875,-90.08514404296875
1773521773988083700,12.236083740234376,-202.75521850585938,43.5799560546875,-89.76611328125
1773521773998203600,12.24620361328125,-203.16200256347656,43.60362243652344,-89.76771545410156
1773521774008324600,12.25632470703125,-203.06381225585938,43.75309753417969,-89.67503356933594
1773521774018445800,12.26644580078125,-203.67819213867188,44.167694091796875,-89.79617309570312
1773521774028564700,12.276564697265625,-203.6804656982422,44.335052490234375,-89.23777770996094
1773521774038683600,12.28668359375,-203.9163055419922,44.6541748046875,-89.41587829589844
1773521774048802800,12.296802734375,-204.25672912597656,44.74382019042969,-89.47416687011719
1773521774058922800,12.3069228515625,-204.26766967773438,44.94776916503906,-89.43911743164062
1773521774069042700,12.317042724609376,-204.1475067138672,45.65809631347656,-89.57778930664062
1773521774079163000,12.327162841796875,-203.5863800048828,46.287750244140625,-89.32858276367188
1773521774089282800,12.33728271484375,-203.6835479736328,46.81085205078125,-89.6051025390625
1773521774099403500,12.347403564453124,-203.1656494140625,47.648651123046875,-89.55982971191406
1773521774109523700,12.357523681640625,-202.73114013671875,48.11726379394531,-89.66134643554688
1773521774119643600,12.3676435546875,-202.65206909179688,48.77424621582031,-89.63821411132812
1773521774129761800,12.37776171875,-203.25717163085938,49.03138732910156,-89.09017944335938
1773521774139880700,12.387880615234375,-204.8548126220703,49.081939697265625,-88.04403686523438
1773521774149999900,12.397999755859376,-206.1680145263672,49.143280029296875,-87.20420837402344
1773521774160117500,12.408117431640624,-207.25271606445312,49.22978210449219,-86.40869140625
1773521774170235600,12.418235595703125,-207.33949279785156,49.38885498046875,-85.97474670410156
1773521774180353500,12.428353515625,-207.44528198242188,49.508880615234375,-86.02662658691406
1773521774190473000,12.438472900390625,-206.84620666503906,49.472564697265625,-86.25434875488281
1773521774200590800,12.4485908203125,-206.74473571777344,49.71685791015625,-86.92422485351562
1773521774210709800,12.458709716796875,-205.6596221923828,49.46995544433594,-87.41464233398438
1773521774220828700,12.46882861328125,-204.79254150390625,49.679046630859375,-87.8677978515625
1773521774230946800,12.47894677734375,-203.81405639648438,49.93603515625,-88.66966247558594
1773521774241064000,12.48906396484375,-202.80770874023438,49.81591796875,-89.17320251464844
1773521774251182800,12.499182861328125,-202.31637573242188,50.42134094238281,-89.82752990722656
1773521774261300000,12.509300048828125,-201.56906127929688,50.69940185546875,-90.00358581542969
1773521774271419000,12.5194189453125,-201.3463134765625,50.37864685058594,-90.09992980957031
1773521774281535700,12.52953564453125,-201.64312744140625,50.466033935546875,-90.30851745605469
1773521774291653600,12.539653564453126,-201.84707641601562,50.25456237792969,-90.41415405273438
1773521774301772800,12.549772705078125,-202.30982971191406,50.10725402832031,-90.26031494140625
1773521774311891700,12.5598916015625,-202.7760772705078,49.88337707519531,-89.89144897460938
1773521774322009900,12.570009765625,-202.84861755371094,50.087127685546875,-89.47283935546875
1773521774332127700,12.580127685546875,-203.373779296875,50.22093200683594,-88.98988342285156
1773521774342246700,12.59024658203125,-203.65774536132812,50.321502685546875,-88.726318359375
1773521774352365800,12.60036572265625,-204.03334045410156,50.188201904296875,-88.04838562011719
1773521774362485800,12.61048583984375,-204.5651092529297,50.47444152832031,-87.34355163574219
1773521774372605000,12.62060498046875,-205.182373046875,50.47166442871094,-87.21836853027344
1773521774382722800,12.630722900390625,-206.01016235351562,50.39372253417969,-86.82014465332031
1773521774392840700,12.6408408203125,-206.5368194580078,50.17510986328125,-86.37501525878906
1773521774402957600,12.65095751953125,-207.13902282714844,50.03706359863281,-86.05685424804688
1773521774413076700,12.66107666015625,-207.02127075195312,49.56147766113281,-85.6522216796875
1773521774423196000,12.67119580078125,-207.55206298828125,49.62995910644531,-85.84188842773438
1773521774433315800,12.68131591796875,-207.5062713623047,49.75201416015625,-85.62712097167969
1773521774443435800,12.691435791015625,-206.8123321533203,49.62274169921875,-85.55877685546875
1773521774453554700,12.7015546875,-206.56044006347656,49.58930969238281,-85.75509643554688
1773521774463673900,12.711673828125,-206.58001708984375,49.665985107421875,-85.70637512207031
1773521774473791700,12.721791748046876,-206.17652893066406,49.80682373046875,-85.86468505859375
1773521774483910000,12.731909912109375,-205.7272491455078,50.03800964355469,-86.04513549804688
1773521774494028800,12.74202880859375,-205.65924072265625,50.17909240722656,-85.76744079589844
1773521774504147700,12.752147705078125,-205.41908264160156,50.1761474609375,-85.48997497558594
1773521774514266600,12.7622666015625,-205.8367919921875,50.19718933105469,-85.45916748046875
1773521774524385800,12.7723857421875,-206.05722045898438,49.87214660644531,-85.30007934570312
1773521774534505700,12.782505615234374,-206.95606994628906,49.5672607421875,-84.5853271484375
1773521774544623900,12.792623779296875,-207.58152770996094,49.188201904296875,-83.88389587402344
1773521774554742800,12.80274267578125,-208.47715759277344,48.662506103515625,-82.94580078125
1773521774564861000,12.81286083984375,-210.11776733398438,48.079742431640625,-82.34663391113281
1773521774574977500,12.8229775390625,-210.91709899902344,47.575103759765625,-81.65997314453125
1773521774585094700,12.8330947265625,-211.3837890625,46.893310546875,-81.06410217285156
1773521774595212800,12.843212890625,-212.05917358398438,46.474853515625,-80.49516296386719
1773521774605332700,12.853332763671874,-212.84474182128906,45.57939147949219,-80.24856567382812
1773521774615452000,12.863451904296875,-213.2096710205078,44.86933898925781,-80.13705444335938
1773521774625570800,12.87357080078125,-213.63722229003906,43.78770446777344,-80.36177062988281
1773521774635690800,12.883690673828125,-213.9735870361328,42.9151611328125,-80.38963317871094
1773521774645809700,12.8938095703125,-213.7827911376953,42.30052185058594,-80.40194702148438
1773521774655929900,12.903929931640626,-214.34808349609375,42.11161804199219,-79.766845703125
1773521774666049800,12.9140498046875,-214.35598754882812,42.1605224609375,-79.76177978515625
1773521774676169700,12.924169677734374,-213.9569854736328,42.72251892089844,-79.69569396972656
1773521774686289000,12.934288818359375,-213.61912536621094,42.85661315917969,-79.98426818847656
1773521774696409600,12.94440966796875,-213.25209045410156,42.95707702636719,-80.14610290527344
1773521774706529800,12.95452978515625,-213.00564575195312,43.1654052734375,-80.74449157714844
1773521774716649700,12.964649658203125,-212.9681396484375,43.043853759765625,-81.30950927734375
1773521774726770700,12.974770751953125,-212.46194458007812,43.1513671875,-82.13223266601562
1773521774736888600,12.984888671875,-212.17742919921875,43.22471618652344,-82.98896789550781
1773521774747007700,12.9950078125,-211.47146606445312,43.12847900390625,-83.88420104980469
1773521774757127000,13.005126953125,-211.66094970703125,42.998504638671875,-84.31242370605469
1773521774767245800,13.015245849609375,-211.61538696289062,42.58277893066406,-84.59843444824219
1773521774777363700,13.02536376953125,-211.78329467773438,41.72132873535156,-84.77046203613281
1773521774787483600,13.035483642578125,-211.36782836914062,40.86997985839844,-85.55259704589844
1773521774797603800,13.045603759765624,-211.93670654296875,39.104400634765625,-86.15095520019531
