time,seconds_elapsed,z,y,x
1773149842044000500,0.11100048828125,-9.772174898946284,0.07287412038578185,0.8183369291715323
1773149842054037200,0.121037353515625,-9.737266082650422,0.22732224339954554,1.142085045298934
1773149842064073200,0.1310732421875,-9.67552303544283,0.42886831357292826,1.5397110291942953
1773149842074109400,0.141109375,-9.587648937156796,0.6642502370484172,1.9509337228961288
1773149842084145400,0.1511455078125,-9.46330067295432,0.9094834001917391,2.4060681851692496
1773149842094181400,0.161181396484375,-9.288566621860861,1.1439701283931731,2.929888791786134
1773149842104217300,0.17121728515625,-9.064121906659006,1.3861622433401644,3.4771593937039373
1773149842114253300,0.18125341796875,-8.799287897923588,1.6580840183794499,3.999208752864599
1773149842124289300,0.191289306640625,-8.517696231132746,1.93727987607494,4.45714979699105
1773149842134326300,0.201326171875,-8.230659158417582,2.1874584597311912,4.862268474729359
1773149842144362200,0.2113623046875,-7.923982734730839,2.4018787706553937,5.254699228069186
1773149842154398200,0.221398193359375,-7.626476874971389,2.5816616295710206,5.598415634861588
1773149842164434200,0.23143408203125,-7.41022774118483,2.708635566101968,5.824277231124043
1773149842174470400,0.241470458984375,-7.363949974134564,2.754299000646174,5.8614387947827575
1773149842184506400,0.25150634765625,-7.4137594224423164,2.7690204766988753,5.791293829932808
1773149842194542300,0.261542236328125,-7.455113761615753,2.7914754696130752,5.727070656347275
1773149842204577500,0.27157763671875,-7.476974880290031,2.817444315867126,5.685705211257934
1773149842214614300,0.2816142578125,-7.505038945257663,2.837090096579492,5.638766349950433
1773149842224650500,0.291650390625,-7.54674633565247,2.8620240468278526,5.570083274346589
1773149842234686500,0.3016865234375,-7.593849447610974,2.9115882882028816,5.479643709486723
1773149842244722400,0.311722412109375,-7.6400278459399935,2.9806290912032125,5.377378682276606
1773149842254758400,0.32175830078125,-7.682460043478011,3.05094473644495,5.276545149174332
1773149842264794400,0.33179443359375,-7.71564218211174,3.11445742367357,5.190318233573437
1773149842274830300,0.341830322265625,-7.740422403103112,3.1683278378099202,5.1203462872028345
1773149842284867300,0.351867431640625,-7.767993716117739,3.2236472817108033,5.043486334884166
1773149842294903300,0.3619033203125,-7.798387100815773,3.2895655687764287,4.953211020675301
1773149842304939300,0.371939208984375,-7.817500382086634,3.3827862887874245,4.859406071035564
1773149842314975200,0.381975341796875,-7.819946021673083,3.507925118845701,4.7658469128504395
1773149842325011200,0.39201123046875,-7.811716537988185,3.6732185568988323,4.653486608083546
1773149842335047200,0.402047119140625,-7.790076368588209,3.882194192551076,4.518147578789294
1773149842345083100,0.412083251953125,-7.748543750238418,4.125489154173434,4.371589528605342
1773149842355119400,0.422119384765625,-7.675593664839863,4.392950881063938,4.2376442917570465
1773149842365156400,0.43215625,-7.564599387729167,4.68910883334577,4.118189060293138
1773149842375192300,0.4421923828125,-7.412151402723789,5.024783972501755,3.9977416029214856
1773149842385228300,0.452228271484375,-7.226307928594946,5.396573796612024,3.850694015654921
1773149842395264500,0.462264404296875,-7.0228954800277945,5.776598949626088,3.6715427326411008
1773149842405300500,0.472300537109375,-6.8216065994858734,6.139382460460067,3.4560160679101943
1773149842415336400,0.48233642578125,-6.636056555345654,6.471764987811445,3.2014684753894804
1773149842425372400,0.492372314453125,-6.470009084054827,6.770351628544926,2.9106209044754503
1773149842435409400,0.502409423828125,-6.310624577784538,7.043624964323639,2.594948981167376
1773149842445445400,0.5124453125,-6.138865158587694,7.301715928539633,2.273689466985315
1773149842455481300,0.5224814453125,-5.949450255712867,7.549094360083341,1.945661773842573
1773149842465517300,0.532517333984375,-5.735878232181072,7.792471739292144,1.5960830508880317
1773149842475553300,0.54255322265625,-5.488928255182504,8.033074393090605,1.2295403336510062
1773149842485589200,0.55258935546875,-5.199121133232117,8.269432833448052,0.8694850056719035
1773149842495625200,0.562625244140625,-4.8707937264904375,8.494589496311544,0.5363786940906197
1773149842505662500,0.572662353515625,-4.514291487883031,8.702318639034033,0.24739878021199255
1773149842515698400,0.582698486328125,-4.14279480150044,8.888570693963766,0.030782719659048597
1773149842525734400,0.592734375,-3.760554895046353,9.056430767634511,-0.09839361087055876
1773149842535770400,0.602770263671875,-3.3617379478007554,9.211140267831087,-0.15485435202736406
1773149842545806300,0.612806396484375,-2.9437153648257253,9.353087901610136,-0.15708349931892007
1773149842555842300,0.62284228515625,-2.508435065318644,9.479690666741131,-0.11661884812735952
1773149842565878300,0.632878173828125,-2.0544696468248964,9.58892904009521,-0.0445751963495044
1773149842575914500,0.64291455078125,-1.5826896085686981,9.677882165789603,0.06393913704634178
1773149842585951200,0.652951171875,-1.1029778274651616,9.742018245613574,0.2166103317817673
1773149842595987200,0.6629873046875,-0.6313263109594583,9.77751742901802,0.4147122163180262
1773149842606023400,0.6730234375,-0.18743070678766816,9.782250302758813,0.6654597589686513
1773149842616059400,0.683059326171875,0.19775413054451346,9.755506088218093,0.9804963069826363
1773149842626095400,0.693095458984375,0.49593153288997704,9.700148358133434,1.3533506915844975
1773149842636131300,0.70313134765625,0.713104576588422,9.621260699379443,1.7587559311792254
1773149842646167300,0.713167236328125,0.8627225257996469,9.530328382566571,2.1445175820186733
1773149842656204500,0.72320458984375,0.9715295950643718,9.441254260841012,2.4676383600279688
1773149842666240500,0.733240478515625,1.0754301145218312,9.362370693740248,2.712907836593687
1773149842676276500,0.7432763671875,1.179160245848447,9.293933117330074,2.8987536488100885
1773149842686312400,0.7533125,1.2638704732760786,9.2260169344455,3.074671648991108
1773149842696348400,0.763348388671875,1.3039007242389022,9.150983028510213,3.2756291056215763
1773149842706384400,0.77338427734375,1.2803862853996455,9.067667031919955,3.508333407385647
1773149842716420400,0.78342041015625,1.2005315351791679,8.973360854759813,3.7693373364388942
1773149842726457300,0.793457275390625,1.0951712453674525,8.861152525684236,4.05597693426907
1773149842736493300,0.803493408203125,1.0067587293557823,8.734638607880473,4.343144939887523
1773149842746529300,0.813529296875,0.9638998308382928,8.599498900550604,4.614096554720401
1773149842756565200,0.823565185546875,0.956135334316641,8.467284725278615,4.853993982858956
1773149842766601200,0.833601318359375,0.94412421320118,8.347396363094449,5.059643688958883
1773149842776637400,0.843637451171875,0.9020423634707927,8.242762853187322,5.235795790156722
1773149842786673400,0.85367333984375,0.822204199058935,8.152870400816202,5.387492664533853
1773149842796710100,0.863710205078125,0.7045115933533758,8.070022021737694,5.527096365535259
1773149842806746400,0.873746337890625,0.5625295093154534,7.988116476467251,5.660735020652413
1773149842816782300,0.8837822265625,0.4128720318114385,7.902139151713252,5.7927668250948186
1773149842826818600,0.893818603515625,0.2689166932054795,7.817148499909043,5.91525806325376
1773149842836854500,0.9038544921875,0.1391578751963563,7.733744240513444,6.028284722974896
1773149842846890500,0.913890380859375,0.02068234351875726,7.64423114284873,6.142938691636919
1773149842856926500,0.923926513671875,-0.10739896516562439,7.5435197748214,6.265314778983592
1773149842866962400,0.93396240234375,-0.2558952990689315,7.432468214565515,6.392443029293418
1773149842876999400,0.94399951171875,-0.41165801637917754,7.3193462777763605,6.513687482261657
1773149842887035400,0.954035400390625,-0.5554409758266061,7.209703999796509,6.62435267354846
1773149842897071400,0.9640712890625,-0.6694189449232071,7.100310143619775,6.731109751480817
1773149842907107300,0.974107421875,-0.7677429063573479,6.980095033699274,6.845380273783206
1773149842917143300,0.984143310546875,-0.8691354615818708,6.840246418026089,6.973238007411361
1773149842927179300,0.99417919921875,-0.9795908825755119,6.693290600696206,7.100047108769417
1773149842937215200,1.00421533203125,-1.1000710731729864,6.560473783355951,7.20558019786477
1773149842947252200,1.014252197265625,-1.2095341221284122,6.4385091994196175,7.297464700835943
1773149842957288200,1.0242880859375,-1.2940769570998847,6.320716348209976,7.385411279836297
1773149842967324200,1.03432421875,-1.3767917729265986,6.208387023103237,7.465304316240549
1773149842977360100,1.044360107421875,-1.472257056993991,6.101595458379387,7.53481098318696
1773149842987396400,1.054396240234375,-1.5863925547398625,6.004699849247932,7.589291345915198
1773149842997432300,1.064432373046875,-1.7257940111674368,5.920605854022503,7.624858333858847
1773149843007468500,1.074468505859375,-1.8841915522269903,5.852954459553956,7.639575425997376
1773149843017505300,1.08450537109375,-2.0440373923987147,5.809307625529169,7.6317913479924195
1773149843027541500,1.09454150390625,-2.1969033105552196,5.7958408257126806,7.59948891480267
1773149843037577500,1.104577392578125,-2.3363543052129447,5.814831357386708,7.543180752125382
1773149843047613400,1.114613525390625,-2.4480799653381107,5.858668745547533,7.47350749644041
1773149843057649400,1.1246494140625,-2.541131758522987,5.923791498321294,7.390650934055447
1773149843067685400,1.134685302734375,-2.6160025828510522,6.002134967195987,7.300774848297238
1773149843077721300,1.144721435546875,-2.6697514164343477,6.076903500193357,7.219006665670872
1773149843087758300,1.15475830078125,-2.8581004436433313,6.151520642021298,7.082402731007337
1773149843097794300,1.164794189453125,-3.1348952315464613,6.2380339733481405,6.886924582570791
1773149843107830300,1.174830322265625,-3.3793025383248922,6.349296546006203,6.666117347088456
1773149843117866200,1.1848662109375,-3.5675665175989266,6.490493069157004,6.427779131090641
1773149843127902200,1.194902099609375,-3.7120489305526014,6.672511432039737,6.153751762074232
1773149843137938200,1.204938232421875,-3.8070617946773764,6.8969614079385995,5.840255136978626
1773149843147974100,1.21497412109375,-3.848726807235181,7.138877482423186,5.513084791317582
1773149843158011400,1.225011474609375,-3.807124630780518,7.365399003899097,5.23708699901104
1773149843168047400,1.23504736328125,-3.694504213772714,7.550638082394004,5.050632114985585
1773149843178083300,1.245083251953125,-3.6069004568606613,7.674573089620471,4.9256063899129625
1773149843188119300,1.255119384765625,-3.580453763961792,7.734106059563159,4.851220718753337
1773149843198155500,1.265155517578125,-3.560509584824741,7.751442978811264,4.838211307315528
1773149843208195800,1.27519580078125,-3.510194817343354,7.758471854534744,4.8636453160405155
1773149843218231800,1.285231689453125,-3.432992919719219,7.76907508161366,4.901676356010139
1773149843228268800,1.295268798828125,-3.340155353806913,7.777568769192695,4.952088154125214
1773149843238304800,1.3053046875,-3.232073749272525,7.795606530186533,4.995258018288016
1773149843248340700,1.3153408203125,-3.1149884618103503,7.835954907187819,5.006501296836137
1773149843258377000,1.325376953125,-3.006184680481255,7.899889911481738,4.97242367066741
1773149843268413000,1.335412841796875,-2.9133544210925697,7.987039787146449,4.887736677984893
1773149843278449000,1.345448974609375,-2.841044094902277,8.081060133102536,4.7744463988915085
1773149843288486000,1.35548583984375,-2.7919185372054574,8.182148517748713,4.629042779439687
1773149843298522000,1.365522216796875,-2.7758479846313593,8.280613568153976,4.460550545345247
1773149843308558000,1.37555810546875,-2.7763141408383847,8.359289629983902,4.311002373434603
1773149843318594000,1.385593994140625,-2.775813497839868,8.407282968780398,4.216972967389226
1773149843328630000,1.395630126953125,-2.77531519292891,8.425060033011436,4.181673982731998
1773149843338666000,1.405666015625,-2.790578520773351,8.416936347788571,4.1878699147626754
1773149843348702000,1.415701904296875,-2.826610495880246,8.392434943738579,4.212802403706312
1773149843358739000,1.425739013671875,-2.871536556060612,8.36844791895151,4.230098114161193
1773149843368775000,1.43577490234375,-2.9028914792671796,8.360117897501587,4.225166795238852
1773149843378811000,1.445810791015625,-2.904304268674552,8.376379880994557,4.1918581076160075
1773149843388846800,1.455846923828125,-2.8841929162770508,8.418296530225872,4.121176843932271
1773149843398882800,1.4658828125,-2.8550898636505004,8.476012806135415,4.021947238895296
1773149843408918800,1.475918701171875,-2.8293086489230395,8.537652977490424,3.9081794054180383
1773149843418954800,1.485954833984375,-2.820090446461737,8.59713918568194,3.7824139678940174
1773149843428992000,1.495991943359375,-2.8341511205181478,8.650961376762389,3.64675783547461
1773149843439028000,1.506028076171875,-2.8687916412666437,8.69454683598876,3.5135829984769225
1773149843449064000,1.51606396484375,-2.9166169300198552,8.721504401019216,3.4057460163533686
1773149843459100000,1.526099853515625,-2.963138734959066,8.728653103730082,3.346763081508875
1773149843469136000,1.536135986328125,-2.990426554857194,8.719887028950453,3.3453383094027638
1773149843479172000,1.546172119140625,-2.9891002746894952,8.706481019410491,3.381250457522273
1773149843489208000,1.5562080078125,-2.9702190486088393,8.688437413197756,3.443722111265361
1773149843499245000,1.5662451171875,-2.9472058372899888,8.659313610044121,3.5356256111979483
1773149843509281000,1.576281005859375,-2.9221351089194414,8.618478326308727,3.654225979398191
1773149843519317000,1.58631689453125,-2.8933038589715956,8.571133806809783,3.786137080070376
1773149843529353000,1.59635302734375,-2.8640868245765567,8.528179631224274,3.9035309950903057
1773149843539389000,1.606388916015625,-2.841472549447417,8.501416127461194,3.9777307882890103
1773149843549425000,1.6164248046875,-2.829620783612132,8.492745914271474,4.004611780951917
1773149843559462000,1.6264619140625,-2.8225153355211017,8.490350543567537,4.014690399634838
1773149843569497900,1.636497802734375,-2.8120985709249973,8.485414256209134,4.032397613500058
1773149843579533800,1.646533935546875,-2.798535032735765,8.477931206977367,4.057493768572807
1773149843589570000,1.656570068359375,-2.7863562269032,8.468324005198479,4.085838988569378
1773149843599606000,1.66660595703125,-2.7801132408604023,8.455550448343157,4.116433448797464
1773149843609642000,1.67664208984375,-2.7829700915962454,8.437693304613232,4.150999443005025
1773149843619678000,1.686677978515625,-2.798335126249492,8.411541795268654,4.193525456306338
1773149843629715000,1.69671484375,-2.8339260795906185,8.375881868344544,4.240735243509709
1773149843639751000,1.7067509765625,-2.8886963651761413,8.333244503623247,4.287524174952507
1773149843649787000,1.716786865234375,-2.957457474452257,8.288605735951661,4.326991092944145
1773149843659822800,1.72682275390625,-3.031979339212179,8.254694113999605,4.340221745917201
1773149843669858800,1.73685888671875,-3.1075954289495944,8.243985672980546,4.3069624503940345
1773149843679895000,1.74689501953125,-3.168283414146304,8.231266476660966,4.287029669433832
1773149843689931800,1.756931884765625,-3.2060467430904507,8.185653310999275,4.345885763028264
1773149843699967700,1.7669677734375,-3.2316210370689626,8.109884076526761,4.4673000196054575
1773149843710004000,1.77700390625,-3.2425176941365,8.035643951317667,4.591828024289011
1773149843720040000,1.7870400390625,-3.2141803651854395,8.002004132044314,4.669833347250521
1773149843730076000,1.797075927734375,-3.125897101576626,8.022609697699547,4.6943441036507485
1773149843740112000,1.80711181640625,-2.967043341182172,8.103119989219307,4.659022322639823
1773149843750147800,1.81714794921875,-2.75882816850841,8.24069656830728,4.544247357946634
1773149843760185000,1.82718505859375,-2.5240236795946953,8.408805063781141,4.3694022476941345
1773149843770221000,1.837220947265625,-2.2954729903787374,8.580729902672767,4.15598892185539
1773149843780257000,1.847257080078125,-2.082077200196683,8.745529419729113,3.9180408742189403
1773149843790293000,1.85729296875,-1.8871544936858116,8.905206771466135,3.647782210086286
1773149843800329000,1.867328857421875,-1.6983834416724741,9.057852324870229,3.352788333147764
1773149843810365000,1.877364990234375,-1.4714105231672525,9.205106832885741,3.044887336102128
1773149843820402000,1.88740185546875,-1.2343841204203665,9.350604268100858,2.685680806972086
1773149843830438000,1.89743798828125,-1.0533928355630486,9.487585803905128,2.2464348187044263
1773149843840473900,1.907473876953125,-0.9260380099557339,9.601911855787039,1.765248069677502
1773149843850509800,1.917509765625,-0.8287400305684656,9.685420160079001,1.2946893899098038
1773149843860545800,1.9275458984375,-0.7464144332550465,9.739251118987799,0.8719245808437466
1773149843870581800,1.937581787109375,-0.6714496470332145,9.771171274861693,0.4937429733371362
1773149843880618000,1.947617919921875,-0.5954754645731299,9.787354932421445,0.1532147041947115
1773149843890655000,1.957655029296875,-0.5214335653498768,9.791502115228772,-0.15801292565613984
1773149843900691000,1.96769091796875,-0.4594419136760756,9.785113875496387,-0.45917672340124843
1773149843910727000,1.977726806640625,-0.41253436082229017,9.768985747516155,-0.7530665115553885
1773149843920763100,1.98776318359375,-0.3877981981683522,9.745165311467646,-1.0255503043916077
1773149843930799000,1.997799072265625,-0.3969927274931222,9.7159006385386,-1.2704536510586737
1773149843940835000,2.0078349609375,-0.4413611172581091,9.681737087652087,-1.4965103315018116
1773149843950872000,2.0178720703125,-0.5120897272149101,9.644611764350532,-1.6998884394079445
1773149843960908000,2.027907958984375,-0.6080031569086015,9.60888461740911,-1.8628116411983966
1773149843970944000,2.037944091796875,-0.723478817217052,9.578145780274271,-1.9763855595387518
1773149843980980000,2.04797998046875,-0.8480578214354813,9.555221416282654,-2.0368971652552483
1773149843991016000,2.058015869140625,-0.9763467130225151,9.542528523448109,-2.0389426996082065
1773149844001052000,2.068052001953125,-1.1031794875171035,9.54144481986463,-1.9784353316754102
1773149844011088000,2.078087890625,-1.2222491537295281,9.54992915509343,-1.864228522258997
1773149844021124900,2.088124755859375,-1.3243901161685585,9.562710895255208,-1.7236483774408697
1773149844031160800,2.098160888671875,-1.4020384423859416,9.571613163635135,-1.6090062453471123
1773149844041196800,2.10819677734375,-1.4602074304990469,9.571791442811488,-1.5553161562137305
1773149844051232800,2.118232666015625,-1.4992201749823986,9.563556113907694,-1.5687908470757306
1773149844061269000,2.12826904296875,-1.5212141262561083,9.548387770870328,-1.6384728705890477
1773149844071305000,2.138304931640625,-1.5257837722592056,9.530240704283118,-1.736920093076676
1773149844081342000,2.148342041015625,-1.504796952201426,9.515642270088195,-1.8326289766415953
1773149844091378000,2.1583779296875,-1.4523847740493714,9.511356555593013,-1.8960700599387288
1773149844101414000,2.168413818359375,-1.3754697305426,9.521167755511403,-1.9041634961538016
1773149844111449900,2.178449951171875,-1.2925745897129177,9.542700957405566,-1.8537863309606908
1773149844121485800,2.18848583984375,-1.2204543792672455,9.57003437001109,-1.759353312550485
1773149844131522000,2.19852197265625,-1.1675865663021803,9.597465397772192,-1.6418818022496997
1773149844141558800,2.208558837890625,-1.1382825842760502,9.620552258849143,-1.5230490865983068
1773149844151594800,2.2185947265625,-1.1313006894994526,9.637266077762842,-1.419030639849603
1773149844161631000,2.228630859375,-1.137759144923836,9.647751815941929,-1.340435826562345
1773149844171667000,2.2386669921875,-1.1460587712354957,9.653536244562268,-1.290799542864412
1773149844181703000,2.248702880859375,-1.1446135408632456,9.65793301821649,-1.2587995997525752
1773149844191739000,2.25873876953125,-1.1243044739365577,9.663495913040638,-1.234174277061969
1773149844201774800,2.26877490234375,-1.087234241823107,9.669854926678537,-1.2174586315173654
1773149844211808500,2.27880859375,-1.0461230637557803,9.675181090137363,-1.2111510558057577
1773149844221844500,2.288844482421875,-1.0131055410992353,9.678289577546716,-1.2143768129192292
1773149844231880400,2.29888037109375,-0.9929833750467747,9.679203185260295,-1.223680136380717
1773149844241916400,2.30891650390625,-0.9813720669038594,9.678996264511346,-1.23463414965868
1773149844251952400,2.318952392578125,-0.9713504391051828,9.678502928036451,-1.2463706185512244
1773149844261988400,2.32898828125,-0.9582241232894361,9.678217096832395,-1.2586921938553453
1773149844272025300,2.339025390625,-0.9410867452014237,9.678404143837094,-1.2701396166734398
1773149844282061300,2.349061279296875,-0.9212578630071133,9.67913771880865,-1.2790499222293494
1773149844292097300,2.35909716796875,-0.8992076515015214,9.680447047841549,-1.2848230988033116
1773149844302133200,2.36913330078125,-0.8747614847701043,9.682373047468065,-1.2871727306693792
1773149844312169500,2.37916943359375,-0.8470094083610922,9.68491980934143,-1.286575203167647
1773149844322205400,2.389205322265625,-0.8153907196518033,9.688059860932826,-1.2833695389941333
1773149844332241400,2.399241455078125,-0.7798383447553962,9.691622521850466,-1.2785432878814638
1773149844342278400,2.4092783203125,-0.7405285900868475,9.695525959029792,-1.2723157916687429
1773149844352314400,2.419314453125,-0.6984817386046052,9.69961819677949,-1.2648792119272052
1773149844362350300,2.429350341796875,-0.6550450401991605,9.70373732253611,-1.2565047668136655
1773149844372386600,2.439386474609375,-0.6116105337508022,9.707752987918257,-1.2473453088022768
1773149844382422500,2.449422607421875,-0.5685926452793181,9.711623107349872,-1.2375323553182185
1773149844392458500,2.45945849609375,-0.5252942958986386,9.71531962378025,-1.2276115575455129
1773149844402495500,2.46949560546875,-0.4803148980958387,9.718809803983568,-1.218374138927087
1773149844412531500,2.479531494140625,-0.4329952573098242,9.722174311980604,-1.209230170745775
1773149844422567400,2.4895673828125,-0.38286333558205515,9.7254675083071,-1.1996146395299583
1773149844432603400,2.499603271484375,-0.32991617377046495,9.728415836718678,-1.1914043720021843
1773149844442639400,2.509639404296875,-0.27464252350637686,9.730618315199017,-1.1874424095686524
1773149844452675300,2.51967529296875,-0.21755349438339472,9.73206734496355,-1.187403100471571
1773149844462712600,2.529712646484375,-0.16109914643475784,9.733062785741685,-1.1882456887755541
1773149844472748500,2.53974853515625,-0.10866341387717984,9.733732063305377,-1.188715936635807
1773149844482784500,2.549784423828125,-0.06399407297081779,9.73411784775257,-1.1887971121132372
1773149844492820500,2.559820556640625,-0.029229012527200393,9.734296126928925,-1.1887012505233288
1773149844502856400,2.5698564453125,-0.0042391870665029275,9.734257548484205,-1.1893725739136338
1773149844512892400,2.579892333984375,0.012837186401261715,9.733975808933376,-1.191607639489323
1773149844522928400,2.589928466796875,0.023609202167333566,9.733512867596746,-1.195215527788177
1773149844532965400,2.59996533203125,0.029169341062102463,9.733027129906416,-1.1990385932076721
1773149844543001300,2.61000146484375,0.030065803561348,9.732651866853237,-1.2020618134863674
1773149844553037300,2.620037353515625,0.027736415332288013,9.732509243512153,-1.2032627867739647
1773149844563073300,2.6300732421875,0.02447896388932131,9.73270272025764,-1.201776785999909
1773149844573109500,2.640109619140625,0.022505761836923193,9.733184366294742,-1.1979141922876237
1773149844583145500,2.6501455078125,0.023683139619801657,9.733905081784725,-1.1920285683151335
1773149844593182200,2.66018212890625,0.028721291333925907,9.73473218025863,-1.1851363245833664
1773149844603218400,2.670218505859375,0.03870147287736181,9.735411394694447,-1.1792665557671338
1773149844613254700,2.680254638671875,0.05327306016455404,9.735921682304143,-1.1744754490330815
1773149844623290600,2.69029052734375,0.07105248074945994,9.736408004516363,-1.1694876506831495
1773149844633326600,2.70032666015625,0.08970377966491505,9.737118783134221,-1.1622733353901653
1773149844643362600,2.710362548828125,0.1070729846142698,9.738286657869816,-1.1509537767354399
1773149844653398500,2.7203984375,0.12269220409113914,9.739784202951192,-1.1366166968904434
1773149844663435500,2.730435546875,0.1375941421441268,9.741156075826286,-1.123087426296994
1773149844673471500,2.740471435546875,0.1524990667386446,9.741986096909642,-1.1139322791345416
1773149844683507500,2.750507568359375,0.16816172349844127,9.742236272278427,-1.1094811449445783
1773149844693543400,2.76054345703125,0.18440266420338303,9.742095987024904,-1.1081395210772753
1773149844703579400,2.770579345703125,0.2014619720865041,9.741890235319733,-1.1069747150816023
1773149844713615400,2.780615478515625,0.21900851549729702,9.741810155820845,-1.1043282922260462
1773149844723652400,2.79065234375,0.23774967552013693,9.74172832275629,-1.1011774269796908
1773149844733688300,2.800688232421875,0.25906627552155403,9.741458858165144,-1.098753926159814
1773149844743724300,2.810724365234375,0.28422628961075097,9.74081646860838,-1.0982325326342135
1773149844753760300,2.82076025390625,0.3130226509083062,9.739850838446616,-1.0989624543439596
1773149844763796200,2.830796142578125,0.34403175635188815,9.73878116338849,-1.0991727360937744
1773149844773832400,2.84083251953125,0.37669578939564524,9.737657712316512,-1.098413222963363
1773149844783869400,2.850869384765625,0.4116868040822446,9.736359489199518,-1.0973729931954295
1773149844793905400,2.860905517578125,0.44938824677132067,9.734802907407284,-1.0963895351160318
1773149844803941400,2.87094140625,0.4895675142833963,9.732964586064218,-1.0954964587338267
1773149844813977600,2.8809775390625,0.5313223970817401,9.730954415285586,-1.0938930421251802
1773149844824013600,2.891013671875,0.5740457595860585,9.728768303418159,-1.0917572722055018
1773149844834049500,2.901049560546875,0.6167722273629158,9.726348382794857,-1.0900150316480546
1773149844844086500,2.91108642578125,0.6578443155288696,9.723871763548255,-1.0880983113065361
1773149844854122500,2.92112255859375,0.6949564140226692,9.721654672020673,-1.0848382135320453
1773149844864158500,2.931158447265625,0.7249809654083103,9.71986954216957,-1.0811714346528052
1773149844874194400,2.9411943359375,0.7453764685094356,9.71858300949037,-1.0788616233404724
1773149844884230400,2.95123046875,0.7562922686688601,9.717982120987772,-1.0766760959949344
1773149844894266400,2.961266357421875,0.7609638406764715,9.71817384416759,-1.0716549798972903
1773149844904302300,2.97130224609375,0.7628977313484996,9.718978730809688,-1.0629342055641113
1773149844914339600,2.981339599609375,0.7634305230509489,9.720219670781493,-1.0511550665736198
1773149844924375600,2.99137548828125,0.7611546870734542,9.722042210033536,-1.0358172121882439
1773149844934411500,3.00141162109375,0.7533906289432197,9.724787709349393,-1.0155231967002152
1773149844944447500,3.011447509765625,0.7381769123941659,9.728388364189863,-0.9919321124281734
1773149844954483500,3.0214833984375,0.7167826075140387,9.732356098777055,-0.9684189887631683
1773149844964519400,3.03151953125,0.6940107306703924,9.736332601192593,-0.944764629996568
1773149844974556400,3.041556396484375,0.6764772659368813,9.740096922162175,-0.9183014243543147
1773149844984592400,3.05159228515625,0.6693064975246786,9.743357385262847,-0.8884810903038829
1773149844994628400,3.06162841796875,0.6742700382161885,9.745896548351645,-0.8562998723410069
1773149845004664300,3.071664306640625,0.6891516002014278,9.74807096978128,-0.8188939054671674
1773149845014700300,3.0817001953125,0.7065475561603903,9.75070073376298,-0.7713760021626949
1773149845024736500,3.091736572265625,0.7182789835516363,9.7539413231194,-0.7177118511881679
1773149845034773200,3.101773193359375,0.7175364215560257,9.75769278460741,-0.6655537208624184
1773149845044809200,3.111809326171875,0.7014772671587765,9.76192589213252,-0.6189902687385678
1773149845054845400,3.121845458984375,0.672519687417522,9.766540107929705,-0.5768700597591698
1773149845064881400,3.13188134765625,0.6353536667793989,9.771246678185463,-0.5380070990100503
1773149845074917400,3.14191748046875,0.5952110780159011,9.77563468401134,-0.5030792126875371
1773149845084953600,3.15195361328125,0.5545683211779222,9.77953286049366,-0.4728555585332215
1773149845094990600,3.161990478515625,0.5128369653856382,9.783001997908949,-0.44750502684060484
1773149845105026600,3.172026611328125,0.46962910730000584,9.786111069840192,-0.4264556994732469
1773149845115062500,3.1820625,0.4258715429097414,9.78885715367794,-0.4090210189390927
1773149845125098500,3.192098388671875,0.38396917793210594,9.791130359306932,-0.3958816609786823
1773149845135134500,3.202134521484375,0.3479258046483621,9.792816704958677,-0.38736744206827134
1773149845145170400,3.21217041015625,0.3225857578171417,9.794006791526078,-0.3791626909658313
1773149845155207400,3.22220751953125,0.31012345886807885,9.794614109769462,-0.37381811506748197
1773149845165243400,3.232243408203125,0.3088908118005842,9.794747965282202,-0.3713474871702492
1773149845175279400,3.242279296875,0.3142410502547398,9.794697696399687,-0.36815446328260004
1773149845185315300,3.2523154296875,0.32162009112276135,9.79463749064505,-0.3633583150472492
1773149845195351300,3.262351318359375,0.330132118076086,9.794569101583956,-0.35755112660583105
1773149845205386500,3.272386474609375,0.3420252388350665,9.794421217545866,-0.350317814351432
1773149845215423200,3.28242333984375,0.36056641930639743,9.79405998301804,-0.3417213605176657
1773149845225459500,3.29245947265625,0.38687816071398556,9.793343359181284,-0.3333926177093759
1773149845235495400,3.302495361328125,0.41897765521015967,9.792199449843167,-0.32815084459837524
1773149845245531400,3.312531494140625,0.45425493949223306,9.790632931178807,-0.32795780624430626
1773149845255567600,3.322567626953125,0.4916200994316488,9.788656078147888,-0.333031529312022
1773149845265603600,3.332603515625,0.5304415956592187,9.786314483457803,-0.3421350193524733
1773149845275640600,3.342640625,0.5684898059593513,9.783723882442713,-0.35491153534986075
1773149845285676500,3.352676513671875,0.6016715062016621,9.781110485073924,-0.37183870475329456
1773149845295712500,3.36271240234375,0.6262808641381561,9.778753692814707,-0.39262072295397515
1773149845305748500,3.37274853515625,0.6429509900406003,9.7767534589082,-0.4148501269513741
1773149845315784400,3.382784423828125,0.6542651418678462,9.775030872899293,-0.437137398615852
1773149845325820400,3.3928203125,0.6630716947883367,9.773429867443442,-0.4591373777715489
1773149845335857400,3.402857421875,0.6720254741597921,9.771912448617815,-0.4780447977393865
1773149845345893400,3.412893310546875,0.6826375421322882,9.770496152079104,-0.4917271400026977
1773149845355929300,3.422929443359375,0.6931830476745963,9.768843708696961,-0.5095062500603497
1773149845365965300,3.43296533203125,0.7029528926692903,9.766211022105812,-0.5453349942127242
1773149845376001300,3.443001220703125,0.718112175617367,9.762405200082062,-0.5917249894658103
1773149845386037200,3.453037353515625,0.7407324420958757,9.7578973672688,-0.6365050287716091
1773149845396074500,3.463074462890625,0.7673300147075206,9.753429281944037,-0.6724717566225678
1773149845406110500,3.4731103515625,0.7928685797855257,9.749964820703864,-0.6927630686968564
1773149845416146400,3.483146484375,0.8105946444816887,9.748203656250238,-0.6970327819053084
1773149845426182400,3.493182373046875,0.8153315368104725,9.748066293606161,-0.6934174409523606
1773149845436218600,3.503218505859375,0.8119139834519475,9.748696408203244,-0.6885593333967029
1773149845446254600,3.513254638671875,0.8126490197282284,9.748855398157238,-0.6854233734585344
1773149845456291300,3.523291259765625,0.8278374557055532,9.747425073093176,-0.6875748524039983
1773149845466327600,3.53332763671875,0.8559605573840439,9.74422656931281,-0.698389822537452
1773149845476363500,3.543363525390625,0.8871002304047345,9.739848500359058,-0.7202927345268428
1773149845486399500,3.5533994140625,0.911633125571534,9.734971834233402,-0.7547253846783191
1773149845496435500,3.563435546875,0.9272167714115231,9.729633395814895,-0.8030352420780807
1773149845506471400,3.573471435546875,0.9379897290341556,9.72348714814484,-0.862763442331925
1773149845516508400,3.58350830078125,0.9503487868044525,9.71615841269195,-0.9292319836914539
1773149845526544400,3.59354443359375,0.9748438341788948,9.705366385042668,-1.0128800617802887
1773149845536580400,3.603580322265625,1.0114992018811404,9.689162269216775,-1.1257809031646697
1773149845546616300,3.6136162109375,1.0400699742618948,9.672261987820267,-1.239349926134199
1773149845556652500,3.623652587890625,1.0574695104174314,9.659874799934029,-1.3187003800943493
1773149845566688500,3.6336884765625,1.0902725135404616,9.650276365983485,-1.361578713964671
1773149845576725500,3.6437255859375,1.1750167893681676,9.636021630659698,-1.391700734375417
1773149845586761500,3.653761474609375,1.3271592886209487,9.609233576977253,-1.4393199791625142
1773149845596797400,3.66379736328125,1.4499224755890667,9.584653846994042,-1.484081058039516
1773149845606833400,3.67383349609375,1.4805676430910826,9.573637947461009,-1.5243911488570272
1773149845616869400,3.683869384765625,1.4431059274420142,9.571893149620294,-1.5705816760152578
1773149845626906400,3.69390625,1.3700821922853588,9.572948796153067,-1.6284698013603687
1773149845636942300,3.7039423828125,1.2507961799085139,9.577996727192401,-1.693487047933042
1773149845646978300,3.713978271484375,1.0912317870266734,9.585720014920831,-1.7588539847262203
1773149845657014300,3.72401416015625,0.8901242544010282,9.596193478140234,-1.81415209357813
1773149845667050200,3.73405029296875,0.671861881095916,9.61343395127654,-1.8168296422243118
1773149845677086500,3.74408642578125,0.5229670950600878,9.632317515444756,-1.7650263897508383
1773149845687123500,3.75412353515625,0.5059431872839107,9.641609075403213,-1.7186511536754667
1773149845697159400,3.764159423828125,0.5838206095494329,9.637006550043822,-1.7197804499663412
1773149845707195600,3.774195556640625,0.6589880787365138,9.627511576467752,-1.7456060883574187
1773149845717231600,3.784231689453125,0.6844214298743754,9.621724809759854,-1.7675873262800275
1773149845727267600,3.794267578125,0.6711209996007382,9.622412207502126,-1.768954669110477
1773149845737303600,3.804303466796875,0.6346067208696157,9.628496495851874,-1.749208496763557
1773149845747340500,3.814340576171875,0.6011680136589334,9.635818801563978,-1.7204590798802673
1773149845757376500,3.82437646484375,0.5882055466353893,9.640118544584512,-1.7007351193651556
1773149845767412500,3.83441259765625,0.603525974961929,9.641005264291167,-1.6903111943759024
1773149845777448400,3.844448486328125,0.6387770653568208,9.640277534538507,-1.6814872519291937
1773149845787484400,3.854484375,0.6771544345460832,9.639420040926337,-1.6713450664907692
1773149845797520400,3.864520263671875,0.7072515397112816,9.63993558923304,-1.6558409156277776
1773149845807557400,3.874557373046875,0.7241735945481806,9.643993340191244,-1.6246137104541063
1773149845817593300,3.88459326171875,0.722194768755883,9.651971479463576,-1.5774308112576603
1773149845827629300,3.89462939453125,0.6927499169543385,9.66056161315441,-1.5375497595071792
1773149845837665300,3.904665283203125,0.648856853083521,9.66466612586379,-1.5308853331819177
1773149845847701500,3.914701416015625,0.6104418552976101,9.66265127891004,-1.5591402445465325
1773149845857738500,3.924738525390625,0.5817479679938405,9.657927172997594,-1.598865813474357
1773149845867774500,3.9347744140625,0.562610100270994,9.652966920241713,-1.6352625302404165
1773149845877810400,3.944810546875,0.5544194507591426,9.648288991558552,-1.6653838199988007
1773149845887846400,3.954846435546875,0.5588488845739513,9.64372446012199,-1.6901713475137947
1773149845897882400,3.96488232421875,0.5682201221724972,9.639943772539496,-1.7085155441083013
1773149845907919400,3.97491943359375,0.5665449920345097,9.637916650626062,-1.7204538191832601
1773149845917955300,3.984955322265625,0.5465182491805404,9.637864043655991,-1.7272198061868547
1773149845927990500,3.994990478515625,0.5152808148737996,9.638234046012162,-1.7347364654272794
1773149845938027300,4.00502734375,0.4884713896097615,9.637318684732913,-1.7475323802448808
1773149845948063500,4.0150634765625,0.47298437254466114,9.63562649386227,-1.76106917655766
1773149845958099500,4.025099365234375,0.4700009728197008,9.634327686223386,-1.7689646059826016
1773149845968135400,4.035135498046875,0.4770090980160981,9.634243515071272,-1.7675449484430252
1773149845978171400,4.04517138671875,0.49019039542209353,9.63594388924837,-1.7546226307667792
1773149845988207400,4.055207275390625,0.5072722804632037,9.640690791514515,-1.7234041934214532
1773149845998244600,4.06524462890625,0.5302348575733602,9.648707509231567,-1.6708302488364277
1773149846008280600,4.075280517578125,0.559690230768919,9.65823053985834,-1.604901732637733
1773149846018316500,4.085316650390625,0.5897784219752997,9.667253219747543,-1.5384294649511574
1773149846028352500,4.0953525390625,0.6132767133973539,9.674769002205133,-1.4809272701837122
1773149846038388500,4.105388427734375,0.630101080013439,9.679933837622404,-1.4395356677398086
1773149846048425500,4.115425537109375,0.6450017850905656,9.682801502013206,-1.413410900271684
1773149846058461400,4.12546142578125,0.6589245119810104,9.684157592797279,-1.397602798026055
1773149846068497400,4.135497314453125,0.6646859981171787,9.68411842983067,-1.3951469293065368
1773149846078533400,4.145533447265625,0.656129985891655,9.683111883136629,-1.4061407631382346
1773149846088569300,4.1555693359375,0.6349767962910234,9.683044663119315,-1.4162716965302824
1773149846098605300,4.165605224609375,0.6074459979498759,9.684142979750037,-1.420834182140231
1773149846108642300,4.175642333984375,0.5773145886562764,9.685493809837102,-1.4241967904411255
1773149846118678300,4.18567822265625,0.5456858169443906,9.686646487003564,-1.4288123214125632
1773149846128714200,4.19571435546875,0.5133963163014501,9.68725146715939,-1.4366567513026296
1773149846138750200,4.205750244140625,0.4826746494971215,9.686979079958796,-1.4490936235494911
1773149846148786400,4.215786376953125,0.4566004431724548,9.685713005545734,-1.4658933671809733
1773149846158823400,4.225823486328125,0.43823816293198614,9.683626846921443,-1.4851568705774842
1773149846168859400,4.235859375,0.42908750928156075,9.68098656154573,-1.5049121030136943
1773149846178895400,4.245895263671875,0.42724845728613436,9.678341599994898,-1.5223495600268244
1773149846188931600,4.255931640625,0.42935704693794247,9.676158995258808,-1.5355658922135829
1773149846198967600,4.265967529296875,0.43047688128072764,9.67452993275225,-1.5454882974214852
1773149846209003800,4.276003662109375,0.42889264429658647,9.673316465309261,-1.5535139290973543
1773149846219040500,4.28604052734375,0.42615244221035387,9.672651279398798,-1.5583932255715132
1773149846229076700,4.29607666015625,0.4247780485846102,9.673010760360956,-1.5565380992241202
1773149846239112700,4.30611279296875,0.4249458428995683,9.674349315488337,-1.5481545940212904
1773149846249149400,4.3161494140625,0.42347825456503774,9.676498017954826,-1.5350781086966394
1773149846259185700,4.326185546875,0.41612380014900113,9.679241179183125,-1.519712343391031
1773149846269222400,4.336222412109375,0.4002104839632287,9.682287707272172,-1.5045022070385514
1773149846279258400,4.34625830078125,0.37401104382369665,9.685079383817314,-1.4932394931375979
1773149846289294600,4.356294677734375,0.33764472219590097,9.687292968213558,-1.487519361925125
1773149846299330800,4.366330810546875,0.2921037997865118,9.688861824965477,-1.4869469688646495
1773149846309366800,4.37636669921875,0.239581329660397,9.689633978381753,-1.4912953733325003
1773149846319403800,4.38640380859375,0.18315092884292825,9.689350485265255,-1.5011203095152974
1773149846329439700,4.396439697265625,0.1264861438808497,9.688004331353307,-1.5155815271966158
1773149846339475700,4.406475830078125,0.07319046089253388,9.685811789745092,-1.5330102163814008
1773149846349511700,4.41651171875,0.026646713549573903,9.68342810947895,-1.5494865732774137
1773149846359547600,4.426547607421875,-0.010447217958228429,9.681783264881371,-1.5599151744417845
1773149846369584600,4.436584716796875,-0.03747264575174777,9.680862642905115,-1.5652042207606136
1773149846379620600,4.44662060546875,-0.055781791582470756,9.680289226931333,-1.5682142162315547
1773149846389656600,4.456656494140625,-0.06891306213454809,9.679508890208602,-1.5725006613790988
1773149846399692500,4.466692626953125,-0.08149471771353856,9.678694651216269,-1.576894512423873
1773149846409728500,4.476728515625,-0.0963711012001615,9.679203769782186,-1.5729316001422702
1773149846419764500,4.486764404296875,-0.1137222316367086,9.681067225566506,-1.5602606268785892
1773149846429801700,4.4968017578125,-0.1310878472563345,9.68376420956552,-1.5420555464938281
1773149846439837700,4.506837646484375,-0.14575484404228628,9.687080786767602,-1.5197460995301604
1773149846449873700,4.516873779296875,-0.15677563894614577,9.690956166896223,-1.4937180704347788
1773149846459909600,4.52690966796875,-0.16528253306662663,9.695095166397094,-1.4656749021247029
1773149846469945600,4.536945556640625,-0.17407041781926527,9.698988082182407,-1.4386470483370124
1773149846479982600,4.546982666015625,-0.1870491783904843,9.702027596008778,-1.4163589364223181
1773149846490018600,4.5570185546875,-0.2063692525461316,9.703657827559113,-1.402437086314708
1773149846500054500,4.567054443359375,-0.23218237851550802,9.70379694376886,-1.3974348941132426
1773149846510090500,4.577090576171875,-0.2638845807897858,9.702613286942244,-1.4000203805617988
1773149846520126500,4.58712646484375,-0.3002454225248657,9.700241881635785,-1.409096836464852
1773149846530163500,4.59716357421875,-0.34138650254011155,9.696840548759699,-1.42306500993222
1773149846540199400,4.607199462890625,-0.3864451761242002,9.692589905577897,-1.4403946226567028
1773149846550235400,4.6172353515625,-0.4339518639149144,9.687669400310515,-1.4598447346664964
1773149846560271600,4.627271728515625,-0.4825488311603665,9.68232511667311,-1.4799147321403026
1773149846570307600,4.6373076171875,-0.530948047344014,9.677138653945923,-1.4971590046688914
1773149846580344600,4.647344482421875,-0.5783083124013617,9.672915483292936,-1.5068699590831993
1773149846590380500,4.657380615234375,-0.6232254951555282,9.669550390774011,-1.5105517163358628
1773149846600416800,4.667416748046875,-0.6638074617169797,9.666827687811852,-1.5106925861112772
1773149846610452700,4.67745263671875,-0.6988396121315658,9.664644498553871,-1.5088520728111265
1773149846620488700,4.68748876953125,-0.7280411566965281,9.662981533777714,-1.5056899555183947
1773149846630524700,4.697524658203125,-0.752242554886639,9.661778003206848,-1.501514277268946
1773149846640561700,4.707561767578125,-0.7718688271809369,9.66127005368471,-1.4948155102826655
1773149846650597600,4.71759765625,-0.7864714991595596,9.661616090643406,-1.4849373826079069
1773149846660633600,4.727633544921875,-0.7956588680911809,9.662604517158865,-1.4735672628097236
1773149846670669600,4.737669677734375,-0.800751076663658,9.66388228200972,-1.4623833132334052
1773149846680705500,4.74770556640625,-0.802872452731803,9.665275782194733,-1.4519712248124181
1773149846690742500,4.757742431640625,-0.8034965029142797,9.666575758877396,-1.4429467913575469
1773149846700778500,4.767778564453125,-0.8041505098436027,9.66751917720735,-1.436251385372132
1773149846710814700,4.777814697265625,-0.8057587487578391,9.667963413843513,-1.4323518937155604
1773149846720850700,4.7878505859375,-0.8077280760694294,9.668077395612,-1.430475724580139
1773149846730886700,4.79788671875,-0.8094383140534162,9.668053430214524,-1.4296682075895368
1773149846740923600,4.807923583984375,-0.8096944077063352,9.668220603474975,-1.428391465651989
1773149846750959600,4.817959716796875,-0.8072934840444475,9.66876830048561,-1.4260387650460005
1773149846760995600,4.82799560546875,-0.8012222743719816,9.669653851148485,-1.4234635077305138
1773149846771031600,4.838031494140625,-0.7912531074129044,9.670826986581087,-1.4210633147209881
1773149846781067500,4.848067626953125,-0.7775621434517205,9.672245621207356,-1.4189634198322891
1773149846791104500,4.8581044921875,-0.7611402932219207,9.67378817447424,-1.4173469245463608
1773149846801140500,4.868140380859375,-0.7433426976595073,9.675306177821755,-1.4164315632671116
1773149846811176400,4.878176513671875,-0.7261725863456726,9.676581604585051,-1.4166186102718115
1773149846821212400,4.88821240234375,-0.7110127188757062,9.67751742413044,-1.4179190253458915
1773149846831248600,4.89824853515625,-0.698688586288318,9.678084994885324,-1.4201657813593744
1773149846841284600,4.90828466796875,-0.689044559630379,9.678339261907338,-1.4231348602980374
1773149846851321600,4.918321533203125,-0.6817348211389035,9.678305944159627,-1.4268845682203768
1773149846861357600,4.928357666015625,-0.676709394192323,9.678052846181393,-1.4309946338877082
1773149846871393800,4.938393798828125,-0.6736901194363832,9.67770154852569,-1.434789203865081
1773149846881429800,4.9484296875,-0.6721483698870986,9.67746131002903,-1.437125830119103
1773149846891465700,4.9584658203125,-0.6707206751715391,9.677464817160367,-1.4377712884157896
1773149846901502700,4.968502685546875,-0.6680275636300445,9.677789226809143,-1.4368449673511088
1773149846911538700,4.97853857421875,-0.6631247401498258,9.678587099188565,-1.4337312192447482
1773149846921574700,4.98857470703125,-0.6560185614064336,9.67979355236888,-1.4288577679894863
1773149846931610600,4.998610595703125,-0.6473413339540361,9.681355979380012,-1.4222168686702847
1773149846941646600,5.008646484375,-0.6377160119965672,9.683218266120553,-1.4138573288649319
1773149846951683600,5.01868359375,-0.6270319017011672,9.685316115182637,-1.404230983994156
1773149846961719600,5.028719482421875,-0.6154398097153753,9.687622054037451,-1.3934062231190503
1773149846971755500,5.038755615234375,-0.602800948623009,9.690152449297905,-1.3812788552127777
1773149846981791500,5.04879150390625,-0.5900498593278228,9.692869307041168,-1.3676727930560708
1773149846991827500,5.058827392578125,-0.5781595150478184,9.695648708626628,-1.3529659300506114
1773149847001864700,5.06886474609375,-0.5681404810650273,9.698284902349114,-1.3382412391275167
1773149847011900700,5.078900634765625,-0.5600220200065523,9.700564537718892,-1.325079998128861
1773149847021936600,5.0889365234375,-0.5545194040022791,9.70229881416559,-1.3146521276168524
1773149847031972600,5.09897265625,-0.5518820412360131,9.703469026988744,-1.3070926521480082
1773149847042008600,5.109008544921875,-0.5515158748047426,9.70407283810079,-1.30276251398921
1773149847052045600,5.119045654296875,-0.5524051517946645,9.7041686996907,-1.3016646357499062
1773149847062081500,5.12908154296875,-0.5543154058627784,9.70386708639562,-1.3030984679453075
1773149847072117500,5.139117431640625,-0.5576757856739685,9.703238725364209,-1.3063460715644062
1773149847082153500,5.149153564453125,-0.5624760986277834,9.702381816273927,-1.310644207149744
1773149847092189400,5.159189453125,-0.5682340410999953,9.701412678980827,-1.3153257890947163
1773149847102226400,5.169226318359375,-0.5736091217344627,9.700426006031035,-1.3202645606711505
1773149847112262400,5.179262451171875,-0.5770474256200716,9.699537532758713,-1.3252858959645033
1773149847122298600,5.189298583984375,-0.5773671590937302,9.69888988250494,-1.3298752695813774
1773149847132334600,5.19933447265625,-0.5740492301847785,9.69841992690563,-1.334740975921601
1773149847142370800,5.209370849609375,-0.5672585836639628,9.698072720903157,-1.3401536486200987
1773149847152407600,5.219407470703125,-0.5569382651796564,9.697795657527447,-1.346465169854462
1773149847162443500,5.229443603515625,-0.5443788625316694,9.697531453633308,-1.3534864467933774
1773149847172479700,5.239479736328125,-0.5306478222884238,9.69711644309163,-1.3618933328717946
1773149847182515700,5.249515625,-0.5163913333989679,9.696525491461157,-1.3715424740962683
1773149847192551700,5.2595517578125,-0.5011826583512127,9.695838678240776,-1.3820062927044927
1773149847202587600,5.269587646484375,-0.4848102002210915,9.695185182768105,-1.3923844788558781
1773149847212624600,5.279624755859375,-0.467300554754585,9.69469184629321,-1.4017716081432998
1773149847222660600,5.28966064453125,-0.4486645356066525,9.694493108850716,-1.4092114027552305
1773149847232696600,5.299696533203125,-0.4292275022741407,9.694627548885345,-1.4143285996384918
1773149847242732500,5.309732666015625,-0.40875447695739564,9.695150695976615,-1.4168069724507628
1773149847252768500,5.3197685546875,-0.3868270515812561,9.696027478811144,-1.4169669853180646
1773149847262805500,5.329805419921875,-0.3644873190771788,9.697201783287525,-1.4148463399022817
1773149847272841500,5.339841552734375,-0.3432684438291937,9.698565472856163,-1.410799548729509
1773149847282877400,5.34987744140625,-0.32579540404602886,9.69993266955614,-1.4055331526339054
1773149847292913400,5.359913330078125,-0.3150034129293635,9.701060796803235,-1.400200705564767
1773149847302949400,5.369949462890625,-0.31229846481960266,9.701809569343924,-1.3956161542534828
1773149847312986400,5.379986328125,-0.31651710542794315,9.70235726635456,-1.3908496705040334
1773149847323022300,5.390022216796875,-0.32577388633396476,9.702761755502223,-1.3858829880073666
1773149847333058300,5.400058349609375,-0.3378243896117434,9.703038818877936,-1.3810532297633586
1773149847343094300,5.41009423828125,-0.35113373384419827,9.703184949350357,-1.3766970803804695
1773149847353130200,5.420130126953125,-0.36469350917376575,9.703259768152236,-1.3726358222909272
1773149847363167500,5.43016748046875,-0.3774455848496407,9.703346861913799,-1.368561850850284
1773149847373203500,5.440203369140625,-0.3892357201581821,9.703398299840092,-1.364891345643997
1773149847383239400,5.450239501953125,-0.400245226483047,9.70338485583663,-1.3618074081540108
1773149847393275400,5.460275390625,-0.4106774443766102,9.70327028954625,-1.3595039535172282
1773149847403311600,5.4703115234375,-0.420219179703854,9.703013099914788,-1.3584263874135911
1773149847413348400,5.480348388671875,-0.428551794969663,9.702910808584093,-1.356554894453287
1773149847423384300,5.49038427734375,-0.4350482443168759,9.703542676746844,-1.3499477512732148
1773149847433420500,5.500420654296875,-0.44037780530918386,9.70442998097539,-1.34182041278854
1773149847443456500,5.51045654296875,-0.44566699775848534,9.705176999950409,-1.334654320551455
1773149847453492500,5.520492431640625,-0.45238797657657415,9.705316116160153,-1.3313808518387376
1773149847463529500,5.530529541015625,-0.4604187958842143,9.704882985439896,-1.3317844642035663
1773149847473565400,5.5405654296875,-0.46875016904100775,9.704498954558371,-1.3316750124797225
1773149847483601400,5.550601318359375,-0.4773887449834496,9.704283265981077,-1.3301726450927556
1773149847493637400,5.560637451171875,-0.4864659315388649,9.704067577403784,-1.3284556120418012
1773149847503673300,5.57067333984375,-0.49650451047234234,9.703731477317213,-1.3272026893712578
1773149847513710600,5.580710693359375,-0.5068920124413445,9.703367904701828,-1.3259339846096931
1773149847523746600,5.59074658203125,-0.5174337916566059,9.70299030356109,-1.3246284549690783
1773149847533782500,5.600782470703125,-0.5275536556653678,9.702565940669178,-1.3237348671302198
1773149847543818500,5.610818603515625,-0.5372732683101669,9.702097738635539,-1.323260819877684
1773149847553854500,5.6208544921875,-0.5467233798312023,9.701583359372615,-1.3231542907632887
1773149847563891500,5.630891357421875,-0.5562743944434448,9.701016957661508,-1.3233352002881467
1773149847573927400,5.640927490234375,-0.5659111511103808,9.700375152626632,-1.323955670274049
1773149847583963400,5.65096337890625,-0.57625879599303,9.699679571577907,-1.3245889997415243
1773149847593999400,5.660999267578125,-0.5878108116967603,9.698943658518791,-1.3248913436889647
1773149847604035300,5.671035400390625,-0.6005430136283859,9.698225865638255,-1.3244320556141436
1773149847614072300,5.681072265625,-0.614858868022263,9.697503981104493,-1.3231614511564374
1773149847624108300,5.6911083984375,-0.6311239202551543,9.696715461075305,-1.3212750528879462
1773149847634144500,5.70114453125,-0.6493463901661336,9.695853875809908,-1.3187721301563082
1773149847644180500,5.711180419921875,-0.668971128090471,9.69499053697884,-1.3153117605693638
1773149847654216400,5.721216552734375,-0.6900768983528017,9.694146487370134,-1.3106176114037633
1773149847664253400,5.73125341796875,-0.7124068766478449,9.693452659887075,-1.3037851350352168
1773149847674289400,5.741289306640625,-0.7347639621455222,9.69331471272111,-1.2923508639596402
1773149847684325400,5.751325439453125,-0.756978058975935,9.693432201620936,-1.2785766056291759
1773149847694361300,5.761361328125,-0.7790887684971094,9.693417004051804,-1.2653406919591128
1773149847704397300,5.771397216796875,-0.8006403097655623,9.693128834760188,-1.2540369153954087
1773149847714434300,5.781434326171875,-0.8202962465457617,9.692785135889054,-1.2439490904927253
1773149847724470300,5.79147021484375,-0.8374792904064059,9.692656541073323,-1.2334604297041891
1773149847734506500,5.801506591796875,-0.8523883249204606,9.692830728596448,-1.2218150000959633
1773149847744542500,5.81154248046875,-0.8661105608027427,9.693130588325857,-1.2097304484181106
1773149847754578400,5.821578369140625,-0.8799022817246616,9.693374333953857,-1.1977824556667358
1773149847764615400,5.831615478515625,-0.8940476383898407,9.693490069288014,-1.186310702124983
1773149847774651600,5.841651611328125,-0.9085947077237069,9.69344096944928,-1.1755991923660039
1773149847784687600,5.8516875,-0.9237339707970619,9.693099608665705,-1.1665830152828245
1773149847794723600,5.8617236328125,-0.9405311571452766,9.692460726240277,-1.1584429634470492
1773149847804759600,5.871759521484375,-0.9627214347086847,9.69126011827886,-1.150225681656599
1773149847814796500,5.881796630859375,-0.9949006799101829,9.688831429827212,-1.143289744913578
1773149847824832500,5.89183251953125,-1.0394663823455572,9.684687169629335,-1.1387376345671714
1773149847834868500,5.901868408203125,-1.0965770935773849,9.678439215150474,-1.1382978549104183
1773149847844904400,5.911904541015625,-1.1650071442682295,9.670197456505894,-1.1403710809879004
1773149847854940400,5.9219404296875,-1.2421452559411525,9.660570965504645,-1.1405340164646505
1773149847864977400,5.931977294921875,-1.3226806819021701,9.650591423282027,-1.1344457095269114
1773149847875013400,5.942013427734375,-1.399446526196599,9.641611998012662,-1.1185887266382575
1773149847885049300,5.95204931640625,-1.4675237448617815,9.634902271240948,-1.088768904044479
1773149847895085300,5.962085205078125,-1.525825857835263,9.630525371330975,-1.0465262377291917
1773149847905121300,5.972121337890625,-1.5762345872104166,9.627284781974554,-1.0006283368419855
1773149847915158500,5.982158447265625,-1.6218443918712435,9.62372913531959,-0.9611814387250691
1773149847925194500,5.992194580078125,-1.6642646067105233,9.619390229332447,-0.9316405792031437
1773149847935230500,6.00223046875,-1.7040253930822014,9.614671384117006,-0.9081674952875822
1773149847945266400,6.012266357421875,-1.7413810180082916,9.61005950640738,-0.8858605325419455
1773149847955302400,6.022302490234375,-1.7753193818368016,9.606018706583976,-0.8620066326152532
1773149847965339400,6.03233935546875,-1.8042704587720333,9.602800329059361,-0.8374015489950776
1773149847975375400,6.042375244140625,-1.8272195188134908,9.600226679179071,-0.8168781817305832
1773149847985411300,6.052411376953125,-1.8445890251569448,9.597944121199845,-0.8045867823690176
1773149847995447300,6.062447265625,-1.8601054509796202,9.595357027316092,-0.799688854259625
1773149848005483300,6.072483154296875,-1.8795980869568882,9.591946342089772,-0.7950068339232355
1773149848015520300,6.082520263671875,-1.904698772074282,9.58792249340117,-0.7837278264746069
1773149848025556200,6.09255615234375,-1.9309096103906631,9.583933131504057,-0.7682498329661787
1773149848035592200,6.10259228515625,-1.951588095151633,9.580915829509497,-0.7535000806670635
1773149848045628700,6.112628662109375,-1.962751878722757,9.579586626732349,-0.7412878840215503
1773149848055664600,6.12266455078125,-1.965149441383779,9.580079378685355,-0.7284696112416684
1773149848065701400,6.132701416015625,-1.960792999739945,9.582098901814222,-0.7134682953342795
1773149848075737600,6.142737548828125,-1.9518673504844306,9.585118541896342,-0.6971986399915069
1773149848085773600,6.152773681640625,-1.9392343711435793,9.588768881097435,-0.6820953250143676
1773149848095809500,6.1628095703125,-1.9225988781630992,9.592984452965855,-0.669800126260519
1773149848105845500,6.172845458984375,-1.8997911262884735,9.598148703861236,-0.6608361908212304
1773149848115882500,6.182882568359375,-1.8681128163464367,9.604771336871385,-0.6549198063842951
1773149848125918500,6.19291845703125,-1.8249430983141064,9.613318215942382,-0.6512102843418717
1773149848135954400,6.202954345703125,-1.76917269577533,9.623866497963666,-0.649308761569485
1773149848145990400,6.212990478515625,-1.7019474177643656,9.635975453430413,-0.6494031618546694
1773149848156026400,6.2230263671875,-1.6259515349291265,9.648801032733918,-0.6536703908450902
1773149848166063600,6.233063720703125,-1.5436374088577924,9.661595047855377,-0.6641865972276777
1773149848176099600,6.243099609375,-1.4565537302970886,9.67386007066667,-0.6820967132538557
1773149848186135600,6.253135498046875,-1.3635032522864639,9.685478612267971,-0.7090593197856098
1773149848196171500,6.263171630859375,-1.2617479281641542,9.69646177857518,-0.7463402720402926
1773149848206209500,6.27320947265625,-1.147148100842163,9.706953946495055,-0.7934028327926993
1773149848216245500,6.28324560546875,-1.013333066244796,9.71690543166697,-0.8516505121652036
1773149848226281500,6.293281494140625,-0.8565170222230255,9.725843940404056,-0.9190911864925175
1773149848236317400,6.3033173828125,-0.6809692435938864,9.732769355753064,-0.9898716727670281
1773149848246353400,6.313353515625,-0.5001771345704794,9.736813662707805,-1.0557705244798212
1773149848256390400,6.323390380859375,-0.3310184724565595,9.737786891654133,-1.1118906172391028
1773149848266426400,6.33342626953125,-0.18727485863883048,9.73592752752304,-1.1606015297204255
1773149848276462300,6.34346240234375,-0.07713982870597391,9.731662271293997,-1.20796899170354
1773149848286498300,6.353498291015625,-0.00201995181630773,9.725843940404056,-1.2563174275480211
1773149848296534300,6.3635341796875,0.04745887116019148,9.719263392969966,-1.305386432752013
1773149848306571300,6.3735712890625,0.084702564710984,9.712505150881409,-1.3529454717844724
1773149848316607200,6.383607177734375,0.11797564216433093,9.706583359616994,-1.392377902984619
1773149848326643200,6.393643310546875,0.14924016540739685,9.702159697955846,-1.419932410994917
1773149848336679200,6.40367919921875,0.17333432209705932,9.698705758109687,-1.4406409986332058
1773149848346715100,6.413715087890625,0.18598684638859703,9.6953441727221,-1.4615382407113908
1773149848356752400,6.42375244140625,0.18717240291135384,9.691734165531397,-1.4851311516143382
1773149848366788400,6.433788330078125,0.18026218513147904,9.68946855868697,-1.500696385014802
1773149848376824300,6.44382421875,0.1711933645456098,9.688769470506905,-1.5062556265771387
1773149848386860300,6.4538603515625,0.16477681203419342,9.688027712228894,-1.511742679686099
1773149848396896300,6.463896240234375,0.16303544825958088,9.686533674278854,-1.521471169757098
1773149848406933200,6.473933349609375,0.1657465155828744,9.684334118407964,-1.5351317385800183
1773149848416969200,6.48396923828125,0.17219421215122566,9.681877372905612,-1.5498369941502808
1773149848427005200,6.494005126953125,0.18265143662188202,9.679960725629329,-1.5605723231762647
1773149848437041400,6.50404150390625,0.19607721030823885,9.679524672299623,-1.5616463821485638
1773149848447077400,6.514077392578125,0.20868697317028417,9.680496147680282,-1.553974386215955
1773149848457114000,6.524114013671875,0.21861420068377627,9.682375385555625,-1.5408479242697357
1773149848467150300,6.534150390625,0.22595553988991304,9.68480933470428,-1.5243908565960824
1773149848477186300,6.544186279296875,0.23174287285339085,9.687594581508636,-1.5057225426137446
1773149848487222300,6.55422216796875,0.2367484260557219,9.691229723140596,-1.4813411116816102
1773149848497258500,6.564258544921875,0.239591376130376,9.696122755879163,-1.4485023796580732
1773149848507295500,6.57429541015625,0.23586135928919538,9.701939333203434,-1.4096524245209991
1773149848517331500,6.58433154296875,0.21985304003003983,9.708249247002602,-1.368185126492381
1773149848527367400,6.594367431640625,0.18930132296513766,9.714770757725834,-1.3258216102764009
1773149848537403400,6.6044033203125,0.14553111828900872,9.721052614474296,-1.2846696618072688
1773149848547440400,6.6144404296875,0.0912774404561147,9.726399820721149,-1.248674803840369
1773149848557476400,6.624476318359375,0.029934464232681784,9.730380999311803,-1.220323227168247
1773149848567512300,6.63451220703125,-0.03436414920923998,9.733032975125312,-1.1988761691875756
1773149848577548300,6.64454833984375,-0.0957356619739905,9.73475263852477,-1.1814371047392487
1773149848587584300,6.654584228515625,-0.1486180514536798,9.73604267833531,-1.165243948698789
1773149848597621200,6.664621337890625,-0.19141051540514453,9.73727251239121,-1.1485942810624836
1773149848607657200,6.6746572265625,-0.22653712090384215,9.738751352772116,-1.1295157057788223
1773149848617693400,6.684693359375,-0.2550275215247646,9.73980699930489,-1.1142354998648165
1773149848627729400,6.6947294921875,-0.2774679196580313,9.73971289128065,-1.1096831703227013
1773149848637765400,6.704765380859375,-0.29507262299684806,9.738033559891582,-1.1198281322401016
1773149848647802400,6.71480224609375,-0.3075092212490737,9.734618783012031,-1.145881003515795
1773149848657838300,6.72483837890625,-0.31298180744126436,9.729558577013016,-1.186646217689663
1773149848667874300,6.734874267578125,-0.3089375004865229,9.723573072862624,-1.2357429876834154
1773149848677910300,6.74491015625,-0.2921528082937002,9.717928344973922,-1.2833249692000448
1773149848687946200,6.7549462890625,-0.2603695401398465,9.713318220829963,-1.3244082363471388
1773149848697983200,6.764983154296875,-0.21332458810936658,9.709621119877696,-1.3594526617214082
1773149848708019200,6.775019287109375,-0.1548677777645178,9.705952075976132,-1.3931569245330988
1773149848718055200,6.78505517578125,-0.09185492981681599,9.701656424608826,-1.4282169858679175
1773149848728091100,6.795091064453125,-0.02919104372054571,9.69683937971592,-1.463164088347554
1773149848738127000,6.805127197265625,0.030449124340107662,9.691948100543021,-1.4951898965530097
1773149848748164400,6.815164306640625,0.08677744388943538,9.6873075812608,-1.522810747797787
1773149848758200300,6.825200439453125,0.1402538263400551,9.683266196915508,-1.5443679150894283
1773149848768236300,6.835236328125,0.19259908586889504,9.680669750681519,-1.5549682195588945
1773149848778272500,6.8452724609375,0.24469156707990913,9.679534024649858,-1.5547158522330224
1773149848788308500,6.85530859375,0.29462935447506605,9.679366266867518,-1.5470796582661568
1773149848798345200,6.86534521484375,0.33651633922047913,9.680324298244715,-1.5324816624626516
1773149848808381400,6.87538134765625,0.3619255057651549,9.68338953103423,-1.5071006990991531
1773149848818417400,6.88541748046875,0.36323867072295396,9.689833300346136,-1.4647750306755303
1773149848828453400,6.895453369140625,0.33533830841705203,9.700072370287776,-1.4023318723745644
1773149848838489300,6.9054892578125,0.27871379153328013,9.713153970178961,-1.3218781333476304
1773149848848526300,6.9155263671875,0.2006517334158532,9.727470080301165,-1.2273784794420004
1773149848858562300,6.925562255859375,0.11240412564231082,9.741063136845826,-1.126696922031045
1773149848868598300,6.935598388671875,0.02435155638367869,9.752076113769412,-1.0328741444736718
1773149848878634200,6.94563427734375,-0.06130029470904264,9.76015420628488,-0.9518381485793739
1773149848888671500,6.95567138671875,-0.14665619506249203,9.765668001270294,-0.8835087817840278
1773149848898707500,6.96570751953125,-0.22903525786250828,9.768575413149595,-0.8323808712888509
1773149848908743400,6.975743408203125,-0.30593568832203744,9.769271578720211,-0.7988209853839129
1773149848918779400,6.985779296875,-0.3815475402757525,9.768048174405097,-0.7810658407237381
1773149848928815400,6.9958154296875,-0.456089315312542,9.765044316413999,-0.7786356909673661
1773149848938852400,7.005852294921875,-0.5143350584562868,9.760756848353147,-0.7959137196350842
1773149848948888300,7.015888427734375,-0.5301066280838101,9.75552946909368,-0.847944424188882
1773149848958924300,7.02592431640625,-0.4888842812595889,9.748577165737748,-0.9468976234372705
1773149848968960300,7.035960205078125,-0.3998828229114413,9.738246910381317,-1.0849072601802647
1773149848978996200,7.045996337890625,-0.2869604638149962,9.72412135439515,-1.2367308296769857
1773149848989033200,7.056033203125,-0.17298969164416192,9.70789736482501,-1.3773928075596689
1773149848999069200,7.066069091796875,-0.08103561230180785,9.691042091614007,-1.499174143883586
1773149849009105200,7.076105224609375,-0.023311143952654673,9.674329441744089,-1.605365404626727
1773149849019141000,7.08614111328125,0.01654532362913014,9.657774028262496,-1.702201977047324
1773149849029177300,7.09617724609375,0.061327698739198966,9.641793784320354,-1.7895383151948452
1773149849039214300,7.10621435546875,0.12080572362425736,9.62770213060379,-1.8609502312406896
1773149849049250300,7.116250244140625,0.192592838791199,9.614918052354454,-1.9200648296408354
1773149849059286300,7.126286376953125,0.2709805486664176,9.601769816967844,-1.9755894407249985
1773149849069322200,7.136322265625,0.3541103750348091,9.587260814622043,-2.032101309280842
1773149849079358500,7.1463583984375,0.44134168190527706,9.570997662085293,-2.0908347994089125
1773149849089395200,7.156395263671875,0.527923511891067,9.552737782773375,-2.1533459083795545
1773149849099431200,7.16643115234375,0.6065327920950949,9.532969836986064,-2.219237599699199
1773149849109467400,7.17646728515625,0.6740059804525226,9.513074465426802,-2.2841946405172346
1773149849119503400,7.18650341796875,0.7273488635834306,9.495231350222229,-2.3413535748049616
1773149849129540000,7.1965400390625,0.762696144361794,9.482266654708981,-2.3822950953938067
1773149849139576300,7.206576416015625,0.7697693706836551,9.477012971964477,-2.4008508889123794
1773149849149612500,7.216612548828125,0.7435749720454216,9.480320781338214,-2.3960393969774243
1773149849159648500,7.2266484375,0.6860876825861633,9.4906592200011,-2.3721404888652264
1773149849169684500,7.2366845703125,0.6048848422249778,9.50544820833206,-2.334723489140719
1773149849179721500,7.246721435546875,0.516860594878532,9.521994853985309,-2.2879824884928763
1773149849189757400,7.25675732421875,0.4365623386742547,9.53784650311172,-2.238142352785915
1773149849199793400,7.26679345703125,0.3713369292436167,9.551428453740478,-2.1915089041657745
1773149849209828900,7.276828857421875,0.32688805812094357,9.56208954848647,-2.151742418705672
1773149849219864800,7.28686474609375,0.30560656596552577,9.570122632816433,-2.1189032482907173
1773149849229901800,7.29690185546875,0.30307686482481655,9.576754618176818,-2.089094823873788
1773149849239937800,7.306937744140625,0.3030481501869857,9.582989713174104,-2.060308289850503
1773149849249973800,7.316973876953125,0.2894480245807208,9.590169980067014,-2.0286117135994135
1773149849260009700,7.327009765625,0.254694965102151,9.599598318147658,-1.9882778035148978
1773149849270045700,7.337045654296875,0.1998597062553279,9.61075099580288,-1.9400836814492939
1773149849280083000,7.3470830078125,0.1314353911855258,9.621914194852113,-1.8899442705348133
1773149849290119000,7.357118896484375,0.05811496093750465,9.632067340075968,-1.8412715711720287
1773149849300155000,7.36715478515625,-0.011654595870437332,9.641416183179617,-1.7925747602812945
1773149849310190800,7.37719091796875,-0.0733315589968115,9.651039167049527,-1.7385094080947339
1773149849320226800,7.387226806640625,-0.12468793535246513,9.66239175119102,-1.6712404370725154
1773149849330263800,7.397263916015625,-0.17210772117786108,9.675461076122522,-1.5894060573421418
1773149849340299800,7.4072998046875,-0.2170405033599585,9.689555652448535,-1.4952574088312685
1773149849350335700,7.417335693359375,-0.2594213360369205,9.704023738262057,-1.391045339206606
1773149849360371700,7.427371826171875,-0.2942928890623152,9.71798504359722,-1.2823967484392225
1773149849370408000,7.437407958984375,-0.26589719925383104,9.724938515996932,-1.2350155501917004
1773149849380444700,7.447444580078125,-0.15371225105384365,9.71185048636496,-1.3515692149952052
1773149849390480600,7.457480712890625,-0.028533383529412093,9.67695803668201,-1.5893601723738013
1773149849400516900,7.467516845703125,0.12637023501675576,9.645086396124958,-1.768255727060884
1773149849410552800,7.477552734375,0.3632827655930072,9.639522332257032,-1.7657956205576657
1773149849420588800,7.4875888671875,0.4602809583161026,9.655876085686684,-1.6500298912614584
1773149849430625800,7.497625732421875,0.35722602283731103,9.679835053423046,-1.5308626829586922
1773149849440662000,7.507662109375,0.20317045650482177,9.698004916363955,-1.4414647361062467
1773149849450698000,7.517697998046875,0.07070671778540126,9.706536597865819,-1.395899355109036
1773149849460734000,7.52773388671875,-0.03211353215468116,9.70718833977282,-1.392780638566613
1773149849470771000,7.53777099609375,-0.10892580027356744,9.7018902333647,-1.4254304238893092
1773149849480807000,7.547806884765625,-0.16251843864815307,9.692246791228651,-1.4847063503310083
1773149849490843000,7.5578427734375,-0.19183506096014752,9.679851420035957,-1.560154097764194
1773149849500878800,7.56787890625,-0.19243660704987123,9.66496423202753,-1.649799297375977
1773149849510914800,7.577914794921875,-0.1669956571274437,9.646814242830873,-1.755414219535887
1773149849520951800,7.587951904296875,-0.125584464067081,9.624144145861267,-1.8789575970962642
1773149849530987800,7.59798779296875,-0.07921402289783581,9.596587445893883,-2.017327956910431
1773149849541023700,7.608023681640625,-0.03541843490198953,9.565593172693251,-2.1606872110530735
1773149849551060000,7.61806005859375,-0.0026060591645378733,9.533310028725863,-2.299211007863283
1773149849561096000,7.628095947265625,0.013617834792891517,9.502482344263791,-2.423437399251759
1773149849571133000,7.6381328125,0.014603943770390468,9.475786060518026,-2.5257988725736737
1773149849581169000,7.6481689453125,0.0018406129086171858,9.455350006210804,-2.6012942585408685
1773149849591204900,7.658204833984375,-0.02603389714716468,9.441728892615437,-2.6501766551315784
1773149849601240800,7.66824072265625,-0.07086493598783854,9.434823935532568,-2.6738480380982157
1773149849611276800,7.67827685546875,-0.1332447421624325,9.433726203423738,-2.675343829613924
1773149849621313800,7.688313720703125,-0.20705155398817732,9.437373035493492,-2.657724586293101
1773149849631349800,7.698349853515625,-0.2760143598488532,9.444261041441559,-2.6268098080694675
1773149849641385700,7.7083857421875,-0.32545999807920306,9.453651385599374,-2.5870716719210147
1773149849651421700,7.718421630859375,-0.365154185488075,9.46527752598524,-2.538814421491325
1773149849661457700,7.728457763671875,-0.41055210096389055,9.478137592080236,-2.4832906871899962
1773149849671495000,7.738494873046875,-0.48018571875821797,9.490953234511613,-2.4210763692088424
1773149849681531000,7.74853076171875,-0.5860602051697671,9.502364270842074,-2.3520143772900104
1773149849691566800,7.75856689453125,-0.7041038893353193,9.514201423630118,-2.27037449721843
1773149849701602800,7.768602783203125,-0.7896061439234763,9.530335981351136,-2.172471610740572
1773149849711639000,7.77863916015625,-0.8042688755262642,9.554306639525294,-2.0588293033391234
1773149849721675800,7.78867578125,-0.7649433387666941,9.584697686135769,-1.9284221774891017
1773149849731711700,7.798711669921875,-0.7081127596504986,9.616609658703208,-1.7859966970652341
1773149849741748000,7.808748046875,-0.6365979677520692,9.647854691794514,-1.6383017518058418
1773149849751784000,7.818783935546875,-0.54148935163524,9.677570031100512,-1.490574365581572
1773149849761820700,7.828820556640625,-0.4150830589244142,9.704709966960548,-1.3478553090386092
1773149849771857000,7.83885693359375,-0.27033920028926806,9.7258755045861,-1.226637744077295
1773149849781892900,7.848892822265625,-0.12864921279940753,9.734742117130756,-1.1783940837815403
1773149849791928800,7.8589287109375,0.0000671946737020562,9.726245506942272,-1.2531976880922913
1773149849801964800,7.86896484375,0.12535126723255963,9.702779875680804,-1.4179938441477715
1773149849812002000,7.879001953125,0.33021932143550364,9.675560444843768,-1.563608768262714
1773149849822038000,7.8890380859375,0.5560900143198668,9.65798854779601,-1.607614937119186
1773149849832074000,7.899073974609375,0.6800060245849192,9.657526190981269,-1.5621083005718885
1773149849842110000,7.90910986328125,0.6857041631612927,9.674662619221209,-1.449522662616521
1773149849852146000,7.91914599609375,0.6418254200767726,9.700460492822527,-1.2882269158974289
1773149849862183000,7.929182861328125,0.5999603183696046,9.725901808071136,-1.1033064018324017
1773149849872219000,7.939218994140625,0.5656591125780717,9.74713573475778,-0.9185563489634543
1773149849882254800,7.9492548828125,0.5222064859511331,9.764124863481522,-0.7480380158688873
1773149849892290800,7.959290771484375,0.4521155893759802,9.777865219542383,-0.5994447700629011
1773149849902326800,7.969326904296875,0.3507601512914523,9.788494165584444,-0.48244646676443514
1773149849912363800,7.97936376953125,0.23514866270888596,9.794615278813243,-0.42496049247942863
1773149849922399700,7.989399658203125,0.12392668692269362,9.796155493992567,-0.43628333906978367
1773149849932434700,7.9994345703125,0.01486114025171846,9.795046071445942,-0.47667811249606307
1773149849942471000,8.009470947265624,-0.09879820048292166,9.792669989964365,-0.5140483504693955
1773149849952507000,8.0195068359375,-0.21080454984614624,9.789538706201315,-0.539318108543381
1773149849962543900,8.0295439453125,-0.30299621907034885,9.786652921631932,-0.5477073493672534
1773149849972579800,8.039579833984375,-0.3614750220512971,9.785167651510237,-0.5387269377171993
1773149849982616000,8.049615966796875,-0.38057442092727867,9.785582662051915,-0.5176337346754968
1773149849992652000,8.059652099609375,-0.36249873907584695,9.787783971488475,-0.48812067647594953
1773149850002688000,8.06968798828125,-0.31494170933738347,9.79111457721591,-0.4530511166604235
1773149850012725000,8.07972509765625,-0.24715278782797975,9.795154792517422,-0.4052538118926808
1773149850022761000,8.089760986328125,-0.16848560342425478,9.799382639345525,-0.3377812080571428
1773149850032797000,8.099796875,-0.09016939701582305,9.803073310557007,-0.24896122548943384
1773149850042833000,8.1098330078125,-0.018758626039227237,9.805536485800147,-0.14652260441123507
1773149850052868900,8.119868896484375,0.04771988301682286,9.806386380627751,-0.05404808595792856
1773149850062905900,8.12990576171875,0.11646633357992395,9.80595734156072,-0.0004029541355277615
1773149850072941800,8.13994189453125,0.18268780484320596,9.804948456779123,0.0008614270049547485
1773149850082977800,8.149977783203125,0.2139504283901304,9.80424352338016,-0.037414547472517004
1773149850093013800,8.160013671875,0.19403025118317455,9.804366857498884,-0.08442570226467214
1773149850103049700,8.1700498046875,0.14269821468433364,9.804847919014096,-0.12241593529987148
1773149850113087000,8.1800869140625,0.08997729024351574,9.80502386010289,-0.15424480529427528
1773149850123123000,8.190123046875,0.05359024548809975,9.804596574601531,-0.19338864707769826
1773149850133159000,8.200158935546876,0.0364470404474996,9.803451496219635,-0.2477795779568143
1773149850143195000,8.21019482421875,0.03476632310223067,9.801619020095467,-0.31218901309575886
1773149850153230800,8.22023095703125,0.044676222738297654,9.799361596557498,-0.37536249496527013
1773149850163267800,8.230267822265626,0.0651529561157804,9.796868026176094,-0.4330134870862588
1773149850173303800,8.2403037109375,0.09404975471366196,9.794094469809531,-0.4870751860110089
1773149850183339800,8.25033984375,0.12654855072572826,9.791017546582221,-0.5388449015410617
1773149850193375700,8.260375732421876,0.15846514466935768,9.787675250416994,-0.5888028549414128
1773149850203411700,8.27041162109375,0.18736440008580685,9.784078687229751,-0.638033407382667
1773149850213453300,8.280453369140625,0.21046399278016759,9.78026234381199,-0.6874187119942158
1773149850223489300,8.2904892578125,0.2266435769530013,9.776064892122148,-0.7399735134873539
1773149850233525200,8.300525146484375,0.238685440266598,9.771320912465452,-0.7966765207011253
1773149850243561200,8.310561279296875,0.2518333833922632,9.765670339357852,-0.8594471573907881
1773149850253597200,8.32059716796875,0.26918371011121195,9.758591194751858,-0.9315738706424832
1773149850263634200,8.33063427734375,0.2909684756136499,9.749795893877744,-1.013513683508709
1773149850273670100,8.340670166015625,0.31448256739303465,9.739819858786463,-1.0988261876784264
1773149850283706000,8.3507060546875,0.3382232892688364,9.729519414046406,-1.180027749397978
1773149850293742000,8.3607421875,0.36411841269955036,9.719458038759232,-1.2529834608197212
1773149850303779000,8.370779052734376,0.39153555806577206,9.70965151501596,-1.3189943946048617
1773149850313815000,8.38081494140625,0.41426202486511315,9.700238374504446,-1.3799056671634315
1773149850323851000,8.39085107421875,0.4268458678346127,9.691405664229393,-1.4369550035968421
1773149850333887200,8.40088720703125,0.42999015720970923,9.683083241564034,-1.4911030656307935
1773149850343923500,8.41092333984375,0.43245230953954156,9.674909871980548,-1.5425615963198243
1773149850353960200,8.420960205078124,0.4423018687069416,9.66640098683238,-1.5923041168712078
1773149850363996200,8.43099609375,0.45869270274396984,9.657145082709192,-1.6430261499792336
1773149850374032400,8.441032470703124,0.47783572156596926,9.647095397859811,-1.6957590845182537
1773149850384068400,8.451068359375,0.49580253621544684,9.636514382612704,-1.749893994809687
1773149850394104300,8.461104248046874,0.5095750775128602,9.62689958204925,-1.7982037060789764
1773149850404141300,8.471141357421875,0.5198249976420775,9.620233109897374,-1.8306543155677615
1773149850414177300,8.48117724609375,0.529806110767275,9.616596799221634,-1.8468229216888545
1773149850424213200,8.491213134765625,0.541856723642908,9.613662499335408,-1.8585691813230514
1773149850434249200,8.501249267578125,0.5528029189405963,9.609807577472925,-1.875205551086366
1773149850444285200,8.51128515625,0.5557914332320913,9.60530383631289,-1.897270667900145
1773149850454322400,8.521322509765625,0.5438861105786637,9.601939912837743,-1.9176370179720221
1773149850464358400,8.5313583984375,0.5158790730278938,9.601077743050455,-1.9296533267192542
1773149850474394400,8.541394287109375,0.4764734933020547,9.602866964554787,-1.9308765849038958
1773149850484430300,8.551430419921875,0.4316083695286885,9.606745851814747,-1.9221096333414316
1773149850494466300,8.56146630859375,0.38409408295340836,9.612326282295584,-1.9042185873419046
1773149850504503300,8.57150341796875,0.33256062386464325,9.61919850615263,-1.8790443985968828
1773149850514539300,8.581539306640625,0.2749843957466073,9.62680372045934,-1.8491601324647664
1773149850524575200,8.5915751953125,0.20987837491193784,9.63464215900004,-1.8165936415113508
1773149850534611200,8.601611083984375,0.13624101050212048,9.64239876447618,-1.7821239472851156
1773149850544647200,8.611647216796875,0.0552264957872685,9.649977090775966,-1.7450724198721348
1773149850554684200,8.62168408203125,-0.02925952867976157,9.657174893325566,-1.7054397899247704
1773149850564720000,8.63172021484375,-0.11334636579533107,9.6636227542907,-1.6649121108338236
1773149850574756000,8.641756103515625,-0.19614660401633008,9.668884620341657,-1.6262157388232648
1773149850584792000,8.6517919921875,-0.28009894401505586,9.672585812947153,-1.591550668155402
1773149850594828000,8.661828125,-0.36827940483652055,9.674374449929594,-1.5624498074859379
1773149850604865300,8.671865234375,-0.4616148372683674,9.6741985088408,-1.5385735495969652
1773149850614901200,8.6819013671875,-0.5571952356154098,9.67175111568868,-1.522221841993928
1773149850624937200,8.691937255859376,-0.6494376486461609,9.667063250133396,-1.515431889592856
1773149850634973200,8.70197314453125,-0.7317725983098149,9.661174192094803,-1.5154603850349784
1773149850645010200,8.71201025390625,-0.7995191237159073,9.656195819160342,-1.5129640381745992
1773149850655046100,8.722046142578124,-0.8529868753354996,9.655272274574637,-1.4894707882538436
1773149850665082000,8.73208203125,-0.9001576457027345,9.66046984321773,-1.426686707560718
1773149850675118000,8.7421181640625,-0.9509612196143716,9.669603582265973,-1.3284703712195158
1773149850685154300,8.752154296875,-1.0090892181299627,9.678664840599893,-1.2147376821208744
1773149850695191000,8.76219091796875,-1.0752209287505596,9.685343587711452,-1.0992856218837201
1773149850705227300,8.772227294921874,-1.1487016869597135,9.689045364838838,-0.9865423091486096
1773149850715263200,8.78226318359375,-1.226495266866684,9.689835638433694,-0.8793219976186751
1773149850725299200,8.79229931640625,-1.304018505399674,9.688338093352318,-0.7784743629258125
1773149850735335200,8.802335205078125,-1.3755277443401515,9.685673842579126,-0.6826655991829932
1773149850745372400,8.812372314453125,-1.4374153145849704,9.68247592332065,-0.5948843668121844
1773149850755408400,8.822408447265625,-1.4871936371020973,9.679037181043624,-0.5242942520106211
1773149850765444400,8.8324443359375,-1.5187268394850193,9.676294019815325,-0.48288058386538174
1773149850775480300,8.842480224609375,-1.5287798853352665,9.674935006421803,-0.47836756342034786
1773149850785516300,8.852516357421875,-1.5172443458423017,9.675243633979559,-0.507955476954393
1773149850795553300,8.86255322265625,-1.4884804620422423,9.677195352569221,-0.5537972272075712
1773149850805589200,8.87258935546875,-1.4473098088726402,9.681179453769326,-0.5919757128238677
1773149850815625200,8.882625244140625,-1.3972719586364923,9.687413379722834,-0.6099671139253303
1773149850825661200,8.8926611328125,-1.3373435596354304,9.695632342013717,-0.6136931852437555
1773149850835697200,8.902697265625,-1.2610641836836933,9.704624042242765,-0.6327712490707635
1773149850845734100,8.912734130859375,-1.1720684609565883,9.711835288795829,-0.6905849940054118
1773149850855770000,8.92277001953125,-1.078032771300897,9.715586165761946,-0.7846129387460649
1773149850865806300,8.932806396484375,-0.9888361922394484,9.716155490082501,-0.8882120641041547
1773149850875842300,8.94284228515625,-0.9255211464747786,9.715504917219281,-0.9605953824654221
1773149850885878300,8.952878173828125,-0.8955532937124371,9.717612118631601,-0.9676683165263384
1773149850895915300,8.962915283203126,-0.8369017097141593,9.725583243641257,-0.93967629388161
1773149850905951200,8.972951171875,-0.7123851032074541,9.73818319749534,-0.9114067694697529
1773149850915987200,8.9829873046875,-0.5515305974498391,9.751320326966047,-0.882009263941273
1773149850926023200,8.993023193359376,-0.4142391554461792,9.7605271312505,-0.8549371326204389
1773149850936059100,9.00305908203125,-0.32761326712295413,9.765019181972741,-0.8411014994915574
1773149850946096000,9.01309619140625,-0.27474839503364634,9.766707865712046,-0.8404191432505845
1773149850956132000,9.023132080078126,-0.24166315916944295,9.767048057451843,-0.8466125910632312
1773149850966168000,9.03316796875,-0.22172893517082556,9.766585700637101,-0.8573251237355172
1773149850976204000,9.0432041015625,-0.20459840694870798,9.765105106690525,-0.8782030765913427
1773149850986241300,9.0532412109375,-0.17945002849837763,9.762239195865392,-0.9147945122119039
1773149850996277200,9.06327734375,-0.1475450336609967,9.758576581704617,-0.9585394728489219
1773149851006313200,9.073313232421874,-0.11884077109368517,9.754805830994249,-1.0000156117711216
1773149851016349400,9.083349365234374,-0.09917743645831942,9.751590376079083,-1.0329759974129498
1773149851026385400,9.093385498046874,-0.08885271579353138,9.749459209269284,-1.0538305693931878
1773149851036422100,9.103422119140625,-0.08668691606177016,9.749200266072153,-1.056399104706943
1773149851046458400,9.113458251953125,-0.09130910510285757,9.75207903637886,-1.0290749713864178
1773149851056494300,9.123494384765625,-0.10160226158560252,9.75892554127276,-0.9609426615331321
1773149851066530300,9.1335302734375,-0.10932526618624105,9.769339383259416,-0.8476029903400689
1773149851076566300,9.143566162109375,-0.10821667475667782,9.781643569037318,-0.6914760976262391
1773149851086603300,9.153603271484375,-0.09475255095446482,9.79312767060399,-0.5060352494815364
1773149851096639200,9.16363916015625,-0.07126954386651049,9.801374105423688,-0.31366339649725705
1773149851106675200,9.17367529296875,-0.054798315236764025,9.805542331019044,-0.1368414880127646
1773149851116711200,9.183711181640625,-0.06340186096502001,9.80644366377294,-0.0026712844438210592
1773149851126747100,9.1937470703125,-0.0990564769597724,9.805944482079148,0.0634891556559829
1773149851136784400,9.203784423828125,-0.14617990105394274,9.805335410270095,0.06645922554191201
1773149851146820400,9.2138203125,-0.1898374208695255,9.804766670471428,0.03009448166656075
1773149851156856300,9.223856201171875,-0.2179230035492219,9.804221311548352,-0.011370655229367548
1773149851166892300,9.233892333984375,-0.23206050570150835,9.803864168673753,-0.02807767565116519
1773149851176928300,9.24392822265625,-0.24531802841518072,9.803568400597571,-0.01627357346606441
1773149851186965200,9.25396533203125,-0.26645581951728087,9.803027717849611,0.007611457959475228
1773149851197001200,9.264001220703125,-0.29664164414554833,9.802126969617605,0.02613628437598236
1773149851207037200,9.274037109375,-0.33276305110156534,9.80096201749146,0.02833712573837256
1773149851217068500,9.284068603515625,-0.36696046772506086,9.799772515445946,0.013041148008144227
1773149851227104500,9.2941044921875,-0.3904955474935472,9.79885364703536,-0.018795231722568858
1773149851237141200,9.304141357421875,-0.40330527164079244,9.798188461124896,-0.05688042787360027
1773149851247177500,9.314177490234375,-0.41385706079341467,9.797538472783565,-0.08568956645433791
1773149851257213400,9.32421337890625,-0.4333983582179993,9.79656056766212,-0.09979846356664783
1773149851267249400,9.33424951171875,-0.4671479214761406,9.794939103940129,-0.1065325758609455
1773149851277285400,9.344285400390625,-0.5119255496291444,9.792583480724693,-0.11680142901949583
1773149851287322600,9.354322509765625,-0.5668691459549591,9.789395498338342,-0.12951593089764937
1773149851297358600,9.364358642578125,-0.6289576821319759,9.785565126395225,-0.13234424965875222
1773149851307394600,9.37439453125,-0.6961497885257005,9.781147309952974,-0.12206985267540439
1773149851317430500,9.384430419921875,-0.7663527671732008,9.77609937891364,-0.10474106193482875
1773149851327466500,9.394466552734375,-0.8336215189997106,9.77076444762647,-0.08735219330377876
1773149851337503500,9.40450341796875,-0.8915508531380444,9.76572937606871,-0.07777701236465945
1773149851347539500,9.41453955078125,-0.9349197470042854,9.76162895501256,-0.08303621153449639
1773149851357575400,9.424575439453125,-0.9633286798868328,9.758675365903972,-0.10317683569225482
1773149851367611400,9.434611328125,-0.9807443634595722,9.75657342518866,-0.1334729888272006
1773149851377647400,9.4446474609375,-0.9922762496907264,9.754947285291552,-0.1637114478250034
1773149851387684400,9.454684326171876,-1.001246468740329,9.753657245481014,-0.18461020600683986
1773149851397720300,9.46472021484375,-1.0098300996251404,9.752427995947002,-0.20193163542486725
1773149851407756300,9.47475634765625,-1.0185990970142185,9.751007023233175,-0.22515003219330681
1773149851417792300,9.484792236328126,-1.0273031394083052,9.749401341602205,-0.2533871339065954
1773149851427828500,9.494828369140626,-1.0395031341593712,9.747423319527506,-0.27846085795182735
1773149851437865500,9.504865478515624,-1.0575813732940702,9.745032624998688,-0.29366211687810717
1773149851447901400,9.5149013671875,-1.0782887918885797,9.742596337762475,-0.2991799669841304
1773149851457937400,9.5249375,-1.0999405055958777,9.740230193153023,-0.2974032579015009
1773149851467973400,9.534973388671874,-1.1182829486247152,9.738272629344463,-0.29304277940336615
1773149851478009300,9.54500927734375,-1.1274222406309098,9.737273096913098,-0.29122312622815366
1773149851488046300,9.55504638671875,-1.1286676375821232,9.737003632321953,-0.2953739805635996
1773149851498082300,9.565082275390624,-1.1245559644795953,9.737110015305877,-0.3073315631272271
1773149851508118300,9.5751181640625,-1.1173510015368462,9.737497553318738,-0.3210360806897282
1773149851518154500,9.585154541015624,-1.1086422099024056,9.738293087610602,-0.3270303892010823
1773149851528191200,9.595191162109375,-1.1000245306175203,9.739436412426828,-0.3220719996087253
1773149851538227200,9.605227294921875,-1.0922206519335507,9.740736973631382,-0.3090262382159009
1773149851548263400,9.615263427734375,-1.0860643212608991,9.741905432888865,-0.2934934275140054
1773149851558299600,9.625299560546875,-1.0839584350228308,9.742575294974445,-0.27867333165872843
1773149851568335600,9.635335693359375,-1.0884010936453938,9.742440270417928,-0.2657344099075533
1773149851578372400,9.645372314453125,-1.1008431535240262,9.741315650302171,-0.2555710355506278
1773149851588408600,9.65540869140625,-1.1201191510759294,9.739311324742436,-0.24808336494266986
1773149851598444500,9.665444580078125,-1.1423577247604728,9.736910108819604,-0.2408682824647054
1773149851608480500,9.67548046875,-1.164238644113764,9.734540457078815,-0.2317025043103844
1773149851618516500,9.6855166015625,-1.1860114999826996,9.732232764658331,-0.21778070900170132
1773149851628553500,9.695553466796875,-1.208105915956199,9.729932671022414,-0.19821562884273006
1773149851638589400,9.70558935546875,-1.2304442967534064,9.727607442945242,-0.173369904867094
1773149851648625400,9.71562548828125,-1.252704790008813,9.725252404251695,-0.1435014116928447
1773149851658661400,9.725661376953125,-1.2718921594291925,9.723201901462673,-0.10961882403902709
1773149851668697300,9.735697265625,-1.2855103504151104,9.721752287176251,-0.07346157858464866
1773149851678734600,9.745734619140626,-1.2931474211648106,9.720943893402815,-0.03740401922863675
1773149851688770600,9.7557705078125,-1.2952913013257086,9.72072820482552,-0.006506364528095582
1773149851698806500,9.765806640625,-1.2911134311191736,9.721278239923715,0.012552661238302244
1773149851708842500,9.775842529296876,-1.2801062994144856,9.722731361341475,0.014698684265580958
1773149851718878500,9.78587841796875,-1.260657940970361,9.725283383911847,-0.003295806981633359
1773149851728915500,9.79591552734375,-1.2259250657632945,9.72964099459946,-0.039773006532434374
1773149851738951400,9.805951416015626,-1.1687641587141901,9.736315650057792,-0.09236688879379071
1773149851748987400,9.8159873046875,-1.0842235156998037,9.745228439831733,-0.15920767013235015
1773149851759023400,9.8260234375,-0.9725397219549864,9.75534300661087,-0.24046032271832227
1773149851769059300,9.836059326171876,-0.8399660657208412,9.764802908873557,-0.336834465258941
1773149851779096300,9.846096435546874,-0.6953364263162016,9.771621356716752,-0.44977896312195803
1773149851789132300,9.85613232421875,-0.5485693730240687,9.774081024828552,-0.5803703594977035
1773149851799168300,9.866168212890624,-0.40930991888307033,9.770985981422662,-0.7284763332433998
1773149851809204200,9.876204345703124,-0.2785149992918596,9.762323367017506,-0.8887254935190081
1773149851819240400,9.886240478515624,-0.14154937344277277,9.749854930588603,-1.0443586113665253
1773149851829277400,9.89627734375,0.00043022716199884596,9.736811909142135,-1.168279955393821
1773149851839313400,9.9063134765625,0.11796361379981972,9.727716164016723,-1.2361189813889562
1773149851849349400,9.916349365234375,0.18616255001537502,9.725779058474302,-1.2429535035841166
1773149851859385600,9.926385498046875,0.20943656769488006,9.728677702525257,-1.216286007541418
1773149851869421600,9.936421630859375,0.20509800876760853,9.73229355493486,-1.1877755139805375
1773149851879458300,9.946458251953125,0.19231161069702357,9.734392573040724,-1.17259445759207
1773149851889494500,9.95649462890625,0.18974817168349398,9.73404478251636,-1.175908696706593
1773149851899530500,9.966530517578125,0.20762573714694008,9.731071319663524,-1.1973038053043186
1773149851909566500,9.97656640625,0.24379648140370844,9.725795425087213,-1.232825785062462
1773149851919602400,9.9866025390625,0.2914198726429604,9.718680040124058,-1.2777696731604635
1773149851929639400,9.996639404296875,0.3461315416427329,9.710322546145319,-1.3267353641204536
1773149851939675400,10.00667529296875,0.40882067406140266,9.701097621682285,-1.3754849281117318
1773149851949711400,10.01671142578125,0.48513913991451263,9.691026894044876,-1.4209325279481708
1773149851959747300,10.026747314453125,0.585561425334774,9.67981108802557,-1.459019097497314
1773149851969783600,10.036783447265625,0.7283195352464914,9.665538232523202,-1.4890651300624012
1773149851979820500,10.046820556640625,0.9345006448093801,9.643398296907543,-1.5172164349220691
1773149851989856500,10.0568564453125,1.1822213869847356,9.61177215554416,-1.5448507301703094
1773149851999892500,10.066892578125,1.4085228359691797,9.578294833356141,-1.5629223934337495
1773149852009928400,10.076928466796875,1.555531844791025,9.555815290522574,-1.5611156362727283
1773149852019964400,10.08696435546875,1.593439550641924,9.5542382504642,-1.5322743033222854
1773149852030001400,10.09700146484375,1.5108146050557494,9.577937690481543,-1.466602392233163
1773149852040037400,10.107037353515626,1.3452106397487222,9.61692237791419,-1.369519736097008
1773149852050073300,10.1170732421875,1.2572078005164862,9.641645900282263,-1.2761280434332787
1773149852060109300,10.127109375,1.2929387468501925,9.646286419564484,-1.2032674629490823
1773149852070145300,10.137145263671876,1.3254334877416492,9.65112801437676,-1.1266581974558532
1773149852080182500,10.1471826171875,1.2949851579859852,9.66399334116876,-1.0490982801742852
1773149852090218500,10.157218505859374,1.2105750094834715,9.682852355417609,-0.9732863756038248
1773149852100254500,10.16725439453125,1.1098038740929215,9.702181909787654,-0.8979877543177455
1773149852110290400,10.17729052734375,1.019191583014652,9.718698744824529,-0.8237368885189295
1773149852120326400,10.187326416015624,0.9504110383857041,9.731506788471341,-0.7515849677607417
1773149852130363400,10.19736328125,0.9024525517068803,9.740483291131257,-0.6920814431082457
1773149852140399400,10.2073994140625,0.8696869579847901,9.746468795281649,-0.6483869705494493
1773149852150435300,10.217435302734375,0.8442041416820139,9.750573307991028,-0.6197112764894962
1773149852160471600,10.227471435546875,0.8181901411119848,9.75336732262373,-0.6105747974948957
1773149852170507500,10.237507568359375,0.7911900521140545,9.754916890153288,-0.6213139624457806
1773149852180544300,10.247544189453125,0.76859689283818,9.755450558638572,-0.64095813572295
1773149852190580500,10.25758056640625,0.7551007938619703,9.755244806933403,-0.6598432342611252
1773149852200616400,10.267616455078125,0.7516854324605315,9.754726336017251,-0.6713129419762641
1773149852210652400,10.27765234375,0.7558201941777021,9.754376207405327,-0.6717592244390398
1773149852220689400,10.287689453125,0.75867521828264,9.75500749104619,-0.6592534516744315
1773149852230726100,10.29772607421875,0.7501099998373538,9.757144503074883,-0.6370733301788568
1773149852240762000,10.30776220703125,0.724847767482698,9.760554019257425,-0.61366147493124
1773149852250798300,10.31779833984375,0.6863632115919143,9.76444459695518,-0.595764181854017
1773149852260834300,10.327834228515625,0.6435157112512737,9.768325822302698,-0.5797209191456437
1773149852270870300,10.337870361328125,0.6053421575384215,9.77201707803607,-0.5582217291189357
1773149852280907300,10.3479072265625,0.5756061042379588,9.775177587893605,-0.5338152002781629
1773149852290943200,10.357943115234375,0.5497422161957248,9.777639594092964,-0.5156923548167571
1773149852300979200,10.367979248046876,0.5186843762395903,9.779674899312853,-0.5092171674532816
1773149852311015200,10.37801513671875,0.47598644043747335,9.781735923495889,-0.5113325156394392
1773149852321051100,10.388051025390626,0.42155130509044975,9.784097976452111,-0.5139025487905368
1773149852331088100,10.398088134765626,0.3580271831523627,9.786794375929237,-0.5107593188613653
1773149852341124400,10.408124267578126,0.28790828432543203,9.789701203286647,-0.4992383193504065
1773149852351160300,10.418160400390626,0.21309116294598204,9.792544902279973,-0.4806655746970325
1773149852361196300,10.4281962890625,0.13509862640080972,9.795078220149874,-0.4567129636362195
1773149852371232300,10.438232177734376,0.05399899525234941,9.797150350248813,-0.4281807697001844
1773149852381269200,10.448269287109374,-0.03278596065668389,9.798584766966105,-0.3962995575971901
1773149852391305200,10.45830517578125,-0.12958398203202523,9.798972889500856,-0.3656576414981857
1773149852401341200,10.468341064453124,-0.23634340718509628,9.797874572870136,-0.34083511573504655
1773149852411377200,10.478377197265624,-0.3473330994522199,9.79514251755774,-0.3239088596470654
1773149852421413000,10.4884130859375,-0.4510573124947026,9.791193487671016,-0.3153975633461028
1773149852431450000,10.4984501953125,-0.5327175047019497,9.787129891493915,-0.3141085099162534
1773149852441486000,10.508486083984375,-0.583239412127994,9.78410148358345,-0.3186955819781869
1773149852451522000,10.51852197265625,-0.6031727776100859,9.78262731937766,-0.3267276799274608
1773149852461558000,10.52855810546875,-0.596483655234985,9.782656545472145,-0.3379857907185331
1773149852471594000,10.538593994140625,-0.5639800003847107,9.784252290230988,-0.347451319004409
1773149852481631200,10.54863134765625,-0.5003861742112785,9.787990307715535,-0.3394522830745205
1773149852491667200,10.558667236328125,-0.4020430696852505,9.793768306595087,-0.3014039449102245
1773149852501703200,10.568703125,-0.27368805405944585,9.799699450209737,-0.24770850374829023
1773149852511739100,10.5787392578125,-0.1426373787420336,9.803601133823394,-0.19856305404091254
1773149852521775400,10.588775390625,-0.06298814276470803,9.80509984794855,-0.16252676808508112
1773149852531812000,10.59881201171875,-0.07518328324414324,9.805331318616867,-0.14214560403656212
1773149852541848000,10.60884814453125,-0.15989168860744685,9.80433587783873,-0.1407583691955544
1773149852551884300,10.61888427734375,-0.271021246002987,9.801512637111545,-0.16510381549885494
1773149852561920300,10.628920166015625,-0.3798670398429036,9.796862180957197,-0.21813410728294402
1773149852571956200,10.638956298828125,-0.4757236613154411,9.790643452572821,-0.2955783440292813
1773149852581993200,10.6489931640625,-0.5537956563049927,9.783342774170636,-0.3871671702558174
1773149852592029200,10.659029296875,-0.6134603263359516,9.775939219915866,-0.474375461576879
1773149852602065200,10.669065185546875,-0.6659579908143729,9.769036600920558,-0.5411273499224335
1773149852612101000,10.67910107421875,-0.7284270142089575,9.762137489056586,-0.5835030680328607
1773149852622137000,10.68913720703125,-0.8068139568991959,9.754700032532215,-0.6043843818895518
1773149852632173300,10.69917333984375,-0.8952183626696467,9.74670611116886,-0.6088567049980164
1773149852642210300,10.709210205078126,-0.9849688492868095,9.738317053008078,-0.6045016515936702
1773149852652246300,10.719246337890626,-1.073044899885729,9.729273330330848,-0.6001810119155794
1773149852662282200,10.7292822265625,-1.1702996246531605,9.717712071874738,-0.6057025883486494
1773149852672318200,10.739318115234376,-1.2937008172638713,9.700616560167074,-0.6283048442464322
1773149852682354200,10.749354248046876,-1.449439806638658,9.67598656130135,-0.6669189448010177
1773149852692391200,10.75939111328125,-1.6275884884811938,9.644141224229335,-0.7154755435034632
1773149852702427100,10.76942724609375,-1.809893120959401,9.607639001262188,-0.7667928390908986
1773149852712463000,10.779463134765624,-1.982390352911502,9.569714636537432,-0.813068560314551
1773149852722499000,10.7894990234375,-2.139273251624405,9.533169743472337,-0.8441430591445416
1773149852732535000,10.79953515625,-2.2783090896099805,9.500250639688968,-0.8514291244994848
1773149852742572000,10.809572021484374,-2.398158581088483,9.473146944186091,-0.8238350881963967
1773149852752608300,10.819608154296875,-2.4950059671640394,9.453615729764103,-0.757951580183208
1773149852762644200,10.829644287109375,-2.5655761716887353,9.442219891002773,-0.6577829407304525
1773149852772680200,10.83968017578125,-2.6086799848780036,9.438412315413355,-0.5306127509750426
1773149852782716200,10.849716064453125,-2.624747907103598,9.440853863346575,-0.389062774744071
1773149852792753200,10.859753173828125,-2.6140292369514704,9.448445633649825,-0.25319362062849105
1773149852802789000,10.8697890625,-2.5742110213041305,9.461634201046824,-0.14597730028708464
1773149852812825000,10.8798251953125,-2.5099597906678914,9.479558564794063,-0.09205986867123282
1773149852822861300,10.889861328125,-2.4358805551089344,9.49877296835184,-0.10091493690856732
1773149852832897300,10.899897216796875,-2.3658381738506256,9.515694292536377,-0.15741505109453574
1773149852842934000,10.90993408203125,-2.306380607231706,9.528664833268524,-0.23568726309761404
1773149852852970200,10.91997021484375,-2.2620829080827534,9.536793194666505,-0.3208677383854985
1773149852863006200,10.930006103515625,-2.2302947080254554,9.540947391736507,-0.40806327982284124
1773149852873042200,10.940042236328125,-2.198009810492396,9.544309561645983,-0.49525363362841307
1773149852883078100,10.950078125,-2.1514172784045336,9.55013782940805,-0.5802236079707741
1773149852893115400,10.960115478515625,-2.0807225707173345,9.560493219205737,-0.6617835546739399
1773149852903151400,10.9701513671875,-1.9830701518692075,9.575441197490692,-0.7407689016487449
1773149852913187300,10.980187255859375,-1.8655340518996117,9.59252618780434,-0.8207325190711766
1773149852923223300,10.990223388671875,-1.7363677198909222,9.60929612081945,-0.9037946870308369
1773149852933259300,11.00025927734375,-1.6005052512444555,9.624318917906283,-0.9905842049505561
1773149852943296300,11.010296142578126,-1.4621411750406026,9.63674936041236,-1.0796274931464345
1773149852953332200,11.020332275390626,-1.326465899529308,9.645614803913235,-1.171752234614268
1773149852963368200,11.0303681640625,-1.2012977703113108,9.650060677406191,-1.266330872040242
1773149852973404200,11.040404052734376,-1.0967969468731433,9.64993032902479,-1.3587756392426789
1773149852983440100,11.050440185546876,-1.0141254587315023,9.647211133193968,-1.439877613045275
1773149852993477000,11.06047705078125,-0.9484938065875321,9.64515829231739,-1.4972151187703013
1773149853003513000,11.07051318359375,-0.8992235797230154,9.646666358792782,-1.5177579944528639
1773149853013549000,11.080549072265624,-0.8689701149523258,9.652739541226625,-1.4966257745750247
1773149853023585000,11.0905849609375,-0.8603194101806729,9.661457100689411,-1.4444655253574252
1773149853033621000,11.10062109375,-0.8770102135449648,9.669428810220957,-1.3796293344400823
1773149853043658200,11.110658203125,-0.9250391351114958,9.673746673420071,-1.3165592764124274
1773149853053694200,11.120694091796874,-1.0018228803887963,9.673335170009732,-1.2622756053000688
1773149853063730200,11.130730224609374,-1.0942233700580895,9.669075758999586,-1.21738739291206
1773149853073766100,11.14076611328125,-1.183918984682858,9.66302303483188,-1.1809748209897428
1773149853083802000,11.150802001953124,-1.254226885009557,9.658013097715378,-1.1489414870649575
1773149853093839000,11.160839111328125,-1.2898854967594147,9.657063249644636,-1.1169997769463806
1773149853103875000,11.170875,-1.2868202639698982,9.661473467302322,-1.081849260849133
1773149853113911000,11.1809111328125,-1.2574072686113416,9.669227734690905,-1.0465962342254818
1773149853123947300,11.190947265625,-1.2191114402256906,9.67682476569116,-1.0213777679473162
1773149853133983200,11.200983154296875,-1.1810185140009968,9.682286538228393,-1.0143529108118265
1773149853144020000,11.21102001953125,-1.1436475453753023,9.686146136265993,-1.0203183220222591
1773149853154056200,11.22105615234375,-1.1050309606026858,9.689456283727287,-1.0313733114566654
1773149853164092400,11.231092529296875,-1.0652563649013638,9.692420978751779,-1.0452749955590814
1773149853174128400,11.24112841796875,-1.0240297437608241,9.695432435527444,-1.0584580099981278
1773149853184164400,11.251164306640625,-0.981887322949618,9.699411860552429,-1.0619229096297174
1773149853194201300,11.261201416015625,-0.9406354212373494,9.704904612749814,-1.0490073870204388
1773149853204237300,11.2712373046875,-0.9024874038245528,9.71170026423931,-1.0192149638902395
1773149853214273000,11.28127294921875,-0.870663182605803,9.718979899853467,-0.9766025874797254
1773149853224309000,11.29130908203125,-0.8480105482276529,9.726026311233639,-0.9250236452814191
1773149853234345000,11.301344970703125,-0.835917667112872,9.732185418385267,-0.8695862010240555
1773149853244382200,11.31138232421875,-0.8331689529266207,9.736882051768898,-0.8181338808801024
1773149853254418200,11.321418212890626,-0.8348247573096305,9.740001060572267,-0.7783514671985059
1773149853264454100,11.3314541015625,-0.8367867050323635,9.741827691477537,-0.7529810982942581
1773149853274490000,11.341489990234376,-0.8406511984407902,9.742278942376375,-0.74277593062222
1773149853284526000,11.351526123046876,-0.8482622579663991,9.741320326477288,-0.7466895969346166
1773149853294563000,11.36156298828125,-0.8566983701393007,9.73950889314115,-0.7605422542635351
1773149853304599000,11.37159912109375,-0.8615756207868457,9.737524441325665,-0.7801968028042465
1773149853314635000,11.381635009765626,-0.8631794757869095,9.73576093878448,-0.8001676507525145
1773149853324671000,11.3916708984375,-0.8630302035093307,9.734329444676638,-0.8175471670333295
1773149853334707000,11.40170703125,-0.8604859989192336,9.73311130105853,-0.8345517855871468
1773149853344744000,11.411743896484374,-0.854022575058788,9.731737674617767,-0.8569342247217893
1773149853354780000,11.42177978515625,-0.8484830611102282,9.72955039370656,-0.8867406033121049
1773149853364816000,11.43181591796875,-0.850472627492249,9.726316234090923,-0.919708587738499
1773149853374851800,11.441851806640624,-0.863075357825309,9.722581139215826,-0.9470413427568971
1773149853384888000,11.45188818359375,-0.8824249320700764,9.719359254559874,-0.9621614627383649
1773149853394925000,11.461925048828125,-0.9058844258517026,9.716846979478001,-0.9657203973289579
1773149853404961000,11.4719609375,-0.9344709803234785,9.714830963480471,-0.9587488047506659
1773149853414997000,11.4819970703125,-0.9706467478152364,9.712944126820563,-0.9417788191188127
1773149853425033200,11.492033203125,-1.0111570373799652,9.711130355396866,-0.9175465143337845
1773149853435069200,11.502069091796875,-1.0477783566821366,9.709766665828228,-0.8904819087322801
1773149853445106000,11.51210595703125,-1.076877317655459,9.708938398310542,-0.8644173470187931
1773149853455142100,11.52214208984375,-1.1007244955804198,9.70830653014779,-0.841175514575839
1773149853465178000,11.53217822265625,-1.1277139901190996,9.706762807837128,-0.823040796013549
1773149853475214000,11.542214111328125,-1.1671041165474803,9.703059277144074,-0.8117061128549278
1773149853485250000,11.55225,-1.2213107769008724,9.696832365453243,-0.8063736657857894
1773149853495287000,11.562287109375,-1.285987758668512,9.688788759729265,-0.8024914175249636
1773149853505323300,11.5723232421875,-1.3493039004117249,9.680732879045605,-0.795728572326526
1773149853515359200,11.582359130859375,-1.3974189658917486,9.674901104152202,-0.7835249243136495
1773149853525395200,11.592395263671875,-1.4301179971836506,9.671685649237036,-0.763973616951704
1773149853535431200,11.60243115234375,-1.4568473064161835,9.669864863550663,-0.7360083361834288
1773149853545468200,11.61246826171875,-1.4825943266130983,9.668608141487836,-0.7002130924418568
1773149853555504000,11.622504150390625,-1.5049381142377853,9.668020112466811,-0.6594883564088493
1773149853565540000,11.6325400390625,-1.520872327081114,9.668203652340173,-0.6189956025008112
1773149853575576000,11.642576171875,-1.5315106254734099,9.668566640433669,-0.5862256248645484
1773149853585612000,11.652612060546875,-1.5488180263660847,9.666761052316426,-0.5703138430487364
1773149853595649000,11.66264892578125,-1.5902859089165926,9.659680154144763,-0.5761666607301682
1773149853605685000,11.67268505859375,-1.662995025166124,9.645741060641408,-0.6037472164971753
1773149853615721000,11.682720947265626,-1.7585479875169694,9.625861471173167,-0.6486236288495362
1773149853625757000,11.6927568359375,-1.8679324913434683,9.601427871662377,-0.7027085625194013
1773149853635794200,11.702794189453124,-1.994346748165041,9.572343231475353,-0.7504630510587245
1773149853645830100,11.712830078125,-2.1459299330346284,9.53710006865859,-0.7804387948665767
1773149853655866000,11.7228662109375,-2.3245244589485226,9.49429553067684,-0.7907732149414718
1773149853665902000,11.732902099609374,-2.517885030709207,9.445281616660951,-0.7856869977183639
1773149853675938000,11.74293798828125,-2.7050933634504672,9.39461292117536,-0.770779935965687
1773149853685975000,11.75297509765625,-2.8747324294924734,9.345402023282647,-0.7548375398159026
1773149853696011000,11.763010986328124,-3.021658436205983,9.29940541126132,-0.7490212547525763
1773149853706047000,11.773046875,-3.13506591193825,9.261162482106686,-0.7567292718466371
1773149853716083000,11.7830830078125,-3.203557848884165,9.23625600438714,-0.774071670987457
1773149853726119200,11.793119140625,-3.2218951773464677,9.227835966566204,-0.7980084999572485
1773149853736156000,11.803156005859375,-3.188565446935594,9.237100638517736,-0.8242626659587026
1773149853746192000,11.81319189453125,-3.099783293893933,9.26518048557639,-0.8474503570616245
1773149853756228000,11.82322802734375,-2.957826307764649,9.309875951871275,-0.8647940713766962
1773149853766264000,11.83326416015625,-2.7795795723751184,9.363613387277722,-0.8758206384342163
1773149853776300000,11.843300048828125,-2.585412506537139,9.417860525771975,-0.8887775159671902
1773149853786337000,11.8533369140625,-2.3893859304375944,9.466872686222196,-0.9162678727000951
1773149853796373200,11.863373291015625,-2.205137032023817,9.506239650970697,-0.9691091629844159
1773149853806409200,11.8734091796875,-2.048880302385241,9.532907293143868,-1.046973762300983
1773149853816445200,11.883445068359375,-1.9299214761361478,9.547690436255932,-1.1346337063796819
1773149853826481200,11.893481201171875,-1.8227226457856593,9.557093639895319,-1.228832623773068
1773149853836518100,11.90351806640625,-1.6942846280515194,9.567082534468174,-1.3306740187436341
1773149853846554000,11.91355419921875,-1.5711768654294311,9.57466086076796,-1.4239577209882437
1773149853856590000,11.923590087890625,-1.4957652122229337,9.57870750581026,-1.4769661114677786
1773149853866626000,11.9336259765625,-1.4681659882880747,9.582882161146403,-1.4775843894965945
1773149853876662000,11.943662109375,-1.4717984995715319,9.58672656161487,-1.4487465636774897
1773149853886699000,11.953698974609376,-1.486379544240236,9.590716508033871,-1.4068480346247554
1773149853896735000,11.96373486328125,-1.5037757924601434,9.595116788819432,-1.3574929059557617
1773149853906771000,11.97377099609375,-1.5304934112548827,9.59713338933885,-1.3126388880982993
1773149853916807200,11.98380712890625,-1.5641557346209882,9.595262334769963,-1.2863777808994055
1773149853926843100,11.993843017578126,-1.5836217748522758,9.592367782372236,-1.2841342397563158
1773149853936880000,12.003880126953124,-1.574271032052487,9.591767478391528,-1.3000213985875249
1773149853946916000,12.013916015625,-1.5357757355719803,9.59472632819712,-1.3240168989419936
1773149853956952000,12.0239521484375,-1.4773321683011948,9.599316578596829,-1.3568288890890776
1773149853966988000,12.033988037109374,-1.4117892904192209,9.602809096887707,-1.4011685276836157
1773149853977025000,12.04402490234375,-1.3492315658278762,9.6044247153908,-1.4508594641782342
1773149853987061000,12.05406103515625,-1.2933397288665174,9.604576106560229,-1.4999242315985262
1773149853997097000,12.064096923828124,-1.2398502768717705,9.604175124543906,-1.5469205221816897
1773149854007133000,12.0741328125,-1.1834141769658773,9.604309564578532,-1.5896970031127333
1773149854017169000,12.0841689453125,-1.1242727636240422,9.607294717869163,-1.6143983136489986
1773149854027206000,12.094205810546875,-1.0688175645142792,9.615648704716563,-1.602286435572803
1773149854037242000,12.1042421875,-1.0355085115652531,9.628961775276064,-1.543113238853216
1773149854047278000,12.114278076171875,-1.038834879508987,9.643931380870939,-1.4442239716865122
1773149854057314000,12.12431396484375,-1.0790772388525307,9.655267598399519,-1.3348271929003297
1773149854067350300,12.134350341796875,-1.146555834037438,9.658052845203876,-1.256108460972458
1773149854077387000,12.144386962890625,-1.220996231058985,9.650264675545692,-1.245770168440044
1773149854087423000,12.154423095703125,-1.2831200942777097,9.635521279922127,-1.296427173487842
1773149854097459200,12.164459228515625,-1.3268842710718511,9.620231940853595,-1.364152802236378
1773149854107495200,12.1744951171875,-1.358984313557297,9.609125440427661,-1.410059982408583
1773149854117531100,12.18453125,-1.3867594785809516,9.604214287510514,-1.416464881014824
1773149854127568100,12.194568115234375,-1.412030551829189,9.60535819684863,-1.3833454323537646
1773149854137604000,12.20460400390625,-1.4339052606374025,9.6111578230381,-1.3190636604487895
1773149854147640000,12.21464013671875,-1.4472059101067483,9.620126726913451,-1.2365876218140124
1773149854157676000,12.224676025390625,-1.447459884867817,9.630942135438323,-1.1490066612556575
1773149854167712000,12.2347119140625,-1.4335120235361158,9.641959204015135,-1.0714767737861721
1773149854177749200,12.244749267578126,-1.4129216554500161,9.650905311536789,-1.016885132703185
1773149854187785200,12.25478515625,-1.4008888339594006,9.655200962904095,-0.9924674614138901
1773149854197821200,12.2648212890625,-1.4071185221292077,9.653874682736395,-0.9965388755712657
1773149854207857200,12.274857177734376,-1.4287398406982421,9.647809099087118,-1.0241432871378957
1773149854217898000,12.28489794921875,-1.4554111361332236,9.63922773322463,-1.0665149135950953
1773149854227934000,12.294933837890625,-1.4781516679905353,9.630197454550862,-1.115688840478286
1773149854237970000,12.304969970703125,-1.494008870074898,9.621892567542195,-1.165126167538017
1773149854248006000,12.315005859375,-1.503340031391382,9.614881227475404,-1.2101401251975445
1773149854258041900,12.325041748046875,-1.50571684352532,9.609352819442748,-1.2504250085085629
1773149854268079000,12.3350791015625,-1.4996994829319417,9.605532968893646,-1.2864748115330933
1773149854278115000,12.345114990234375,-1.4853000784404575,9.603695816594362,-1.3165483166269958
1773149854288151000,12.355151123046875,-1.4676668065942824,9.60311889348924,-1.3403181915320455
1773149854298187000,12.36518701171875,-1.4550887723110615,9.602590485700965,-1.357703479966521
1773149854308223000,12.375222900390625,-1.4541728265099227,9.601474633413552,-1.3665443735480307
1773149854318260000,12.385260009765625,-1.463797271684557,9.599954876500368,-1.3669526620879768
1773149854328296000,12.3952958984375,-1.4752891181662677,9.598658406949042,-1.3637054968602955
1773149854338332000,12.405331787109375,-1.482278538662195,9.597513328567146,-1.3641802747651934
1773149854348368000,12.415367919921875,-1.4869295793384312,9.59582756743729,-1.3709497689001262
1773149854358404900,12.42540478515625,-1.4923659251734613,9.593583587902783,-1.3807152299806476
1773149854368440800,12.43544091796875,-1.501080708157271,9.590969606012106,-1.3894010791309177
1773149854378476800,12.445476806640626,-1.5156385180808603,9.588117139190436,-1.393276897650957
1773149854388513000,12.455512939453126,-1.5415928974181412,9.584468553555011,-1.3899027450427413
1773149854398549000,12.465549072265626,-1.5878412922434508,9.578651391708851,-1.3778903818182646
1773149854408586000,12.4755859375,-1.660033983403444,9.569817512390017,-1.3539727690055965
1773149854418622000,12.4856220703125,-1.7565910082302987,9.558106031808256,-1.314304337092489
1773149854428658000,12.495657958984374,-1.8668639853291213,9.544793545770645,-1.257828124371916
1773149854438694000,12.50569384765625,-1.9698380375914275,9.533106030586362,-1.1874372950021177
1773149854448731000,12.51573095703125,-2.0493869367331263,9.526185875934361,-1.1055168444234877
1773149854458768000,12.525767822265625,-2.1132522367917,9.523193123859167,-1.0066413135211913
1773149854468803800,12.535803955078125,-2.187453783556074,9.518900395101308,-0.8808988915465772
1773149854478839800,12.54583984375,-2.298589661094546,9.506118070417642,-0.7215262949097901
1773149854488875800,12.555875732421875,-2.4495487227164205,9.480631746983528,-0.5363779634382575
1773149854498913000,12.5659130859375,-2.613621240672469,9.445307920145988,-0.3542927093317732
1773149854508949000,12.575948974609375,-2.7605679979130624,9.4078388979733,-0.2054688696403056
1773149854518985000,12.58598486328125,-2.879543044644594,9.3737425671041,-0.10757965549477376
1773149854529021000,12.59602099609375,-2.9746669679284095,9.344430547901988,-0.05793540768609382
1773149854539058000,12.606057861328125,-3.0585563804924485,9.317418622335792,-0.03651743880258873
1773149854549094000,12.616093994140625,-3.150398213365674,9.286818316888809,-0.02001360024460591
1773149854559129900,12.6261298828125,-3.2527968038275836,9.251465848478674,0.00895589426755032
1773149854569165800,12.636165771484375,-3.349118120202422,9.216844032430648,0.059858776964107525
1773149854579202000,12.6462021484375,-3.4271979697048662,9.187258456984162,0.13778413915773852
1773149854589238800,12.65623876953125,-3.4932319921046493,9.160146578174828,0.24376617759699
1773149854599274800,12.666274658203125,-3.565441780529916,9.127893244823813,0.37357743817940353
1773149854609311000,12.67631103515625,-3.6426612138107415,9.09035583359003,0.5165493735048919
1773149854619347000,12.686346923828125,-3.708495037463307,9.053543814021348,0.6714042004562913
1773149854629384000,12.696384033203126,-3.75970266213119,9.017398733928799,0.8494269908968358
1773149854639420200,12.706420166015626,-3.8026881096377965,8.979168079733848,1.0413920897111295
1773149854649456000,12.7164560546875,-3.8489889653027056,8.9359327491194,1.22669356591776
1773149854659492000,12.7264921875,-3.903125336898863,8.887830104729533,1.393729902115464
1773149854669528000,12.736528076171876,-3.958463485500216,8.83891789752245,1.5409376483798025
1773149854679565000,12.74656494140625,-4.008822968906164,8.791555257844925,1.6757934242017567
1773149854689601000,12.75660107421875,-4.05499698332101,8.744450392320752,1.8060959206335245
1773149854699637000,12.766636962890624,-4.097959926734864,8.697767551600933,1.9302727737918495
1773149854709673000,12.7766728515625,-4.1329947074979545,8.65577140739262,2.0411701663993296
1773149854719710000,12.7867099609375,-4.166965658421814,8.615033154290915,2.1419620523169636
1773149854729746000,12.796745849609374,-4.214691578453779,8.56901433043778,2.2313126528963445
1773149854739782000,12.806781982421874,-4.27810898861438,8.518521576040982,2.302812247225642
1773149854749818000,12.816818115234375,-4.342270202879607,8.465904669097066,2.375611525976658
1773149854759854000,12.82685400390625,-4.387752727898955,8.41322697187662,2.47701701374799
1773149854769891000,12.83689111328125,-4.412114431217312,8.361016892167925,2.6071093745604155
1773149854779927000,12.846927001953125,-4.429966021989285,8.308132858720422,2.7423908284485337
