time,seconds_elapsed,z,y,x
1773149842044000500,0.11100048828125,1.3606128692626953,2.756861925125122,-1.4782673120498657
1773149842054037200,0.121037353515625,1.3944605588912964,3.773969888687134,-1.9771995544433594
1773149842064073200,0.1310732421875,1.209269642829895,4.181334018707275,-2.4924824237823486
1773149842074109400,0.141109375,0.6404320597648621,4.291604042053223,-2.6788272857666016
1773149842084145400,0.1511455078125,-0.13669805228710175,5.23637580871582,-2.5125553607940674
1773149842094181400,0.161181396484375,-0.5742141008377075,5.847416877746582,-2.2739291191101074
1773149842104217300,0.17121728515625,-0.8844805955886841,6.1271209716796875,-2.48628830909729
1773149842114253300,0.18125341796875,-1.6039446592330933,5.928153038024902,-2.4877820014953613
1773149842124289300,0.191289306640625,-2.390641212463379,5.423102855682373,-1.8929778337478638
1773149842134326300,0.201326171875,-2.7428338527679443,5.601962566375732,-1.199355125427246
1773149842144362200,0.2113623046875,-2.7612316608428955,5.515519618988037,-0.6320804357528687
1773149842154398200,0.221398193359375,-2.532754421234131,4.95849084854126,-0.2795572876930237
1773149842164434200,0.23143408203125,-1.9268338680267334,2.292802333831787,0.4178890287876129
1773149842174470400,0.241470458984375,-1.2791334390640259,-0.0265886802226305,0.7857964634895325
1773149842184506400,0.25150634765625,-0.8043871521949768,-0.8139940500259399,0.39057546854019165
1773149842194542300,0.261542236328125,-0.32102927565574646,-0.513620913028717,-0.10894381999969482
1773149842204577500,0.27157763671875,-0.12720786035060883,-0.4787912666797638,-0.2117977887392044
1773149842214614300,0.2816142578125,-0.052580494433641434,-0.7308392524719238,-0.1970079243183136
1773149842224650500,0.291650390625,-0.07597344368696213,-1.0326118469238281,-0.41072770953178406
1773149842234686500,0.3016865234375,-0.27336642146110535,-1.2155522108078003,-0.6264126300811768
1773149842244722400,0.311722412109375,-0.45322006940841675,-1.1392805576324463,-0.6276412010192871
1773149842254758400,0.32175830078125,-0.6125205159187317,-1.023250937461853,-0.4653569459915161
1773149842264794400,0.33179443359375,-0.6298851370811462,-0.7036526799201965,-0.32399633526802063
1773149842274830300,0.341830322265625,-0.6757487654685974,-0.6310442090034485,-0.22458027303218842
1773149842284867300,0.351867431640625,-0.7282000184059143,-0.7629420757293701,-0.2647377550601959
1773149842294903300,0.3619033203125,-0.7287302613258362,-0.9291653633117676,-0.5379586219787598
1773149842304939300,0.371939208984375,-0.5894665718078613,-0.8890571594238281,-1.0089057683944702
1773149842314975200,0.381975341796875,-0.4287964701652527,-1.0891939401626587,-1.5709654092788696
1773149842325011200,0.39201123046875,-0.3605572283267975,-1.4181976318359375,-2.173851251602173
1773149842335047200,0.402047119140625,-0.5806171298027039,-1.5763380527496338,-2.594550132751465
1773149842345083100,0.412083251953125,-0.9542800188064575,-1.333047866821289,-2.7504775524139404
1773149842355119400,0.422119384765625,-1.465099573135376,-0.7911792397499084,-2.8204848766326904
1773149842365156400,0.43215625,-2.2552008628845215,-0.11797451227903366,-2.91103458404541
1773149842375192300,0.4421923828125,-3.271578788757324,0.4541528820991516,-3.03560733795166
1773149842385228300,0.452228271484375,-4.121566295623779,0.8385040163993835,-3.0708789825439453
1773149842395264500,0.462264404296875,-4.658443450927734,1.039312720298767,-2.8792998790740967
1773149842405300500,0.472300537109375,-4.899489402770996,0.9780664443969727,-2.620959520339966
1773149842415336400,0.48233642578125,-4.858729839324951,0.6316645741462708,-2.384200096130371
1773149842425372400,0.492372314453125,-4.630377769470215,0.12502802908420563,-2.2831079959869385
1773149842435409400,0.502409423828125,-4.355287075042725,-0.21817460656166077,-2.3908729553222656
1773149842445445400,0.5124453125,-4.179041862487793,-0.23632511496543884,-2.530580759048462
1773149842455481300,0.5224814453125,-4.125875473022461,-0.41955193877220154,-2.7501590251922607
1773149842465517300,0.532517333984375,-4.067667484283447,-0.7468970417976379,-3.066035032272339
1773149842475553300,0.54255322265625,-3.8870203495025635,-0.9907957315444946,-3.475912094116211
1773149842485589200,0.55258935546875,-3.4854860305786133,-1.1536389589309692,-3.8671703338623047
1773149842495625200,0.562625244140625,-3.049316167831421,-1.1200642585754395,-4.1076741218566895
1773149842505662500,0.572662353515625,-2.6117823123931885,-0.6788105964660645,-4.215025424957275
1773149842515698400,0.582698486328125,-2.0784943103790283,0.30506864190101624,-4.209449768066406
1773149842525734400,0.592734375,-1.5255402326583862,1.3386815786361694,-4.299708366394043
1773149842535770400,0.602770263671875,-1.0241745710372925,2.004897356033325,-4.45290470123291
1773149842545806300,0.612806396484375,-0.5094633102416992,2.350123405456543,-4.586218357086182
1773149842555842300,0.62284228515625,-0.024780791252851486,2.357447624206543,-4.696284294128418
1773149842565878300,0.632878173828125,0.4371074140071869,2.2446000576019287,-4.8284478187561035
1773149842575914500,0.64291455078125,0.9948990941047668,2.106471061706543,-4.9123663902282715
1773149842585951200,0.652951171875,1.5828789472579956,1.8508572578430176,-4.854610443115234
1773149842595987200,0.6629873046875,2.1631991863250732,1.5506641864776611,-4.643393516540527
1773149842606023400,0.6730234375,2.8348233699798584,1.5295474529266357,-4.188206195831299
1773149842616059400,0.683059326171875,3.5873444080352783,1.768191933631897,-3.3396644592285156
1773149842626095400,0.693095458984375,4.156623363494873,2.036552667617798,-2.3224594593048096
1773149842636131300,0.70313134765625,4.425637245178223,2.5832769870758057,-1.417502999305725
1773149842646167300,0.713167236328125,4.085665702819824,3.769911289215088,-0.41878047585487366
1773149842656204500,0.72320458984375,3.5188772678375244,4.852893352508545,0.18365080654621124
1773149842666240500,0.733240478515625,2.8586926460266113,5.724487781524658,0.534261167049408
1773149842676276500,0.7432763671875,2.6045939922332764,5.942148685455322,0.7888652086257935
1773149842686312400,0.7533125,2.7261061668395996,5.41483211517334,1.080033302307129
1773149842696348400,0.763348388671875,3.0130228996276855,4.365406036376953,1.4530963897705078
1773149842706384400,0.77338427734375,3.1563827991485596,3.1533379554748535,1.8381701707839966
1773149842716420400,0.78342041015625,3.3324527740478516,2.0737454891204834,1.9823142290115356
1773149842726457300,0.793457275390625,3.4454963207244873,1.3508951663970947,1.8083242177963257
1773149842736493300,0.803493408203125,3.3269600868225098,1.046631932258606,1.29322350025177
1773149842746529300,0.813529296875,3.1107397079467773,0.9383859038352966,0.7266774773597717
1773149842756565200,0.823565185546875,2.6985836029052734,0.8299150466918945,0.49787572026252747
1773149842766601200,0.833601318359375,2.309309244155884,0.4197225272655487,0.5522658228874207
1773149842776637400,0.843637451171875,1.956373691558838,-0.10196597874164581,0.6604021191596985
1773149842786673400,0.85367333984375,1.689863681793213,-0.5293444395065308,0.8693251609802246
1773149842796710100,0.863710205078125,1.6256070137023926,-0.8626904487609863,1.0608222484588623
1773149842806746400,0.873746337890625,1.5596823692321777,-1.0527944564819336,1.1000330448150635
1773149842816782300,0.8837822265625,1.5816336870193481,-1.04134202003479,1.1184873580932617
1773149842826818600,0.893818603515625,1.4398078918457031,-0.9550552368164062,1.0316786766052246
1773149842836854500,0.9038544921875,1.4306694269180298,-0.7514014840126038,0.9833314418792725
1773149842846890500,0.913890380859375,1.5319414138793945,-0.6293120384216309,1.0333195924758911
1773149842856926500,0.923926513671875,1.6856364011764526,-0.8436182141304016,1.1447300910949707
1773149842866962400,0.93396240234375,1.7226165533065796,-1.0451090335845947,1.1763567924499512
1773149842876999400,0.94399951171875,1.6321804523468018,-1.0474313497543335,1.1561877727508545
1773149842887035400,0.954035400390625,1.534659743309021,-0.7399123311042786,1.1160354614257812
1773149842897071400,0.9640712890625,1.5519967079162598,-0.48511362075805664,0.9754847884178162
1773149842907107300,0.974107421875,1.7793943881988525,-0.43960046768188477,0.9622178077697754
1773149842917143300,0.984143310546875,2.025339126586914,-0.6707369685173035,0.841947615146637
1773149842927179300,0.99417919921875,1.8896653652191162,-0.9356275200843811,0.7463634610176086
1773149842937215200,1.00421533203125,1.6124628782272339,-1.0035400390625,0.7304471135139465
1773149842947252200,1.014252197265625,1.5786322355270386,-0.9636436700820923,0.39517802000045776
1773149842957288200,1.0242880859375,1.5453025102615356,-1.0117332935333252,0.04985605925321579
1773149842967324200,1.03432421875,1.466117262840271,-1.229518175125122,-0.06854463368654251
1773149842977360100,1.044360107421875,1.3914726972579956,-1.495902419090271,-0.14890845119953156
1773149842987396400,1.054396240234375,1.2573977708816528,-1.8633445501327515,-0.2723309099674225
1773149842997432300,1.064432373046875,1.0780447721481323,-2.2652809619903564,-0.3641703128814697
1773149843007468500,1.074468505859375,0.8461356163024902,-2.4103472232818604,-0.36345040798187256
1773149843017505300,1.08450537109375,0.46882906556129456,-2.281564474105835,-0.3239903450012207
1773149843027541500,1.09454150390625,0.035312868654727936,-2.15324068069458,-0.24814578890800476
1773149843037577500,1.104577392578125,-0.3528950810432434,-1.9040517807006836,-0.29400834441185
1773149843047613400,1.114613525390625,-0.5925052762031555,-1.6308132410049438,-0.3985764682292938
1773149843057649400,1.1246494140625,-0.8599995970726013,-1.549208402633667,-0.4353850781917572
1773149843067685400,1.134685302734375,-0.9652479887008667,-0.9991924166679382,-0.3774239122867584
1773149843077721300,1.144721435546875,-0.9848608374595642,-1.2855613231658936,0.028337452560663223
1773149843087758300,1.15475830078125,-1.455150842666626,-2.9850120544433594,0.8880341649055481
1773149843097794300,1.164794189453125,-1.9646908044815063,-2.805967330932617,1.2157957553863525
1773149843107830300,1.174830322265625,-2.3044791221618652,-2.407663583755493,0.8766361474990845
1773149843117866200,1.1848662109375,-2.719571590423584,-2.105213165283203,0.44202908873558044
1773149843127902200,1.194902099609375,-3.412398099899292,-1.7958927154541016,0.17029006779193878
1773149843137938200,1.204938232421875,-4.136861801147461,-1.0944563150405884,0.01982945203781128
1773149843147974100,1.21497412109375,-3.7633917331695557,-1.1827436685562134,-0.7878711223602295
1773149843158011400,1.225011474609375,-3.3704710006713867,0.4887527525424957,-0.8957805037498474
1773149843168047400,1.23504736328125,-2.8118395805358887,1.742274522781372,-0.39227569103240967
1773149843178083300,1.245083251953125,-1.7126388549804688,0.8234188556671143,-0.13432510197162628
1773149843188119300,1.255119384765625,-0.6728747487068176,0.22686970233917236,0.0024535839911550283
1773149843198155500,1.265155517578125,-0.19814492762088776,0.8461611866950989,0.09558139741420746
1773149843208195800,1.27519580078125,-0.2919284403324127,1.5672218799591064,0.12493016570806503
1773149843218231800,1.285231689453125,-0.3497515320777893,2.056361675262451,0.196597158908844
1773149843228268800,1.295268798828125,-0.27821001410484314,2.2574548721313477,0.15619991719722748
1773149843238304800,1.3053046875,-0.4710471034049988,2.0300955772399902,-0.1723441481590271
1773149843248340700,1.3153408203125,-0.7459550499916077,1.6100702285766602,-0.44040364027023315
1773149843258377000,1.325376953125,-1.192367434501648,1.086455225944519,-0.6047531962394714
1773149843268413000,1.335412841796875,-1.622219443321228,0.9383542537689209,-0.4500058591365814
1773149843278449000,1.345448974609375,-1.929298758506775,1.0855176448822021,-0.13483884930610657
1773149843288486000,1.35548583984375,-2.2379720211029053,0.7012719511985779,0.006337166763842106
1773149843298522000,1.365522216796875,-2.1597344875335693,0.42346376180648804,0.19305644929409027
1773149843308558000,1.37555810546875,-1.730254888534546,0.7111996412277222,0.3825394809246063
1773149843318594000,1.385593994140625,-1.0976701974868774,1.0719317197799683,0.5065546035766602
1773149843328630000,1.395630126953125,-0.45188406109809875,1.0032899379730225,0.5478849411010742
1773149843338666000,1.405666015625,0.08222673833370209,0.4798183739185333,0.5562019944190979
1773149843348702000,1.415701904296875,0.3255433142185211,-0.07203549891710281,0.4791514575481415
1773149843358739000,1.425739013671875,0.18481256067752838,-0.2833229899406433,0.37932100892066956
1773149843368775000,1.43577490234375,-0.2146538645029068,-0.006540381349623203,0.19712473452091217
1773149843378811000,1.445810791015625,-0.6267055869102478,0.07154776155948639,-0.11353141814470291
1773149843388846800,1.455846923828125,-0.9494858384132385,-0.3003666400909424,-0.4631606936454773
1773149843398882800,1.4658828125,-1.0938717126846313,-0.5148728489875793,-0.5973483324050903
1773149843408918800,1.475918701171875,-1.199265480041504,-0.602851390838623,-0.5062780380249023
1773149843418954800,1.485954833984375,-1.3076462745666504,-0.6613684892654419,-0.2647775113582611
1773149843428992000,1.495991943359375,-1.397072196006775,-0.5920333862304688,0.04247445613145828
1773149843439028000,1.506028076171875,-1.2561613321304321,-0.5374026298522949,0.27513301372528076
1773149843449064000,1.51606396484375,-0.7564405202865601,-0.7069503664970398,0.3052918612957001
1773149843459100000,1.526099853515625,-0.06419680267572403,-0.8143159747123718,0.14865964651107788
1773149843469136000,1.536135986328125,0.44803914427757263,-0.535079836845398,-0.060180649161338806
1773149843479172000,1.546172119140625,0.6010774374008179,-0.16386795043945312,-0.22085075080394745
1773149843489208000,1.5562080078125,0.758492648601532,0.3829866051673889,-0.10445623099803925
1773149843499245000,1.5662451171875,0.8953479528427124,0.9510666131973267,0.11790306866168976
1773149843509281000,1.576281005859375,0.9781575798988342,1.5379267930984497,0.3376835584640503
1773149843519317000,1.58631689453125,0.9355068206787109,1.7326164245605469,0.415120005607605
1773149843529353000,1.59635302734375,0.6912381649017334,1.4051916599273682,0.32307252287864685
1773149843539389000,1.606388916015625,0.2680661380290985,0.8910235166549683,0.21506670117378235
1773149843549425000,1.6164248046875,-0.12076230347156525,0.7294894456863403,0.25648531317710876
1773149843559462000,1.6264619140625,-0.18839140236377716,1.013292670249939,0.3829074203968048
1773149843569497900,1.636497802734375,-0.07870301604270935,1.0336179733276367,0.34147563576698303
1773149843579533800,1.646533935546875,0.08019581437110901,0.7125831842422485,0.1791123002767563
1773149843589570000,1.656570068359375,0.26735398173332214,0.24893827736377716,0.0000947307562455535
1773149843599606000,1.66660595703125,0.42511484026908875,-0.1682690680027008,-0.10616699606180191
1773149843609642000,1.67664208984375,0.580612301826477,-0.38722485303878784,-0.09706519544124603
1773149843619678000,1.686677978515625,0.7825912237167358,-0.706398606300354,-0.06759119033813477
1773149843629715000,1.69671484375,0.9866604804992676,-1.240565538406372,-0.07652867585420609
1773149843639751000,1.7067509765625,1.1049014329910278,-1.6265150308609009,-0.09273427724838257
1773149843649787000,1.716786865234375,1.13340425491333,-2.106809377670288,-0.2232622355222702
1773149843659822800,1.72682275390625,0.8309324383735657,-2.6270453929901123,-0.4592801034450531
1773149843669858800,1.73685888671875,0.40205907821655273,-2.5442347526550293,-0.46343475580215454
1773149843679895000,1.74689501953125,0.7986745834350586,-1.5947147607803345,-0.2528599500656128
1773149843689931800,1.756931884765625,1.4950788021087646,-0.7208688855171204,-0.021864095702767372
1773149843699967700,1.7669677734375,1.7908462285995483,-0.3537207245826721,0.06538213044404984
1773149843710004000,1.77700390625,1.4205677509307861,-0.23090767860412598,-0.16719472408294678
1773149843720040000,1.7870400390625,0.6714087724685669,-0.09886975586414337,-0.7477684020996094
1773149843730076000,1.797075927734375,-0.18225973844528198,0.42781907320022583,-1.262354850769043
1773149843740112000,1.80711181640625,-1.4686906337738037,1.4230759143829346,-1.5114861726760864
1773149843750147800,1.81714794921875,-2.5500526428222656,2.242311716079712,-1.5140081644058228
1773149843760185000,1.82718505859375,-3.2211296558380127,2.8669326305389404,-1.3143762350082397
1773149843770221000,1.837220947265625,-3.505077362060547,3.3440394401550293,-0.9290406107902527
1773149843780257000,1.847257080078125,-3.838284730911255,3.9965150356292725,-0.5503343343734741
1773149843790293000,1.85729296875,-4.106496810913086,4.239822864532471,-0.33742648363113403
1773149843800329000,1.867328857421875,-4.107064247131348,4.244658470153809,-0.6405671238899231
1773149843810365000,1.877364990234375,-4.10200834274292,3.992631196975708,-1.3915395736694336
1773149843820402000,1.88740185546875,-4.566362380981445,2.0760393142700195,-1.6698697805404663
1773149843830438000,1.89743798828125,-4.891917705535889,-0.297966867685318,-1.6529306173324585
1773149843840473900,1.907473876953125,-4.78825044631958,-2.7548465728759766,-1.6432124376296997
1773149843850509800,1.917509765625,-4.250218868255615,-4.295948505401611,-1.481610655784607
1773149843860545800,1.9275458984375,-3.688319206237793,-4.975959777832031,-1.2298526763916016
1773149843870581800,1.937581787109375,-3.316638946533203,-5.0101704597473145,-1.0121235847473145
1773149843880618000,1.947617919921875,-3.0161890983581543,-4.491662502288818,-0.8600314855575562
1773149843890655000,1.957655029296875,-2.900151014328003,-3.441587448120117,-0.63973468542099
1773149843900691000,1.96769091796875,-2.935295581817627,-2.446472644805908,-0.4387986361980438
1773149843910727000,1.977726806640625,-2.8463563919067383,-1.7892202138900757,-0.2529473602771759
1773149843920763100,1.98776318359375,-2.5780115127563477,-1.4866209030151367,0.06128886342048645
1773149843930799000,1.997799072265625,-2.335909843444824,-1.4122754335403442,0.47308582067489624
1773149843940835000,2.0078349609375,-2.1757614612579346,-1.5275826454162598,0.839806318283081
1773149843950872000,2.0178720703125,-1.8317499160766602,-1.7048975229263306,1.159165382385254
1773149843960908000,2.027907958984375,-1.333581566810608,-1.6872694492340088,1.446828842163086
1773149843970944000,2.037944091796875,-0.8069385886192322,-1.404888391494751,1.5533384084701538
1773149843980980000,2.04797998046875,-0.2699355483055115,-0.7952799797058105,1.4949156045913696
1773149843991016000,2.058015869140625,0.29570338129997253,0.09872052818536758,1.325861930847168
1773149844001052000,2.068052001953125,0.8135771751403809,1.1190531253814697,1.060318946838379
1773149844011088000,2.078087890625,1.1338804960250854,2.1287448406219482,0.7638152241706848
1773149844021124900,2.088124755859375,1.0269417762756348,2.863949775695801,0.41437360644340515
1773149844031160800,2.098160888671875,0.43649134039878845,3.2658886909484863,0.1507466584444046
1773149844041196800,2.10819677734375,-0.31600478291511536,3.3721463680267334,-0.04071624577045441
1773149844051232800,2.118232666015625,-0.9562686681747437,3.106461524963379,-0.1994638592004776
1773149844061269000,2.12826904296875,-1.3491604328155518,2.5429787635803223,-0.2888059616088867
1773149844071305000,2.138304931640625,-1.3595772981643677,1.7919856309890747,-0.3954771161079407
1773149844081342000,2.148342041015625,-1.041172981262207,0.9627437591552734,-0.5686976313591003
1773149844091378000,2.1583779296875,-0.44231003522872925,0.23126503825187683,-0.7537140250205994
1773149844101414000,2.168413818359375,0.2746789753437042,-0.24921101331710815,-0.8276407122612
1773149844111449900,2.178449951171875,0.8485273718833923,-0.4059569835662842,-0.7548855543136597
1773149844121485800,2.18848583984375,1.1813794374465942,-0.28511473536491394,-0.6093446016311646
1773149844131522000,2.19852197265625,1.2562352418899536,0.06360731273889542,-0.4426852762699127
1773149844141558800,2.208558837890625,1.1135296821594238,0.5336925387382507,-0.2623820900917053
1773149844151594800,2.2185947265625,0.8494051694869995,0.9818497896194458,-0.12809160351753235
1773149844161631000,2.228630859375,0.5014040470123291,1.287035584449768,-0.07864468544721603
1773149844171667000,2.2386669921875,0.22279421985149384,1.3795924186706543,-0.12943224608898163
1773149844181703000,2.248702880859375,0.13772965967655182,1.2556172609329224,-0.26619619131088257
1773149844191739000,2.25873876953125,0.12132403999567032,0.8293824791908264,-0.42125093936920166
1773149844201774800,2.26877490234375,0.0764567032456398,0.3795975148677826,-0.47761088609695435
1773149844211808500,2.27880859375,0.008939223363995552,0.034716539084911346,-0.4054630398750305
1773149844221844500,2.288844482421875,-0.053987011313438416,-0.20115405321121216,-0.2466190606355667
1773149844231880400,2.29888037109375,-0.07244612276554108,-0.34950441122055054,-0.10472320765256882
1773149844241916400,2.30891650390625,-0.07418463379144669,-0.4266388714313507,-0.045556552708148956
1773149844251952400,2.318952392578125,-0.08218961954116821,-0.42347925901412964,-0.05964769423007965
1773149844261988400,2.32898828125,-0.08896683156490326,-0.3745844066143036,-0.1104365736246109
1773149844272025300,2.339025390625,-0.07557597011327744,-0.3166015148162842,-0.14908945560455322
1773149844282061300,2.349061279296875,-0.05242937058210373,-0.27032774686813354,-0.1816284954547882
1773149844292097300,2.35909716796875,-0.021220553666353226,-0.22088433802127838,-0.20851105451583862
1773149844302133200,2.36913330078125,0.004476021975278854,-0.14939551055431366,-0.2474917471408844
1773149844312169500,2.37916943359375,0.024512052536010742,-0.06879307329654694,-0.29661157727241516
1773149844322205400,2.389205322265625,0.041391968727111816,0.0022158522624522448,-0.3468438386917114
1773149844332241400,2.399241455078125,0.05063283443450928,0.0480070598423481,-0.39268985390663147
1773149844342278400,2.4092783203125,0.06396674364805222,0.06089356541633606,-0.4302140772342682
1773149844352314400,2.419314453125,0.07903359085321426,0.044721513986587524,-0.44962701201438904
1773149844362350300,2.429350341796875,0.08751282840967178,0.008066830225288868,-0.4502193033695221
1773149844372386600,2.439386474609375,0.10088881105184555,-0.03949562460184097,-0.4409103989601135
1773149844382422500,2.449422607421875,0.10541032999753952,-0.09616103023290634,-0.42878395318984985
1773149844392458500,2.45945849609375,0.10719306766986847,-0.14406917989253998,-0.4341476261615753
1773149844402495500,2.46949560546875,0.1011522188782692,-0.18529890477657318,-0.4518267512321472
1773149844412531500,2.479531494140625,0.1041380986571312,-0.21187588572502136,-0.4752585291862488
1773149844422567400,2.4895673828125,0.10497459769248962,-0.2196480631828308,-0.5020105242729187
1773149844432603400,2.499603271484375,0.073112852871418,-0.1858709454536438,-0.5334272980690002
1773149844442639400,2.509639404296875,0.018232028931379318,-0.14321961998939514,-0.5613644123077393
1773149844452675300,2.51967529296875,-0.005601381883025169,-0.13204608857631683,-0.5719648599624634
1773149844462712600,2.529712646484375,-0.005963838193565607,-0.14075487852096558,-0.5492392778396606
1773149844472748500,2.53974853515625,-0.0010497784242033958,-0.1691146045923233,-0.48466384410858154
1773149844482784500,2.549784423828125,0.0032277898862957954,-0.21494947373867035,-0.3817462623119354
1773149844492820500,2.559820556640625,-0.0001320159062743187,-0.2531919479370117,-0.2732320725917816
1773149844502856400,2.5698564453125,-0.014080055989325047,-0.28289657831192017,-0.1787833422422409
1773149844512892400,2.579892333984375,-0.03361492231488228,-0.28740957379341125,-0.10377533733844757
1773149844522928400,2.589928466796875,-0.04185527563095093,-0.27247801423072815,-0.04834537208080292
1773149844532965400,2.59996533203125,-0.03829594701528549,-0.2503165304660797,-0.00080778484698385
1773149844543001300,2.61000146484375,-0.021822165697813034,-0.21961401402950287,0.04039424657821655
1773149844553037300,2.620037353515625,0.0008216546848416328,-0.1788940131664276,0.056434985250234604
1773149844563073300,2.6300732421875,0.028051676228642464,-0.11974601447582245,0.046032410115003586
1773149844573109500,2.640109619140625,0.04813103377819061,-0.04478677362203598,0.011200705543160439
1773149844583145500,2.6501455078125,0.07035137712955475,0.022233540192246437,-0.033647991716861725
1773149844593182200,2.66018212890625,0.06709067523479462,0.09207463264465332,-0.08730237931013107
1773149844603218400,2.670218505859375,0.0537375882267952,0.1532951146364212,-0.14591242372989655
1773149844613254700,2.680254638671875,0.04766155034303665,0.20251700282096863,-0.19512954354286194
1773149844623290600,2.69029052734375,0.05940182879567146,0.2480999380350113,-0.2220437079668045
1773149844633326600,2.70032666015625,0.09404958784580231,0.2640799582004547,-0.22048500180244446
1773149844643362600,2.710362548828125,0.13969378173351288,0.25183820724487305,-0.19680416584014893
1773149844653398500,2.7203984375,0.15226119756698608,0.21402958035469055,-0.1772051304578781
1773149844663435500,2.730435546875,0.12107343971729279,0.1457517296075821,-0.16976505517959595
1773149844673471500,2.740471435546875,0.06741317361593246,0.047602783888578415,-0.1607113629579544
1773149844683507500,2.750507568359375,0.02433840185403824,-0.08918622136116028,-0.1539304256439209
1773149844693543400,2.76054345703125,0.0008482448756694794,-0.2238556146621704,-0.14432242512702942
1773149844703579400,2.770579345703125,0.011934452690184116,-0.3241470754146576,-0.14041371643543243
1773149844713615400,2.780615478515625,0.02301851473748684,-0.3902568221092224,-0.1390746384859085
1773149844723652400,2.79065234375,0.02139958180487156,-0.4351915419101715,-0.1525009721517563
1773149844733688300,2.800688232421875,0.005041924305260181,-0.4518946409225464,-0.18579450249671936
1773149844743724300,2.810724365234375,-0.018738240003585815,-0.45724600553512573,-0.22624899446964264
1773149844753760300,2.82076025390625,-0.02439076080918312,-0.47452273964881897,-0.2550191581249237
1773149844763796200,2.830796142578125,-0.014083796180784702,-0.4964815676212311,-0.270349383354187
1773149844773832400,2.84083251953125,-0.008705276064574718,-0.5452714562416077,-0.28420552611351013
1773149844783869400,2.850869384765625,-0.01699782721698284,-0.6096331477165222,-0.3036213219165802
1773149844793905400,2.860905517578125,-0.02012227289378643,-0.671673595905304,-0.3241729736328125
1773149844803941400,2.87094140625,-0.023952163755893707,-0.7010874152183533,-0.34345853328704834
1773149844813977600,2.8809775390625,-0.019853821024298668,-0.6959978938102722,-0.3539653718471527
1773149844824013600,2.891013671875,-0.01654750667512417,-0.6646548509597778,-0.3667919635772705
1773149844834049500,2.901049560546875,-0.025123946368694305,-0.6275610327720642,-0.36340242624282837
1773149844844086500,2.91108642578125,-0.01582338847219944,-0.6108320951461792,-0.33948805928230286
1773149844854122500,2.92112255859375,-0.005543299950659275,-0.605015754699707,-0.28423818945884705
1773149844864158500,2.931158447265625,-0.01191970705986023,-0.6030966639518738,-0.19391973316669464
1773149844874194400,2.9411943359375,-0.031685203313827515,-0.6004495024681091,-0.09131525456905365
1773149844884230400,2.95123046875,-0.016224488615989685,-0.6351377367973328,-0.0017004170222207904
1773149844894266400,2.961266357421875,0.016490351408720016,-0.668971836566925,0.04365929588675499
1773149844904302300,2.97130224609375,0.053977277129888535,-0.6773536205291748,0.06271182000637054
1773149844914339600,2.981339599609375,0.08677618205547333,-0.6492891907691956,0.07435465604066849
1773149844924375600,2.99137548828125,0.13207069039344788,-0.610176682472229,0.11015632748603821
1773149844934411500,3.00141162109375,0.1824851632118225,-0.6197898983955383,0.1815485805273056
1773149844944447500,3.011447509765625,0.19582973420619965,-0.673525333404541,0.26214754581451416
1773149844954483500,3.0214833984375,0.18140177428722382,-0.7428277134895325,0.31143128871917725
1773149844964519400,3.03151953125,0.19715356826782227,-0.7550313472747803,0.29252496361732483
1773149844974556400,3.041556396484375,0.2396722435951233,-0.6738768815994263,0.1954915076494217
1773149844984592400,3.05159228515625,0.2881593704223633,-0.4728212058544159,0.05418418347835541
1773149844994628400,3.06162841796875,0.3270098567008972,-0.2043871134519577,-0.09481383115053177
1773149845004664300,3.071664306640625,0.4321219027042389,0.003310152795165777,-0.1812259554862976
1773149845014700300,3.0817001953125,0.540947675704956,0.1346745640039444,-0.17451487481594086
1773149845024736500,3.091736572265625,0.5713801383972168,0.23634445667266846,-0.08529790490865707
1773149845034773200,3.101773193359375,0.5272665023803711,0.30460211634635925,0.0646078884601593
1773149845044809200,3.111809326171875,0.4680614471435547,0.2712644040584564,0.2209567427635193
1773149845054845400,3.121845458984375,0.42335420846939087,0.1599932461977005,0.3376706838607788
1773149845064881400,3.13188134765625,0.3801470696926117,0.039150990545749664,0.4011910855770111
1773149845074917400,3.14191748046875,0.329279363155365,-0.07745311409235,0.4151224195957184
1773149845084953600,3.15195361328125,0.27010178565979004,-0.21986298263072968,0.42735618352890015
1773149845094990600,3.161990478515625,0.21501804888248444,-0.3829493820667267,0.4490227997303009
1773149845105026600,3.172026611328125,0.16769474744796753,-0.5255818963050842,0.46834030747413635
1773149845115062500,3.1820625,0.13065870106220245,-0.67009037733078,0.47023463249206543
1773149845125098500,3.192098388671875,0.07230004668235779,-0.8315772414207458,0.4391312897205353
1773149845135134500,3.202134521484375,0.04793873056769371,-0.9498439431190491,0.3576529920101166
1773149845145170400,3.21217041015625,0.04530619457364082,-0.9721766710281372,0.23063671588897705
1773149845155207400,3.22220751953125,0.002511141821742058,-0.9023411870002747,0.09612181037664413
1773149845165243400,3.232243408203125,-0.0020985230803489685,-0.7771041989326477,-0.0037163710221648216
1773149845175279400,3.242279296875,0.01869805157184601,-0.661068856716156,-0.04785412177443504
1773149845185315300,3.2523154296875,0.03532017022371292,-0.5545858144760132,-0.05817466974258423
1773149845195351300,3.262351318359375,0.046593066304922104,-0.4429780840873718,-0.08223100006580353
1773149845205386500,3.272386474609375,0.07056551426649094,-0.3230660855770111,-0.137764573097229
1773149845215423200,3.28242333984375,0.08164960145950317,-0.18858656287193298,-0.22331206500530243
1773149845225459500,3.29245947265625,0.0734766274690628,-0.05534728616476059,-0.3009487986564636
1773149845235495400,3.302495361328125,0.03322397172451019,0.059239234775304794,-0.3494700491428375
1773149845245531400,3.312531494140625,-0.021772433072328568,0.1435661017894745,-0.3749977648258209
1773149845255567600,3.322567626953125,-0.06376834958791733,0.18928565084934235,-0.3977034091949463
1773149845265603600,3.332603515625,-0.09994472563266754,0.1979643553495407,-0.4042995274066925
1773149845275640600,3.342640625,-0.1396859735250473,0.17878477275371552,-0.37849149107933044
1773149845285676500,3.352676513671875,-0.18401668965816498,0.15271295607089996,-0.30353203415870667
1773149845295712500,3.36271240234375,-0.21724016964435577,0.10909625142812729,-0.20918381214141846
1773149845305748500,3.37274853515625,-0.2269793450832367,0.04491247236728668,-0.13958048820495605
1773149845315784400,3.382784423828125,-0.22700516879558563,-0.022696930915117264,-0.09725639969110489
1773149845325820400,3.3928203125,-0.22569648921489716,-0.06774590164422989,-0.08227558434009552
1773149845335857400,3.402857421875,-0.16288772225379944,-0.05845172330737114,-0.09882321953773499
1773149845345893400,3.412893310546875,-0.134919211268425,-0.030123412609100342,-0.11722033470869064
1773149845355929300,3.422929443359375,-0.25532495975494385,0.07628104835748672,-0.09903641045093536
1773149845365965300,3.43296533203125,-0.43537434935569763,0.23011960089206696,-0.12812212109565735
1773149845376001300,3.443001220703125,-0.4583912491798401,0.3233345150947571,-0.21836106479167938
1773149845386037200,3.453037353515625,-0.39201435446739197,0.4093674123287201,-0.28429827094078064
1773149845396074500,3.463074462890625,-0.2668505907058716,0.4197273552417755,-0.3076953887939453
1773149845406110500,3.4731103515625,-0.08397212624549866,0.3700663447380066,-0.2615707516670227
1773149845416146400,3.483146484375,0.04461431875824928,0.3603908121585846,-0.1433044821023941
1773149845426182400,3.493182373046875,0.08293721079826355,0.40433642268180847,-0.014678072184324265
1773149845436218600,3.503218505859375,0.08139629662036896,0.44387906789779663,0.006449731066823006
1773149845446254600,3.513254638671875,0.0491427518427372,0.4468250572681427,-0.1015651524066925
1773149845456291300,3.523291259765625,-0.029257219284772873,0.37477266788482666,-0.2641218602657318
1773149845466327600,3.53332763671875,-0.14514920115470886,0.21499419212341309,-0.33907440304756165
1773149845476363500,3.543363525390625,-0.27903246879577637,0.07698788493871689,-0.3035925626754761
1773149845486399500,3.5533994140625,-0.4100877046585083,0.09235779196023941,-0.2066044956445694
1773149845496435500,3.563435546875,-0.5466161966323853,0.2089533507823944,-0.14387142658233643
1773149845506471400,3.573471435546875,-0.6242148280143738,0.23949101567268372,-0.12434059381484985
1773149845516508400,3.58350830078125,-0.7250736355781555,0.0484534315764904,-0.16786567866802216
1773149845526544400,3.59354443359375,-1.0613962411880493,-0.4597613513469696,-0.2920108139514923
1773149845536580400,3.603580322265625,-1.351839303970337,-0.8971306681632996,-0.2740606963634491
1773149845546616300,3.6136162109375,-1.1324414014816284,-0.9812378287315369,-0.07114966213703156
1773149845556652500,3.623652587890625,-0.7471597194671631,-1.252322793006897,-0.029743945226073265
1773149845566688500,3.6336884765625,-0.5324260592460632,-1.9998236894607544,-0.23835255205631256
1773149845576725500,3.6437255859375,-0.8220371603965759,-3.6934289932250977,-0.7653393149375916
1773149845586761500,3.653761474609375,-1.2351232767105103,-4.983691692352295,-0.8908935189247131
1773149845596797400,3.66379736328125,-1.0899487733840942,-4.471832752227783,-0.12660932540893555
1773149845606833400,3.67383349609375,-0.962719202041626,-3.401200771331787,0.7043887972831726
1773149845616869400,3.683869384765625,-0.9808659553527832,-2.9350907802581787,1.0384975671768188
1773149845626906400,3.69390625,-0.9412604570388794,-1.9581984281539917,1.3083086013793945
1773149845636942300,3.7039423828125,-0.741925835609436,-0.5163361430168152,1.578558325767517
1773149845646978300,3.713978271484375,-0.5938125252723694,0.7422884106636047,1.6933605670928955
1773149845657014300,3.72401416015625,-0.17704270780086517,2.241349458694458,1.8918036222457886
1773149845667050200,3.73405029296875,0.5192790627479553,2.870373487472534,1.545074462890625
1773149845677086500,3.74408642578125,0.7970371842384338,2.5526087284088135,0.4261549711227417
1773149845687123500,3.75412353515625,0.3200879693031311,1.6373523473739624,-0.777718722820282
1773149845697159400,3.764159423828125,-0.14919035136699677,0.9457022547721863,-1.1428990364074707
1773149845707195600,3.774195556640625,-0.2296668142080307,1.0571938753128052,-0.6996592879295349
1773149845717231600,3.784231689453125,-0.06629861146211624,0.8835230469703674,-0.20387405157089233
1773149845727267600,3.794267578125,0.14770768582820892,0.6213734149932861,0.18370909988880157
1773149845737303600,3.804303466796875,0.3114585280418396,0.4035090208053589,0.343111515045166
1773149845747340500,3.814340576171875,0.28744930028915405,0.13076747953891754,0.23639360070228577
1773149845757376500,3.82437646484375,0.1328224390745163,-0.006579439155757427,-0.00846448540687561
1773149845767412500,3.83441259765625,0.07935895025730133,-0.20061255991458893,-0.25795021653175354
1773149845777448400,3.844448486328125,0.06887514889240265,-0.4590081572532654,-0.3330317437648773
1773149845787484400,3.854484375,0.059295762330293655,-0.7783872485160828,-0.23120415210723877
1773149845797520400,3.864520263671875,0.14205989241600037,-1.113701343536377,-0.05705061927437782
1773149845807557400,3.874557373046875,0.3279956877231598,-1.363989233970642,0.12898103892803192
1773149845817593300,3.88459326171875,0.41185784339904785,-1.2814199924468994,0.3712499439716339
1773149845827629300,3.89462939453125,0.2205432653427124,-0.8090697526931763,0.5524247884750366
1773149845837665300,3.904665283203125,-0.17071214318275452,-0.4101484715938568,0.5130056738853455
1773149845847701500,3.914701416015625,-0.40978729724884033,-0.19115594029426575,0.37700948119163513
1773149845857738500,3.924738525390625,-0.4089851975440979,-0.07938277721405029,0.26260653138160706
1773149845867774500,3.9347744140625,-0.34431886672973633,-0.018054978922009468,0.14922243356704712
1773149845877810400,3.944810546875,-0.2834828794002533,-0.04165913537144661,0.022788552567362785
1773149845887846400,3.954846435546875,-0.23139305412769318,-0.14505529403686523,-0.06976481527090073
1773149845897882400,3.96488232421875,-0.16516953706741333,-0.10947175323963165,-0.050426408648490906
1773149845907919400,3.97491943359375,-0.07942427694797516,0.22436480224132538,0.07174210995435715
1773149845917955300,3.984955322265625,-0.01697290688753128,0.7300634384155273,0.16499610245227814
1773149845927990500,3.994990478515625,-0.03142481669783592,1.3643767833709717,0.08123409003019333
1773149845938027300,4.00502734375,-0.05243293568491936,1.9338929653167725,-0.13081686198711395
1773149845948063500,4.0150634765625,-0.007961073890328407,2.294623851776123,-0.3242052495479584
1773149845958099500,4.025099365234375,0.07687714695930481,2.3625566959381104,-0.46263763308525085
1773149845968135400,4.035135498046875,0.1755099892616272,2.2194528579711914,-0.5205046534538269
1773149845978171400,4.04517138671875,0.31263214349746704,1.9352763891220093,-0.507975697517395
1773149845988207400,4.055207275390625,0.5149818062782288,1.5542417764663696,-0.4807637929916382
1773149845998244600,4.06524462890625,0.7070119380950928,1.1872544288635254,-0.4853196442127228
1773149846008280600,4.075280517578125,0.7651810050010681,1.0644831657409668,-0.49794676899909973
1773149846018316500,4.085316650390625,0.7344907522201538,1.3155522346496582,-0.4945104718208313
1773149846028352500,4.0953525390625,0.62837815284729,1.6222530603408813,-0.4504258334636688
1773149846038388500,4.105388427734375,0.4442666172981262,1.725242257118225,-0.40838000178337097
1773149846048425500,4.115425537109375,0.31664395332336426,1.5630437135696411,-0.3822098970413208
1773149846058461400,4.12546142578125,0.19106125831604004,1.2204493284225464,-0.29646486043930054
1773149846068497400,4.135497314453125,-0.008913377299904823,0.7934423685073853,-0.10540731251239777
1773149846078533400,4.145533447265625,-0.11030317842960358,0.3581700921058655,0.11262229830026627
1773149846088569300,4.1555693359375,-0.06916133314371109,0.0021581673063337803,0.26183149218559265
1773149846098605300,4.165605224609375,-0.045755378901958466,-0.1809876561164856,0.3261936902999878
1773149846108642300,4.175642333984375,-0.05176134034991264,-0.237911656498909,0.35324206948280334
1773149846118678300,4.18567822265625,-0.07351639121770859,-0.22885721921920776,0.36355695128440857
1773149846128714200,4.19571435546875,-0.11236045509576797,-0.204631507396698,0.35940372943878174
1773149846138750200,4.205750244140625,-0.16095197200775146,-0.1913825422525406,0.3277778625488281
1773149846148786400,4.215786376953125,-0.19995689392089844,-0.19864018261432648,0.2649690806865692
1773149846158823400,4.225823486328125,-0.21387715637683868,-0.21125537157058716,0.1733458936214447
1773149846168859400,4.235859375,-0.20625998079776764,-0.20874960720539093,0.08135072886943817
1773149846178895400,4.245895263671875,-0.1653970628976822,-0.14295348525047302,0.011916193179786205
1773149846188931600,4.255931640625,-0.11649103462696075,0.009278926998376846,-0.02538563869893551
1773149846198967600,4.265967529296875,-0.07905067503452301,0.23297271132469177,-0.034646522253751755
1773149846209003800,4.276003662109375,-0.05300549417734146,0.48911258578300476,-0.05189954489469528
1773149846219040500,4.28604052734375,0.011876017786562443,0.7225554585456848,-0.09113343805074692
1773149846229076700,4.29607666015625,0.09431976079940796,0.9022543430328369,-0.14267946779727936
1773149846239112700,4.30611279296875,0.1605328768491745,1.0305143594741821,-0.1669185906648636
1773149846249149400,4.3161494140625,0.19817931950092316,1.1211278438568115,-0.1387982815504074
1773149846259185700,4.326185546875,0.213711678981781,1.176383137702942,-0.07026717811822891
1773149846269222400,4.336222412109375,0.19275608658790588,1.1911122798919678,0.03006821684539318
1773149846279258400,4.34625830078125,0.1329028457403183,1.1689563989639282,0.14385952055454254
1773149846289294600,4.356294677734375,0.07116997241973877,1.100754976272583,0.25393328070640564
1773149846299330800,4.366330810546875,0.01258923765271902,1.0015498399734497,0.3562079071998596
1773149846309366800,4.37636669921875,-0.05068507418036461,0.8861390352249146,0.42955827713012695
1773149846319403800,4.38640380859375,-0.11249066144227982,0.7472248077392578,0.47381165623664856
1773149846329439700,4.396439697265625,-0.1619143933057785,0.5916698575019836,0.4799997806549072
1773149846339475700,4.406475830078125,-0.18037867546081543,0.4142937660217285,0.4549235701560974
1773149846349511700,4.41651171875,-0.14465902745723724,0.20941947400569916,0.4007868468761444
1773149846359547600,4.426547607421875,-0.07214990258216858,0.016420701518654823,0.32698607444763184
1773149846369584600,4.436584716796875,-0.03713332861661911,-0.08528648316860199,0.24301448464393616
1773149846379620600,4.44662060546875,-0.028928400948643684,-0.05079561471939087,0.16178102791309357
1773149846389656600,4.456656494140625,-0.06300221383571625,0.13159842789173126,0.10167934745550156
1773149846399692500,4.466692626953125,-0.016824893653392792,0.3804468810558319,0.07638093829154968
1773149846409728500,4.476728515625,0.08458535373210907,0.6215199828147888,0.06931477040052414
1773149846419764500,4.486764404296875,0.15480303764343262,0.8101516366004944,0.05307096987962723
1773149846429801700,4.4968017578125,0.19684156775474548,0.9198256731033325,0.02300361357629299
1773149846439837700,4.506837646484375,0.23731520771980286,0.956687867641449,-0.02050815522670746
1773149846449873700,4.516873779296875,0.2680422365665436,0.9257965087890625,-0.04447926580905914
1773149846459909600,4.52690966796875,0.2757273316383362,0.8577184081077576,-0.04907267540693283
1773149846469945600,4.536945556640625,0.2469388246536255,0.7989003658294678,-0.013858231715857983
1773149846479982600,4.546982666015625,0.17671476304531097,0.773738443851471,0.05000991374254227
1773149846490018600,4.5570185546875,0.07672398537397385,0.7680800557136536,0.12151072919368744
1773149846500054500,4.567054443359375,-0.0069014281034469604,0.7435217499732971,0.19041790068149567
1773149846510090500,4.577090576171875,-0.08232560753822327,0.684042751789093,0.2505955100059509
1773149846520126500,4.58712646484375,-0.1418837308883667,0.613662838935852,0.30895453691482544
1773149846530163500,4.59716357421875,-0.18267056345939636,0.5464499592781067,0.3650819957256317
1773149846540199400,4.607199462890625,-0.21195469796657562,0.5004286766052246,0.40360593795776367
1773149846550235400,4.6172353515625,-0.2283954620361328,0.4745163917541504,0.42420443892478943
1773149846560271600,4.627271728515625,-0.22417406737804413,0.46782970428466797,0.4304196536540985
1773149846570307600,4.6373076171875,-0.1704663634300232,0.5186649560928345,0.4131692945957184
1773149846580344600,4.647344482421875,-0.09895225614309311,0.594021737575531,0.3854590356349945
1773149846590380500,4.657380615234375,-0.058855440467596054,0.6624085307121277,0.34174832701683044
1773149846600416800,4.667416748046875,-0.04056829959154129,0.7045623660087585,0.2826766073703766
1773149846610452700,4.67745263671875,-0.024359237402677536,0.7163721919059753,0.21816153824329376
1773149846620488700,4.68748876953125,-0.015927698463201523,0.7071530818939209,0.1634443998336792
1773149846630524700,4.697524658203125,0.0011460930109024048,0.6706446409225464,0.12103703618049622
1773149846640561700,4.707561767578125,0.036303259432315826,0.624955415725708,0.08009358495473862
1773149846650597600,4.71759765625,0.06606728583574295,0.5881007313728333,0.03132258355617523
1773149846660633600,4.727633544921875,0.07163120061159134,0.5506101250648499,-0.01239006221294403
1773149846670669600,4.737669677734375,0.07019095867872238,0.49410900473594666,-0.04053807631134987
1773149846680705500,4.74770556640625,0.06979495286941528,0.39834359288215637,-0.0511527843773365
1773149846690742500,4.757742431640625,0.05715133249759674,0.2890099287033081,-0.03856242448091507
1773149846700778500,4.767778564453125,0.03873793035745621,0.1860063225030899,-0.015229620039463043
1773149846710814700,4.777814697265625,0.016699736937880516,0.10205736011266708,0.005833054427057505
1773149846720850700,4.7878505859375,0.011131874285638332,0.0399140939116478,0.013026827946305275
1773149846730886700,4.79788671875,0.006024996750056744,0.00441522104665637,0.013365048915147781
1773149846740923600,4.807923583984375,0.019800204783678055,-0.011109946295619011,-0.00649509159848094
1773149846750959600,4.817959716796875,0.02974551171064377,-0.03325413167476654,-0.03796353563666344
1773149846760995600,4.82799560546875,0.030099451541900635,-0.06589650362730026,-0.07267273962497711
1773149846771031600,4.838031494140625,0.03247712180018425,-0.10462019592523575,-0.10865630209445953
1773149846781067500,4.848067626953125,0.030354846268892288,-0.13827243447303772,-0.1364843249320984
1773149846791104500,4.8581044921875,0.026482079178094864,-0.16995686292648315,-0.15482579171657562
1773149846801140500,4.868140380859375,0.020291294902563095,-0.19741831719875336,-0.15538272261619568
1773149846811176400,4.878176513671875,0.006335798650979996,-0.22287307679653168,-0.1376066654920578
1773149846821212400,4.88821240234375,-0.00019588042050600052,-0.24322199821472168,-0.10823701322078705
1773149846831248600,4.89824853515625,-0.008210663683712482,-0.255068302154541,-0.07484390586614609
1773149846841284600,4.90828466796875,-0.015497047454118729,-0.26200956106185913,-0.04828334599733353
1773149846851321600,4.918321533203125,-0.024394668638706207,-0.2713548541069031,-0.023352166637778282
1773149846861357600,4.928357666015625,-0.021972738206386566,-0.2932932376861572,0.0029673567041754723
1773149846871393800,4.938393798828125,-0.010409291833639145,-0.3392186462879181,0.026300109922885895
1773149846881429800,4.9484296875,0.010216041468083858,-0.3851141631603241,0.044751714915037155
1773149846891465700,4.9584658203125,0.028979875147342682,-0.41856348514556885,0.04159080609679222
1773149846901502700,4.968502685546875,0.05005960166454315,-0.4300137460231781,0.023317184299230576
1773149846911538700,4.97853857421875,0.06911824643611908,-0.41026613116264343,-0.0022835154086351395
1773149846921574700,4.98857470703125,0.08395682275295258,-0.3800128996372223,-0.025725658982992172
1773149846931610600,4.998610595703125,0.10012514144182205,-0.33870992064476013,-0.04527059942483902
1773149846941646600,5.008646484375,0.11179885268211365,-0.3122144043445587,-0.05979182571172714
1773149846951683600,5.01868359375,0.12447789311408997,-0.2866661548614502,-0.07381843030452728
1773149846961719600,5.028719482421875,0.13255472481250763,-0.2526956796646118,-0.0913367047905922
1773149846971755500,5.038755615234375,0.14562179148197174,-0.21511422097682953,-0.10205485671758652
1773149846981791500,5.04879150390625,0.15666083991527557,-0.17166019976139069,-0.10421370714902878
1773149846991827500,5.058827392578125,0.16152963042259216,-0.13781435787677765,-0.09489024430513382
1773149847001864700,5.06886474609375,0.15291725099086761,-0.11017182469367981,-0.0799209475517273
1773149847011900700,5.078900634765625,0.12757781147956848,-0.09515053033828735,-0.058678772300481796
1773149847021936600,5.0889365234375,0.09786786884069443,-0.08932461589574814,-0.031093591824173927
1773149847031972600,5.09897265625,0.06803886592388153,-0.09845499694347382,-0.0018470234936103225
1773149847042008600,5.109008544921875,0.03343351185321808,-0.11906468868255615,0.021746434271335602
1773149847052045600,5.119045654296875,0.003569353371858597,-0.1322595775127411,0.03146350756287575
1773149847062081500,5.12908154296875,-0.018546968698501587,-0.12372273951768875,0.04228565841913223
1773149847072117500,5.139117431640625,-0.03590225800871849,-0.10177136212587357,0.055544473230838776
1773149847082153500,5.149153564453125,-0.04259924963116646,-0.07944107055664062,0.0657375305891037
1773149847092189400,5.159189453125,-0.045889053493738174,-0.06654365360736847,0.06865528970956802
1773149847102226400,5.169226318359375,-0.04944813624024391,-0.05996907502412796,0.056691087782382965
1773149847112262400,5.179262451171875,-0.04355669394135475,-0.07623699307441711,0.03180624544620514
1773149847122298600,5.189298583984375,-0.041344400495290756,-0.1135454922914505,-0.0005113615188747644
1773149847132334600,5.19933447265625,-0.04313084855675697,-0.15967676043510437,-0.030818665400147438
1773149847142370800,5.209370849609375,-0.04957570135593414,-0.2143903374671936,-0.060463305562734604
1773149847152407600,5.219407470703125,-0.05339334160089493,-0.2627570629119873,-0.0830751433968544
1773149847162443500,5.229443603515625,-0.061474673449993134,-0.3050835132598877,-0.09365098923444748
1773149847172479700,5.239479736328125,-0.07695642113685608,-0.3336501717567444,-0.09709925204515457
1773149847182515700,5.249515625,-0.08328549563884735,-0.3663633167743683,-0.09976750612258911
1773149847192551700,5.2595517578125,-0.0902230367064476,-0.40380844473838806,-0.10572047531604767
1773149847202587600,5.269587646484375,-0.08274907618761063,-0.4300163984298706,-0.1115994080901146
1773149847212624600,5.279624755859375,-0.06357138603925705,-0.45349055528640747,-0.12209439277648926
1773149847222660600,5.28966064453125,-0.04654792696237564,-0.4527784287929535,-0.12785480916500092
1773149847232696600,5.299696533203125,-0.01946411095559597,-0.42397502064704895,-0.14365588128566742
1773149847242732500,5.309732666015625,0.0015647131949663162,-0.36471301317214966,-0.16230863332748413
1773149847252768500,5.3197685546875,0.021008986979722977,-0.2682093679904938,-0.1926737278699875
1773149847262805500,5.329805419921875,0.037106987088918686,-0.15559279918670654,-0.20585303008556366
1773149847272841500,5.339841552734375,0.050516001880168915,-0.03534415364265442,-0.20134802162647247
1773149847282877400,5.34987744140625,0.053083863109350204,0.07542654126882553,-0.16064453125
1773149847292913400,5.359913330078125,0.045128464698791504,0.1652911752462387,-0.09444499760866165
1773149847302949400,5.369949462890625,0.040266603231430054,0.2038915604352951,-0.01953308656811714
1773149847312986400,5.379986328125,0.044070128351449966,0.20710226893424988,0.04344268515706062
1773149847323022300,5.390022216796875,0.044383563101291656,0.17170648276805878,0.08728191256523132
1773149847333058300,5.400058349609375,0.041969407349824905,0.12518319487571716,0.11651330441236496
1773149847343094300,5.41009423828125,0.0407867357134819,0.08304741978645325,0.12786029279232025
1773149847353130200,5.420130126953125,0.0404631644487381,0.05262986198067665,0.12975965440273285
1773149847363167500,5.43016748046875,0.040568336844444275,0.026869121938943863,0.12303026020526886
1773149847373203500,5.440203369140625,0.032516803592443466,0.011886178515851498,0.1140572726726532
1773149847383239400,5.450239501953125,0.028524987399578094,0.01061958260834217,0.10698113590478897
1773149847393275400,5.460275390625,0.01610133983194828,0.01253918930888176,0.10204576700925827
1773149847403311600,5.4703115234375,0.003989788703620434,0.018900703638792038,0.0893847793340683
1773149847413348400,5.480348388671875,0.04313133284449577,0.06373901665210724,0.06894847750663757
1773149847423384300,5.49038427734375,0.07993918657302856,0.10677246749401093,0.04435912147164345
1773149847433420500,5.500420654296875,0.07349007576704025,0.16267569363117218,0.02854633331298828
1773149847443456500,5.51045654296875,0.0492963045835495,0.2231784611940384,0.026667464524507523
1773149847453492500,5.520492431640625,-0.003611914813518524,0.2565084397792816,0.04138089716434479
1773149847463529500,5.530529541015625,-0.01976533979177475,0.2693643569946289,0.04972711578011513
1773149847473565400,5.5405654296875,-0.0031293723732233047,0.2594190239906311,0.0492410883307457
1773149847483601400,5.550601318359375,0.00578182190656662,0.24099954962730408,0.05847635865211487
1773149847493637400,5.560637451171875,0.0048047080636024475,0.2159557193517685,0.06970184296369553
1773149847503673300,5.57067333984375,0.0016552675515413284,0.1923300176858902,0.08005823940038681
1773149847513710600,5.580710693359375,0.005056657828390598,0.17042843997478485,0.08398213982582092
1773149847523746600,5.59074658203125,0.0038784369826316833,0.15348944067955017,0.08682779222726822
1773149847533782500,5.600782470703125,-0.0017935633659362793,0.13775734603405,0.08282771706581116
1773149847543818500,5.610818603515625,-0.0042146071791648865,0.11681129038333893,0.08216487616300583
1773149847553854500,5.6208544921875,-0.003267587162554264,0.0926755964756012,0.08334651589393616
1773149847563891500,5.630891357421875,-0.009508708491921425,0.06539550423622131,0.08934030681848526
1773149847573927400,5.640927490234375,-0.009474087506532669,0.0287256371229887,0.09621471911668777
1773149847583963400,5.65096337890625,-0.004219421185553074,-0.003122291062027216,0.11239421367645264
1773149847593999400,5.660999267578125,0.0007644183933734894,-0.030546724796295166,0.12860462069511414
1773149847604035300,5.671035400390625,0.012116187252104282,-0.0378134660422802,0.1417076140642166
1773149847614072300,5.681072265625,0.016180701553821564,-0.03054330125451088,0.1602594554424286
1773149847624108300,5.6911083984375,0.021631911396980286,-0.0020618443377316,0.17765548825263977
1773149847634144500,5.70114453125,0.02954442799091339,0.026335176080465317,0.19188103079795837
1773149847644180500,5.711180419921875,0.037598103284835815,0.05800361558794975,0.20146863162517548
1773149847654216400,5.721216552734375,0.04968246445059776,0.0891793817281723,0.21266695857048035
1773149847664253400,5.73125341796875,0.08140015602111816,0.15417996048927307,0.20921452343463898
1773149847674289400,5.741289306640625,0.1198815107345581,0.2259329855442047,0.1982492208480835
1773149847684325400,5.751325439453125,0.12184693664312363,0.2798422574996948,0.19078563153743744
1773149847694361300,5.761361328125,0.10106229782104492,0.32861992716789246,0.18265525996685028
1773149847704397300,5.771397216796875,0.0748637244105339,0.3742843270301819,0.16507825255393982
1773149847714434300,5.781434326171875,0.06806706637144089,0.4287436008453369,0.13218076527118683
1773149847724470300,5.79147021484375,0.07341225445270538,0.4995688199996948,0.10226823389530182
1773149847734506500,5.801506591796875,0.07051792740821838,0.5960311889648438,0.07062774896621704
1773149847744542500,5.81154248046875,0.06028447672724724,0.7256333827972412,0.04941996932029724
1773149847754578400,5.821578369140625,0.04104233533143997,0.8755152821540833,0.03652361407876015
1773149847764615400,5.831615478515625,0.020027052611112595,1.0191137790679932,0.022639937698841095
1773149847774651600,5.841651611328125,-0.0036511141806840897,1.1443818807601929,0.013062145560979843
1773149847784687600,5.8516875,-0.04006076604127884,1.2575318813323975,0.00844347570091486
1773149847794723600,5.8617236328125,-0.04537510126829147,1.3637752532958984,0.027093593031167984
1773149847804759600,5.871759521484375,-0.06226937100291252,1.4260250329971313,0.10212741047143936
1773149847814796500,5.881796630859375,-0.08719948679208755,1.4509357213974,0.21967853605747223
1773149847824832500,5.89183251953125,-0.12485844641923904,1.4280191659927368,0.35613173246383667
1773149847834868500,5.901868408203125,-0.16763974726200104,1.3217753171920776,0.4904218912124634
1773149847844904400,5.911904541015625,-0.15940579771995544,1.1574516296386719,0.6213178634643555
1773149847854940400,5.9219404296875,-0.09958987683057785,0.9761963486671448,0.7127127647399902
1773149847864977400,5.931977294921875,-0.007886845618486404,0.8077087998390198,0.7304399609565735
1773149847875013400,5.942013427734375,0.12471034377813339,0.7323956489562988,0.6666995882987976
1773149847885049300,5.95204931640625,0.2687319815158844,0.7612693905830383,0.5671074986457825
1773149847895085300,5.962085205078125,0.3484787344932556,0.808517336845398,0.46591612696647644
1773149847905121300,5.972121337890625,0.3160363435745239,0.8666512370109558,0.40037545561790466
1773149847915158500,5.982158447265625,0.21175602078437805,0.8456932306289673,0.3690020740032196
1773149847925194500,5.992194580078125,0.14008723199367523,0.7200039029121399,0.356067955493927
1773149847935230500,6.00223046875,0.13135099411010742,0.5489711761474609,0.34743985533714294
1773149847945266400,6.012266357421875,0.16433575749397278,0.40417200326919556,0.33427250385284424
1773149847955302400,6.022302490234375,0.19556479156017303,0.3301864564418793,0.3015768826007843
1773149847965339400,6.03233935546875,0.1945493221282959,0.26429077982902527,0.24740971624851227
1773149847975375400,6.042375244140625,0.15031582117080688,0.14141491055488586,0.19427672028541565
1773149847985411300,6.052411376953125,0.08536958694458008,-0.02995523437857628,0.16023898124694824
1773149847995447300,6.062447265625,0.06250075250864029,-0.16393513977527618,0.18585778772830963
1773149848005483300,6.072483154296875,0.11282732337713242,-0.15326014161109924,0.25054818391799927
1773149848015520300,6.082520263671875,0.1524791270494461,-0.012529654428362846,0.2792131006717682
1773149848025556200,6.09255615234375,0.12457688897848129,0.20214113593101501,0.23938149213790894
1773149848035592200,6.10259228515625,0.0623052679002285,0.3737616240978241,0.1393185406923294
1773149848045628700,6.112628662109375,0.03726709634065628,0.42058366537094116,0.0359562411904335
1773149848055664600,6.12266455078125,0.06725189089775085,0.38099363446235657,-0.04287146404385567
1773149848065701400,6.132701416015625,0.10230404883623123,0.3139771521091461,-0.09528252482414246
1773149848075737600,6.142737548828125,0.11852801591157913,0.24542631208896637,-0.13100804388523102
1773149848085773600,6.152773681640625,0.11160199344158173,0.16074547171592712,-0.16170379519462585
1773149848095809500,6.1628095703125,0.09551116824150085,0.06410547345876694,-0.20318464934825897
1773149848105845500,6.172845458984375,0.0855269581079483,-0.042786333709955215,-0.27504441142082214
1773149848115882500,6.182882568359375,0.0728449895977974,-0.1302858144044876,-0.3742178678512573
1773149848125918500,6.19291845703125,0.06554555147886276,-0.20189903676509857,-0.5015244483947754
1773149848135954400,6.202954345703125,0.05753369629383087,-0.2555851936340332,-0.6228578090667725
1773149848145990400,6.212990478515625,0.03383849933743477,-0.3074374496936798,-0.7260417342185974
1773149848156026400,6.2230263671875,-0.016603371128439903,-0.3379727303981781,-0.7994837760925293
1773149848166063600,6.233063720703125,-0.08220157027244568,-0.3847663104534149,-0.8482294082641602
1773149848176099600,6.243099609375,-0.16335821151733398,-0.43651658296585083,-0.8925880789756775
1773149848186135600,6.253135498046875,-0.26058170199394226,-0.5066304206848145,-0.959548830986023
1773149848196171500,6.263171630859375,-0.35742437839508057,-0.5775075554847717,-1.0589427947998047
1773149848206209500,6.27320947265625,-0.4565005898475647,-0.7153666019439697,-1.2034779787063599
1773149848216245500,6.28324560546875,-0.5507422089576721,-0.9744820594787598,-1.403928518295288
1773149848226281500,6.293281494140625,-0.6047460436820984,-1.3276206254959106,-1.5945560932159424
1773149848236317400,6.3033173828125,-0.5982362031936646,-1.6601057052612305,-1.6887768507003784
1773149848246353400,6.313353515625,-0.5320537090301514,-1.8473562002182007,-1.6213550567626953
1773149848256390400,6.323390380859375,-0.4653846323490143,-1.7496954202651978,-1.4232134819030762
1773149848266426400,6.33342626953125,-0.4565594792366028,-1.2773090600967407,-1.1569424867630005
1773149848276462300,6.34346240234375,-0.48499616980552673,-0.4810526371002197,-0.8829748630523682
1773149848286498300,6.353498291015625,-0.5018891096115112,0.35508963465690613,-0.6575825214385986
1773149848296534300,6.3635341796875,-0.5003939867019653,0.8806549310684204,-0.5404974222183228
1773149848306571300,6.3735712890625,-0.4530196189880371,0.919239342212677,-0.47998157143592834
1773149848316607200,6.383607177734375,-0.3334093391895294,0.6749110817909241,-0.43250247836112976
1773149848326643200,6.393643310546875,-0.2266847938299179,0.3668510317802429,-0.35216665267944336
1773149848336679200,6.40367919921875,-0.1958398073911667,0.2551173269748688,-0.2260284125804901
1773149848346715100,6.413715087890625,-0.231417715549469,0.32587292790412903,-0.12007613480091095
1773149848356752400,6.42375244140625,-0.21691282093524933,0.3434590995311737,-0.01149106677621603
1773149848366788400,6.433788330078125,-0.09101559966802597,0.178548201918602,0.06574565917253494
1773149848376824300,6.44382421875,-0.03862083703279495,-0.09865090996026993,0.1015838235616684
1773149848386860300,6.4538603515625,-0.08582482486963272,-0.423618882894516,0.1090480238199234
1773149848396896300,6.463896240234375,-0.13625922799110413,-0.7231768369674683,0.10585382580757141
1773149848406933200,6.473933349609375,-0.1700209230184555,-0.9269754886627197,0.09874999523162842
1773149848416969200,6.48396923828125,-0.16234037280082703,-0.9804179668426514,0.07376687973737717
1773149848427005200,6.494005126953125,-0.0813257098197937,-0.8462992310523987,0.0052172159776091576
1773149848437041400,6.50404150390625,0.028511308133602142,-0.5962755680084229,-0.04354552924633026
1773149848447077400,6.514077392578125,0.10649800300598145,-0.2734280228614807,-0.07214688509702682
1773149848457114000,6.524114013671875,0.15663494169712067,0.08309677988290787,-0.10254447162151337
1773149848467150300,6.534150390625,0.1891481727361679,0.42834389209747314,-0.1329497992992401
1773149848477186300,6.544186279296875,0.2275240570306778,0.6446021795272827,-0.1580279916524887
1773149848487222300,6.55422216796875,0.30794432759284973,0.6707000732421875,-0.14608466625213623
1773149848497258500,6.564258544921875,0.3906219005584717,0.576514482498169,-0.09563081711530685
1773149848507295500,6.57429541015625,0.42628052830696106,0.4211142659187317,0.03252866491675377
1773149848517331500,6.58433154296875,0.44044268131256104,0.24186033010482788,0.20494703948497772
1773149848527367400,6.594367431640625,0.43276482820510864,0.04276346042752266,0.3801800012588501
1773149848537403400,6.6044033203125,0.4013565480709076,-0.14432893693447113,0.5279837846755981
1773149848547440400,6.6144404296875,0.32816991209983826,-0.2598906457424164,0.6325885057449341
1773149848557476400,6.624476318359375,0.25044211745262146,-0.2698817551136017,0.6844932436943054
1773149848567512300,6.63451220703125,0.19323135912418365,-0.18944424390792847,0.6812588572502136
1773149848577548300,6.64454833984375,0.16917555034160614,-0.07866206765174866,0.6019701361656189
1773149848587584300,6.654584228515625,0.16470967233181,-0.01111735962331295,0.4882727265357971
1773149848597621200,6.664621337890625,0.18863683938980103,0.005976405926048756,0.3909009099006653
1773149848607657200,6.6746572265625,0.19005605578422546,-0.03734844550490379,0.3290783762931824
1773149848617693400,6.684693359375,0.11561085283756256,-0.13271385431289673,0.27327609062194824
1773149848627729400,6.6947294921875,-0.016162389889359474,-0.28903844952583313,0.23453278839588165
1773149848637765400,6.704765380859375,-0.17087580263614655,-0.43669235706329346,0.2079019695520401
1773149848647802400,6.71480224609375,-0.327910453081131,-0.5745495557785034,0.16309450566768646
1773149848657838300,6.72483837890625,-0.45560261607170105,-0.6902838945388794,0.0978420078754425
1773149848667874300,6.734874267578125,-0.48902419209480286,-0.7528077363967896,-0.004892611410468817
1773149848677910300,6.74491015625,-0.43749070167541504,-0.7211198210716248,-0.15213638544082642
1773149848687946200,6.7549462890625,-0.366098016500473,-0.6036408543586731,-0.32239747047424316
1773149848697983200,6.764983154296875,-0.33452117443084717,-0.43744367361068726,-0.49379026889801025
1773149848708019200,6.775019287109375,-0.3483707010746002,-0.2294376939535141,-0.6029784679412842
1773149848718055200,6.78505517578125,-0.3653416931629181,-0.012628152966499329,-0.6510253548622131
1773149848728091100,6.795091064453125,-0.34849318861961365,0.19800816476345062,-0.6613171100616455
1773149848738127000,6.805127197265625,-0.30940863490104675,0.4126131534576416,-0.6599676609039307
1773149848748164400,6.815164306640625,-0.25551584362983704,0.626416802406311,-0.6639190912246704
1773149848758200300,6.825200439453125,-0.16262397170066833,0.7924742102622986,-0.6672602891921997
1773149848768236300,6.835236328125,-0.030040139332413673,0.8358967900276184,-0.6725649237632751
1773149848778272500,6.8452724609375,0.06310418248176575,0.7571433782577515,-0.6536812782287598
1773149848788308500,6.85530859375,0.13063213229179382,0.6462488174438477,-0.5928125977516174
1773149848798345200,6.86534521484375,0.21674677729606628,0.6053416132926941,-0.45911017060279846
1773149848808381400,6.87538134765625,0.3614448308944702,0.6988816857337952,-0.25818362832069397
1773149848818417400,6.88541748046875,0.5701645016670227,0.8865474462509155,-0.005467738024890423
1773149848828453400,6.895453369140625,0.7831968665122986,1.1630713939666748,0.27451980113983154
1773149848838489300,6.9054892578125,0.9435569643974304,1.3918074369430542,0.516711950302124
1773149848848526300,6.9155263671875,1.0546678304672241,1.471924066543579,0.6892469525337219
1773149848858562300,6.925562255859375,1.0345982313156128,1.3346564769744873,0.7629507780075073
1773149848868598300,6.935598388671875,0.8951156735420227,1.0174167156219482,0.7757412791252136
1773149848878634200,6.94563427734375,0.7619328498840332,0.5549575090408325,0.8188757300376892
1773149848888671500,6.95567138671875,0.6152259707450867,0.021318627521395683,0.8635467290878296
1773149848898707500,6.96570751953125,0.43952682614326477,-0.42450013756752014,0.8480144143104553
1773149848908743400,6.975743408203125,0.27955928444862366,-0.6597627401351929,0.8211455941200256
1773149848918779400,6.985779296875,0.13315945863723755,-0.7525382041931152,0.8385072946548462
1773149848928815400,6.9958154296875,-0.02174651063978672,-0.7408407926559448,0.7816687226295471
1773149848938852400,7.005852294921875,-0.2846774756908417,-0.6679154634475708,0.48085615038871765
1773149848948888300,7.015888427734375,-0.7308389544487,-0.6040877103805542,-0.07360461354255676
1773149848958924300,7.02592431640625,-1.2220803499221802,-0.5622052550315857,-0.6481832265853882
1773149848968960300,7.035960205078125,-1.514641284942627,-0.5479198098182678,-1.0254980325698853
1773149848978996200,7.045996337890625,-1.5191903114318848,-0.489577978849411,-1.1385414600372314
1773149848989033200,7.056033203125,-1.3428704738616943,-0.268765389919281,-1.0666937828063965
1773149848999069200,7.066069091796875,-1.1573450565338135,-0.16416043043136597,-0.7358654737472534
1773149849009105200,7.076105224609375,-1.0389618873596191,-0.3734111487865448,-0.3896166980266571
1773149849019141000,7.08614111328125,-0.9595350027084351,-0.7813371419906616,-0.2663746476173401
1773149849029177300,7.09617724609375,-0.8372032642364502,-1.1721078157424927,-0.31502673029899597
1773149849039214300,7.10621435546875,-0.6738097667694092,-1.2999110221862793,-0.44022804498672485
1773149849049250300,7.116250244140625,-0.601802408695221,-1.1426275968551636,-0.556442141532898
1773149849059286300,7.126286376953125,-0.6042285561561584,-0.7855256795883179,-0.6793597936630249
1773149849069322200,7.136322265625,-0.60904860496521,-0.340112566947937,-0.812707781791687
1773149849079358500,7.1463583984375,-0.6249045133590698,0.07798826694488525,-0.940252423286438
1773149849089395200,7.156395263671875,-0.6519016027450562,0.3906322419643402,-0.9532099962234497
1773149849099431200,7.16643115234375,-0.6654525399208069,0.4633117616176605,-0.8767991065979004
1773149849109467400,7.17646728515625,-0.630041241645813,0.3687708377838135,-0.7221853733062744
1773149849119503400,7.18650341796875,-0.5177581310272217,0.1477271467447281,-0.5157282948493958
1773149849129540000,7.1965400390625,-0.3118550181388855,0.08442461490631104,-0.26642873883247375
1773149849139576300,7.206576416015625,-0.044730909168720245,0.32978618144989014,0.017852790653705597
1773149849149612500,7.216612548828125,0.22589126229286194,0.782371461391449,0.24727171659469604
1773149849159648500,7.2266484375,0.4218945801258087,1.2754863500595093,0.43292999267578125
1773149849169684500,7.2366845703125,0.5549620985984802,1.6084140539169312,0.5307334661483765
1773149849179721500,7.246721435546875,0.6142445802688599,1.7765984535217285,0.469312459230423
1773149849189757400,7.25675732421875,0.5939168930053711,1.7412201166152954,0.3669035732746124
1773149849199793400,7.26679345703125,0.5077292919158936,1.4256067276000977,0.24959209561347961
1773149849209828900,7.276828857421875,0.4001104235649109,0.7999539375305176,0.16343139111995697
1773149849219864800,7.28686474609375,0.32101160287857056,-0.003140622517094016,0.10261731594800949
1773149849229901800,7.29690185546875,0.2771642804145813,-0.7148475646972656,0.13468851149082184
1773149849239937800,7.306937744140625,0.27107736468315125,-1.1653063297271729,0.2978540062904358
1773149849249973800,7.316973876953125,0.320362389087677,-1.418905258178711,0.5454342365264893
1773149849260009700,7.327009765625,0.4260384738445282,-1.6751242876052856,0.8206503987312317
1773149849270045700,7.337045654296875,0.48170650005340576,-1.841795802116394,1.0245219469070435
1773149849280083000,7.3470830078125,0.4887036681175232,-1.8358561992645264,1.1134454011917114
1773149849290119000,7.357118896484375,0.48623549938201904,-1.7331231832504272,1.0844731330871582
1773149849300155000,7.36715478515625,0.5185346007347107,-1.649480938911438,0.9907689690589905
1773149849310190800,7.37719091796875,0.6260397434234619,-1.6130276918411255,0.8756403923034668
1773149849320226800,7.387226806640625,0.7926585674285889,-1.5428956747055054,0.7582831382751465
1773149849330263800,7.397263916015625,0.9360193610191345,-1.0976974964141846,0.6636812090873718
1773149849340299800,7.4072998046875,1.0359216928482056,-0.9502933025360107,0.5881275534629822
1773149849350335700,7.417335693359375,1.1546119451522827,-0.8450984954833984,0.5505754947662354
1773149849360371700,7.427371826171875,1.0137178897857666,0.03492521494626999,0.21422335505485535
1773149849370408000,7.437407958984375,-0.3087921440601349,3.069981336593628,-1.198624610900879
1773149849380444700,7.447444580078125,-2.2021143436431885,5.840497016906738,-2.155186176300049
1773149849390480600,7.457480712890625,-2.5311241149902344,6.191967010498047,-2.2613675594329834
1773149849400516900,7.467516845703125,-0.9474785923957825,4.033060073852539,-2.879826068878174
1773149849410552800,7.477552734375,1.011652946472168,2.7697601318359375,-2.795562982559204
1773149849420588800,7.4875888671875,1.5010194778442383,3.652352809906006,-0.3129313886165619
1773149849430625800,7.497625732421875,1.1937079429626465,2.3780369758605957,1.1880451440811157
1773149849440662000,7.507662109375,0.7042953968048096,-0.09038104116916656,1.5354150533676147
1773149849450698000,7.517697998046875,0.21966668963432312,-1.9943233728408813,1.4896807670593262
1773149849460734000,7.52773388671875,-0.15229807794094086,-3.1392934322357178,1.3637486696243286
1773149849470771000,7.53777099609375,-0.4563881754875183,-3.6254372596740723,1.2008163928985596
1773149849480807000,7.547806884765625,-0.6419085264205933,-3.671699047088623,0.9959084391593933
1773149849490843000,7.5578427734375,-0.7817791700363159,-3.4678256511688232,0.719976007938385
1773149849500878800,7.56787890625,-0.9385443329811096,-3.036050319671631,0.3731898367404938
1773149849510914800,7.577914794921875,-1.1442055702209473,-2.2466940879821777,0.043333686888217926
1773149849520951800,7.587951904296875,-1.3504502773284912,-1.3429710865020752,-0.21171830594539642
1773149849530987800,7.59798779296875,-1.4822556972503662,-0.37782081961631775,-0.40257421135902405
1773149849541023700,7.608023681640625,-1.4882068634033203,0.6585429906845093,-0.5662222504615784
1773149849551060000,7.61806005859375,-1.391648769378662,1.7307130098342896,-0.6761548519134521
1773149849561096000,7.628095947265625,-1.1979405879974365,2.5977118015289307,-0.7465088963508606
1773149849571133000,7.6381328125,-0.9347766637802124,3.082239866256714,-0.7569794654846191
1773149849581169000,7.6481689453125,-0.6550483107566833,3.2392492294311523,-0.6843228340148926
1773149849591204900,7.658204833984375,-0.3858104646205902,3.2973387241363525,-0.5451504588127136
1773149849601240800,7.66824072265625,-0.15235856175422668,3.1867973804473877,-0.3353370130062103
1773149849611276800,7.67827685546875,0.05474451184272766,2.8660364151000977,-0.06887873262166977
1773149849621313800,7.688313720703125,0.21927699446678162,2.1944429874420166,0.17609000205993652
1773149849631349800,7.698349853515625,0.3449625074863434,1.0673824548721313,0.33142921328544617
1773149849641385700,7.7083857421875,0.4701252281665802,-0.1245829164981842,0.47150883078575134
1773149849651421700,7.718421630859375,0.5850268602371216,-0.9964553117752075,0.6860385537147522
1773149849661457700,7.728457763671875,0.6841832399368286,-1.4857854843139648,0.9480621814727783
1773149849671495000,7.738494873046875,0.7619317173957825,-1.5019317865371704,1.3146884441375732
1773149849681531000,7.74853076171875,0.8466886878013611,-1.2176169157028198,1.5530016422271729
1773149849691566800,7.75856689453125,1.0268220901489258,-1.1035447120666504,1.4218547344207764
1773149849701602800,7.768602783203125,1.2135798931121826,-1.328716516494751,0.8687795400619507
1773149849711639000,7.77863916015625,1.4376112222671509,-1.895674467086792,0.18470507860183716
1773149849721675800,7.78867578125,1.6287164688110352,-2.4600307941436768,-0.041791707277297974
1773149849731711700,7.798711669921875,1.7300419807434082,-2.9170825481414795,-0.1092175617814064
1773149849741748000,7.808748046875,1.7480149269104004,-3.231492042541504,-0.2918717861175537
1773149849751784000,7.818783935546875,1.6960041522979736,-3.40311861038208,-0.6109721660614014
1773149849761820700,7.828820556640625,1.5531522035598755,-3.3268959522247314,-0.9788433909416199
1773149849771857000,7.83885693359375,1.0790499448776245,-2.7847719192504883,-1.14900541305542
1773149849781892900,7.848892822265625,-0.0753309428691864,-1.6196067333221436,-1.1927739381790161
1773149849791928800,7.8589287109375,-1.3924568891525269,-0.025575123727321625,-1.2315342426300049
1773149849801964800,7.86896484375,-1.8034089803695679,1.8236624002456665,-1.8774094581604004
1773149849812002000,7.879001953125,-0.8976361751556396,4.370940208435059,-3.18082332611084
1773149849822038000,7.8890380859375,0.43196991086006165,6.187597751617432,-3.0148088932037354
1773149849832074000,7.899073974609375,1.3165819644927979,6.763442039489746,-1.65291428565979
1773149849842110000,7.90910986328125,1.858368158340454,5.6751017570495605,-0.5191770792007446
1773149849852146000,7.91914599609375,2.0651466846466064,3.562747001647949,0.022379597648978233
1773149849862183000,7.929182861328125,2.008913040161133,1.2395576238632202,0.23069338500499725
1773149849872219000,7.939218994140625,1.7949885129928589,-0.5956194996833801,0.4130484461784363
1773149849882254800,7.9492548828125,1.5539822578430176,-1.6510229110717773,0.684445858001709
1773149849892290800,7.959290771484375,1.2834030389785767,-2.1114821434020996,1.0114128589630127
1773149849902326800,7.969326904296875,0.8850337266921997,-2.154879093170166,1.262050986289978
1773149849912363800,7.97936376953125,0.13248412311077118,-1.9791967868804932,1.2537134885787964
1773149849922399700,7.989399658203125,-0.36813318729400635,-1.6507859230041504,1.1750205755233765
1773149849932434700,7.9994345703125,-0.432265043258667,-1.0505744218826294,1.1767973899841309
1773149849942471000,8.009470947265624,-0.31953877210617065,-0.25102290511131287,1.19149911403656
1773149849952507000,8.0195068359375,-0.1976272314786911,0.7557268142700195,1.0290037393569946
1773149849962543900,8.0295439453125,-0.03859923034906387,1.6731293201446533,0.6936583518981934
1773149849972579800,8.039579833984375,0.06763454526662827,2.2626280784606934,0.27399393916130066
1773149849982616000,8.049615966796875,0.17075853049755096,2.565876007080078,-0.14240515232086182
1773149849992652000,8.059652099609375,0.22883810102939606,2.621328353881836,-0.47856593132019043
1773149850002688000,8.06968798828125,0.3184649348258972,2.5712673664093018,-0.7253743410110474
1773149850012725000,8.07972509765625,0.5133859515190125,2.468005895614624,-0.866120457649231
1773149850022761000,8.089760986328125,0.7510871887207031,2.702730894088745,-0.9159002304077148
1773149850032797000,8.099796875,0.9660261273384094,3.3320398330688477,-0.8482996821403503
1773149850042833000,8.1098330078125,1.0482312440872192,3.6821634769439697,-0.7490881085395813
1773149850052868900,8.119868896484375,0.7996988892555237,3.3267736434936523,-0.690574586391449
1773149850062905900,8.12990576171875,0.3108420968055725,2.327799081802368,-0.7261967658996582
1773149850072941800,8.13994189453125,-0.2230667918920517,1.0482348203659058,-0.5633594989776611
1773149850082977800,8.149977783203125,-0.4913477897644043,0.05364030972123146,-0.04974275082349777
1773149850093013800,8.160013671875,-0.4554550349712372,-0.6320890188217163,0.4250723421573639
1773149850103049700,8.1700498046875,-0.34920716285705566,-0.9023127555847168,0.5893417596817017
1773149850113087000,8.1800869140625,-0.3403699994087219,-0.7918043732643127,0.4820517599582672
1773149850123123000,8.190123046875,-0.47443830966949463,-0.31169581413269043,0.2741102874279022
1773149850133159000,8.200158935546876,-0.6252493858337402,0.3246377408504486,0.07507357746362686
1773149850143195000,8.21019482421875,-0.6684001088142395,0.820762574672699,-0.07472044974565506
1773149850153230800,8.22023095703125,-0.6110438108444214,0.9788016676902771,-0.19276708364486694
1773149850163267800,8.230267822265626,-0.5608959794044495,0.8967395424842834,-0.30080941319465637
1773149850173303800,8.2403037109375,-0.5332041382789612,0.778846025466919,-0.3624177575111389
1773149850183339800,8.25033984375,-0.5070356726646423,0.7093452215194702,-0.3745758831501007
1773149850193375700,8.260375732421876,-0.49536117911338806,0.6214640140533447,-0.35187065601348877
1773149850203411700,8.27041162109375,-0.4886995255947113,0.4648885726928711,-0.30034247040748596
1773149850213453300,8.280453369140625,-0.5120360851287842,0.17950186133384705,-0.21055340766906738
1773149850223489300,8.2904892578125,-0.5596802830696106,-0.07278177887201309,-0.12931928038597107
1773149850233525200,8.300525146484375,-0.6103032827377319,-0.23605751991271973,-0.10011246055364609
1773149850243561200,8.310561279296875,-0.6914812326431274,-0.3329441249370575,-0.12393710017204285
1773149850253597200,8.32059716796875,-0.8058828115463257,-0.37764158844947815,-0.16761840879917145
1773149850263634200,8.33063427734375,-0.8829885125160217,-0.37497174739837646,-0.1994711458683014
1773149850273670100,8.340670166015625,-0.8728399872779846,-0.27727746963500977,-0.2069540172815323
1773149850283706000,8.3507060546875,-0.8000574111938477,-0.21771611273288727,-0.22483395040035248
1773149850293742000,8.3607421875,-0.7173697352409363,-0.270402729511261,-0.24591659009456635
1773149850303779000,8.370779052734376,-0.6634787917137146,-0.31348469853401184,-0.23039782047271729
1773149850313815000,8.38081494140625,-0.6135261654853821,-0.2594235837459564,-0.15058398246765137
1773149850323851000,8.39085107421875,-0.5810340046882629,-0.15823067724704742,-0.04541335627436638
1773149850333887200,8.40088720703125,-0.5487015843391418,-0.13978484272956848,0.013129369355738163
1773149850343923500,8.41092333984375,-0.5267534255981445,-0.24819493293762207,-0.015096410177648067
1773149850353960200,8.420960205078124,-0.5276355147361755,-0.3313787579536438,-0.09077229350805283
1773149850363996200,8.43099609375,-0.5473389029502869,-0.3182339072227478,-0.13682739436626434
1773149850374032400,8.441032470703124,-0.5714231729507446,-0.278620183467865,-0.1522243469953537
1773149850384068400,8.451068359375,-0.5597447156906128,-0.18011438846588135,-0.13430818915367126
1773149850394104300,8.461104248046874,-0.43921613693237305,-0.08080804347991943,-0.10688067972660065
1773149850404141300,8.471141357421875,-0.23544196784496307,-0.001912168227136135,-0.09503760188817978
1773149850414177300,8.48117724609375,-0.12161925435066223,-0.016704972833395004,-0.11473517119884491
1773149850424213200,8.491213134765625,-0.14375919103622437,-0.07406174391508102,-0.11403688788414001
1773149850434249200,8.501249267578125,-0.2183496057987213,-0.12351630628108978,-0.06938846409320831
1773149850444285200,8.51128515625,-0.25429561734199524,-0.1818605661392212,0.07027968764305115
1773149850454322400,8.521322509765625,-0.19071073830127716,-0.2047177255153656,0.2516798973083496
1773149850464358400,8.5313583984375,-0.07973255962133408,-0.18314771354198456,0.39756760001182556
1773149850474394400,8.541394287109375,0.03130366653203964,-0.1692715734243393,0.4817699193954468
1773149850484430300,8.551430419921875,0.13158605992794037,-0.2106674760580063,0.5225934982299805
1773149850494466300,8.56146630859375,0.2162405103445053,-0.2724570631980896,0.5628257989883423
1773149850504503300,8.57150341796875,0.2775643467903137,-0.33743393421173096,0.625230610370636
1773149850514539300,8.581539306640625,0.3133619725704193,-0.4165894687175751,0.7122352719306946
1773149850524575200,8.5915751953125,0.33572426438331604,-0.46221423149108887,0.8025707602500916
1773149850534611200,8.601611083984375,0.36196765303611755,-0.4487423896789551,0.8901567459106445
1773149850544647200,8.611647216796875,0.39476075768470764,-0.38030368089675903,0.9325526356697083
1773149850554684200,8.62168408203125,0.4194098711013794,-0.2932169437408447,0.9249334335327148
1773149850564720000,8.63172021484375,0.41639649868011475,-0.17617420852184296,0.8892843723297119
1773149850574756000,8.641756103515625,0.3844297528266907,-0.05087089538574219,0.8606590628623962
1773149850584792000,8.6517919921875,0.3277742266654968,0.06922435015439987,0.8705575466156006
1773149850594828000,8.661828125,0.266156941652298,0.13692830502986908,0.9134585857391357
1773149850604865300,8.671865234375,0.2133253961801529,0.12258026748895645,0.9628537893295288
1773149850614901200,8.6819013671875,0.11393297463655472,0.011394932866096497,0.9777502417564392
1773149850624937200,8.691937255859376,0.03311243653297424,-0.11926374584436417,0.9314890503883362
1773149850634973200,8.70197314453125,0.002741514705121517,-0.23482127487659454,0.8159683346748352
1773149850645010200,8.71201025390625,0.11368533968925476,-0.29068851470947266,0.6640941500663757
1773149850655046100,8.722046142578124,0.44488993287086487,-0.2273748368024826,0.5318310260772705
1773149850665082000,8.73208203125,0.8577725887298584,0.04745619371533394,0.4822024703025818
1773149850675118000,8.7421181640625,1.0864906311035156,0.46143877506256104,0.49512407183647156
1773149850685154300,8.752154296875,1.109149694442749,0.8158666491508484,0.5363074541091919
1773149850695191000,8.76219091796875,1.0638333559036255,1.0243394374847412,0.6049156188964844
1773149850705227300,8.772227294921874,1.0113028287887573,1.0611295700073242,0.6777634620666504
1773149850715263200,8.78226318359375,0.9454749822616577,0.9719475507736206,0.7188884019851685
1773149850725299200,8.79229931640625,0.898833155632019,0.8190882205963135,0.7122997641563416
1773149850735335200,8.802335205078125,0.861828625202179,0.6653808951377869,0.6424328088760376
1773149850745372400,8.812372314453125,0.7536544799804688,0.5626622438430786,0.5495274066925049
1773149850755408400,8.822408447265625,0.5261589288711548,0.4674995541572571,0.40262073278427124
1773149850765444400,8.8324443359375,0.20021973550319672,0.28100743889808655,0.20309539139270782
1773149850775480300,8.842480224609375,-0.14999528229236603,-0.004866114817559719,-0.01309960801154375
1773149850785516300,8.852516357421875,-0.4076095223426819,-0.20615129172801971,-0.21003210544586182
1773149850795553300,8.86255322265625,-0.43978503346443176,-0.22367249429225922,-0.35482925176620483
1773149850805589200,8.87258935546875,-0.2853078246116638,-0.0874752402305603,-0.4714922308921814
1773149850815625200,8.882625244140625,-0.08467964082956314,0.06509564071893692,-0.557734489440918
1773149850825661200,8.8926611328125,-0.032526955008506775,-0.1309226006269455,-0.6865441203117371
1773149850835697200,8.902697265625,-0.26748138666152954,-0.80748051404953,-0.8127570748329163
1773149850845734100,8.912734130859375,-0.623708188533783,-1.550543189048767,-0.8429791927337646
1773149850855770000,8.92277001953125,-0.8424397706985474,-2.0634303092956543,-0.7963956594467163
1773149850865806300,8.932806396484375,-0.8471208214759827,-1.5241643190383911,-0.7013863325119019
1773149850875842300,8.94284228515625,-0.5135170221328735,0.8899650573730469,-0.5158731937408447
1773149850885878300,8.952878173828125,-0.05129880830645561,3.0019798278808594,-0.5997912883758545
1773149850895915300,8.962915283203126,0.08045574277639389,2.588015556335449,-1.197072982788086
1773149850905951200,8.972951171875,0.21031492948532104,1.0694700479507446,-1.6594158411026
1773149850915987200,8.9829873046875,0.3073429763317108,0.08595620095729828,-1.648405909538269
1773149850926023200,8.993023193359376,0.22102007269859314,0.0019425246864557266,-1.1289976835250854
1773149850936059100,9.00305908203125,0.061712685972452164,0.00492261815816164,-0.6726569533348083
1773149850946096000,9.01309619140625,-0.041038189083337784,0.04437548667192459,-0.42477309703826904
1773149850956132000,9.023132080078126,-0.09134798496961594,0.3162626624107361,-0.28543829917907715
1773149850966168000,9.03316796875,-0.16003863513469696,0.7430347800254822,-0.22940514981746674
1773149850976204000,9.0432041015625,-0.3151235580444336,0.9155697822570801,-0.2858477532863617
1773149850986241300,9.0532412109375,-0.44691941142082214,0.7247308492660522,-0.3777824640274048
1773149850996277200,9.06327734375,-0.4565751552581787,0.5024088025093079,-0.37737908959388733
1773149851006313200,9.073313232421874,-0.39615336060523987,0.40819814801216125,-0.29219335317611694
1773149851016349400,9.083349365234374,-0.286222904920578,0.4749194085597992,-0.20157255232334137
1773149851026385400,9.093385498046874,-0.1467161327600479,0.7409809231758118,-0.14145062863826752
1773149851036422100,9.103422119140625,0.0943247377872467,1.1458865404129028,-0.11249318718910217
1773149851046458400,9.113458251953125,0.4519726037979126,1.8066169023513794,-0.1077817901968956
1773149851056494300,9.123494384765625,0.9016185998916626,2.478084087371826,-0.1326337307691574
1773149851066530300,9.1335302734375,1.3582040071487427,2.6867406368255615,-0.19239692389965057
1773149851076566300,9.143566162109375,1.7496793270111084,2.5060715675354004,-0.24144817888736725
1773149851086603300,9.153603271484375,1.945595622062683,1.964745283126831,-0.31175029277801514
1773149851096639200,9.16363916015625,1.9085211753845215,1.208858609199524,-0.2805231809616089
1773149851106675200,9.17367529296875,1.6421589851379395,0.47432973980903625,-0.07000506669282913
1773149851116711200,9.183711181640625,1.0350453853607178,-0.09794393181800842,0.2393147200345993
1773149851126747100,9.1937470703125,0.3294086754322052,-0.5500463843345642,0.45237961411476135
1773149851136784400,9.203784423828125,-0.22222073376178741,-0.5282371640205383,0.4817480742931366
1773149851146820400,9.2138203125,-0.4644184708595276,-0.1164616197347641,0.37995514273643494
1773149851156856300,9.223856201171875,-0.3293941020965576,-0.15171568095684052,0.19288644194602966
1773149851166892300,9.233892333984375,0.0009086905047297478,-0.30548420548439026,0.11467579752206802
1773149851176928300,9.24392822265625,0.2225807011127472,-0.3453722894191742,0.16651101410388947
1773149851186965200,9.25396533203125,0.25281208753585815,-0.23032346367835999,0.2594478726387024
1773149851197001200,9.264001220703125,0.11892994493246078,-0.03390071168541908,0.3462430238723755
1773149851207037200,9.274037109375,-0.07557269185781479,0.16972166299819946,0.37686780095100403
1773149851217068500,9.284068603515625,-0.25122973322868347,0.16854000091552734,0.30498406291007996
1773149851227104500,9.2941044921875,-0.38954445719718933,0.023701056838035583,0.17348968982696533
1773149851237141200,9.304141357421875,-0.3604464530944824,-0.08848915994167328,0.09705466032028198
1773149851247177500,9.314177490234375,-0.21568821370601654,-0.0567685142159462,0.13347257673740387
1773149851257213400,9.32421337890625,-0.08449558168649673,0.035398174077272415,0.2708461880683899
1773149851267249400,9.33424951171875,-0.06583667546510696,-0.1528974324464798,0.4015767574310303
1773149851277285400,9.344285400390625,-0.10161231458187103,-0.6924993395805359,0.5200989246368408
1773149851287322600,9.354322509765625,-0.02770267054438591,-1.2658401727676392,0.6221919655799866
1773149851297358600,9.364358642578125,0.1403670608997345,-1.4752074480056763,0.6781473159790039
1773149851307394600,9.37439453125,0.24748313426971436,-1.308998465538025,0.725148618221283
1773149851317430500,9.384430419921875,0.28175029158592224,-1.189188003540039,0.7257511615753174
1773149851327466500,9.394466552734375,0.24931856989860535,-1.0989965200424194,0.6601894497871399
1773149851337503500,9.40450341796875,0.12019281089305878,-0.9955713748931885,0.5315424203872681
1773149851347539500,9.41453955078125,-0.0670846700668335,-0.7072266340255737,0.36767464876174927
1773149851357575400,9.424575439453125,-0.24949230253696442,-0.2619447708129883,0.2271253913640976
1773149851367611400,9.434611328125,-0.35408341884613037,0.21759146451950073,0.13516643643379211
1773149851377647400,9.4446474609375,-0.3297775685787201,0.5944375395774841,0.08989520370960236
1773149851387684400,9.454684326171876,-0.23263558745384216,0.6197308897972107,0.07371650636196136
1773149851397720300,9.46472021484375,-0.247725248336792,0.5025418996810913,0.0822431817650795
1773149851407756300,9.47475634765625,-0.32673218846321106,0.4828086793422699,0.07421454787254333
1773149851417792300,9.484792236328126,-0.34893739223480225,0.5726948976516724,0.08346602320671082
1773149851427828500,9.494828369140626,-0.27637210488319397,0.6127176880836487,0.13650794327259064
1773149851437865500,9.504865478515624,-0.1595490574836731,0.5466436147689819,0.19294321537017822
1773149851447901400,9.5149013671875,-0.08009897917509079,0.5964998602867126,0.19960618019104004
1773149851457937400,9.5249375,-0.032039862126111984,0.6460703611373901,0.20011620223522186
1773149851467973400,9.534973388671874,-0.041609931737184525,0.6914828419685364,0.12060565501451492
1773149851478009300,9.54500927734375,-0.07995224744081497,0.6453118324279785,0.026975732296705246
1773149851488046300,9.55504638671875,-0.14436691999435425,0.5212618112564087,-0.033927835524082184
1773149851498082300,9.565082275390624,-0.2040097862482071,0.460997998714447,-0.07485675811767578
1773149851508118300,9.5751181640625,-0.16361922025680542,0.42349961400032043,-0.09984493255615234
1773149851518154500,9.585154541015624,-0.04246905446052551,0.3337838053703308,-0.10143870115280151
1773149851528191200,9.595191162109375,0.07587942481040955,0.22179123759269714,-0.09254827350378036
1773149851538227200,9.605227294921875,0.14577460289001465,0.08911017328500748,-0.0784444808959961
1773149851548263400,9.615263427734375,0.16766364872455597,-0.08303948491811752,-0.04467374086380005
1773149851558299600,9.625299560546875,0.16929110884666443,-0.22969043254852295,0.013761982321739197
1773149851568335600,9.635335693359375,0.15653322637081146,-0.3281046152114868,0.09550744295120239
1773149851578372400,9.645372314453125,0.13849857449531555,-0.4512641429901123,0.17946897447109222
1773149851588408600,9.65540869140625,0.13582557439804077,-0.5939946174621582,0.23321662843227386
1773149851598444500,9.665444580078125,0.16423486173152924,-0.682533860206604,0.24999310076236725
1773149851608480500,9.67548046875,0.1965419352054596,-0.7172170281410217,0.23518779873847961
1773149851618516500,9.6855166015625,0.2675252854824066,-0.7823392748832703,0.24360543489456177
1773149851628553500,9.695553466796875,0.3316970765590668,-0.837723970413208,0.24351756274700165
1773149851638589400,9.70558935546875,0.3967493176460266,-0.908195972442627,0.2465926706790924
1773149851648625400,9.71562548828125,0.4617008864879608,-1.0252858400344849,0.23231838643550873
1773149851658661400,9.725661376953125,0.5158069729804993,-1.1717966794967651,0.18493624031543732
1773149851668697300,9.735697265625,0.5556380152702332,-1.3451991081237793,0.11703041195869446
1773149851678734600,9.745734619140626,0.5638307332992554,-1.5753918886184692,0.05899927765130997
1773149851688770600,9.7557705078125,0.5183026194572449,-1.8709337711334229,-0.005985847674310207
1773149851698806500,9.765806640625,0.41234052181243896,-2.230924129486084,-0.07976754009723663
1773149851708842500,9.775842529296876,0.26861560344696045,-2.6294338703155518,-0.15276503562927246
1773149851718878500,9.78587841796875,0.10614804923534393,-3.0395097732543945,-0.26128631830215454
1773149851728915500,9.79591552734375,-0.02156784012913704,-3.4660587310791016,-0.44711795449256897
1773149851738951400,9.805951416015626,-0.1596055030822754,-3.794790506362915,-0.6797560453414917
1773149851748987400,9.8159873046875,-0.30490463972091675,-4.021311283111572,-0.9457389712333679
1773149851759023400,9.8260234375,-0.4985409677028656,-4.09527063369751,-1.1616064310073853
1773149851769059300,9.836059326171876,-0.7187753319740295,-4.034891605377197,-1.2922437191009521
1773149851779096300,9.846096435546874,-0.9683945178985596,-3.8124594688415527,-1.3285739421844482
1773149851789132300,9.85613232421875,-1.232038140296936,-3.3944790363311768,-1.2731940746307373
1773149851799168300,9.866168212890624,-1.4722203016281128,-2.8353159427642822,-1.150376796722412
1773149851809204200,9.876204345703124,-1.6007080078125,-2.1248764991760254,-1.1349337100982666
1773149851819240400,9.886240478515624,-1.4686694145202637,-1.1130911111831665,-1.3465142250061035
1773149851829277400,9.89627734375,-1.012508749961853,0.08819086849689484,-1.4034215211868286
1773149851839313400,9.9063134765625,-0.3513709604740143,1.1581214666366577,-1.1196519136428833
1773149851849349400,9.916349365234375,0.21038560569286346,1.720969557762146,-0.6589013338088989
1773149851859385600,9.926385498046875,0.36566540598869324,1.8794103860855103,-0.296186238527298
1773149851869421600,9.936421630859375,0.27650943398475647,1.8093920946121216,-0.09416603296995163
1773149851879458300,9.946458251953125,0.0960254818201065,1.5405278205871582,-0.07610303908586502
1773149851889494500,9.95649462890625,-0.11067470163106918,1.1263763904571533,-0.20709381997585297
1773149851899530500,9.966530517578125,-0.2884939908981323,0.592078447341919,-0.3599420487880707
1773149851909566500,9.97656640625,-0.42076680064201355,-0.014239424839615822,-0.43919557332992554
1773149851919602400,9.9866025390625,-0.5107494592666626,-0.6692675948143005,-0.4378591775894165
1773149851929639400,9.996639404296875,-0.5568759441375732,-1.349478840827942,-0.4137442409992218
1773149851939675400,10.00667529296875,-0.5755087733268738,-2.0141501426696777,-0.4113493859767914
1773149851949711400,10.01671142578125,-0.5706000328063965,-2.6312737464904785,-0.49959081411361694
1773149851959747300,10.026747314453125,-0.5344864130020142,-3.1654932498931885,-0.7261710166931152
1773149851969783600,10.036783447265625,-0.5231003165245056,-3.118159532546997,-1.3035309314727783
1773149851979820500,10.046820556640625,-0.48381105065345764,-1.9339030981063843,-2.1320643424987793
1773149851989856500,10.0568564453125,-0.2514941692352295,0.07767240703105927,-2.608391761779785
1773149851999892500,10.066892578125,0.1396554708480835,1.6478452682495117,-2.2852277755737305
1773149852009928400,10.076928466796875,0.6088085770606995,2.8404157161712646,-1.4736897945404053
1773149852019964400,10.08696435546875,1.2124041318893433,4.4128313064575195,-0.46784713864326477
1773149852030001400,10.09700146484375,1.8315742015838623,6.0428972244262695,0.4961966574192047
1773149852040037400,10.107037353515626,2.0423824787139893,6.775080680847168,0.9130376577377319
1773149852050073300,10.1170732421875,1.3506920337677002,4.181154727935791,-0.6054328680038452
1773149852060109300,10.127109375,0.8336052298545837,0.6240372061729431,-0.608366072177887
1773149852070145300,10.137145263671876,0.5976353287696838,-1.5720165967941284,0.12647223472595215
1773149852080182500,10.1471826171875,0.49214592576026917,-2.208169937133789,0.9042858481407166
1773149852090218500,10.157218505859374,0.5036307573318481,-2.211397886276245,1.2374697923660278
1773149852100254500,10.16725439453125,0.5491971969604492,-1.8763104677200317,1.195238471031189
1773149852110290400,10.17729052734375,0.6134669780731201,-1.442944049835205,0.9412864446640015
1773149852120326400,10.187326416015624,0.5806535482406616,-1.146312952041626,0.6775378584861755
1773149852130363400,10.19736328125,0.43344950675964355,-0.9694893956184387,0.468915730714798
1773149852140399400,10.2073994140625,0.28687217831611633,-0.9282232522964478,0.34073561429977417
1773149852150435300,10.217435302734375,0.11652570962905884,-1.0418078899383545,0.3179754316806793
1773149852160471600,10.227471435546875,-0.11870146542787552,-1.1386176347732544,0.3508509397506714
1773149852170507500,10.237507568359375,-0.2752079963684082,-1.1745479106903076,0.33660754561424255
1773149852180544300,10.247544189453125,-0.2996411919593811,-1.117245078086853,0.2624445855617523
1773149852190580500,10.25758056640625,-0.23860126733779907,-0.9645668864250183,0.1569773107767105
1773149852200616400,10.267616455078125,-0.1223529502749443,-0.7127551436424255,0.0332832895219326
1773149852210652400,10.27765234375,0.020511532202363014,-0.5319148302078247,-0.018257400020956993
1773149852220689400,10.287689453125,0.15063248574733734,-0.5261495113372803,0.04566735401749611
1773149852230726100,10.29772607421875,0.19545641541481018,-0.7060356736183167,0.21853473782539368
1773149852240762000,10.30776220703125,0.1481749564409256,-0.9151780605316162,0.3948555886745453
1773149852250798300,10.31779833984375,0.0802512913942337,-1.0524415969848633,0.4992869198322296
1773149852260834300,10.327834228515625,0.11202280223369598,-1.11061692237854,0.49254506826400757
1773149852270870300,10.337870361328125,0.182310551404953,-1.0974202156066895,0.40734949707984924
1773149852280907300,10.3479072265625,0.17103847861289978,-1.0718880891799927,0.32820549607276917
1773149852290943200,10.357943115234375,0.06557649374008179,-1.116679310798645,0.3302116394042969
1773149852300979200,10.367979248046876,-0.05809836462140083,-1.2144522666931152,0.43313148617744446
1773149852311015200,10.37801513671875,-0.10645071417093277,-1.3193342685699463,0.5662930011749268
1773149852321051100,10.388051025390626,-0.0673307329416275,-1.4210877418518066,0.6796833276748657
1773149852331088100,10.398088134765626,0.017694149166345596,-1.4990800619125366,0.7629337310791016
1773149852341124400,10.408124267578126,0.1106979250907898,-1.565582275390625,0.8205769658088684
1773149852351160300,10.418160400390626,0.18271644413471222,-1.6663168668746948,0.8593429923057556
1773149852361196300,10.4281962890625,0.24567535519599915,-1.8129045963287354,0.8930305242538452
1773149852371232300,10.438232177734376,0.30008161067962646,-1.947529673576355,0.929372251033783
1773149852381269200,10.448269287109374,0.33435526490211487,-2.039093017578125,1.0113389492034912
1773149852391305200,10.45830517578125,0.31349125504493713,-2.032280206680298,1.1158456802368164
1773149852401341200,10.468341064453124,0.2616834044456482,-1.9251214265823364,1.189867615699768
1773149852411377200,10.478377197265624,0.18485547602176666,-1.6291399002075195,1.1746885776519775
1773149852421413000,10.4884130859375,0.09909156709909439,-1.0802547931671143,1.0036506652832031
1773149852431450000,10.4984501953125,-0.004006591625511646,-0.3349263668060303,0.6888405680656433
1773149852441486000,10.508486083984375,-0.09235215187072754,0.46866464614868164,0.3360794484615326
1773149852451522000,10.51852197265625,-0.1753716766834259,1.201043725013733,0.01867593452334404
1773149852461558000,10.52855810546875,-0.2371636927127838,1.8157626390457153,-0.2557307779788971
1773149852471594000,10.538593994140625,-0.17692086100578308,2.2167787551879883,-0.5562013387680054
1773149852481631200,10.54863134765625,0.11386385560035706,2.383460760116577,-0.9062244296073914
1773149852491667200,10.558667236328125,0.41469135880470276,2.450063467025757,-1.2490438222885132
1773149852501703200,10.568703125,0.4764399528503418,2.5666487216949463,-1.4716370105743408
1773149852511739100,10.5787392578125,0.39794114232063293,2.930636405944824,-1.2412834167480469
1773149852521775400,10.588775390625,0.26863640546798706,3.2194881439208984,-0.4189774990081787
1773149852531812000,10.59881201171875,0.09877998381853104,2.7918918132781982,0.5397591590881348
1773149852541848000,10.60884814453125,-0.13023671507835388,1.6275302171707153,1.0521022081375122
1773149852551884300,10.61888427734375,-0.401523619890213,0.25047028064727783,1.145653486251831
1773149852561920300,10.628920166015625,-0.6461738348007202,-0.8264346122741699,1.0704419612884521
1773149852571956200,10.638956298828125,-0.8176233768463135,-1.4192019701004028,0.9350119829177856
1773149852581993200,10.6489931640625,-0.8666225671768188,-1.4773311614990234,0.7537926435470581
1773149852592029200,10.659029296875,-0.7448137998580933,-0.913103461265564,0.5805984735488892
1773149852602065200,10.669065185546875,-0.554364025592804,0.00834447331726551,0.5605030059814453
1773149852612101000,10.67910107421875,-0.3809208869934082,0.9045336246490479,0.6675546169281006
1773149852622137000,10.68913720703125,-0.24021382629871368,1.490219235420227,0.7776576280593872
1773149852632173300,10.69917333984375,-0.14026965200901031,1.7073214054107666,0.819441556930542
1773149852642210300,10.709210205078126,-0.10529188066720963,1.6357123851776123,0.8023212552070618
1773149852652246300,10.719246337890626,-0.13620612025260925,1.3690273761749268,0.8306007981300354
1773149852662282200,10.7292822265625,-0.2626655697822571,1.043827772140503,1.039201021194458
1773149852672318200,10.739318115234376,-0.43379712104797363,0.7805085778236389,1.386275291442871
1773149852682354200,10.749354248046876,-0.5475910305976868,0.5957874655723572,1.7120095491409302
1773149852692391200,10.75939111328125,-0.6161921620368958,0.502940833568573,1.858789086341858
1773149852702427100,10.76942724609375,-0.6302111148834229,0.5725918412208557,1.8125587701797485
1773149852712463000,10.779463134765624,-0.5829303860664368,0.780205488204956,1.6538878679275513
1773149852722499000,10.7894990234375,-0.45057982206344604,1.0498862266540527,1.4580023288726807
1773149852732535000,10.79953515625,-0.24408069252967834,1.3742265701293945,1.2379608154296875
1773149852742572000,10.809572021484374,0.06636213511228561,1.7007215023040771,1.0008002519607544
1773149852752608300,10.819608154296875,0.3618808686733246,1.9847358465194702,0.7273340821266174
1773149852762644200,10.829644287109375,0.6207672953605652,2.202544689178467,0.44990989565849304
1773149852772680200,10.83968017578125,0.8176228404045105,2.298842191696167,0.178412064909935
1773149852782716200,10.849716064453125,0.8741023540496826,2.271467924118042,-0.059891268610954285
1773149852792753200,10.859753173828125,0.793225109577179,1.942378044128418,-0.3182258605957031
1773149852802789000,10.8697890625,0.5843642950057983,1.132372260093689,-0.5856240391731262
1773149852812825000,10.8798251953125,0.2627148926258087,-0.11136680841445923,-0.7619377970695496
1773149852822861300,10.889861328125,-0.04666886106133461,-1.370858907699585,-0.7596040964126587
1773149852832897300,10.899897216796875,-0.25107553601264954,-1.989433765411377,-0.6560398936271667
1773149852842934000,10.90993408203125,-0.40296220779418945,-1.9335510730743408,-0.5027881860733032
1773149852852970200,10.91997021484375,-0.5492209196090698,-1.5015653371810913,-0.32895195484161377
1773149852863006200,10.930006103515625,-0.6682260632514954,-1.040930986404419,-0.2612787187099457
1773149852873042200,10.940042236328125,-0.718454897403717,-0.8048648834228516,-0.3471717834472656
1773149852883078100,10.950078125,-0.6769554615020752,-0.8656813502311707,-0.5454327464103699
1773149852893115400,10.960115478515625,-0.5892426371574402,-1.1125555038452148,-0.8044614195823669
1773149852903151400,10.9701513671875,-0.5393586754798889,-1.3687222003936768,-1.0361509323120117
1773149852913187300,10.980187255859375,-0.5605483651161194,-1.4515101909637451,-1.1689302921295166
1773149852923223300,10.990223388671875,-0.6343722939491272,-1.3793538808822632,-1.253158688545227
1773149852933259300,11.00025927734375,-0.7106282114982605,-1.216681957244873,-1.3027621507644653
1773149852943296300,11.010296142578126,-0.781937837600708,-0.9859650731086731,-1.3165773153305054
1773149852953332200,11.020332275390626,-0.8792271018028259,-0.660128116607666,-1.2860612869262695
1773149852963368200,11.0303681640625,-0.9481403231620789,-0.2510777711868286,-1.168312430381775
1773149852973404200,11.040404052734376,-0.933634877204895,0.15790891647338867,-0.9793128967285156
1773149852983440100,11.050440185546876,-0.7837040424346924,0.39158642292022705,-0.8173538446426392
1773149852993477000,11.06047705078125,-0.4619063138961792,0.4025818109512329,-0.6590206623077393
1773149853003513000,11.07051318359375,-0.0271499902009964,0.35825982689857483,-0.4767759144306183
1773149853013549000,11.080549072265624,0.37159234285354614,0.4488760232925415,-0.2722243666648865
1773149853023585000,11.0905849609375,0.576099693775177,0.6637651324272156,-0.07264582812786102
1773149853033621000,11.10062109375,0.6122121810913086,0.7852300405502319,0.21470285952091217
1773149853043658200,11.110658203125,0.5438122749328613,0.6869253516197205,0.5662961006164551
1773149853053694200,11.120694091796874,0.4621272683143616,0.46229463815689087,0.8447442650794983
1773149853063730200,11.130730224609374,0.39043524861335754,0.2199946492910385,0.94469153881073
1773149853073766100,11.14076611328125,0.32406046986579895,0.15561112761497498,0.8375949263572693
1773149853083802000,11.150802001953124,0.28587979078292847,0.2907002568244934,0.5349264144897461
1773149853093839000,11.160839111328125,0.27614063024520874,0.48589879274368286,0.10213500261306763
1773149853103875000,11.170875,0.30389344692230225,0.5497440695762634,-0.2667405903339386
1773149853113911000,11.1809111328125,0.2891102433204651,0.3777155876159668,-0.41863611340522766
1773149853123947300,11.190947265625,0.15842647850513458,0.0739474669098854,-0.4089382290840149
1773149853133983200,11.200983154296875,0.0060225557535886765,-0.1765281707048416,-0.3677220940589905
1773149853144020000,11.21102001953125,-0.060374803841114044,-0.3147324025630951,-0.360548734664917
1773149853154056200,11.22105615234375,-0.09231755882501602,-0.35678955912590027,-0.36976033449172974
1773149853164092400,11.231092529296875,-0.11100761592388153,-0.3660539388656616,-0.37918248772621155
1773149853174128400,11.24112841796875,-0.06967215985059738,-0.3361588716506958,-0.3937510550022125
1773149853184164400,11.251164306640625,0.06865536421537399,-0.26308149099349976,-0.4050312638282776
1773149853194201300,11.261201416015625,0.24805893003940582,-0.22806410491466522,-0.3884459137916565
1773149853204237300,11.2712373046875,0.3927493095397949,-0.14989019930362701,-0.35150495171546936
1773149853214273000,11.28127294921875,0.49012935161590576,0.01512991264462471,-0.2832012474536896
1773149853224309000,11.29130908203125,0.5424636602401733,0.19514338672161102,-0.20024852454662323
1773149853234345000,11.301344970703125,0.5394497513771057,0.3008705973625183,-0.09572052210569382
1773149853244382200,11.31138232421875,0.45803794264793396,0.20298084616661072,-0.011540868319571018
1773149853254418200,11.321418212890626,0.3421081304550171,-0.06810525804758072,0.026347391307353973
1773149853264454100,11.3314541015625,0.21690315008163452,-0.41865482926368713,0.055289607495069504
1773149853274490000,11.341489990234376,0.0936022698879242,-0.747380793094635,0.11480406671762466
1773149853284526000,11.351526123046876,-0.00809560902416706,-1.0382871627807617,0.1744627058506012
1773149853294563000,11.36156298828125,-0.07243438065052032,-1.2396396398544312,0.16525694727897644
1773149853304599000,11.37159912109375,-0.0966540053486824,-1.3050570487976074,0.1384190171957016
1773149853314635000,11.381635009765626,-0.09455064684152603,-1.1678296327590942,0.09505395591259003
1773149853324671000,11.3916708984375,-0.07304105162620544,-1.0277780294418335,0.0815034732222557
1773149853334707000,11.40170703125,-0.09821644425392151,-1.0441365242004395,0.03854881599545479
1773149853344744000,11.411743896484374,-0.1696470081806183,-1.1453830003738403,0.02713976427912712
1773149853354780000,11.42177978515625,-0.24216940999031067,-1.076160192489624,0.06807814538478851
1773149853364816000,11.43181591796875,-0.27117517590522766,-0.6561816334724426,0.1401064395904541
1773149853374851800,11.441851806640624,-0.2219434678554535,-0.005139661952853203,0.17290061712265015
1773149853384888000,11.45188818359375,-0.14660771191120148,0.5782513618469238,0.1619098037481308
1773149853394925000,11.461925048828125,-0.0785309299826622,1.0547229051589966,0.1557517796754837
1773149853404961000,11.4719609375,-0.028925549238920212,1.5898115634918213,0.1737270951271057
1773149853414997000,11.4819970703125,-0.0072290427051484585,2.2475290298461914,0.19272422790527344
1773149853425033200,11.492033203125,-0.000026520341634750366,2.6172423362731934,0.1619262844324112
1773149853435069200,11.502069091796875,0.009145139716565609,2.489220380783081,0.10959703475236893
1773149853445106000,11.51210595703125,0.03650064021348953,1.9864873886108398,0.08577964454889297
1773149853455142100,11.52214208984375,0.03706442937254906,1.5668219327926636,0.10374613106250763
1773149853465178000,11.53217822265625,-0.009074283763766289,1.4058903455734253,0.20891836285591125
1773149853475214000,11.542214111328125,-0.08366888761520386,1.3287537097930908,0.3750985562801361
1773149853485250000,11.55225,-0.12628032267093658,1.2806566953659058,0.5170068144798279
1773149853495287000,11.562287109375,-0.1049388125538826,1.1594982147216797,0.592232346534729
1773149853505323300,11.5723232421875,-0.04138464480638504,0.9621257781982422,0.5089804530143738
1773149853515359200,11.582359130859375,0.024496637284755707,0.9546948075294495,0.3221762180328369
1773149853525395200,11.592395263671875,0.07647086679935455,1.1241950988769531,0.200003981590271
1773149853535431200,11.60243115234375,0.13310299813747406,1.3122467994689941,0.16795523464679718
1773149853545468200,11.61246826171875,0.18180373311042786,1.4348506927490234,0.1526167243719101
1773149853555504000,11.622504150390625,0.20576100051403046,1.4338270425796509,0.10182277113199234
1773149853565540000,11.6325400390625,0.20331834256649017,1.2253183126449585,0.04696408659219742
1773149853575576000,11.642576171875,0.140682652592659,0.7955673933029175,0.06151879206299782
1773149853585612000,11.652612060546875,0.019268890842795372,0.22996020317077637,0.26152339577674866
1773149853595649000,11.66264892578125,-0.1260147988796234,-0.31956708431243896,0.6096145510673523
1773149853605685000,11.67268505859375,-0.24053852260112762,-0.8484252691268921,0.9490859508514404
1773149853615721000,11.682720947265626,-0.3051396310329437,-1.2527965307235718,1.1530094146728516
1773149853625757000,11.6927568359375,-0.2726082503795624,-1.5009636878967285,1.315804123878479
1773149853635794200,11.702794189453124,-0.0749894380569458,-1.6302247047424316,1.563271164894104
1773149853645830100,11.712830078125,0.16291147470474243,-1.645656943321228,1.8677077293395996
1773149853655866000,11.7228662109375,0.36075958609580994,-1.5433343648910522,2.1185176372528076
1773149853665902000,11.732902099609374,0.47983670234680176,-1.3627700805664062,2.1578409671783447
1773149853675938000,11.74293798828125,0.4901663362979889,-1.0447444915771484,1.9862148761749268
1773149853685975000,11.75297509765625,0.3184638023376465,-0.6054669618606567,1.7521367073059082
1773149853696011000,11.763010986328124,0.036755941808223724,-0.15556693077087402,1.436004877090454
1773149853706047000,11.773046875,-0.2162584364414215,0.21063019335269928,0.9804181456565857
1773149853716083000,11.7830830078125,-0.3756672441959381,0.4235951900482178,0.43510666489601135
1773149853726119200,11.793119140625,-0.4459763467311859,0.4668803811073303,-0.1137780249118805
1773149853736156000,11.803156005859375,-0.3885391652584076,0.3310181498527527,-0.6774903535842896
1773149853746192000,11.81319189453125,-0.24988003075122833,0.08112572878599167,-1.269610047340393
1773149853756228000,11.82322802734375,-0.1279274970293045,-0.05605502799153328,-1.7526313066482544
1773149853766264000,11.83326416015625,-0.09697544574737549,-0.019854139536619186,-2.0157506465911865
1773149853776300000,11.843300048828125,-0.21034568548202515,0.06744001805782318,-2.0921664237976074
1773149853786337000,11.8533369140625,-0.43095502257347107,0.10633523017168045,-2.0452282428741455
1773149853796373200,11.863373291015625,-0.7292801737785339,0.06766000390052795,-1.8214577436447144
1773149853806409200,11.8734091796875,-0.894534170627594,0.003173190401867032,-1.4405326843261719
1773149853816445200,11.883445068359375,-0.9022637009620667,-0.18436820805072784,-1.062292218208313
1773149853826481200,11.893481201171875,-0.8814069032669067,-0.8030274510383606,-1.1095545291900635
1773149853836518100,11.90351806640625,-0.7979913353919983,-1.538523554801941,-1.2090723514556885
1773149853846554000,11.91355419921875,-0.5193581581115723,-1.8361624479293823,-0.7981494665145874
1773149853856590000,11.923590087890625,-0.0060412948951125145,-1.652145266532898,-0.2505127489566803
1773149853866626000,11.9336259765625,0.34161892533302307,-0.8980490565299988,0.047252148389816284
1773149853876662000,11.943662109375,0.3586844503879547,0.12121511995792389,0.11180983483791351
1773149853886699000,11.953698974609376,0.3626510500907898,0.8194527626037598,0.04200287163257599
1773149853896735000,11.96373486328125,0.36777257919311523,0.961696982383728,0.07593580335378647
1773149853906771000,11.97377099609375,0.2813910245895386,0.690017819404602,0.2526911795139313
1773149853916807200,11.98380712890625,0.12460596859455109,0.14909064769744873,0.2998270094394684
1773149853926843100,11.993843017578126,-0.026183607056736946,-0.4100854992866516,0.12328531593084335
1773149853936880000,12.003880126953124,-0.12609928846359253,-0.5456050038337708,-0.18401125073432922
1773149853946916000,12.013916015625,-0.242773175239563,-0.2580288350582123,-0.4940185844898224
1773149853956952000,12.0239521484375,-0.42692676186561584,0.14391778409481049,-0.6889132857322693
1773149853966988000,12.033988037109374,-0.5519842505455017,0.33043384552001953,-0.7281494140625
1773149853977025000,12.04402490234375,-0.545454204082489,0.15082763135433197,-0.6338953375816345
1773149853987061000,12.05406103515625,-0.4674416780471802,-0.20848901569843292,-0.5243757963180542
1773149853997097000,12.064096923828124,-0.4064960479736328,-0.5794740319252014,-0.47055670619010925
1773149854007133000,12.0741328125,-0.295978844165802,-0.7268323302268982,-0.48701196908950806
1773149854017169000,12.0841689453125,-0.0883801057934761,-0.11256196349859238,-0.5962676405906677
1773149854027206000,12.094205810546875,0.22958989441394806,1.2051341533660889,-0.7059131860733032
1773149854037242000,12.1042421875,0.6096581220626831,2.316589832305908,-0.5383223295211792
1773149854047278000,12.114278076171875,0.8736681342124939,2.4839937686920166,-0.14340980350971222
1773149854057314000,12.12431396484375,0.8408207297325134,1.9760167598724365,0.31178486347198486
1773149854067350300,12.134350341796875,0.3601929247379303,1.1964174509048462,0.6260355710983276
1773149854077387000,12.144386962890625,-0.3390437066555023,0.46563398838043213,0.6704906821250916
1773149854087423000,12.154423095703125,-0.673468291759491,-0.223686084151268,0.5725723505020142
1773149854097459200,12.164459228515625,-0.5304986238479614,-0.833035409450531,0.4919688105583191
1773149854107495200,12.1744951171875,-0.12408967316150665,-1.1379969120025635,0.4697580933570862
1773149854117531100,12.18453125,0.307330459356308,-1.078689455986023,0.4320541322231293
1773149854127568100,12.194568115234375,0.6446989178657532,-0.8147296905517578,0.3728025257587433
1773149854137604000,12.20460400390625,0.844213604927063,-0.3894529342651367,0.2401462197303772
1773149854147640000,12.21464013671875,0.8836922645568848,0.1389387547969818,0.06157715991139412
1773149854157676000,12.224676025390625,0.7709090113639832,0.7417160272598267,-0.16684456169605255
1773149854167712000,12.2347119140625,0.5212933421134949,1.1933484077453613,-0.33563321828842163
1773149854177749200,12.244749267578126,0.21421809494495392,1.3412057161331177,-0.3422338664531708
1773149854187785200,12.25478515625,-0.04796908050775528,1.0136311054229736,-0.13818278908729553
1773149854197821200,12.2648212890625,-0.24174068868160248,0.44053640961647034,0.1152753159403801
1773149854207857200,12.274857177734376,-0.34789955615997314,-0.22134919464588165,0.2969396114349365
1773149854217898000,12.28489794921875,-0.36231178045272827,-0.8217599391937256,0.35768577456474304
1773149854227934000,12.294933837890625,-0.3263048529624939,-1.2743611335754395,0.3465934097766876
1773149854237970000,12.304969970703125,-0.2507925033569336,-1.564652681350708,0.3178706765174866
1773149854248006000,12.315005859375,-0.17869777977466583,-1.6741149425506592,0.27517634630203247
1773149854258041900,12.325041748046875,-0.14314910769462585,-1.6236613988876343,0.1950458288192749
1773149854268079000,12.3350791015625,-0.12576453387737274,-1.4097211360931396,0.07994148880243301
1773149854278115000,12.345114990234375,-0.11468126624822617,-1.0564663410186768,-0.03885866701602936
1773149854288151000,12.355151123046875,-0.12282603234052658,-0.6195412278175354,-0.08665214478969574
1773149854298187000,12.36518701171875,-0.1132248044013977,-0.17295308411121368,-0.054247066378593445
1773149854308223000,12.375222900390625,-0.07247444242238998,0.20403946936130524,0.029651828110218048
1773149854318260000,12.385260009765625,-0.036913517862558365,0.42296305298805237,0.0699760764837265
1773149854328296000,12.3952958984375,-0.0410248339176178,0.44635671377182007,0.037085048854351044
1773149854338332000,12.405331787109375,-0.09078919142484665,0.32639193534851074,0.004442417062819004
1773149854348368000,12.415367919921875,-0.11950823664665222,0.16413839161396027,0.023014744743704796
1773149854358404900,12.42540478515625,-0.12242386490106583,0.131117582321167,0.05192761868238449
1773149854368440800,12.43544091796875,-0.10223712772130966,0.19493253529071808,0.08509271591901779
1773149854378476800,12.445476806640626,-0.06067317724227905,0.35090988874435425,0.1454165130853653
1773149854388513000,12.455512939453126,-0.011513572186231613,0.5451461672782898,0.27991241216659546
1773149854398549000,12.465549072265626,0.046431221067905426,0.7869625091552734,0.49827778339385986
1773149854408586000,12.4755859375,0.1380879282951355,1.0954591035842896,0.733334481716156
1773149854418622000,12.4856220703125,0.24023427069187164,1.426565170288086,0.9139460325241089
1773149854428658000,12.495657958984374,0.3581025302410126,1.6027945280075073,0.9508273005485535
1773149854438694000,12.50569384765625,0.46611636877059937,1.5712573528289795,0.7698878645896912
1773149854448731000,12.51573095703125,0.6234740018844604,1.412411093711853,0.5476191639900208
1773149854458768000,12.525767822265625,0.8810405135154724,1.2325489521026611,0.5290893912315369
1773149854468803800,12.535803955078125,1.2286101579666138,1.1234076023101807,0.8301758170127869
