time,seconds_elapsed,z,y,x
1773149842023920400,0.09092041015625,-12.518585205078125,125.10444641113281,-119.2630615234375
1773149842034008300,0.10100830078125,-12.515029907226562,125.59910583496094,-118.82670593261719
1773149842044097500,0.11109765625,-12.993728637695312,126.40206909179688,-118.09370422363281
1773149842054187300,0.121187255859375,-13.876907348632812,127.01254272460938,-117.47952270507812
1773149842064276200,0.131276123046875,-14.2127685546875,127.66029357910156,-116.45620727539062
1773149842074365400,0.141365478515625,-15.227462768554688,128.63177490234375,-115.732666015625
1773149842084455200,0.151455078125,-15.767120361328125,129.05186462402344,-114.77679443359375
1773149842094545400,0.16154541015625,-16.5362548828125,129.50112915039062,-113.46585083007812
1773149842104634400,0.17163427734375,-17.355743408203125,130.0725555419922,-112.51235961914062
1773149842114723300,0.181723388671875,-18.213409423828125,130.36215209960938,-111.25300598144531
1773149842124812300,0.191812255859375,-18.596328735351562,130.18048095703125,-110.46034240722656
1773149842134901200,0.2019013671875,-19.513259887695312,130.4077911376953,-109.4921875
1773149842144990200,0.211990234375,-19.942779541015625,130.09288024902344,-108.69783020019531
1773149842155080200,0.222080078125,-20.87738037109375,129.8313751220703,-107.55679321289062
1773149842165168400,0.23216845703125,-21.4901123046875,129.48887634277344,-107.3773193359375
1773149842175257000,0.242257080078125,-21.722930908203125,129.1150360107422,-107.45138549804688
1773149842185346300,0.25234619140625,-21.575592041015625,128.83029174804688,-107.88768005371094
1773149842195437300,0.262437255859375,-21.391311645507812,128.68801879882812,-107.91215515136719
1773149842205527300,0.27252734375,-21.580337524414062,128.8119659423828,-108.14930725097656
1773149842215617500,0.282617431640625,-21.263763427734375,128.5651092529297,-108.15708923339844
1773149842225707300,0.292707275390625,-21.250015258789062,128.6509552001953,-108.49189758300781
1773149842235796500,0.30279638671875,-20.76922607421875,128.95289611816406,-108.58056640625
1773149842245886200,0.31288623046875,-20.694580078125,128.9393310546875,-109.29322814941406
1773149842255976400,0.3229765625,-20.38885498046875,128.80577087402344,-109.64344787597656
1773149842266064400,0.333064453125,-20.423553466796875,128.85360717773438,-109.74041748046875
1773149842276154400,0.343154296875,-20.324417114257812,128.82923889160156,-109.99057006835938
1773149842286245400,0.353245361328125,-19.466934204101562,128.5719757080078,-110.00131225585938
1773149842296335400,0.36333544921875,-19.646148681640625,128.6515655517578,-110.40689086914062
1773149842306424300,0.37342431640625,-19.497100830078125,128.92652893066406,-110.8199462890625
1773149842316514300,0.383514404296875,-19.104751586914062,128.78060913085938,-111.13858032226562
1773149842326605300,0.393605224609375,-18.467132568359375,129.4213409423828,-111.49424743652344
1773149842336693200,0.403693359375,-17.661148071289062,129.91824340820312,-111.78128051757812
1773149842346782500,0.413782470703125,-17.373504638671875,130.41195678710938,-112.25518798828125
1773149842356871400,0.423871337890625,-16.637161254882812,130.53721618652344,-112.81668090820312
1773149842366960400,0.43396044921875,-16.07568359375,131.0181884765625,-113.14466857910156
1773149842377050400,0.44405029296875,-15.651519775390625,130.81666564941406,-113.6033935546875
1773149842387140400,0.454140380859375,-15.217849731445312,130.67596435546875,-114.02772521972656
1773149842397230300,0.464230224609375,-14.79412841796875,130.39349365234375,-114.36671447753906
1773149842407319300,0.4743193359375,-15.126785278320312,129.5591583251953,-114.83421325683594
1773149842417409500,0.484409423828125,-14.439743041992188,129.12826538085938,-115.49462890625
1773149842427499300,0.494499267578125,-14.116867065429688,128.655029296875,-115.61488342285156
1773149842437589500,0.504589599609375,-14.10614013671875,128.04339599609375,-116.30567932128906
1773149842447680300,0.51468017578125,-13.486343383789062,127.53276062011719,-116.63307189941406
1773149842457770200,0.524770263671875,-13.272994995117188,127.19122314453125,-117.33908081054688
1773149842467860500,0.534860595703125,-12.7484130859375,127.04191589355469,-117.69599914550781
1773149842477951200,0.544951171875,-11.952529907226562,126.48841857910156,-118.14964294433594
1773149842488042200,0.555042236328125,-11.485244750976562,126.30926513671875,-118.56095886230469
1773149842498133500,0.565133544921875,-10.946914672851562,126.3336181640625,-119.08287048339844
1773149842508222500,0.575222412109375,-10.02960205078125,126.355712890625,-119.39906311035156
1773149842518311200,0.585311279296875,-9.748916625976562,126.8267822265625,-119.56437683105469
1773149842528401400,0.5954013671875,-9.218658447265625,127.03353881835938,-119.51423645019531
1773149842538490400,0.605490478515625,-9.573150634765625,127.4505615234375,-119.51194763183594
1773149842548579300,0.615579345703125,-9.585983276367188,128.1744842529297,-119.46675109863281
1773149842558667500,0.62566748046875,-9.296630859375,128.95350646972656,-119.22718811035156
1773149842568758300,0.63575830078125,-8.9019775390625,129.859619140625,-118.89361572265625
1773149842578847500,0.645847412109375,-8.687393188476562,130.7065887451172,-118.48945617675781
1773149842588938200,0.655938232421875,-8.10003662109375,131.88711547851562,-118.20755004882812
1773149842599029200,0.666029296875,-7.8381805419921875,132.84500122070312,-117.8853759765625
1773149842609120300,0.676120361328125,-7.220947265625,134.1607208251953,-117.33013916015625
1773149842619210200,0.686210205078125,-6.80908203125,135.50270080566406,-116.28971862792969
1773149842629298400,0.69629833984375,-7.0079803466796875,136.62384033203125,-115.47666931152344
1773149842639386400,0.706386474609375,-7.23095703125,137.56015014648438,-114.35299682617188
1773149842649475300,0.716475341796875,-7.71978759765625,138.60609436035156,-113.19857788085938
1773149842659563300,0.726563232421875,-9.116378784179688,139.40866088867188,-111.73085021972656
1773149842669652500,0.736652587890625,-9.944198608398438,139.80519104003906,-110.10848999023438
1773149842679740400,0.746740478515625,-11.346466064453125,139.92037963867188,-108.73204040527344
1773149842689828400,0.756828369140625,-12.212814331054688,140.12579345703125,-107.2213134765625
1773149842699917300,0.766917236328125,-13.46795654296875,140.14309692382812,-105.78466796875
1773149842710007600,0.777007568359375,-14.2581787109375,140.23809814453125,-104.51957702636719
1773149842720097300,0.78709716796875,-15.048812866210938,140.22250366210938,-103.01020812988281
1773149842730188300,0.797188232421875,-15.696304321289062,140.22520446777344,-102.25921630859375
1773149842740278300,0.8072783203125,-16.526519775390625,140.15869140625,-100.9896240234375
1773149842750369300,0.817369384765625,-16.556610107421875,140.27305603027344,-100.10087585449219
1773149842760459500,0.82745947265625,-16.740264892578125,140.3784942626953,-99.19291687011719
1773149842770549200,0.83754931640625,-17.106826782226562,140.2044677734375,-98.50248718261719
1773149842780638500,0.847638427734375,-17.239517211914062,140.2685546875,-98.06422424316406
1773149842790727400,0.8577275390625,-17.510299682617188,140.013671875,-97.76017761230469
1773149842800816400,0.86781640625,-17.79010009765625,139.8632049560547,-97.60908508300781
1773149842810907400,0.877907470703125,-17.9984130859375,139.71116638183594,-97.32035827636719
1773149842820997000,0.8879970703125,-18.407989501953125,139.4597930908203,-97.16749572753906
1773149842831086300,0.89808642578125,-18.636383056640625,139.1363983154297,-97.08245849609375
1773149842841176300,0.90817626953125,-18.69482421875,138.91494750976562,-96.96804809570312
1773149842851265500,0.918265625,-18.972183227539062,138.69700622558594,-96.79055786132812
1773149842861354200,0.928354248046875,-18.97021484375,138.56280517578125,-96.35032653808594
1773149842871442400,0.9384423828125,-19.772384643554688,138.27862548828125,-96.29002380371094
1773149842881531100,0.94853125,-19.829299926757812,138.00033569335938,-96.18759155273438
1773149842891619300,0.958619384765625,-20.2264404296875,137.63778686523438,-95.94619750976562
1773149842901708300,0.968708251953125,-20.655303955078125,137.36801147460938,-95.66789245605469
1773149842911798300,0.97879833984375,-20.809234619140625,137.2729034423828,-95.20172119140625
1773149842921890300,0.988890380859375,-20.918197631835938,136.9359588623047,-95.112548828125
1773149842931980300,0.998980224609375,-20.913436889648438,136.74571228027344,-95.02333068847656
1773149842942070300,1.0090703125,-21.121414184570312,136.611328125,-94.85751342773438
1773149842952160300,1.01916015625,-21.258453369140625,136.53431701660156,-94.76620483398438
1773149842962249200,1.029249267578125,-21.283676147460938,136.32476806640625,-94.6322021484375
1773149842972338400,1.03933837890625,-21.1910400390625,136.27029418945312,-94.27641296386719
1773149842982427400,1.049427490234375,-21.449386596679688,136.24612426757812,-94.87030029296875
1773149842992516400,1.059516357421875,-21.291793823242188,136.31944274902344,-94.96635437011719
1773149843002605300,1.069605224609375,-21.204574584960938,136.6021728515625,-95.29867553710938
1773149843012694300,1.0796943359375,-21.060028076171875,136.811279296875,-95.8135986328125
1773149843022782200,1.0897822265625,-20.585586547851562,136.8208770751953,-96.32388305664062
1773149843032871200,1.09987109375,-20.802520751953125,136.71859741210938,-96.78448486328125
1773149843042961400,1.10996142578125,-20.577178955078125,136.74649047851562,-97.31462097167969
1773149843053051100,1.120051025390625,-20.064926147460938,136.8007049560547,-97.7476806640625
1773149843063140400,1.130140380859375,-20.155181884765625,136.89276123046875,-98.43022155761719
1773149843073229300,1.140229248046875,-20.10577392578125,137.03817749023438,-98.82537841796875
1773149843083317200,1.150317138671875,-20.225326538085938,136.83419799804688,-99.56202697753906
1773149843093406500,1.160406494140625,-20.278045654296875,136.5071563720703,-100.52006530761719
1773149843103494400,1.170494384765625,-20.093231201171875,135.85678100585938,-101.43600463867188
1773149843113581300,1.180581298828125,-19.852783203125,135.55230712890625,-102.73863220214844
1773149843123669500,1.19066943359375,-19.74627685546875,135.2581329345703,-103.76914978027344
1773149843133759200,1.20075927734375,-19.488677978515625,134.8061065673828,-104.90750122070312
1773149843143846400,1.210846435546875,-19.287734985351562,134.3184051513672,-106.033447265625
1773149843153934300,1.220934326171875,-18.5382080078125,133.91183471679688,-106.78952026367188
1773149843164021200,1.231021240234375,-18.453155517578125,133.65975952148438,-107.24002075195312
1773149843174108200,1.241108154296875,-18.921722412109375,133.21884155273438,-107.34541320800781
1773149843184193300,1.251193359375,-19.43060302734375,133.22938537597656,-107.52040100097656
1773149843194281200,1.26128125,-19.032302856445312,133.02911376953125,-107.54414367675781
1773149843204373800,1.271373779296875,-19.048629760742188,132.97628784179688,-107.05987548828125
1773149843214463000,1.281462890625,-19.502456665039062,133.0072479248047,-106.78794860839844
1773149843224552000,1.291552001953125,-20.011978149414062,132.9144744873047,-106.54656982421875
1773149843234641000,1.301640869140625,-20.081298828125,132.97222900390625,-106.15780639648438
1773149843244729000,1.31172900390625,-20.273513793945312,132.7648468017578,-105.51205444335938
1773149843254818800,1.32181884765625,-20.595993041992188,132.845703125,-105.44964599609375
1773149843264907000,1.331906982421875,-20.49224853515625,132.7327423095703,-105.56617736816406
1773149843274997000,1.3419970703125,-20.541152954101562,132.94369506835938,-105.8199462890625
1773149843285086000,1.3520859375,-20.608062744140625,132.4543914794922,-105.64984130859375
1773149843295175000,1.3621748046875,-20.5675048828125,132.12741088867188,-105.89958190917969
1773149843305263900,1.372263916015625,-20.603622436523438,131.60568237304688,-106.21342468261719
1773149843315353900,1.382353759765625,-20.8837890625,131.4593505859375,-106.12623596191406
1773149843325444900,1.39244482421875,-21.43341064453125,131.23439025878906,-106.22274780273438
1773149843335536000,1.4025361328125,-21.32220458984375,131.03785705566406,-105.89750671386719
1773149843345625900,1.4126259765625,-21.171890258789062,130.76036071777344,-105.47575378417969
1773149843355713800,1.4227138671875,-21.674285888671875,130.998291015625,-105.78448486328125
1773149843365803000,1.432802978515625,-21.585906982421875,130.63177490234375,-105.69819641113281
1773149843375891000,1.442890869140625,-21.659942626953125,130.7656707763672,-105.91015625
1773149843385979000,1.452978759765625,-22.001724243164062,130.77334594726562,-105.9639892578125
1773149843396066800,1.46306689453125,-21.693359375,130.49082946777344,-106.21728515625
1773149843406157000,1.473156982421875,-21.484771728515625,130.645263671875,-106.55467224121094
1773149843416247800,1.483247802734375,-21.244216918945312,130.47598266601562,-106.93682861328125
1773149843426337000,1.4933369140625,-20.888107299804688,130.34600830078125,-107.44416809082031
1773149843436426800,1.5034267578125,-20.43548583984375,130.23538208007812,-107.53660583496094
1773149843446517000,1.51351708984375,-20.829147338867188,129.84951782226562,-108.24427795410156
1773149843456607000,1.52360693359375,-20.957565307617188,129.73480224609375,-108.45266723632812
1773149843466698000,1.533697998046875,-20.571929931640625,129.75953674316406,-108.71009826660156
1773149843476788000,1.5437880859375,-20.764389038085938,129.84957885742188,-108.51223754882812
1773149843486878000,1.5538779296875,-20.70196533203125,130.18997192382812,-108.43583679199219
1773149843496968000,1.563968017578125,-20.840652465820312,130.1872100830078,-108.07211303710938
1773149843507058000,1.574057861328125,-20.932220458984375,130.3939971923828,-107.61138916015625
1773149843517148000,1.58414794921875,-21.4617919921875,130.3250274658203,-106.93699645996094
1773149843527236900,1.59423681640625,-21.763168334960938,130.29296875,-106.38954162597656
1773149843537327000,1.6043271484375,-21.400421142578125,130.35675048828125,-105.98683166503906
1773149843547416800,1.614416748046875,-21.498031616210938,130.30734252929688,-105.88531494140625
1773149843557508000,1.624508056640625,-21.936798095703125,130.05227661132812,-105.69940185546875
1773149843567598800,1.634598876953125,-22.152099609375,130.2480010986328,-105.46588134765625
1773149843577688000,1.64468798828125,-22.280548095703125,130.06655883789062,-105.157958984375
1773149843587779000,1.654779052734375,-22.40325927734375,129.96054077148438,-104.86492919921875
1773149843597869800,1.664869873046875,-22.499282836914062,129.86892700195312,-104.92965698242188
1773149843607960800,1.6749609375,-22.42828369140625,130.07933044433594,-104.84223937988281
1773149843618051000,1.685051025390625,-22.497634887695312,130.14039611816406,-105.04557800292969
1773149843628141800,1.695141845703125,-22.083145141601562,130.1748504638672,-104.94486999511719
1773149843638231000,1.70523095703125,-21.921707153320312,130.21847534179688,-105.38914489746094
1773149843648321000,1.715321044921875,-21.585983276367188,130.53973388671875,-105.56158447265625
1773149843658411000,1.725410888671875,-21.414459228515625,130.81019592285156,-106.07548522949219
1773149843668501000,1.7355009765625,-20.747116088867188,131.17552185058594,-106.64828491210938
1773149843678591000,1.745591064453125,-20.213973999023438,131.24900817871094,-106.75152587890625
1773149843688681000,1.755680908203125,-20.313034057617188,131.40086364746094,-107.1361083984375
1773149843698771000,1.76577099609375,-20.24530029296875,131.53375244140625,-107.03465270996094
1773149843708860000,1.77585986328125,-20.179901123046875,131.6124267578125,-106.57664489746094
1773149843718948900,1.785948974609375,-20.266281127929688,131.9855499267578,-106.67530822753906
1773149843729038000,1.7960380859375,-19.69818115234375,132.02694702148438,-106.17543029785156
1773149843739127800,1.8061279296875,-19.634414672851562,132.53192138671875,-106.34385681152344
1773149843749217000,1.816217041015625,-19.400711059570312,132.3737335205078,-106.22300720214844
1773149843759306000,1.826305908203125,-19.58978271484375,132.26315307617188,-106.21717834472656
1773149843769395700,1.836395751953125,-19.617782592773438,131.97805786132812,-105.87518310546875
1773149843779486000,1.84648583984375,-19.834381103515625,131.5574951171875,-105.70840454101562
1773149843789575000,1.856574951171875,-20.187942504882812,131.0237579345703,-105.37153625488281
1773149843799665000,1.866664794921875,-20.46868896484375,130.88560485839844,-105.09112548828125
1773149843809755000,1.8767548828125,-20.939651489257812,130.7091827392578,-104.61485290527344
1773149843819844000,1.886843994140625,-20.696212768554688,130.5231170654297,-104.54237365722656
1773149843829933000,1.89693310546875,-20.847335815429688,130.5218048095703,-105.39970397949219
1773149843840021800,1.907021728515625,-20.032882690429688,130.1170654296875,-106.47784423828125
1773149843850111000,1.917111083984375,-18.87298583984375,129.80908203125,-107.92034912109375
1773149843860200000,1.927199951171875,-18.36279296875,129.46432495117188,-109.78904724121094
1773149843870289000,1.937288818359375,-16.900527954101562,129.2291259765625,-111.11276245117188
1773149843880380000,1.9473798828125,-16.091018676757812,128.5518035888672,-112.87008666992188
1773149843890468900,1.95746875,-15.208526611328125,127.82867431640625,-113.81547546386719
1773149843900557000,1.96755712890625,-14.260757446289062,127.37098693847656,-114.75189208984375
1773149843910646000,1.97764599609375,-13.9361572265625,126.85807800292969,-115.49996948242188
1773149843920733000,1.98773291015625,-13.626815795898438,126.20057678222656,-116.07218933105469
1773149843930820000,1.997820068359375,-13.153244018554688,125.38671875,-116.65132141113281
1773149843940907000,2.007906982421875,-12.824066162109375,124.83961486816406,-116.96670532226562
1773149843950996000,2.017995849609375,-12.822982788085938,124.21365356445312,-117.45919799804688
1773149843961086000,2.0280859375,-12.255035400390625,123.6654052734375,-117.89750671386719
1773149843971175000,2.0381748046875,-12.104782104492188,122.77740478515625,-117.99105834960938
1773149843981265000,2.048264892578125,-11.942733764648438,122.4791259765625,-118.44442749023438
1773149843991354000,2.05835400390625,-12.221023559570312,122.13459777832031,-118.38804626464844
1773149844001443800,2.06844384765625,-12.596176147460938,122.45021057128906,-118.166748046875
1773149844011534800,2.078534912109375,-12.96392822265625,122.816162109375,-117.80230712890625
1773149844021623800,2.088623779296875,-13.674163818359375,122.769775390625,-117.18948364257812
1773149844031713000,2.098713134765625,-14.401626586914062,123.03915405273438,-116.59942626953125
1773149844041802000,2.108802001953125,-15.17333984375,123.08638000488281,-116.13667297363281
1773149844051891000,2.118890869140625,-15.860076904296875,123.03302001953125,-115.49394226074219
1773149844061980000,2.12897998046875,-16.26483154296875,122.77870178222656,-114.75848388671875
1773149844072070000,2.13906982421875,-17.0458984375,122.19290161132812,-114.70234680175781
1773149844082159000,2.1491591796875,-16.927215576171875,122.23365783691406,-114.31547546386719
1773149844092248000,2.159248046875,-17.04248046875,122.48980712890625,-114.54010009765625
1773149844102337800,2.169337890625,-16.837265014648438,122.73284912109375,-114.41743469238281
1773149844112428000,2.179427978515625,-16.551040649414062,122.93954467773438,-114.32868957519531
1773149844122517800,2.189517822265625,-16.45684814453125,123.50344848632812,-114.35435485839844
1773149844132607000,2.19960693359375,-16.48309326171875,123.80500793457031,-114.32936096191406
1773149844142697000,2.209697021484375,-16.591140747070312,124.38308715820312,-114.16943359375
1773149844152786000,2.219785888671875,-17.011123657226562,124.40019226074219,-113.84635925292969
1773149844162876000,2.2298759765625,-16.981658935546875,124.53939819335938,-113.38111877441406
1773149844172966000,2.2399658203125,-17.255706787109375,124.71273803710938,-113.21559143066406
1773149844183056000,2.250055908203125,-17.34185791015625,124.88737487792969,-113.05656433105469
1773149844193146000,2.26014599609375,-17.642578125,124.69050598144531,-112.58334350585938
1773149844203234800,2.27023486328125,-17.619186401367188,125.01626586914062,-112.56169128417969
1773149844213320400,2.280320556640625,-17.573516845703125,125.16925048828125,-112.43168640136719
1773149844223409400,2.290409423828125,-17.420761108398438,125.10743713378906,-112.45880126953125
1773149844233498400,2.300498291015625,-17.662307739257812,125.26480102539062,-112.64149475097656
1773149844243587600,2.310587646484375,-17.42681884765625,125.35919189453125,-112.76927185058594
1773149844253677300,2.32067724609375,-16.832611083984375,125.33961486816406,-112.59054565429688
1773149844263767600,2.330767578125,-17.25433349609375,125.46064758300781,-113.11134338378906
1773149844273859600,2.340859619140625,-17.3525390625,125.5970458984375,-113.10202026367188
1773149844283950300,2.350950439453125,-17.288787841796875,125.86250305175781,-113.20794677734375
1773149844294041300,2.361041259765625,-17.3636474609375,125.75177001953125,-113.16592407226562
1773149844304132400,2.37113232421875,-16.93023681640625,125.89125061035156,-112.92544555664062
1773149844314222300,2.381222412109375,-16.859481811523438,126.00251770019531,-113.30174255371094
1773149844324312600,2.3913125,-16.501556396484375,126.25959777832031,-113.14289855957031
1773149844334402300,2.40140234375,-16.331085205078125,126.10919189453125,-113.092041015625
1773149844344493300,2.411493408203125,-16.595474243164062,126.28132629394531,-113.14724731445312
1773149844354585300,2.42158544921875,-16.419342041015625,126.36711120605469,-112.95101928710938
1773149844364675600,2.431675537109375,-16.5369873046875,126.38348388671875,-112.87269592285156
1773149844374766300,2.441766357421875,-16.457931518554688,126.45550537109375,-113.0809326171875
1773149844384856600,2.451856689453125,-16.34747314453125,126.91680908203125,-113.09991455078125
1773149844394946300,2.4619462890625,-16.090835571289062,126.82368469238281,-112.897705078125
1773149844405035500,2.472035400390625,-16.3172607421875,126.99050903320312,-112.88908386230469
1773149844415125200,2.482125244140625,-15.708892822265625,127.00599670410156,-113.17709350585938
1773149844425216500,2.492216552734375,-15.816635131835938,127.16496276855469,-113.05368041992188
1773149844435306500,2.502306396484375,-15.66680908203125,127.46574401855469,-113.08311462402344
1773149844445397500,2.5123974609375,-15.157699584960938,127.52780151367188,-112.85279846191406
1773149844455487500,2.522487548828125,-15.450424194335938,127.58230590820312,-113.20378112792969
1773149844465578200,2.532578125,-15.188262939453125,127.83627319335938,-113.28413391113281
1773149844475668500,2.54266845703125,-14.82666015625,128.0960235595703,-113.29072570800781
1773149844485760500,2.552760498046875,-14.932159423828125,128.03392028808594,-113.30995178222656
1773149844495851500,2.5628515625,-14.370468139648438,128.1231689453125,-113.14874267578125
1773149844505941500,2.57294140625,-14.61834716796875,128.1716766357422,-113.30453491210938
1773149844516032500,2.583032470703125,-14.581008911132812,128.3007354736328,-113.36068725585938
1773149844526124500,2.59312451171875,-14.726303100585938,128.23828125,-113.52604675292969
1773149844536215600,2.603215576171875,-14.402801513671875,128.49853515625,-113.46826171875
1773149844546306300,2.613306396484375,-14.303939819335938,128.3547821044922,-113.55961608886719
1773149844556397300,2.623397216796875,-14.67193603515625,128.57797241210938,-113.67039489746094
1773149844566489300,2.6334892578125,-14.4571533203125,128.435546875,-113.67503356933594
1773149844576581400,2.643581298828125,-14.653945922851562,128.54415893554688,-113.76019287109375
1773149844586671400,2.65367138671875,-14.441482543945312,128.59127807617188,-113.63949584960938
1773149844596762400,2.663762451171875,-14.42449951171875,128.58865356445312,-113.53215026855469
1773149844606853400,2.673853271484375,-14.527786254882812,128.67828369140625,-113.54139709472656
1773149844616944600,2.683944580078125,-14.395294189453125,128.69309997558594,-113.32496643066406
1773149844627036400,2.694036376953125,-14.572967529296875,128.7258758544922,-113.4261474609375
1773149844637126400,2.70412646484375,-14.131240844726562,129.0077667236328,-113.1395263671875
1773149844647215400,2.71421533203125,-14.388381958007812,128.88539123535156,-113.30790710449219
1773149844657301500,2.724301513671875,-14.0457763671875,129.1081085205078,-113.34867858886719
1773149844667389400,2.734389404296875,-14.486190795898438,129.24420166015625,-113.18769836425781
1773149844677476400,2.744476318359375,-14.256378173828125,129.05992126464844,-113.14031982421875
1773149844687564300,2.754564208984375,-13.945419311523438,129.28756713867188,-113.01165771484375
1773149844697653500,2.764653564453125,-14.053192138671875,129.1702880859375,-113.19674682617188
1773149844707742500,2.774742431640625,-14.344589233398438,129.1442108154297,-113.1942138671875
1773149844717830400,2.784830322265625,-14.036346435546875,129.11932373046875,-113.22007751464844
1773149844727918300,2.79491845703125,-14.075714111328125,129.3629150390625,-113.358154296875
1773149844738006300,2.80500634765625,-13.83306884765625,129.3603057861328,-113.39320373535156
1773149844748094200,2.81509423828125,-13.561126708984375,129.56219482421875,-113.47015380859375
1773149844758182400,2.825182373046875,-13.3751220703125,129.62673950195312,-113.57777404785156
1773149844768270600,2.8352705078125,-13.193923950195312,129.53492736816406,-113.58648681640625
1773149844778360300,2.8453603515625,-12.806900024414062,129.78451538085938,-113.57954406738281
1773149844788448300,2.8554482421875,-13.06829833984375,129.68270874023438,-113.86366271972656
1773149844798535400,2.865535400390625,-12.590850830078125,129.687255859375,-113.88970947265625
1773149844808622300,2.875622314453125,-12.756484985351562,129.8766326904297,-113.84532165527344
1773149844818709200,2.885709228515625,-12.378173828125,130.00106811523438,-114.13287353515625
1773149844828796400,2.89579638671875,-11.858749389648438,129.9470977783203,-113.82632446289062
1773149844838884400,2.90588427734375,-11.84576416015625,129.97189331054688,-114.16456604003906
1773149844848972300,2.91597216796875,-11.664627075195312,129.97341918945312,-114.23155212402344
1773149844859060500,2.926060546875,-11.44305419921875,129.96200561523438,-114.22659301757812
1773149844869147600,2.936147705078125,-11.176437377929688,130.25320434570312,-114.21174621582031
1773149844879234600,2.946234619140625,-10.890289306640625,130.0467071533203,-113.94035339355469
1773149844889319400,2.9563193359375,-10.8817138671875,129.93569946289062,-114.28004455566406
1773149844899406300,2.96640625,-10.541656494140625,130.0334930419922,-114.35391235351562
1773149844909492500,2.976492431640625,-10.51751708984375,130.04470825195312,-114.49411010742188
1773149844919579400,2.986579345703125,-10.504608154296875,129.9512176513672,-114.41142272949219
1773149844929666600,2.99666650390625,-10.236404418945312,130.0305938720703,-114.42814636230469
1773149844939755500,3.006755615234375,-10.303817749023438,130.30018615722656,-114.51301574707031
1773149844949843500,3.016843505859375,-10.027053833007812,130.14840698242188,-114.74229431152344
1773149844959930400,3.026930419921875,-10.082275390625,129.9826202392578,-114.69236755371094
1773149844970018300,3.037018310546875,-9.792678833007812,130.0114288330078,-114.89277648925781
1773149844980106200,3.047106201171875,-9.488189697265625,129.9203338623047,-114.76123046875
1773149844990194400,3.0571943359375,-9.494644165039062,130.11302185058594,-114.88174438476562
1773149845000283400,3.067283447265625,-9.4285888671875,130.2450714111328,-114.95549011230469
1773149845010372400,3.077372314453125,-9.547927856445312,130.3617706298828,-114.83631896972656
1773149845020462600,3.087462646484375,-9.398666381835938,130.70611572265625,-114.81005859375
1773149845030551600,3.097551513671875,-9.68505859375,130.6438751220703,-114.675537109375
1773149845040640300,3.10764013671875,-9.774124145507812,130.620361328125,-114.56022644042969
1773149845050729500,3.1177294921875,-9.903594970703125,130.79037475585938,-114.47761535644531
1773149845060819500,3.1278193359375,-9.69622802734375,130.62879943847656,-114.51341247558594
1773149845070908700,3.13790869140625,-9.940505981445312,130.7671356201172,-114.25796508789062
1773149845080998400,3.147998291015625,-10.19476318359375,130.7848663330078,-114.41569519042969
1773149845091088600,3.158088623046875,-10.141586303710938,130.8307342529297,-114.35299682617188
1773149845101177300,3.16817724609375,-9.917510986328125,130.72853088378906,-114.57536315917969
1773149845111266300,3.178266357421875,-10.376083374023438,130.94073486328125,-114.67018127441406
1773149845121356500,3.1883564453125,-10.150039672851562,130.87060546875,-114.61984252929688
1773149845131445500,3.198445556640625,-9.894760131835938,130.52146911621094,-114.78794860839844
1773149845141535500,3.208535400390625,-9.894210815429688,130.53335571289062,-115.10614013671875
1773149845151624400,3.21862451171875,-9.659133911132812,130.5873260498047,-115.01187133789062
1773149845161715500,3.228715576171875,-9.493621826171875,130.50640869140625,-115.02491760253906
1773149845171805400,3.238805419921875,-9.37799072265625,130.61399841308594,-115.23677062988281
1773149845181895400,3.2488955078125,-9.42169189453125,130.5111083984375,-115.38433837890625
1773149845191986400,3.258986328125,-8.830047607421875,130.4708709716797,-115.49545288085938
1773149845202075400,3.269075439453125,-8.978469848632812,130.4112091064453,-115.48263549804688
1773149845212163300,3.279163330078125,-8.847122192382812,130.35101318359375,-115.39341735839844
1773149845222254600,3.289254638671875,-8.754150390625,130.6353302001953,-115.69789123535156
1773149845232344300,3.29934423828125,-8.609664916992188,130.44882202148438,-115.55964660644531
1773149845242433500,3.30943359375,-8.726089477539062,130.5867156982422,-115.5440673828125
1773149845252523500,3.3195234375,-8.5125732421875,130.67539978027344,-115.35096740722656
1773149845262611500,3.329611572265625,-8.311370849609375,130.54420471191406,-115.28282165527344
1773149845272700700,3.33970068359375,-8.396804809570312,130.90382385253906,-115.54403686523438
1773149845282788600,3.34978857421875,-8.647720336914062,130.74664306640625,-115.58596801757812
1773149845292877300,3.359877197265625,-8.628890991210938,130.75831604003906,-115.53900146484375
1773149845302966300,3.36996630859375,-8.403060913085938,130.8081817626953,-115.57197570800781
1773149845313054200,3.38005419921875,-8.154251098632812,130.8260955810547,-115.43330383300781
1773149845323143400,3.390143310546875,-8.512161254882812,130.3800506591797,-115.50288391113281
1773149845333232400,3.400232421875,-8.444595336914062,130.47000122070312,-115.54730224609375
1773149845343322600,3.410322509765625,-8.014007568359375,130.60159301757812,-115.56678771972656
1773149845353411300,3.420411376953125,-8.3997802734375,130.8782196044922,-115.63720703125
1773149845363500300,3.430500244140625,-8.344894409179688,130.34942626953125,-115.77511596679688
1773149845373590500,3.440590576171875,-8.404953002929688,130.56137084960938,-115.76002502441406
1773149845383679500,3.450679443359375,-8.287994384765625,130.7122802734375,-115.64968872070312
1773149845393769500,3.46076953125,-8.465850830078125,130.68865966796875,-115.78326416015625
1773149845403858400,3.4708583984375,-8.262252807617188,130.6298828125,-115.65225219726562
1773149845413945300,3.4809453125,-8.376251220703125,130.68136596679688,-115.70635986328125
1773149845424034300,3.491034423828125,-8.343704223632812,130.8209228515625,-115.70866394042969
1773149845434124500,3.50112451171875,-8.572113037109375,130.72409057617188,-115.69584655761719
1773149845444214300,3.51121435546875,-8.641860961914062,130.6671142578125,-115.48487854003906
1773149845454303500,3.521303466796875,-8.83709716796875,131.0797576904297,-115.31730651855469
1773149845464391400,3.531391357421875,-8.979522705078125,130.8133087158203,-115.46286010742188
1773149845474480400,3.54148046875,-9.0911865234375,130.91744995117188,-115.515625
1773149845484569600,3.551569580078125,-8.8935546875,130.96043395996094,-115.43206787109375
1773149845494658600,3.561658447265625,-8.99481201171875,130.8681182861328,-115.56553649902344
1773149845504746500,3.57174658203125,-8.473648071289062,130.67471313476562,-115.49850463867188
1773149845514834400,3.58183447265625,-8.825439453125,130.51194763183594,-115.72929382324219
1773149845524922400,3.59192236328125,-8.711654663085938,130.20025634765625,-115.74942016601562
1773149845535010300,3.60201025390625,-8.295745849609375,130.0420684814453,-116.13038635253906
1773149845545098500,3.612098388671875,-8.2598876953125,129.7023162841797,-116.39488220214844
1773149845555188500,3.6221884765625,-7.5194244384765625,129.32969665527344,-116.58967590332031
1773149845565278500,3.632278564453125,-7.49603271484375,129.37608337402344,-116.96034240722656
1773149845575367400,3.642367431640625,-6.807891845703125,129.1295166015625,-117.38996887207031
1773149845585455400,3.652455322265625,-5.401641845703125,129.18429565429688,-117.80644226074219
1773149845595543300,3.662543212890625,-4.14300537109375,128.68182373046875,-118.49038696289062
1773149845605629400,3.67262939453125,-3.3798980712890625,128.29173278808594,-119.07426452636719
1773149845615716400,3.68271630859375,-2.5776519775390625,128.01145935058594,-119.34553527832031
1773149845625803500,3.692803466796875,-2.2738189697265625,127.57220458984375,-119.73493957519531
1773149845635890400,3.702890380859375,-2.10150146484375,127.43978881835938,-119.80343627929688
1773149845645977600,3.7129775390625,-2.30401611328125,127.06153869628906,-119.63441467285156
1773149845656066300,3.72306640625,-2.7506256103515625,126.65667724609375,-119.47882080078125
1773149845666153500,3.733153564453125,-4.1166229248046875,126.17201232910156,-119.42607116699219
1773149845676241400,3.743241455078125,-4.8973236083984375,126.46127319335938,-119.13473510742188
1773149845686328300,3.753328369140625,-5.4026031494140625,126.74014282226562,-118.85560607910156
1773149845696417300,3.763417236328125,-5.4080963134765625,126.89109802246094,-118.51005554199219
1773149845706507500,3.773507568359375,-5.7438507080078125,126.98667907714844,-118.78915405273438
1773149845716596500,3.783596435546875,-5.7467041015625,127.10476684570312,-118.73760986328125
1773149845726686500,3.7936865234375,-6.005035400390625,127.05770874023438,-118.62519836425781
1773149845736776400,3.8037763671875,-6.4566497802734375,126.94650268554688,-118.53550720214844
1773149845746866400,3.813866455078125,-6.017547607421875,127.12889099121094,-118.33145141601562
1773149845756955400,3.823955322265625,-6.2408905029296875,127.26451110839844,-118.41520690917969
1773149845767043300,3.834043212890625,-6.2075653076171875,127.05708312988281,-118.54396057128906
1773149845777132500,3.844132568359375,-6.1321563720703125,127.22169494628906,-118.32554626464844
1773149845787221500,3.854221435546875,-5.89385986328125,127.38095092773438,-118.52400207519531
1773149845797310500,3.864310546875,-5.6312713623046875,127.39639282226562,-118.65330505371094
1773149845807399400,3.8743994140625,-5.294342041015625,127.27049255371094,-118.67820739746094
1773149845817488400,3.88448828125,-4.944549560546875,127.39144897460938,-118.93795776367188
1773149845827577300,3.894577392578125,-5.201263427734375,127.50799560546875,-118.77755737304688
1773149845837666600,3.90466650390625,-4.784454345703125,127.48362731933594,-118.69276428222656
1773149845847756300,3.91475634765625,-4.5537261962890625,127.41717529296875,-119.02841186523438
1773149845857847600,3.92484765625,-4.6282501220703125,127.40655517578125,-118.94306945800781
1773149845867936300,3.934936279296875,-4.7766571044921875,127.21220397949219,-118.9775390625
1773149845878026500,3.945026611328125,-4.736541748046875,127.22476196289062,-119.08995056152344
1773149845888116500,3.955116455078125,-4.6573028564453125,127.37603759765625,-119.26502990722656
1773149845898206500,3.96520654296875,-4.4669952392578125,126.97036743164062,-119.12229919433594
1773149845908296400,3.97529638671875,-4.722686767578125,127.12181091308594,-119.23834228515625
1773149845918385400,3.985385498046875,-4.6584014892578125,127.03761291503906,-119.14584350585938
1773149845928475400,3.995475341796875,-5.24151611328125,126.97018432617188,-119.08456420898438
1773149845938564600,4.005564697265625,-5.4800262451171875,127.14353942871094,-118.92402648925781
1773149845948653600,4.015653564453125,-6.291748046875,127.25228881835938,-118.73580932617188
1773149845958741500,4.025741455078125,-6.8187103271484375,127.37994384765625,-118.62315368652344
1773149845968831500,4.03583154296875,-7.31451416015625,127.57962036132812,-118.1337890625
1773149845978922200,4.045922119140625,-7.1721343994140625,127.49472045898438,-117.75144958496094
1773149845989011500,4.056011474609375,-8.166366577148438,127.69779968261719,-117.64752197265625
1773149845999101400,4.066101318359375,-8.149917602539062,127.92109680175781,-117.27609252929688
1773149846009190400,4.0761904296875,-8.318695068359375,128.20089721679688,-117.14666748046875
1773149846019281400,4.086281494140625,-8.54705810546875,128.5990753173828,-117.12823486328125
1773149846029370600,4.09637060546875,-8.941162109375,129.02902221679688,-116.66630554199219
1773149846039460400,4.10646044921875,-9.269622802734375,128.9978790283203,-116.38131713867188
1773149846049551400,4.11655126953125,-9.825653076171875,129.1284942626953,-116.06585693359375
1773149846059641300,4.126641357421875,-9.997283935546875,129.20977783203125,-115.96890258789062
1773149846069730600,4.13673046875,-9.935897827148438,129.45584106445312,-115.97833251953125
1773149846079819500,4.146819580078125,-9.947860717773438,129.1705780029297,-115.59724426269531
1773149846089909200,4.1569091796875,-10.182373046875,129.3090057373047,-115.78398132324219
1773149846099999500,4.16699951171875,-10.23577880859375,129.11866760253906,-115.906982421875
1773149846110088400,4.17708837890625,-10.380828857421875,128.81936645507812,-115.86566162109375
1773149846120178400,4.187178466796875,-10.495681762695312,128.91404724121094,-115.95429992675781
1773149846130268400,4.197268310546875,-10.099899291992188,128.9276885986328,-116.02720642089844
1773149846140357400,4.207357421875,-10.06646728515625,128.86973571777344,-116.19001770019531
1773149846150447400,4.217447265625,-10.2559814453125,128.79991149902344,-116.19966125488281
1773149846160535300,4.227535400390625,-10.502944946289062,128.5581817626953,-116.36723327636719
1773149846170624500,4.23762451171875,-10.285324096679688,128.39671325683594,-116.18460083007812
1773149846180714500,4.247714599609375,-10.210723876953125,128.37098693847656,-116.30165100097656
1773149846190802400,4.257802490234375,-10.325469970703125,128.40687561035156,-116.28456115722656
1773149846200892400,4.267892333984375,-10.237197875976562,128.41383361816406,-116.32411193847656
1773149846210982700,4.277982666015625,-10.440933227539062,128.16136169433594,-116.24769592285156
1773149846221071400,4.2880712890625,-10.66864013671875,128.2576446533203,-115.92578125
1773149846231159800,4.298159912109375,-10.609130859375,128.1278076171875,-115.88589477539062
1773149846241250600,4.30825048828125,-10.933761596679688,128.20416259765625,-115.72634887695312
1773149846251341600,4.318341552734375,-11.470596313476562,128.27317810058594,-115.50587463378906
1773149846261431800,4.328431884765625,-11.503311157226562,128.3090362548828,-115.21795654296875
1773149846271521500,4.338521484375,-11.661849975585938,128.36280822753906,-115.03268432617188
1773149846281612500,4.348612548828125,-12.363784790039062,128.39413452148438,-114.97236633300781
1773149846291703800,4.358703857421875,-12.620040893554688,128.37115478515625,-114.93525695800781
1773149846301794600,4.368794677734375,-12.796875,128.6088104248047,-114.77066040039062
1773149846311885600,4.378885498046875,-13.006210327148438,128.5624542236328,-114.62861633300781
1773149846321976600,4.3889765625,-13.262741088867188,128.22610473632812,-114.47219848632812
1773149846332066600,4.399066650390625,-13.763153076171875,128.22238159179688,-114.46525573730469
1773149846342156500,4.409156494140625,-13.882583618164062,127.93284606933594,-114.38287353515625
1773149846352246500,4.41924658203125,-14.016876220703125,127.66793823242188,-114.44322204589844
1773149846362336500,4.42933642578125,-13.738922119140625,127.67031860351562,-114.31808471679688
1773149846372426500,4.439426513671875,-13.976699829101562,127.74356079101562,-114.46977233886719
1773149846382517500,4.449517578125,-14.04803466796875,127.58589172363281,-114.50157165527344
1773149846392608800,4.45960888671875,-13.98260498046875,127.67941284179688,-114.41633605957031
1773149846402699800,4.46969970703125,-14.232086181640625,127.41944885253906,-114.41789245605469
1773149846412789500,4.47978955078125,-14.312774658203125,127.499267578125,-114.12612915039062
1773149846422880800,4.489880859375,-14.482879638671875,127.43904113769531,-113.99490356445312
1773149846432970500,4.499970458984375,-14.684494018554688,127.25740051269531,-113.83418273925781
1773149846443059700,4.510059814453125,-15.077590942382812,127.57366943359375,-113.61314392089844
1773149846453150500,4.520150390625,-15.168502807617188,127.34677124023438,-113.43202209472656
1773149846463240700,4.53024072265625,-15.033798217773438,127.56617736816406,-113.06895446777344
1773149846473330400,4.540330322265625,-15.567092895507812,127.68482971191406,-113.1624755859375
1773149846483419600,4.550419677734375,-15.56396484375,127.79814147949219,-112.968994140625
1773149846493509600,4.560509521484375,-15.859054565429688,127.61241149902344,-112.96177673339844
1773149846503599600,4.570599609375,-15.880386352539062,127.63194274902344,-112.62355041503906
1773149846513689600,4.580689697265625,-16.290191650390625,127.41966247558594,-112.48333740234375
1773149846523778600,4.590778564453125,-16.502487182617188,127.13766479492188,-112.37471008300781
1773149846533868500,4.60086865234375,-16.3297119140625,127.35014343261719,-112.35066223144531
1773149846543958800,4.610958740234375,-16.6954345703125,127.14080810546875,-112.29708862304688
1773149846554049500,4.621049560546875,-17.079315185546875,126.87702941894531,-112.27461242675781
1773149846564139500,4.631139404296875,-17.02667236328125,126.84352111816406,-112.16453552246094
1773149846574229800,4.641229736328125,-17.33087158203125,126.90298461914062,-112.17276000976562
1773149846584319500,4.651319580078125,-17.54443359375,126.72425842285156,-112.0919189453125
1773149846594409700,4.66140966796875,-17.570907592773438,126.39378356933594,-111.84173583984375
1773149846604498700,4.671498779296875,-17.531097412109375,126.70228576660156,-111.66690063476562
1773149846614588400,4.68158837890625,-17.942962646484375,126.43272399902344,-111.5020751953125
1773149846624676600,4.691676513671875,-18.223770141601562,126.4918212890625,-111.40757751464844
1773149846634764500,4.7017646484375,-18.291488647460938,126.34811401367188,-111.29249572753906
1773149846644855600,4.71185546875,-18.589431762695312,126.14349365234375,-110.94563293457031
1773149846654944800,4.72194482421875,-18.362045288085938,126.62089538574219,-110.81190490722656
1773149846665035500,4.732035400390625,-18.5555419921875,126.49050903320312,-111.01203918457031
1773149846675125500,4.74212548828125,-18.75335693359375,126.51971435546875,-110.78106689453125
1773149846685216800,4.752216796875,-18.80413818359375,126.40696716308594,-110.66693115234375
1773149846695305500,4.762305419921875,-19.028228759765625,126.38528442382812,-110.65809631347656
1773149846705396700,4.772396728515625,-18.58502197265625,126.44436645507812,-110.54571533203125
1773149846715488800,4.78248876953125,-18.846817016601562,126.33004760742188,-110.53672790527344
1773149846725578500,4.79257861328125,-18.9525146484375,126.58689880371094,-110.58111572265625
1773149846735669500,4.80266943359375,-18.880859375,126.43916320800781,-110.58158874511719
1773149846745760800,4.8127607421875,-18.873580932617188,126.48231506347656,-110.50314331054688
1773149846755851500,4.8228515625,-18.924346923828125,126.50733947753906,-110.56330871582031
1773149846765941500,4.83294140625,-19.015548706054688,126.57038879394531,-110.58201599121094
1773149846776032800,4.84303271484375,-18.77685546875,126.53460693359375,-110.55833435058594
1773149846786123500,4.85312353515625,-18.693466186523438,126.47152709960938,-110.58647155761719
1773149846796214500,4.863214599609375,-18.54473876953125,126.51475524902344,-110.56806945800781
1773149846806305500,4.873305419921875,-18.59173583984375,126.69233703613281,-110.59452819824219
1773149846816397600,4.8833974609375,-18.2855224609375,126.89996337890625,-110.85618591308594
1773149846826487600,4.893487548828125,-18.179519653320312,126.85939025878906,-110.78033447265625
1773149846836578600,4.90357861328125,-18.183090209960938,126.7852783203125,-110.96517944335938
1773149846846669600,4.913669677734375,-17.755813598632812,126.62550354003906,-110.65487670898438
1773149846856759600,4.923759521484375,-18.22900390625,126.6231689453125,-111.03129577636719
1773149846866849500,4.933849609375,-18.264633178710938,126.73100280761719,-111.17608642578125
1773149846876939500,4.943939453125,-18.385513305664062,126.82908630371094,-111.19390869140625
1773149846887031600,4.954031494140625,-18.074371337890625,126.72662353515625,-111.20602416992188
1773149846897121800,4.964121826171875,-18.044174194335938,126.96849060058594,-111.25529479980469
1773149846907212500,4.974212646484375,-17.9403076171875,126.86514282226562,-111.35456848144531
1773149846917302500,4.984302490234375,-17.883193969726562,126.98985290527344,-111.61947631835938
1773149846927393800,4.994393798828125,-17.660263061523438,127.02224731445312,-111.6051025390625
1773149846937484500,5.004484619140625,-17.564132690429688,126.93026733398438,-111.59681701660156
1773149846947573800,5.01457373046875,-17.485107421875,126.90521240234375,-111.66471862792969
1773149846957662500,5.024662353515625,-17.938308715820312,127.05523681640625,-111.6285400390625
1773149846967752700,5.034752685546875,-17.855010986328125,127.02836608886719,-111.71456909179688
1773149846977842700,5.0448427734375,-17.380218505859375,127.25430297851562,-111.60989379882812
1773149846987932700,5.0549326171875,-17.16595458984375,127.28559875488281,-111.71238708496094
1773149846998022700,5.065022705078125,-17.322982788085938,127.10275268554688,-111.80732727050781
1773149847008111600,5.075111572265625,-17.401641845703125,126.97515869140625,-111.77531433105469
1773149847018202600,5.08520263671875,-17.50885009765625,127.16795349121094,-111.66526794433594
1773149847028291600,5.09529150390625,-17.762466430664062,127.35151672363281,-111.81367492675781
1773149847038383400,5.10538330078125,-17.319320678710938,127.46603393554688,-111.66683959960938
1773149847048474600,5.115474609375,-17.069915771484375,127.37800598144531,-111.85682678222656
1773149847058565600,5.125565673828125,-17.34832763671875,127.49946594238281,-111.86317443847656
1773149847068655600,5.135655517578125,-17.072280883789062,127.39559936523438,-111.88517761230469
1773149847078745600,5.14574560546875,-17.187728881835938,127.26324462890625,-111.92303466796875
1773149847088835800,5.1558359375,-17.218292236328125,127.34440612792969,-111.90669250488281
1773149847098925600,5.165925537109375,-17.061080932617188,127.04188537597656,-111.77204895019531
1773149847109015800,5.176015869140625,-17.372161865234375,127.19538879394531,-112.02076721191406
1773149847119105500,5.18610546875,-17.116851806640625,127.31243896484375,-111.96083068847656
1773149847129195800,5.19619580078125,-17.140167236328125,127.12391662597656,-112.05317687988281
1773149847139283700,5.20628369140625,-16.865158081054688,127.23504638671875,-111.88078308105469
1773149847149372700,5.21637255859375,-16.899688720703125,127.29446411132812,-111.87091064453125
1773149847159461400,5.22646142578125,-17.162841796875,127.27177429199219,-112.19549560546875
1773149847169551600,5.236551513671875,-16.85626220703125,126.96414184570312,-112.18165588378906
1773149847179641600,5.2466416015625,-16.605682373046875,127.42599487304688,-112.14027404785156
1773149847189730600,5.25673046875,-16.59393310546875,127.21043395996094,-112.23446655273438
1773149847199820500,5.266820556640625,-16.43145751953125,127.23544311523438,-112.42573547363281
1773149847209908500,5.276908447265625,-16.406753540039062,127.34709167480469,-112.61239624023438
1773149847219997400,5.28699755859375,-16.108154296875,127.16592407226562,-112.74226379394531
1773149847230088400,5.29708837890625,-15.89599609375,127.29762268066406,-112.4481201171875
1773149847240178400,5.307178466796875,-15.857666015625,127.44091796875,-112.90936279296875
1773149847250267400,5.317267333984375,-15.851791381835938,127.46543884277344,-112.87335205078125
1773149847260356400,5.3273564453125,-15.483963012695312,127.36300659179688,-112.80455017089844
1773149847270446600,5.337446533203125,-15.717605590820312,127.55615234375,-112.91786193847656
1773149847280537300,5.347537353515625,-15.511276245117188,127.55513000488281,-112.65599060058594
1773149847290626600,5.35762646484375,-15.693466186523438,127.50991821289062,-112.86761474609375
1773149847300715500,5.367715576171875,-15.906631469726562,127.48188781738281,-112.828125
1773149847310805200,5.37780517578125,-15.910003662109375,127.51072692871094,-112.71974182128906
1773149847320895500,5.3878955078125,-16.03466796875,127.6436767578125,-112.79905700683594
1773149847330986500,5.397986572265625,-15.6669921875,127.73455810546875,-112.47666931152344
1773149847341076500,5.408076416015625,-15.87353515625,127.72915649414062,-112.52458190917969
1773149847351166500,5.41816650390625,-15.890975952148438,127.80499267578125,-112.51187133789062
1773149847361257200,5.42825732421875,-16.058685302734375,127.70144653320312,-112.7607421875
1773149847371348500,5.438348388671875,-15.999099731445312,127.41395568847656,-112.53901672363281
1773149847381440500,5.4484404296875,-16.125473022460938,127.51614379882812,-112.68310546875
1773149847391532500,5.458532470703125,-15.844833374023438,127.48381042480469,-112.42654418945312
1773149847401624300,5.468624267578125,-16.061813354492188,127.564697265625,-112.47248840332031
1773149847411716400,5.47871630859375,-15.875778198242188,127.67030334472656,-112.51451110839844
1773149847421807600,5.4888076171875,-15.612030029296875,127.60601806640625,-112.36270141601562
1773149847431897300,5.4988974609375,-15.848526000976562,127.56629943847656,-112.4847412109375
1773149847441988400,5.50898828125,-16.0540771484375,127.48855590820312,-112.29220581054688
1773149847452078300,5.519078369140625,-16.166107177734375,127.56687927246094,-112.26295471191406
1773149847462169300,5.52916943359375,-16.0570068359375,127.509033203125,-112.478759765625
1773149847472259600,5.539259521484375,-15.747634887695312,127.32029724121094,-111.99319458007812
1773149847482348500,5.5493486328125,-16.034622192382812,127.38983154296875,-112.27825927734375
1773149847492438300,5.559438232421875,-16.381515502929688,127.33786010742188,-112.1732177734375
1773149847502527500,5.569527587890625,-16.531646728515625,127.23345947265625,-112.27786254882812
1773149847512616400,5.579616455078125,-16.534698486328125,127.15974426269531,-112.17131042480469
1773149847522705400,5.589705322265625,-16.54876708984375,127.33425903320312,-112.09422302246094
1773149847532793600,5.599793701171875,-16.461471557617188,127.28189086914062,-112.09185791015625
1773149847542881500,5.609881591796875,-16.484375,127.31463623046875,-112.16622924804688
1773149847552971300,5.61997119140625,-16.396240234375,127.18231201171875,-112.0869140625
1773149847563059500,5.6300595703125,-16.819305419921875,127.21563720703125,-112.03794860839844
1773149847573148400,5.6401484375,-16.810791015625,127.16610717773438,-111.97201538085938
1773149847583236400,5.650236328125,-16.763214111328125,127.16294860839844,-112.03668212890625
1773149847593326300,5.660326416015625,-16.967742919921875,127.10334777832031,-112.19322204589844
1773149847603415600,5.67041552734375,-16.985733032226562,127.01808166503906,-111.96995544433594
1773149847613504500,5.68050439453125,-16.290756225585938,127.10597229003906,-111.79856872558594
1773149847623592400,5.690592529296875,-16.7447509765625,127.11346435546875,-111.998291015625
1773149847633682400,5.700682373046875,-16.477813720703125,126.85877990722656,-111.886474609375
1773149847643772400,5.7107724609375,-16.809814453125,127.02593994140625,-111.99540710449219
1773149847653864400,5.720864501953125,-16.67779541015625,127.05375671386719,-112.05177307128906
1773149847663955500,5.73095556640625,-16.768478393554688,127.01557922363281,-111.7982177734375
1773149847674047500,5.741047607421875,-16.926132202148438,126.96893310546875,-111.95646667480469
1773149847684138500,5.751138427734375,-17.122177124023438,126.90663146972656,-111.84481811523438
1773149847694230300,5.761230224609375,-17.26348876953125,126.88191223144531,-111.64366149902344
1773149847704320500,5.771320556640625,-17.389236450195312,126.65605163574219,-111.65419006347656
1773149847714410500,5.781410400390625,-17.227188110351562,126.83218383789062,-111.51507568359375
1773149847724501200,5.791501220703125,-17.748016357421875,126.74839782714844,-111.63369750976562
1773149847734592500,5.801592529296875,-17.555160522460938,126.70114135742188,-111.30964660644531
1773149847744684500,5.8116845703125,-17.582611083984375,126.90167236328125,-111.12910461425781
1773149847754776600,5.821776611328125,-17.78363037109375,126.69468688964844,-110.87466430664062
1773149847764868600,5.83186865234375,-17.999237060546875,126.72526550292969,-110.755126953125
1773149847774959400,5.84195947265625,-18.129241943359375,126.63356018066406,-110.38922119140625
1773149847785050400,5.85205029296875,-18.166961669921875,127.04515075683594,-110.32859802246094
1773149847795140600,5.862140625,-18.458694458007812,126.77320861816406,-109.970703125
1773149847805229300,5.872229248046875,-18.700836181640625,126.94775390625,-109.56707763671875
1773149847815318300,5.882318359375,-18.996170043945312,126.72645568847656,-109.37045288085938
1773149847825408500,5.892408447265625,-19.353256225585938,126.82023620605469,-109.1732177734375
1773149847835498200,5.902498291015625,-19.66156005859375,126.53273010253906,-108.84820556640625
1773149847845588500,5.91258837890625,-19.666915893554688,126.50167846679688,-108.48489379882812
1773149847855679500,5.922679443359375,-20.094940185546875,126.21369934082031,-108.082275390625
1773149847865770200,5.932770263671875,-20.769317626953125,126.1336669921875,-108.21893310546875
1773149847875861500,5.942861572265625,-20.923812866210938,125.90742492675781,-108.03831481933594
1773149847885952500,5.952952392578125,-21.061843872070312,126.05755615234375,-107.91413879394531
1773149847896042200,5.963042236328125,-21.131500244140625,125.66203308105469,-107.51002502441406
1773149847906132500,5.973132568359375,-21.2635498046875,125.58534240722656,-107.31517028808594
1773149847916224500,5.983224609375,-21.796554565429688,125.63606262207031,-107.21084594726562
1773149847926314200,5.993314208984375,-22.132431030273438,125.62345886230469,-107.12100219726562
1773149847936405500,6.003405517578125,-22.108001708984375,125.5963134765625,-106.86343383789062
1773149847946495500,6.01349560546875,-22.287155151367188,125.35479736328125,-106.63887023925781
1773149847956586200,6.023586181640625,-22.4615478515625,125.28738403320312,-106.58163452148438
1773149847966678300,6.03367822265625,-22.520782470703125,124.9658203125,-106.44004821777344
1773149847976769500,6.04376953125,-22.440200805664062,125.42611694335938,-106.51087951660156
1773149847986859300,6.053859375,-22.316238403320312,125.1072998046875,-106.40696716308594
1773149847996948500,6.063948486328125,-22.050247192382812,125.16743469238281,-106.24998474121094
1773149848007037400,6.074037353515625,-22.263824462890625,125.05401611328125,-106.62245178222656
1773149848017127400,6.08412744140625,-22.341033935546875,125.25814819335938,-106.635986328125
1773149848027216400,6.09421630859375,-22.5950927734375,125.07182312011719,-106.62065124511719
1773149848037307400,6.104307373046875,-22.739151000976562,125.10697937011719,-106.39274597167969
1773149848047398400,6.1143984375,-22.585678100585938,124.88774108886719,-105.99607849121094
1773149848057488400,6.12448828125,-22.725372314453125,124.88656616210938,-106.19979858398438
1773149848067578400,6.134578369140625,-22.916824340820312,125.07978820800781,-106.03038024902344
1773149848077667600,6.14466748046875,-22.883636474609375,124.94041442871094,-106.03938293457031
1773149848087756300,6.15475634765625,-23.078125,125.02287292480469,-106.04573059082031
1773149848097845200,6.16484521484375,-22.57855224609375,125.17341613769531,-105.96260070800781
1773149848107933400,6.174933349609375,-22.886306762695312,125.3482666015625,-106.07307434082031
1773149848118023400,6.1850234375,-22.95904541015625,125.5906982421875,-106.20133972167969
1773149848128110300,6.1951103515625,-22.797271728515625,125.51368713378906,-106.00764465332031
1773149848138199300,6.20519921875,-22.384002685546875,125.63720703125,-106.08834838867188
1773149848148287500,6.21528759765625,-22.316665649414062,125.96986389160156,-106.27214050292969
1773149848158376400,6.22537646484375,-22.492385864257812,126.07612609863281,-106.35275268554688
1773149848168465400,6.23546533203125,-22.196060180664062,126.63236999511719,-106.50125122070312
1773149848178555400,6.245555419921875,-21.9105224609375,126.49798583984375,-106.48713684082031
1773149848188645400,6.255645263671875,-21.779937744140625,126.96339416503906,-106.66128540039062
1773149848198735400,6.2657353515625,-21.465103149414062,127.12869262695312,-106.99971008300781
1773149848208826400,6.275826416015625,-21.241592407226562,127.58924865722656,-107.26901245117188
1773149848218916400,6.285916259765625,-20.576034545898438,127.71458435058594,-107.626708984375
1773149848229005300,6.29600537109375,-20.12799072265625,128.09664916992188,-108.02302551269531
1773149848239096300,6.306096435546875,-19.630935668945312,128.45860290527344,-108.14678955078125
1773149848249187300,6.316187255859375,-19.224639892578125,128.86178588867188,-109.08572387695312
1773149848259278300,6.3262783203125,-18.846450805664062,128.99154663085938,-109.46945190429688
1773149848269366300,6.3363662109375,-18.256271362304688,129.42320251464844,-110.01528930664062
1773149848279456300,6.346456298828125,-18.072097778320312,129.57418823242188,-110.25633239746094
1773149848289546200,6.356546142578125,-18.114212036132812,129.57911682128906,-110.15103149414062
1773149848299636500,6.366636474609375,-18.116165161132812,129.67698669433594,-110.30381774902344
1773149848309727200,6.376727294921875,-18.246780395507812,129.8347930908203,-110.19920349121094
1773149848319819300,6.3868193359375,-18.180557250976562,129.85911560058594,-109.95407104492188
1773149848329909200,6.3969091796875,-18.4375,129.6122589111328,-109.9154052734375
1773149848340000500,6.40700048828125,-18.153106689453125,130.08848571777344,-110.01707458496094
1773149848350091300,6.41709130859375,-17.798049926757812,130.0651397705078,-109.76469421386719
1773149848360181200,6.42718115234375,-17.597183227539062,130.138671875,-109.703369140625
1773149848370273300,6.437273193359375,-17.948486328125,129.97706604003906,-110.11442565917969
1773149848380364500,6.447364501953125,-17.943893432617188,129.9868927001953,-109.91970825195312
1773149848390456300,6.457456298828125,-18.067901611328125,130.16070556640625,-110.126220703125
1773149848400547300,6.46754736328125,-18.11639404296875,130.01773071289062,-110.56820678710938
1773149848410638300,6.477638427734375,-18.19329833984375,130.0284881591797,-110.75869750976562
1773149848420728300,6.487728271484375,-17.946548461914062,130.03570556640625,-110.92149353027344
1773149848430819300,6.4978193359375,-17.302261352539062,130.19366455078125,-110.97300720214844
1773149848440909300,6.507909423828125,-17.485443115234375,130.09646606445312,-111.18635559082031
1773149848450999300,6.517999267578125,-17.274459838867188,130.30062866210938,-111.40216064453125
1773149848461089300,6.52808935546875,-17.383895874023438,130.21607971191406,-111.16413879394531
1773149848471179300,6.53817919921875,-17.4591064453125,130.38021850585938,-111.09902954101562
1773149848481270300,6.548270263671875,-17.16363525390625,130.4471893310547,-110.81163024902344
1773149848491360500,6.558360595703125,-17.559371948242188,130.5814208984375,-110.752685546875
1773149848501451300,6.568451171875,-17.561508178710938,130.76986694335938,-110.53779602050781
1773149848511541200,6.578541259765625,-17.841201782226562,130.81475830078125,-110.33944702148438
1773149848521631200,6.58863134765625,-17.83416748046875,130.62429809570312,-110.08566284179688
1773149848531721500,6.598721435546875,-17.666091918945312,130.4539031982422,-110.04151916503906
1773149848541812500,6.6088125,-17.835708618164062,130.5189666748047,-109.94464111328125
1773149848551902200,6.618902099609375,-18.089111328125,130.26051330566406,-110.05335998535156
1773149848561990100,6.628990234375,-18.148178100585938,130.44871520996094,-110.11585998535156
1773149848572079400,6.639079345703125,-17.915267944335938,130.2218017578125,-110.04931640625
1773149848582167300,6.649167236328125,-18.424774169921875,130.1439666748047,-110.17536926269531
1773149848592255200,6.659255126953125,-18.491455078125,130.05609130859375,-110.13194274902344
1773149848602344200,6.66934423828125,-18.6922607421875,129.9093017578125,-110.13241577148438
1773149848612432100,6.67943212890625,-18.8240966796875,130.0009765625,-110.14665222167969
1773149848622519300,6.689519287109375,-18.5130615234375,130.08340454101562,-109.91380310058594
1773149848632607200,6.699607177734375,-18.496307373046875,129.74932861328125,-110.11865234375
1773149848642697200,6.709697265625,-18.6529541015625,129.93914794921875,-110.41287231445312
1773149848652785400,6.719785400390625,-18.750946044921875,129.67556762695312,-110.46043395996094
1773149848662873300,6.729873291015625,-18.890762329101562,129.54718017578125,-110.72731018066406
1773149848672961300,6.739961181640625,-18.260528564453125,129.54238891601562,-110.71174621582031
1773149848683048200,6.750048095703125,-18.234603881835938,129.48963928222656,-111.16610717773438
1773149848693136100,6.76013623046875,-18.258270263671875,129.4734344482422,-111.40365600585938
1773149848703223300,6.770223388671875,-17.965911865234375,129.46153259277344,-111.50628662109375
1773149848713313300,6.780313232421875,-17.878997802734375,129.80181884765625,-111.57862854003906
1773149848723403300,6.7904033203125,-17.758407592773438,129.7585906982422,-111.65103149414062
1773149848733492500,6.800492431640625,-17.585205078125,129.9948272705078,-111.60469055175781
1773149848743581200,6.810581298828125,-17.647933959960938,129.81558227539062,-111.38482666015625
1773149848753670100,6.820670166015625,-17.6981201171875,130.09759521484375,-111.33000183105469
1773149848763759400,6.83075927734375,-17.603973388671875,130.04693603515625,-111.06695556640625
1773149848773848300,6.840848388671875,-17.793289184570312,130.34117126464844,-111.02040100097656
1773149848783936300,6.850936279296875,-17.62335205078125,130.26487731933594,-110.67793273925781
1773149848794026500,6.861026611328125,-17.380508422851562,130.47723388671875,-110.41580200195312
1773149848804115200,6.871115234375,-17.513565063476562,130.68783569335938,-110.16119384765625
1773149848814203100,6.881203125,-17.625747680664062,130.68214416503906,-109.61056518554688
1773149848824293400,6.89129345703125,-17.886978149414062,130.6153564453125,-109.55409240722656
1773149848834382300,6.90138232421875,-18.076568603515625,130.72610473632812,-109.00607299804688
1773149848844473300,6.911473388671875,-18.00396728515625,130.58656311035156,-108.31343078613281
1773149848854563300,6.921563232421875,-18.398452758789062,130.73068237304688,-107.75025939941406
1773149848864652300,6.93165234375,-18.554840087890625,130.6695556640625,-106.89720153808594
1773149848874743300,6.941743408203125,-18.883255004882812,130.40135192871094,-106.56991577148438
1773149848884832300,6.951832275390625,-18.95111083984375,130.19590759277344,-106.40766906738281
1773149848894922200,6.961922119140625,-18.575424194335938,130.12588500976562,-106.1016845703125
1773149848905012500,6.972012451171875,-18.670074462890625,129.7479248046875,-105.96156311035156
1773149848915100400,6.982100341796875,-18.46051025390625,130.01153564453125,-105.98017883300781
1773149848925190100,6.992190185546875,-18.824386596679688,129.5978546142578,-106.03158569335938
1773149848935280400,7.0022802734375,-18.919219970703125,129.4588165283203,-106.31491088867188
1773149848945369300,7.012369384765625,-18.893585205078125,129.2581787109375,-106.37646484375
1773149848955459300,7.022459228515625,-18.850509643554688,129.69593811035156,-106.66812133789062
1773149848965550300,7.03255029296875,-18.455047607421875,129.53216552734375,-107.19390869140625
1773149848975640300,7.042640380859375,-18.145416259765625,129.41033935546875,-107.66311645507812
1773149848985728300,7.052728271484375,-18.100067138671875,129.60877990722656,-108.17054748535156
1773149848995816200,7.062816162109375,-18.040252685546875,129.48724365234375,-108.2435302734375
1773149849005905400,7.072905517578125,-17.760604858398438,129.65357971191406,-108.84178161621094
1773149849015993300,7.082993408203125,-17.877670288085938,129.46142578125,-109.40536499023438
1773149849026082300,7.093082275390625,-18.196853637695312,129.27586364746094,-109.70436096191406
1773149849036170200,7.103170166015625,-17.930023193359375,129.21697998046875,-110.31192016601562
1773149849046260500,7.113260498046875,-17.7254638671875,129.1269989013672,-110.75967407226562
1773149849056350200,7.12335009765625,-17.37255859375,129.28477478027344,-111.08242797851562
1773149849066440400,7.1334404296875,-17.689544677734375,129.242919921875,-111.74769592285156
1773149849076529200,7.143529052734375,-17.58038330078125,129.2650146484375,-111.84515380859375
1773149849086619400,7.153619384765625,-17.54864501953125,129.42430114746094,-112.2222900390625
1773149849096709400,7.16370947265625,-17.70587158203125,129.63674926757812,-112.400146484375
1773149849106799400,7.17379931640625,-17.365203857421875,129.7222442626953,-112.37861633300781
1773149849116889300,7.183889404296875,-17.6995849609375,129.5377960205078,-112.51322937011719
1773149849126979300,7.193979248046875,-17.787384033203125,129.31744384765625,-112.60116577148438
1773149849137068300,7.204068359375,-17.969223022460938,129.58621215820312,-112.71394348144531
1773149849147158300,7.214158203125,-17.7484130859375,129.53079223632812,-112.59117126464844
1773149849157248300,7.224248291015625,-18.272918701171875,129.37181091308594,-112.459716796875
1773149849167338500,7.23433837890625,-18.45440673828125,129.23590087890625,-111.89730834960938
1773149849177428200,7.24442822265625,-18.940048217773438,129.24757385253906,-111.39445495605469
1773149849187518500,7.2545185546875,-19.47918701171875,129.21656799316406,-110.98646545410156
1773149849197607200,7.264607177734375,-19.612472534179688,129.24085998535156,-110.30030822753906
1773149849207696100,7.274696044921875,-20.049850463867188,129.11038208007812,-110.15245056152344
1773149849217785900,7.284785888671875,-20.041748046875,129.32339477539062,-109.99955749511719
1773149849227873800,7.294873779296875,-20.291702270507812,129.13865661621094,-109.8858642578125
1773149849237964000,7.304964111328125,-20.090530395507812,129.36837768554688,-110.1199951171875
1773149849248052700,7.315052734375,-19.488372802734375,129.1912841796875,-110.06211853027344
1773149849258143000,7.32514306640625,-19.409744262695312,129.19493103027344,-110.46488952636719
1773149849268232000,7.33523193359375,-19.282943725585938,129.04541015625,-110.69596862792969
1773149849278321700,7.34532177734375,-18.96697998046875,128.7781982421875,-111.028564453125
1773149849288411000,7.355410888671875,-18.6536865234375,128.60494995117188,-111.16365051269531
1773149849298500900,7.3655009765625,-18.000823974609375,128.62416076660156,-111.10525512695312
1773149849308589800,7.37558984375,-17.950897216796875,128.33726501464844,-111.33828735351562
1773149849318679800,7.3856796875,-17.207046508789062,128.275390625,-111.06419372558594
1773149849328770800,7.395770751953125,-17.374542236328125,128.19326782226562,-111.03799438476562
1773149849338860800,7.40586083984375,-16.968536376953125,128.4519805908203,-110.8558349609375
1773149849348950800,7.41595068359375,-16.583724975585938,128.3311004638672,-110.597412109375
1773149849359039700,7.426039794921875,-16.237228393554688,128.5531463623047,-110.12152099609375
1773149849369130000,7.4361298828125,-16.213302612304688,128.78170776367188,-109.53102111816406
1773149849379219700,7.4462197265625,-16.2821044921875,128.8036651611328,-108.39596557617188
1773149849389307600,7.4563076171875,-16.960159301757812,129.1307830810547,-107.20082092285156
1773149849399396900,7.46639697265625,-17.1182861328125,129.18670654296875,-106.57061767578125
1773149849409486800,7.47648681640625,-17.044219970703125,130.21759033203125,-106.30393981933594
1773149849419574800,7.48657470703125,-17.575241088867188,130.67355346679688,-105.39846801757812
1773149849429661700,7.49666162109375,-18.037994384765625,130.75094604492188,-104.65684509277344
1773149849439752000,7.506751953125,-18.63555908203125,130.6648406982422,-104.36065673828125
1773149849449839900,7.51683984375,-19.201461791992188,130.17076110839844,-105.02030944824219
1773149849459928800,7.5269287109375,-19.375640869140625,129.85650634765625,-105.83905029296875
1773149849470018800,7.537018798828125,-19.5906982421875,129.53822326660156,-106.94161987304688
1773149849480107800,7.547107666015625,-19.211502075195312,129.1711883544922,-107.98365783691406
1773149849490198800,7.55719873046875,-18.97418212890625,128.9892578125,-109.03602600097656
1773149849500289000,7.5672890625,-18.85198974609375,128.57383728027344,-110.1871337890625
1773149849510378000,7.5773779296875,-18.69525146484375,128.43466186523438,-111.13740539550781
1773149849520467700,7.5874677734375,-18.340896606445312,128.20701599121094,-111.8472900390625
1773149849530557000,7.597556884765625,-18.412033081054688,127.89118957519531,-112.21015930175781
1773149849540644900,7.607644775390625,-18.527603149414062,128.0446319580078,-112.46990966796875
1773149849550733800,7.61773388671875,-18.581634521484375,127.77444458007812,-112.40773010253906
1773149849560823800,7.62782373046875,-19.007110595703125,127.57717895507812,-112.16175842285156
1773149849570912800,7.637912841796875,-19.33251953125,127.69125366210938,-111.57809448242188
1773149849581003000,7.6480029296875,-19.602462768554688,127.9488525390625,-111.00128173828125
1773149849591092700,7.6580927734375,-20.093795776367188,127.65350341796875,-109.97508239746094
1773149849601183000,7.668182861328125,-20.727386474609375,127.74870300292969,-109.47996520996094
1773149849611272700,7.678272705078125,-21.300445556640625,127.61695861816406,-108.75910949707031
1773149849621363000,7.688363037109375,-21.59173583984375,127.94125366210938,-107.9332275390625
1773149849631453700,7.69845361328125,-21.686126708984375,127.86378479003906,-107.25682067871094
1773149849641543000,7.70854296875,-21.669876098632812,127.74339294433594,-107.13198852539062
1773149849651633000,7.7186328125,-21.447021484375,127.72001647949219,-107.18789672851562
1773149849661723000,7.728722900390625,-21.518951416015625,127.49124145507812,-107.40745544433594
1773149849671811800,7.738811767578125,-21.528182983398438,127.30999755859375,-107.55845642089844
1773149849681900800,7.74890087890625,-21.32421875,127.21711730957031,-107.68499755859375
1773149849691990000,7.758989990234375,-21.274627685546875,126.94851684570312,-107.82403564453125
1773149849702078700,7.76907861328125,-21.105682373046875,126.81678771972656,-107.925048828125
1773149849712169000,7.7791689453125,-20.83978271484375,127.19866943359375,-107.88406372070312
1773149849722257000,7.7892568359375,-20.2646484375,127.33111572265625,-108.21649169921875
1773149849732347000,7.799346923828125,-19.301803588867188,127.86320495605469,-108.44378662109375
1773149849742435800,7.809435791015625,-18.825790405273438,128.24655151367188,-108.86764526367188
1773149849752525800,7.81952587890625,-17.908309936523438,128.75064086914062,-109.10334777832031
1773149849762613800,7.82961376953125,-17.267959594726562,129.0320281982422,-109.30796813964844
1773149849772703000,7.839702880859375,-16.150314331054688,129.66238403320312,-109.26631164550781
1773149849782792700,7.849792724609375,-15.710922241210938,130.01441955566406,-109.74897766113281
1773149849792883000,7.859883056640625,-14.752151489257812,130.20188903808594,-109.65797424316406
1773149849802972700,7.86997265625,-15.036636352539062,130.0709991455078,-109.51777648925781
1773149849813063000,7.88006298828125,-15.01641845703125,130.63916015625,-109.12046813964844
1773149849823151900,7.89015185546875,-15.272064208984375,131.20396423339844,-107.60458374023438
1773149849833241900,7.900241943359375,-15.93829345703125,131.9716796875,-106.39765930175781
1773149849843331800,7.910331787109375,-16.673629760742188,132.2334747314453,-104.92710876464844
1773149849853421800,7.920421875,-17.07818603515625,132.72683715820312,-103.85238647460938
1773149849863512800,7.930512939453125,-17.266952514648438,132.7511749267578,-103.09634399414062
1773149849873602800,7.940602783203125,-17.544723510742188,132.84457397460938,-102.68096923828125
1773149849883693800,7.95069384765625,-17.589828491210938,132.6708984375,-102.70458984375
1773149849893782800,7.96078271484375,-17.656494140625,132.91397094726562,-103.05552673339844
1773149849903873000,7.970873046875,-17.632476806640625,132.73202514648438,-103.24995422363281
1773149849913962000,7.9809619140625,-17.707122802734375,132.7904052734375,-103.72097778320312
1773149849924050700,7.99105078125,-17.566192626953125,132.3391876220703,-104.18896484375
1773149849934140000,8.001139892578125,-17.310455322265625,132.05540466308594,-104.47087097167969
1773149849944228900,8.011228759765626,-17.691238403320312,131.78929138183594,-104.56874084472656
1773149849954318800,8.02131884765625,-18.274169921875,131.40386962890625,-104.44625854492188
1773149849964407800,8.03140771484375,-18.20941162109375,131.64341735839844,-104.33348083496094
1773149849974498800,8.041498779296875,-18.727615356445312,131.57656860351562,-103.77847290039062
1773149849984588800,8.0515888671875,-18.74530029296875,131.70046997070312,-103.18574523925781
1773149849994678800,8.0616787109375,-19.27783203125,132.06028747558594,-102.67166137695312
1773149850004768000,8.07176806640625,-19.170333862304688,132.3260040283203,-102.09146118164062
1773149850014857700,8.081857666015624,-18.957366943359375,132.51968383789062,-101.31788635253906
1773149850024948000,8.091947998046875,-19.54937744140625,132.78514099121094,-100.81423950195312
1773149850035037700,8.10203759765625,-19.423385620117188,133.21585083007812,-100.04289245605469
1773149850045128000,8.1121279296875,-19.250457763671875,133.58285522460938,-98.93515014648438
1773149850055217700,8.1222177734375,-19.592758178710938,133.66757202148438,-98.00529479980469
1773149850065309000,8.132308837890625,-18.938278198242188,133.83642578125,-97.11174011230469
1773149850075400000,8.14239990234375,-19.00457763671875,133.9982452392578,-97.06507873535156
1773149850085491000,8.152490966796876,-19.366912841796875,134.0481719970703,-97.30828857421875
1773149850095581700,8.162581787109374,-19.382522583007812,133.9729461669922,-97.4884033203125
1773149850105672000,8.172671875,-19.180862426757812,133.86814880371094,-97.70988464355469
1773149850115761700,8.18276171875,-19.365997314453125,133.5270233154297,-97.87066650390625
1773149850125852000,8.192851806640626,-19.2431640625,133.6129608154297,-97.93171691894531
1773149850135943000,8.20294287109375,-19.26239013671875,133.37823486328125,-98.08013916015625
1773149850146033000,8.213032958984375,-19.208587646484375,133.4807891845703,-98.15483093261719
1773149850156124000,8.2231240234375,-19.21514892578125,133.55157470703125,-97.66213989257812
1773149850166215000,8.23321484375,-19.149215698242188,133.50656127929688,-97.64852905273438
1773149850176305700,8.2433056640625,-18.912582397460938,133.3446502685547,-97.57852172851562
1773149850186397000,8.25339697265625,-19.013519287109375,133.51821899414062,-97.41732788085938
1773149850196488000,8.263488037109376,-19.179718017578125,133.68814086914062,-97.55838012695312
1773149850206578700,8.27357861328125,-18.733047485351562,133.7702178955078,-97.01773071289062
1773149850216675300,8.28367529296875,-18.375991821289062,133.69752502441406,-97.40509033203125
1773149850226766000,8.29376611328125,-18.597137451171875,133.3945770263672,-97.27751159667969
1773149850236857000,8.303857177734375,-18.305831909179688,133.5145721435547,-97.40879821777344
1773149850246949000,8.31394921875,-18.186981201171875,133.4990692138672,-97.61671447753906
1773149850257041200,8.324041259765625,-17.973159790039062,133.32806396484375,-97.62052917480469
1773149850267133200,8.33413330078125,-17.742828369140625,133.443359375,-98.08078002929688
1773149850277225200,8.34422509765625,-17.716827392578125,133.4018096923828,-98.24055480957031
1773149850287316200,8.354316162109376,-17.705551147460938,133.30184936523438,-98.30101013183594
1773149850297406200,8.36440625,-17.439224243164062,133.27838134765625,-98.48541259765625
1773149850307496200,8.37449609375,-17.478927612304688,133.309326171875,-98.51425170898438
1773149850317588200,8.384588134765625,-16.98797607421875,133.2136688232422,-98.48945617675781
1773149850327679200,8.39467919921875,-17.037322998046875,133.05734252929688,-98.55088806152344
1773149850337771300,8.404771240234375,-16.874847412109375,133.23326110839844,-98.444580078125
1773149850347863300,8.41486328125,-16.951995849609375,132.8426055908203,-98.44427490234375
1773149850357955300,8.424955322265625,-16.905746459960938,132.95211791992188,-98.56898498535156
1773149850368046300,8.43504638671875,-16.609405517578125,132.62107849121094,-98.55313110351562
1773149850378137000,8.44513720703125,-16.62744140625,132.81163024902344,-98.73995971679688
1773149850388228000,8.45522802734375,-16.354385375976562,132.80731201171875,-98.72004699707031
1773149850398320000,8.465320068359375,-16.104888916015625,132.7418212890625,-98.59959411621094
1773149850408411400,8.475411376953126,-16.10601806640625,132.64852905273438,-98.72135925292969
1773149850418502400,8.48550244140625,-15.74615478515625,132.64060974121094,-98.79145812988281
1773149850428593200,8.49559326171875,-15.845504760742188,132.4571990966797,-98.65385437011719
1773149850438684200,8.50568408203125,-16.044204711914062,132.3842315673828,-98.596435546875
1773149850448774400,8.5157744140625,-15.409011840820312,132.3202667236328,-98.57131958007812
1773149850458865200,8.525865234375,-15.691268920898438,132.17315673828125,-98.738525390625
1773149850468954400,8.535954345703125,-15.877548217773438,131.9380340576172,-98.77568054199219
1773149850479045000,8.546045166015626,-15.9476318359375,131.3973846435547,-98.56242370605469
1773149850489135400,8.55613525390625,-15.819305419921875,131.63711547851562,-98.63139343261719
1773149850499226400,8.566226318359375,-15.972503662109375,131.2895965576172,-98.53691101074219
1773149850509317000,8.576317138671875,-16.135635375976562,131.1811065673828,-98.70191955566406
1773149850519407400,8.586407470703126,-16.271530151367188,131.0365447998047,-98.73858642578125
1773149850529498400,8.596498291015624,-16.395523071289062,130.86642456054688,-98.66514587402344
1773149850539588000,8.606588134765625,-16.3651123046875,130.64434814453125,-98.68910217285156
1773149850549678300,8.61667822265625,-16.29681396484375,130.43653869628906,-98.68232727050781
1773149850559768300,8.626768310546876,-16.488998413085938,130.1819305419922,-98.7630615234375
1773149850569859300,8.636859375,-16.821517944335938,130.04214477539062,-98.85551452636719
1773149850579949000,8.646948974609375,-16.81903076171875,129.7716827392578,-98.76010131835938
1773149850590041000,8.657041015625,-16.726425170898438,129.46873474121094,-98.56552124023438
1773149850600133000,8.667133056640624,-17.1798095703125,129.3424072265625,-98.72270202636719
1773149850610223400,8.677223388671875,-17.666336059570312,129.1329803466797,-98.64653015136719
1773149850620312300,8.687312255859375,-17.847381591796875,128.8588104248047,-98.75834655761719
1773149850630401000,8.697401123046875,-17.8907470703125,128.8345947265625,-98.94960021972656
1773149850640491300,8.7074912109375,-17.891311645507812,128.66761779785156,-98.84446716308594
1773149850650582300,8.717582275390624,-17.654571533203125,128.40316772460938,-99.15963745117188
1773149850660673000,8.727673095703125,-17.843307495117188,128.33047485351562,-99.14060974121094
1773149850670764300,8.737764404296875,-18.023818969726562,128.42770385742188,-99.04554748535156
1773149850680855300,8.747855224609374,-18.11279296875,128.203369140625,-98.87098693847656
1773149850690945000,8.757945068359374,-18.33892822265625,128.1470489501953,-98.47749328613281
1773149850701036300,8.768036376953125,-18.414871215820312,128.1260223388672,-98.17424011230469
1773149850711127300,8.778127197265626,-18.657989501953125,128.1135711669922,-97.87303161621094
1773149850721218000,8.788218017578124,-18.807693481445312,127.97930908203125,-97.53495788574219
1773149850731308300,8.798308349609375,-19.131561279296875,127.96598815917969,-97.15829467773438
1773149850741397200,8.808397216796875,-19.300430297851562,127.98216247558594,-97.07041931152344
1773149850751487200,8.8184873046875,-19.247421264648438,127.83193969726562,-96.76419067382812
1773149850761577200,8.8285771484375,-19.499435424804688,127.78050231933594,-96.68696594238281
1773149850771666200,8.838666259765626,-19.443618774414062,127.83552551269531,-96.63258361816406
1773149850781757200,8.848757080078125,-19.088104248046875,127.96531677246094,-96.5653076171875
1773149850791847200,8.85884716796875,-19.3624267578125,128.09100341796875,-96.75238037109375
1773149850801937400,8.8689375,-19.159271240234375,128.0991668701172,-96.985107421875
1773149850812027100,8.879027099609376,-19.069580078125,128.3538360595703,-97.00749206542969
1773149850822118400,8.889118408203124,-18.664505004882812,128.47947692871094,-96.93023681640625
1773149850832209200,8.899209228515625,-18.486892700195312,128.88690185546875,-96.90945434570312
1773149850842299100,8.909299072265625,-18.455215454101562,129.14544677734375,-97.19157409667969
1773149850852389400,8.919389404296876,-17.88525390625,129.3230438232422,-97.67726135253906
1773149850862480100,8.929480224609375,-17.791366577148438,129.36053466796875,-98.14216613769531
1773149850872571100,8.939571044921875,-17.614044189453125,129.58213806152344,-98.39508056640625
1773149850882661400,8.949661376953125,-17.494918823242188,129.54405212402344,-97.8770751953125
1773149850892752100,8.959752197265624,-17.290267944335938,129.90257263183594,-97.39935302734375
1773149850902842400,8.96984228515625,-17.249649047851562,130.18875122070312,-96.9326171875
1773149850912934400,8.979934326171875,-17.042510986328125,130.3931884765625,-96.61911010742188
1773149850923024100,8.990024169921876,-17.046279907226562,130.9883270263672,-96.68077087402344
1773149850933114400,9.0001142578125,-16.722488403320312,131.371337890625,-96.86691284179688
1773149850943203300,9.010203369140624,-16.803955078125,131.25888061523438,-96.7724609375
1773149850953293300,9.020293212890625,-16.761032104492188,131.38955688476562,-96.63151550292969
1773149850963382300,9.03038232421875,-16.4903564453125,131.35235595703125,-96.50727844238281
1773149850973471200,9.04047119140625,-16.759368896484375,131.6724395751953,-96.30296325683594
1773149850983560400,9.050560546875,-16.675949096679688,131.67037963867188,-96.3720703125
1773149850993651200,9.060651123046876,-16.538497924804688,131.8142547607422,-96.29399108886719
1773149851003741200,9.0707412109375,-16.494430541992188,132.08572387695312,-96.23587036132812
1773149851013831200,9.0808310546875,-16.148895263671875,131.9721221923828,-96.18673706054688
1773149851023921200,9.090921142578125,-16.178680419921875,132.11109924316406,-95.86616516113281
1773149851034012400,9.101012451171876,-16.205123901367188,131.98594665527344,-95.83352661132812
1773149851044103200,9.111103271484374,-15.938568115234375,132.04324340820312,-95.46437072753906
1773149851054194200,9.121194091796875,-15.685134887695312,132.04103088378906,-94.67404174804688
1773149851064284400,9.131284423828125,-15.655181884765625,132.1422882080078,-94.03849792480469
1773149851074374100,9.1413740234375,-15.534027099609375,132.40444946289062,-93.12211608886719
1773149851084464400,9.15146435546875,-15.596328735351562,132.32931518554688,-92.39988708496094
1773149851094553300,9.16155322265625,-15.4132080078125,132.31314086914062,-91.859619140625
1773149851104642000,9.17164208984375,-15.279800415039062,132.47959899902344,-91.40992736816406
1773149851114731300,9.181731201171875,-14.821807861328125,132.24609375,-91.04727172851562
1773149851124821200,9.1918212890625,-14.50531005859375,132.07568359375,-91.00419616699219
1773149851134912300,9.201912353515626,-14.261276245117188,131.80105590820312,-90.94534301757812
1773149851145004300,9.21200439453125,-14.288421630859375,132.01654052734375,-91.16452026367188
1773149851155096300,9.222096435546876,-14.3992919921875,131.6623077392578,-91.23626708984375
1773149851165188400,9.232188232421874,-14.308624267578125,131.67984008789062,-91.13381958007812
1773149851175279000,9.242279052734375,-14.383224487304688,131.68553161621094,-91.43682861328125
1773149851185370000,9.2523701171875,-14.190963745117188,131.54360961914062,-91.24752807617188
1773149851195460400,9.26246044921875,-14.31298828125,131.38616943359375,-91.35675048828125
1773149851205550000,9.272550048828125,-14.50201416015625,131.439453125,-91.48236083984375
1773149851215635500,9.282635498046876,-14.172348022460938,131.41322326660156,-91.29432678222656
1773149851225725400,9.292725341796874,-14.355026245117188,131.08059692382812,-91.65080261230469
1773149851235815400,9.3028154296875,-14.133407592773438,131.16786193847656,-91.709228515625
1773149851245904400,9.312904296875,-14.316787719726562,131.08486938476562,-91.80142211914062
1773149851255993300,9.322993408203125,-14.347976684570312,131.21142578125,-91.77664184570312
1773149851266083600,9.33308349609375,-14.11480712890625,131.1334228515625,-91.64457702636719
1773149851276174600,9.343174560546874,-14.286834716796875,131.0414581298828,-91.84352111816406
1773149851286265300,9.353265380859375,-14.251388549804688,130.64390563964844,-92.26004028320312
1773149851296355600,9.36335546875,-14.354583740234375,130.4998016357422,-92.46560668945312
1773149851306445300,9.3734453125,-14.568344116210938,130.43695068359375,-92.58438110351562
1773149851316535600,9.38353564453125,-14.503662109375,130.24539184570312,-92.98674011230469
1773149851326625300,9.393625244140624,-14.578338623046875,129.9942169189453,-93.02777099609375
1773149851336714500,9.403714599609375,-14.8468017578125,129.84288024902344,-93.30525207519531
1773149851346803500,9.413803466796875,-14.698272705078125,129.60707092285156,-93.37750244140625
1773149851356892400,9.423892333984375,-14.843490600585938,129.49972534179688,-93.46859741210938
1773149851366983400,9.4339833984375,-14.986495971679688,129.80018615722656,-93.70159912109375
1773149851377074400,9.444074462890624,-15.380630493164062,129.90536499023438,-93.72232055664062
1773149851387163400,9.454163330078124,-15.35064697265625,129.65444946289062,-93.50120544433594
1773149851397253600,9.464253662109375,-15.580673217773438,129.67982482910156,-93.54328918457031
1773149851407343400,9.47434326171875,-15.664093017578125,129.61363220214844,-93.35762023925781
1773149851417432600,9.4844326171875,-15.6036376953125,129.4757080078125,-93.40458679199219
1773149851427521500,9.494521484375,-15.581863403320312,130.0483856201172,-93.48258972167969
1773149851437611300,9.504611328125,-15.740280151367188,129.60775756835938,-93.28160095214844
1773149851447701500,9.514701416015624,-16.062042236328125,129.61936950683594,-93.27479553222656
1773149851457793500,9.52479345703125,-15.830810546875,129.61793518066406,-93.04826354980469
1773149851467884500,9.534884521484376,-16.177474975585938,129.58987426757812,-92.96731567382812
1773149851477976300,9.544976318359375,-15.975540161132812,129.451904296875,-92.92776489257812
1773149851488068400,9.555068359375,-16.2044677734375,129.56295776367188,-92.79989624023438
1773149851498160400,9.565160400390624,-16.28680419921875,129.59088134765625,-92.83187866210938
1773149851508253400,9.57525341796875,-16.378524780273438,129.565185546875,-92.80598449707031
1773149851518344400,9.585344482421876,-16.419052124023438,129.98858642578125,-92.88851928710938
1773149851528435500,9.595435546875,-16.551345825195312,129.83673095703125,-92.78684997558594
1773149851538526500,9.6055263671875,-16.49212646484375,129.86697387695312,-92.547119140625
1773149851548618200,9.6156181640625,-16.644210815429688,129.69126892089844,-92.71092224121094
1773149851558709500,9.62570947265625,-16.766311645507812,129.7061309814453,-92.91575622558594
1773149851568800500,9.635800537109375,-16.843399047851562,129.56309509277344,-92.92401123046875
1773149851578890200,9.64589013671875,-16.783187866210938,129.6910858154297,-92.97280883789062
1773149851588981500,9.6559814453125,-16.789505004882812,129.6574249267578,-93.09809875488281
1773149851599073500,9.666073486328125,-16.810546875,129.55972290039062,-93.166748046875
1773149851609165300,9.676165283203124,-17.442520141601562,129.49044799804688,-93.44912719726562
1773149851619257300,9.68625732421875,-17.274444580078125,129.5324249267578,-93.67547607421875
1773149851629347300,9.696347412109375,-17.172821044921875,129.27220153808594,-93.95664978027344
1773149851639437300,9.706437255859376,-17.689361572265625,129.28419494628906,-94.10853576660156
1773149851649529300,9.716529296875,-17.554946899414062,129.17526245117188,-94.19378662109375
1773149851659621400,9.726621337890625,-17.867401123046875,129.1967315673828,-94.44569396972656
1773149851669711400,9.73671142578125,-17.974655151367188,129.10061645507812,-94.563232421875
1773149851679803400,9.746803466796875,-18.002670288085938,128.81106567382812,-94.90708923339844
1773149851689893400,9.756893310546875,-18.286865234375,129.0623779296875,-95.40840148925781
1773149851699984600,9.766984619140626,-18.346450805664062,128.83197021484375,-95.71896362304688
1773149851710071300,9.7770712890625,-18.168746948242188,128.93260192871094,-96.39451599121094
1773149851720160500,9.787160400390626,-18.0147705078125,128.93898010253906,-96.9169921875
1773149851730250200,9.797250244140624,-17.839096069335938,128.84458923339844,-97.56608581542969
1773149851740339500,9.80733935546875,-17.671066284179688,128.88441467285156,-98.40829467773438
1773149851750428400,9.817428466796875,-17.046478271484375,128.91015625,-99.30506896972656
1773149851760517400,9.827517333984375,-16.737640380859375,129.0810546875,-100.27281188964844
1773149851770606600,9.837606689453125,-16.251632690429688,129.18621826171875,-101.21353149414062
1773149851780695600,9.847695556640625,-15.833099365234375,129.1465301513672,-102.10987854003906
1773149851790784300,9.8577841796875,-14.981674194335938,129.2160186767578,-102.84796142578125
1773149851800875500,9.86787548828125,-14.807281494140625,129.1617431640625,-103.65956115722656
1773149851810965500,9.877965576171874,-14.581283569335938,129.0671844482422,-104.25804138183594
1773149851821056300,9.88805615234375,-14.352493286132812,128.9871063232422,-104.66253662109375
1773149851831147500,9.8981474609375,-14.170150756835938,129.27565002441406,-104.98979187011719
1773149851841237500,9.908237548828126,-13.986892700195312,129.40052795410156,-104.70584106445312
1773149851851327500,9.918327392578124,-14.394668579101562,129.7812042236328,-104.7236328125
1773149851861416400,9.92841650390625,-14.415725708007812,129.9532012939453,-104.33244323730469
1773149851871506400,9.93850634765625,-15.061752319335938,129.9566192626953,-104.1453857421875
1773149851881595400,9.948595458984375,-15.383743286132812,130.01487731933594,-103.89476013183594
1773149851891684600,9.9586845703125,-15.368438720703125,129.98143005371094,-103.65538024902344
1773149851901775400,9.968775390625,-15.755905151367188,130.2850341796875,-103.76493835449219
1773149851911864600,9.978864501953124,-15.72857666015625,130.2545166015625,-103.75471496582031
1773149851921953500,9.98895361328125,-15.754058837890625,130.4047088623047,-104.08572387695312
1773149851932043500,9.99904345703125,-15.582992553710938,130.37290954589844,-104.46038818359375
1773149851942132500,10.009132568359375,-15.72247314453125,130.14825439453125,-105.12411499023438
1773149851952220400,10.019220458984375,-15.577407836914062,130.52891540527344,-105.72804260253906
1773149851962307300,10.029307373046874,-14.729888916015625,130.5779571533203,-106.26576232910156
1773149851972395500,10.0393955078125,-14.3184814453125,130.61895751953125,-106.96705627441406
1773149851982484200,10.049484130859375,-13.736526489257812,130.83175659179688,-107.18832397460938
1773149851992571400,10.0595712890625,-13.50787353515625,131.44944763183594,-107.5010986328125
1773149852002660600,10.06966064453125,-13.439727783203125,132.00457763671875,-107.16554260253906
1773149852012749300,10.079749267578125,-13.414810180664062,132.08534240722656,-106.45973205566406
1773149852022838300,10.08983837890625,-14.001312255859375,132.65789794921875,-105.79249572753906
1773149852032928500,10.099928466796875,-14.499435424804688,132.9475555419922,-104.17498779296875
1773149852043017500,10.110017578125,-15.43829345703125,132.90943908691406,-102.59666442871094
1773149852053106400,10.1201064453125,-15.722015380859375,133.12686157226562,-101.72802734375
1773149852063196400,10.130196533203126,-15.975906372070312,133.31224060058594,-101.31219482421875
1773149852073287400,10.140287353515625,-15.602462768554688,133.31170654296875,-101.459716796875
1773149852083377400,10.15037744140625,-15.665283203125,133.3306121826172,-101.61299133300781
1773149852093467400,10.16046728515625,-15.442367553710938,132.84695434570312,-101.77018737792969
1773149852103557400,10.170557373046876,-15.746261596679688,132.98248291015625,-102.21151733398438
1773149852113647400,10.1806474609375,-15.870254516601562,132.7332000732422,-102.41041564941406
1773149852123737300,10.1907373046875,-15.6781005859375,132.6255340576172,-102.25994873046875
1773149852133826600,10.20082666015625,-15.772537231445312,132.7517852783203,-102.58428955078125
1773149852143916300,10.210916259765625,-15.716964721679688,132.48248291015625,-102.77215576171875
1773149852154006500,10.221006591796876,-15.781875610351562,132.3277587890625,-102.94551086425781
1773149852164095500,10.231095458984376,-15.609603881835938,132.1642608642578,-103.31494140625
1773149852174185500,10.241185546875,-15.309234619140625,132.11984252929688,-103.36322021484375
1773149852184275500,10.251275390625,-15.633941650390625,131.90550231933594,-103.94627380371094
1773149852194363400,10.26136328125,-15.629150390625,131.791259765625,-104.20289611816406
1773149852204452600,10.27145263671875,-15.63055419921875,131.690673828125,-104.34956359863281
1773149852214541300,10.281541259765625,-15.479812622070312,131.81988525390625,-104.48513793945312
1773149852224630000,10.291630126953125,-15.151809692382812,131.708984375,-104.41102600097656
1773149852234720300,10.30172021484375,-15.546707153320312,131.59548950195312,-104.70263671875
1773149852244809200,10.311809326171876,-15.233505249023438,131.38174438476562,-104.83901977539062
1773149852254900200,10.321900146484374,-15.278488159179688,131.352783203125,-105.20635986328125
1773149852264991200,10.3319912109375,-15.1961669921875,130.95408630371094,-105.25631713867188
1773149852275080200,10.342080078125,-15.246688842773438,130.82789611816406,-105.6282958984375
1773149852285170200,10.352170166015625,-15.487823486328125,130.8436279296875,-105.75184631347656
1773149852295259100,10.362259033203125,-15.37225341796875,130.7952117919922,-106.10592651367188
1773149852305349000,10.37234912109375,-15.4844970703125,130.66262817382812,-106.48739624023438
1773149852315438300,10.382438232421874,-15.406005859375,130.5687713623047,-106.6597900390625
1773149852325527300,10.39252734375,-15.484710693359375,130.43687438964844,-107.13046264648438
1773149852335617000,10.402616943359375,-15.630340576171875,130.33663940429688,-107.40887451171875
1773149852345706200,10.412706298828125,-15.093536376953125,129.9436492919922,-107.63172912597656
1773149852355797200,10.42279736328125,-15.2762451171875,129.6077423095703,-107.91688537597656
1773149852365887200,10.43288720703125,-15.085296630859375,129.48388671875,-108.14540100097656
1773149852375978200,10.442978271484375,-15.06561279296875,129.3579559326172,-108.73597717285156
1773149852386068200,10.453068115234375,-15.2066650390625,128.92529296875,-108.98312377929688
1773149852396157200,10.4631572265625,-14.860275268554688,128.69647216796875,-109.3912353515625
1773149852406246100,10.47324609375,-14.851699829101562,128.49856567382812,-109.65786743164062
1773149852416336400,10.48333642578125,-14.411651611328125,128.33303833007812,-109.67955017089844
1773149852426426000,10.493426025390624,-14.639022827148438,127.97532653808594,-110.11997985839844
1773149852436517000,10.50351708984375,-14.7991943359375,128.075927734375,-110.36381530761719
1773149852446608100,10.513608154296875,-15.110214233398438,127.8134765625,-110.12124633789062
1773149852456699100,10.52369921875,-15.387985229492188,127.94145202636719,-109.90641784667969
1773149852466790100,10.5337900390625,-15.463043212890625,127.64231872558594,-109.40176391601562
1773149852476880100,10.543880126953125,-15.930694580078125,127.78468322753906,-109.35359191894531
1773149852486969300,10.55396923828125,-16.519210815429688,127.98411560058594,-108.91304016113281
1773149852497058000,10.56405810546875,-16.351303100585938,128.27183532714844,-108.33555603027344
1773149852507148300,10.574148193359376,-16.859390258789062,128.63356018066406,-107.81057739257812
1773149852517237200,10.5842373046875,-16.89129638671875,128.76780700683594,-107.13044738769531
1773149852527326200,10.594326171875,-17.2510986328125,128.995849609375,-106.30860900878906
1773149852537416200,10.604416259765625,-17.69512939453125,129.00381469726562,-105.91754150390625
1773149852547506200,10.614506103515625,-17.874114990234375,128.71238708496094,-105.57778930664062
1773149852557597200,10.62459716796875,-18.187911987304688,128.46310424804688,-105.31440734863281
1773149852567687200,10.634687255859374,-18.05474853515625,128.38372802734375,-105.87846374511719
1773149852577778200,10.644778076171875,-18.070053100585938,127.71534729003906,-106.22749328613281
1773149852587869200,10.654869140625,-18.214035034179688,127.38685607910156,-106.74061584472656
1773149852597959200,10.664959228515626,-17.942520141601562,127.23329162597656,-107.18461608886719
1773149852608050200,10.67505029296875,-18.146270751953125,127.23452758789062,-106.93081665039062
1773149852618140200,10.68514013671875,-18.646041870117188,127.13716125488281,-106.97422790527344
1773149852628228000,10.69522802734375,-19.141082763671875,127.042724609375,-106.62551879882812
1773149852638317000,10.705317138671875,-19.379318237304688,126.70217895507812,-106.258544921875
1773149852648408000,10.715407958984375,-19.810684204101562,126.41928100585938,-105.93478393554688
1773149852658498300,10.725498291015626,-19.848617553710938,126.51115417480469,-105.60354614257812
1773149852668589000,10.735589111328125,-20.278457641601562,126.21224975585938,-105.56477355957031
1773149852678679300,10.74567919921875,-20.6143798828125,125.89323425292969,-105.33836364746094
1773149852688770300,10.755770263671875,-21.096389770507812,125.447265625,-105.45906066894531
1773149852698859300,10.765859375,-21.435531616210938,124.78465270996094,-105.15158081054688
1773149852708950300,10.7759501953125,-21.945648193359375,124.31829833984375,-105.25643920898438
1773149852719040300,10.786040283203125,-22.239532470703125,124.10490417480469,-105.16383361816406
1773149852729129000,10.79612890625,-22.657135009765625,123.52593994140625,-104.82035827636719
1773149852739219200,10.80621923828125,-22.694900512695312,123.38298034667969,-104.71429443359375
1773149852749308200,10.81630810546875,-22.986618041992188,123.32359313964844,-103.96864318847656
1773149852759397400,10.8263974609375,-23.588912963867188,123.25067138671875,-103.6309814453125
1773149852769486000,10.836486083984376,-23.75103759765625,123.24459838867188,-102.854736328125
1773149852779577300,10.846577392578125,-24.158966064453125,123.36164855957031,-102.11265563964844
1773149852789667000,10.8566669921875,-24.509246826171875,123.61653137207031,-101.44337463378906
1773149852799757300,10.86675732421875,-24.241622924804688,123.81767272949219,-100.74470520019531
1773149852809845200,10.87684521484375,-24.681671142578125,124.21722412109375,-100.70240783691406
1773149852819934200,10.886934326171875,-24.403427124023438,124.32762145996094,-100.86492919921875
1773149852830023200,10.897023193359376,-24.065780639648438,124.2744140625,-101.30110168457031
1773149852840112000,10.907112060546876,-23.719528198242188,124.67451477050781,-101.95732116699219
1773149852850200000,10.917199951171876,-23.785781860351562,124.69381713867188,-102.28565979003906
1773149852860288300,10.927288330078126,-23.645477294921875,124.56153869628906,-103.00453186035156
1773149852870376200,10.937376220703126,-23.264892578125,124.51687622070312,-103.16802978515625
1773149852880465200,10.947465087890626,-23.392913818359375,124.60334777832031,-103.36302185058594
1773149852890553300,10.95755322265625,-23.236801147460938,124.57325744628906,-103.71279907226562
1773149852900641300,10.967641357421876,-22.744155883789062,124.97850036621094,-104.03268432617188
1773149852910730200,10.977730224609376,-22.489227294921875,125.13125610351562,-104.54208374023438
1773149852920820200,10.9878203125,-22.189208984375,125.21534729003906,-104.95381164550781
1773149852930909200,10.9979091796875,-21.776565551757812,125.58262634277344,-105.402099609375
1773149852940999200,11.007999267578125,-21.31768798828125,125.79595947265625,-105.6322021484375
1773149852951088000,11.018088134765625,-21.020111083984375,126.09176635742188,-105.9564208984375
1773149852961178000,11.02817822265625,-20.589141845703125,126.36965942382812,-106.29666137695312
1773149852971268000,11.03826806640625,-20.290908813476562,126.65037536621094,-106.38255310058594
1773149852981357000,11.048357177734376,-20.316390991210938,126.70948791503906,-106.38406372070312
1773149852991446300,11.0584462890625,-20.097808837890625,126.98483276367188,-106.08712768554688
1773149853001536300,11.068536376953125,-19.880538940429688,127.1337890625,-106.20433044433594
1773149853011626200,11.078626220703125,-19.871322631835938,127.41566467285156,-106.26361083984375
1773149853021716200,11.08871630859375,-20.048507690429688,127.70298767089844,-105.97529602050781
1773149853031807200,11.09880712890625,-20.185806274414062,127.81184387207031,-105.89662170410156
1773149853041898200,11.108898193359375,-20.115127563476562,127.80514526367188,-105.62559509277344
1773149853051988200,11.11898828125,-20.638641357421875,127.582275390625,-105.51405334472656
1773149853062079200,11.129079345703126,-20.719192504882812,127.60331726074219,-105.42546081542969
1773149853072168200,11.139168212890626,-21.130767822265625,127.23252868652344,-105.16947937011719
1773149853082258200,11.149258056640624,-21.124267578125,127.26307678222656,-105.3779296875
1773149853092348200,11.15934814453125,-21.305526733398438,127.35490417480469,-105.2042236328125
1773149853102437400,11.169437255859375,-21.208602905273438,127.33763122558594,-105.01295471191406
1773149853112526000,11.179526123046875,-21.335525512695312,127.38775634765625,-104.77714538574219
1773149853122616300,11.1896162109375,-21.38037109375,127.76045227050781,-104.70680236816406
1773149853132705300,11.199705322265626,-20.96844482421875,127.97018432617188,-104.80572509765625
1773149853142794200,11.209794189453126,-20.969223022460938,128.03140258789062,-104.98318481445312
1773149853152883200,11.21988330078125,-21.036224365234375,128.48341369628906,-105.03244018554688
1773149853162972200,11.22997216796875,-20.672683715820312,128.2803192138672,-104.96231079101562
1773149853173062100,11.240062255859375,-20.785552978515625,128.3114776611328,-105.2303466796875
1773149853183151400,11.2501513671875,-20.346267700195312,128.68531799316406,-105.10626220703125
1773149853193241000,11.260240966796875,-20.455291748046875,128.76547241210938,-105.43104553222656
1773149853203332000,11.27033203125,-20.399826049804688,128.9228515625,-105.39543151855469
1773149853213422000,11.280422119140624,-20.185379028320312,128.88009643554688,-105.28271484375
1773149853223513000,11.29051318359375,-20.578094482421875,128.94189453125,-105.04202270507812
1773149853233603000,11.30060302734375,-20.115158081054688,129.08377075195312,-104.76216125488281
1773149853243695000,11.310695068359376,-20.608428955078125,129.30267333984375,-104.94680786132812
1773149853253786000,11.3207861328125,-20.584457397460938,129.4456787109375,-104.69985961914062
1773149853263875800,11.330875732421875,-20.382949829101562,129.1365509033203,-104.74375915527344
1773149853273967900,11.3409677734375,-20.484710693359375,129.33392333984375,-104.99160766601562
1773149853284058000,11.35105810546875,-20.020950317382812,129.3523406982422,-105.26753234863281
1773149853294150100,11.361150146484375,-20.391860961914062,129.24923706054688,-105.41062927246094
1773149853304239900,11.371239990234375,-20.0152587890625,129.32669067382812,-105.81143188476562
1773149853314331100,11.3813310546875,-20.424728393554688,129.27244567871094,-106.09066772460938
1773149853324420000,11.391420166015624,-19.92828369140625,129.15087890625,-106.21701049804688
1773149853334511000,11.401510986328125,-19.644073486328125,129.08131408691406,-106.57304382324219
1773149853344602000,11.41160205078125,-19.442977905273438,129.31057739257812,-106.9547119140625
1773149853354692000,11.421692138671874,-19.099945068359375,129.33241271972656,-107.18040466308594
1773149853364782000,11.431781982421874,-19.449966430664062,129.2371826171875,-107.46806335449219
1773149853374873000,11.441873046875,-19.27325439453125,129.14613342285156,-107.26470947265625
1773149853384964000,11.451964111328126,-19.565887451171875,128.91848754882812,-107.2020263671875
1773149853395055000,11.46205517578125,-19.678573608398438,129.0302276611328,-107.31051635742188
1773149853405145000,11.47214501953125,-19.843658447265625,129.31919860839844,-106.88516235351562
1773149853415236900,11.48223681640625,-20.113922119140625,129.09361267089844,-106.54241943359375
1773149853425327000,11.4923271484375,-20.391220092773438,129.07864379882812,-105.85328674316406
1773149853435418000,11.502418212890625,-20.69598388671875,128.89932250976562,-105.12490844726562
1773149853445508000,11.512508056640625,-21.106430053710938,128.6339874267578,-104.56637573242188
1773149853455599000,11.52259912109375,-21.170654296875,128.88082885742188,-104.28663635253906
1773149853465691100,11.532691162109375,-21.160629272460938,128.705810546875,-103.90641784667969
1773149853475780900,11.54278076171875,-21.370712280273438,128.85610961914062,-103.48272705078125
1773149853485872000,11.5528720703125,-21.919525146484375,128.5371856689453,-103.01808166503906
1773149853495964200,11.562964111328125,-21.494171142578125,128.28579711914062,-102.95278930664062
1773149853506056200,11.57305615234375,-22.06231689453125,128.14004516601562,-102.62222290039062
1773149853516148000,11.58314794921875,-22.350753784179688,127.96537780761719,-102.22611999511719
1773149853526239200,11.5932392578125,-22.31982421875,128.0398712158203,-102.02619934082031
1773149853536329000,11.603328857421875,-22.6224365234375,127.96356201171875,-101.64363098144531
1773149853546419200,11.613419189453126,-22.543960571289062,127.89299011230469,-101.27876281738281
1773149853556511200,11.62351123046875,-22.808273315429688,127.94459533691406,-100.76982116699219
1773149853566600200,11.63360009765625,-22.739334106445312,127.77072143554688,-100.14578247070312
1773149853576691200,11.643691162109375,-23.077529907226562,127.67002868652344,-100.13821411132812
1773149853586781000,11.653781005859376,-23.127822875976562,127.65359497070312,-99.88516235351562
1773149853596872200,11.6638720703125,-23.057052612304688,127.35940551757812,-100.07908630371094
1773149853606964200,11.673964111328125,-23.068893432617188,127.21769714355469,-100.20538330078125
1773149853617054000,11.684053955078125,-23.105316162109375,126.51358032226562,-100.41790771484375
1773149853627143200,11.69414306640625,-23.539443969726562,126.19004821777344,-100.90052795410156
1773149853637233000,11.70423291015625,-23.73773193359375,125.5740966796875,-101.33854675292969
1773149853647323100,11.7143232421875,-23.890487670898438,124.94303894042969,-101.76133728027344
1773149853657413000,11.7244130859375,-23.82489013671875,124.35356140136719,-102.29048156738281
1773149853667503000,11.734503173828125,-23.641845703125,123.86585998535156,-102.49024963378906
1773149853677591000,11.744591064453125,-23.70794677734375,123.20758056640625,-102.63584899902344
1773149853687680000,11.754679931640625,-24.169586181640625,122.53152465820312,-102.99411010742188
1773149853697769200,11.764769287109376,-24.648040771484375,122.27685546875,-103.02195739746094
1773149853707858200,11.774858154296876,-24.903289794921875,121.92343139648438,-102.96218872070312
1773149853717948000,11.784947998046874,-24.82293701171875,121.68331909179688,-102.86668395996094
1773149853728037000,11.795037109375,-24.859466552734375,121.54473876953125,-102.78285217285156
1773149853738127000,11.805127197265625,-24.701263427734375,121.83676147460938,-102.81892395019531
1773149853748217000,11.815217041015625,-24.397247314453125,122.0274658203125,-102.77891540527344
1773149853758307000,11.82530712890625,-24.317733764648438,122.57870483398438,-102.72880554199219
1773149853768396000,11.83539599609375,-24.134857177734375,123.1748046875,-103.07017517089844
1773149853778486000,11.845486083984374,-23.635421752929688,123.52598571777344,-102.72587585449219
1773149853788576000,11.855575927734375,-23.654022216796875,124.30216979980469,-102.93580627441406
1773149853798666000,11.865666015625,-23.146270751953125,124.93551635742188,-102.94587707519531
1773149853808755200,11.875755126953125,-22.876846313476562,125.21699523925781,-102.76542663574219
1773149853818843100,11.885843017578125,-22.820144653320312,125.3095703125,-103.12254333496094
1773149853828933000,11.89593310546875,-22.180953979492188,125.72483825683594,-103.47900390625
1773149853839024000,11.906024169921874,-21.8724365234375,126.14402770996094,-103.77554321289062
1773149853849113900,11.91611376953125,-21.633010864257812,126.1798095703125,-104.26747131347656
1773149853859205000,11.926205078125,-21.201248168945312,126.43888854980469,-104.75582885742188
1773149853869295000,11.936295166015626,-21.0233154296875,126.38920593261719,-104.94068908691406
1773149853879385000,11.946385009765624,-21.133544921875,126.59320068359375,-104.98410034179688
1773149853889474000,11.95647412109375,-21.145095825195312,126.70242309570312,-104.86932373046875
1773149853899565000,11.96656494140625,-21.379348754882812,126.58955383300781,-104.4349365234375
1773149853909656000,11.976656005859375,-21.38201904296875,126.46461486816406,-104.17333984375
1773149853919746000,11.98674609375,-21.667266845703125,126.43589782714844,-104.20147705078125
1773149853929836000,11.9968359375,-21.581100463867188,126.34274291992188,-104.48422241210938
1773149853939926300,12.00692626953125,-21.774520874023438,126.49775695800781,-104.56919860839844
1773149853950016000,12.01701611328125,-21.237350463867188,126.90008544921875,-104.65725708007812
1773149853960106200,12.027106201171875,-21.881820678710938,127.14764404296875,-104.95207214355469
1773149853970195000,12.03719482421875,-21.716995239257812,127.53158569335938,-104.95698547363281
1773149853980283100,12.047283203125,-21.636428833007812,127.5106201171875,-104.82389831542969
1773149853990371800,12.057371826171876,-21.429840087890625,127.62782287597656,-105.05036926269531
1773149854000462000,12.067462158203124,-20.478759765625,127.99990844726562,-105.21951293945312
1773149854010551000,12.077551025390624,-20.799224853515625,127.7147216796875,-105.42962646484375
1773149854020641000,12.08764111328125,-20.732452392578125,128.0036163330078,-105.54344177246094
1773149854030730000,12.09772998046875,-20.600509643554688,128.52609252929688,-105.20541381835938
1773149854040821000,12.107821044921875,-20.944351196289062,128.8727569580078,-104.48904418945312
1773149854050913000,12.1179130859375,-21.074203491210938,128.8360137939453,-103.84764099121094
1773149854061003000,12.1280029296875,-21.378021240234375,128.9027099609375,-103.20597839355469
1773149854071094000,12.138093994140625,-21.767181396484375,128.8240966796875,-102.94850158691406
1773149854081183000,12.148182861328126,-21.68939208984375,128.3270721435547,-102.85078430175781
1773149854091272200,12.158272216796876,-21.836257934570312,128.0743865966797,-102.994140625
1773149854101361200,12.168361083984376,-21.804977416992188,127.905517578125,-103.36044311523438
1773149854111449000,12.178448974609376,-22.162506103515625,127.80014038085938,-103.5484619140625
1773149854121537000,12.188537109375,-22.062026977539062,127.75901794433594,-103.8470458984375
1773149854131626200,12.198626220703124,-21.626068115234375,127.66935729980469,-103.74452209472656
1773149854141715000,12.20871484375,-21.587615966796875,127.48329162597656,-103.55435180664062
1773149854151804000,12.218803955078124,-21.438674926757812,127.73785400390625,-103.42247009277344
1773149854161894100,12.22889404296875,-21.533248901367188,127.64398193359375,-103.1651611328125
1773149854171984000,12.23898388671875,-21.580398559570312,127.79339599609375,-102.74357604980469
1773149854182074000,12.24907421875,-21.568801879882812,127.73863220214844,-102.19990539550781
1773149854192163800,12.259163818359376,-21.53778076171875,127.9515380859375,-101.909912109375
1773149854202253000,12.269253173828124,-21.797531127929688,127.60302734375,-102.25967407226562
1773149854212343000,12.279343017578125,-21.930130004882812,127.50410461425781,-102.23406982421875
1773149854222438000,12.28943798828125,-22.076126098632812,127.20118713378906,-102.5513916015625
1773149854232528000,12.29952783203125,-21.702301025390625,127.22737121582031,-102.89242553710938
1773149854242618000,12.3096181640625,-21.90777587890625,127.09475708007812,-103.40669250488281
1773149854252708900,12.319708984375,-21.581863403320312,126.86083984375,-103.78669738769531
1773149854262799000,12.329799072265626,-21.367965698242188,126.93104553222656,-104.21820068359375
1773149854272888000,12.33988818359375,-21.7041015625,126.76344299316406,-104.52360534667969
1773149854282978000,12.34997802734375,-21.420822143554688,126.74246215820312,-104.82588195800781
1773149854293068800,12.36006884765625,-21.332183837890625,126.55229187011719,-104.79354858398438
1773149854303159000,12.370158935546876,-21.2855224609375,126.637939453125,-104.73391723632812
1773149854313251000,12.3802509765625,-21.036026000976562,126.68943786621094,-104.9180908203125
1773149854323340800,12.3903408203125,-21.3802490234375,126.48884582519531,-104.70884704589844
1773149854333431000,12.40043115234375,-21.151779174804688,126.52223205566406,-104.43412780761719
1773149854343520800,12.410520751953126,-21.68719482421875,126.48118591308594,-104.595947265625
1773149854353610000,12.42060986328125,-21.520156860351562,126.25439453125,-104.48843383789062
1773149854363700000,12.430699951171874,-21.613662719726562,126.5123291015625,-104.46879577636719
1773149854373789200,12.4407890625,-21.441238403320312,126.41722106933594,-104.44956970214844
1773149854383879000,12.45087890625,-21.395782470703125,126.436279296875,-104.01255798339844
1773149854393970000,12.460969970703125,-21.965255737304688,126.4940185546875,-104.37178039550781
1773149854404061200,12.471061279296874,-22.01519775390625,126.2703857421875,-103.97525024414062
1773149854414152000,12.48115185546875,-22.27557373046875,126.08457946777344,-103.59793090820312
1773149854424243000,12.491242919921875,-22.6533203125,125.93040466308594,-103.12692260742188
1773149854434334000,12.501333984375,-22.650161743164062,125.92379760742188,-102.64863586425781
1773149854444426000,12.511426025390625,-23.179779052734375,125.56376647949219,-102.14363098144531
1773149854454517000,12.52151708984375,-23.17816162109375,125.88844299316406,-101.81185913085938
1773149854464608000,12.53160791015625,-23.5523681640625,125.947509765625,-101.37379455566406
1773149854474698000,12.541697998046875,-23.800628662109375,125.71305847167969,-101.00311279296875
1773149854484788000,12.5517880859375,-24.027572631835938,125.419677734375,-100.52090454101562
1773149854494878000,12.5618779296875,-23.915374755859375,124.96282958984375,-100.05375671386719
1773149854504967000,12.571966796875,-24.338211059570312,124.79440307617188,-100.18089294433594
1773149854515057200,12.58205712890625,-24.189376831054688,124.66555786132812,-100.333740234375
1773149854525147000,12.59214697265625,-24.555450439453125,124.23638916015625,-100.51167297363281
1773149854535238100,12.602238037109375,-24.7333984375,124.02896118164062,-100.83454895019531
1773149854545327900,12.612327880859375,-24.896942138671875,123.54386901855469,-100.66542053222656
1773149854555417000,12.6224169921875,-24.611114501953125,123.4508056640625,-100.65989685058594
1773149854565507800,12.6325078125,-24.83935546875,123.42619323730469,-100.76435852050781
1773149854575598000,12.64259814453125,-24.647293090820312,123.22502136230469,-100.25634765625
1773149854585686000,12.65268603515625,-24.7884521484375,123.05570983886719,-100.16807556152344
1773149854595775000,12.66277490234375,-24.685775756835938,122.82594299316406,-99.98153686523438
1773149854605866000,12.672865966796875,-24.956878662109375,122.86386108398438,-99.55220031738281
1773149854615958000,12.6829580078125,-24.683731079101562,122.82327270507812,-99.34941101074219
1773149854626049000,12.693049072265625,-24.798370361328125,122.6259765625,-98.84396362304688
1773149854636139000,12.703138916015625,-24.365402221679688,122.58955383300781,-98.75486755371094
1773149854646229000,12.71322900390625,-24.715835571289062,122.59149169921875,-98.13612365722656
1773149854656319000,12.723319091796874,-25.08624267578125,122.50259399414062,-97.98052978515625
1773149854666409000,12.733408935546874,-24.964950561523438,122.46376037597656,-97.7010498046875
1773149854676500000,12.7435,-24.89044189453125,122.63594055175781,-97.61346435546875
1773149854686589000,12.7535888671875,-24.710464477539062,122.35446166992188,-97.06996154785156
1773149854696679000,12.763678955078126,-24.688400268554688,122.44459533691406,-97.00241088867188
1773149854706769000,12.773768798828126,-24.5836181640625,122.26528930664062,-96.6060791015625
1773149854716859000,12.78385888671875,-24.716262817382812,122.19854736328125,-96.24848937988281
1773149854726948900,12.793948974609375,-24.773590087890625,122.27435302734375,-96.16535949707031
1773149854737037000,12.804037109375,-24.779190063476562,121.7564697265625,-95.94906616210938
1773149854747127000,12.814126953125,-24.666046142578125,122.17584228515625,-95.96153259277344
1773149854757216000,12.824216064453125,-24.732376098632812,121.60356140136719,-95.51651000976562
1773149854767306000,12.834305908203126,-24.369308471679688,121.6875,-94.96501159667969
1773149854777395000,12.84439501953125,-24.790557861328125,121.59738159179688,-94.7901611328125
